Channel              :		CH1
Frequency            :		974.9Hz
Period               :		1.026ms
PK-PK                :		216.8mV
Probe attenuation    :		1X
Voltage per ADC value:		0.122070mV
Time interval        :		2.00000us

index		CH1_Voltage(mV)
1		117.187500
2		117.187500
3		113.281250
4		117.187500
5		113.281250
6		117.187500
7		113.281250
8		117.187500
9		113.281250
10		117.187500
11		113.281250
12		115.234375
13		113.281250
14		115.234375
15		111.328125
16		115.234375
17		111.328125
18		115.234375
19		111.328125
20		115.234375
21		111.328125
22		113.281250
23		111.328125
24		113.281250
25		109.375000
26		113.281250
27		109.375000
28		113.281250
29		109.375000
30		111.328125
31		107.421875
32		111.328125
33		107.421875
34		109.375000
35		107.421875
36		109.375000
37		105.468750
38		109.375000
39		105.468750
40		107.421875
41		103.515625
42		107.421875
43		101.562500
44		105.468750
45		101.562500
46		103.515625
47		101.562500
48		103.515625
49		99.609375
50		103.515625
51		97.656250
52		101.562500
53		95.703125
54		99.609375
55		93.750000
56		97.656250
57		93.750000
58		97.656250
59		91.796875
60		95.703125
61		89.843750
62		93.750000
63		89.843750
64		91.796875
65		87.890625
66		91.796875
67		85.937500
68		89.843750
69		83.984375
70		87.890625
71		82.031250
72		87.890625
73		80.078125
74		83.984375
75		78.125000
76		82.031250
77		78.125000
78		82.031250
79		76.171875
80		78.125000
81		72.265625
82		76.171875
83		70.312500
84		76.171875
85		70.312500
86		74.218750
87		68.359375
88		70.312500
89		64.453125
90		68.359375
91		62.500000
92		68.359375
93		60.546875
94		64.453125
95		58.593750
96		62.500000
97		56.640625
98		60.546875
99		52.734375
100		58.593750
101		52.734375
102		56.640625
103		48.828125
104		54.687500
105		46.875000
106		50.781250
107		44.921875
108		48.828125
109		42.968750
110		46.875000
111		41.015625
112		44.921875
113		37.109375
114		41.015625
115		35.156250
116		39.062500
117		33.203125
118		37.109375
119		29.296875
120		35.156250
121		27.343750
122		33.203125
123		25.390625
124		29.296875
125		21.484375
126		27.343750
127		19.531250
128		25.390625
129		17.578125
130		21.484375
131		15.625000
132		19.531250
133		11.718750
134		17.578125
135		9.765625
136		15.625000
137		7.812500
138		11.718750
139		3.906250
140		9.765625
141		3.906250
142		7.812500
143		0.000000
144		5.859375
145		-1.953125
146		3.906250
147		-3.906250
148		0.000000
149		-7.812500
150		-3.906250
151		-9.765625
152		-5.859375
153		-11.718750
154		-7.812500
155		-15.625000
156		-9.765625
157		-17.578125
158		-13.671875
159		-21.484375
160		-15.625000
161		-21.484375
162		-17.578125
163		-25.390625
164		-21.484375
165		-29.296875
166		-23.437500
167		-29.296875
168		-25.390625
169		-31.250000
170		-27.343750
171		-35.156250
172		-29.296875
173		-37.109375
174		-33.203125
175		-39.062500
176		-33.203125
177		-42.968750
178		-37.109375
179		-42.968750
180		-39.062500
181		-44.921875
182		-41.015625
183		-46.875000
184		-42.968750
185		-48.828125
186		-44.921875
187		-52.734375
188		-46.875000
189		-54.687500
190		-50.781250
191		-56.640625
192		-52.734375
193		-56.640625
194		-54.687500
195		-60.546875
196		-54.687500
197		-60.546875
198		-58.593750
199		-64.453125
200		-60.546875
201		-66.406250
202		-60.546875
203		-68.359375
204		-62.500000
205		-68.359375
206		-64.453125
207		-70.312500
208		-66.406250
209		-72.265625
210		-68.359375
211		-74.218750
212		-70.312500
213		-74.218750
214		-72.265625
215		-76.171875
216		-72.265625
217		-78.125000
218		-74.218750
219		-78.125000
220		-76.171875
221		-80.078125
222		-76.171875
223		-82.031250
224		-78.125000
225		-82.031250
226		-78.125000
227		-83.984375
228		-80.078125
229		-83.984375
230		-80.078125
231		-83.984375
232		-82.031250
233		-85.937500
234		-82.031250
235		-85.937500
236		-83.984375
237		-87.890625
238		-83.984375
239		-87.890625
240		-85.937500
241		-87.890625
242		-85.937500
243		-89.843750
244		-85.937500
245		-89.843750
246		-85.937500
247		-89.843750
248		-87.890625
249		-89.843750
250		-87.890625
251		-91.796875
252		-87.890625
253		-91.796875
254		-87.890625
255		-91.796875
256		-87.890625
257		-91.796875
258		-87.890625
259		-91.796875
260		-87.890625
261		-91.796875
262		-87.890625
263		-91.796875
264		-87.890625
265		-89.843750
266		-87.890625
267		-91.796875
268		-87.890625
269		-89.843750
270		-87.890625
271		-89.843750
272		-85.937500
273		-89.843750
274		-85.937500
275		-89.843750
276		-85.937500
277		-89.843750
278		-85.937500
279		-87.890625
280		-83.984375
281		-85.937500
282		-83.984375
283		-87.890625
284		-82.031250
285		-85.937500
286		-82.031250
287		-83.984375
288		-82.031250
289		-83.984375
290		-80.078125
291		-82.031250
292		-80.078125
293		-82.031250
294		-78.125000
295		-80.078125
296		-76.171875
297		-80.078125
298		-76.171875
299		-78.125000
300		-74.218750
301		-78.125000
302		-72.265625
303		-74.218750
304		-72.265625
305		-74.218750
306		-70.312500
307		-72.265625
308		-68.359375
309		-70.312500
310		-66.406250
311		-68.359375
312		-64.453125
313		-68.359375
314		-64.453125
315		-64.453125
316		-62.500000
317		-62.500000
318		-58.593750
319		-62.500000
320		-56.640625
321		-60.546875
322		-56.640625
323		-56.640625
324		-52.734375
325		-56.640625
326		-50.781250
327		-54.687500
328		-50.781250
329		-52.734375
330		-46.875000
331		-48.828125
332		-46.875000
333		-46.875000
334		-42.968750
335		-44.921875
336		-41.015625
337		-44.921875
338		-39.062500
339		-41.015625
340		-37.109375
341		-39.062500
342		-35.156250
343		-37.109375
344		-31.250000
345		-33.203125
346		-29.296875
347		-31.250000
348		-27.343750
349		-29.296875
350		-25.390625
351		-27.343750
352		-23.437500
353		-23.437500
354		-19.531250
355		-21.484375
356		-17.578125
357		-19.531250
358		-15.625000
359		-17.578125
360		-11.718750
361		-15.625000
362		-9.765625
363		-11.718750
364		-7.812500
365		-9.765625
366		-5.859375
367		-7.812500
368		-1.953125
369		-5.859375
370		0.000000
371		-1.953125
372		1.953125
373		0.000000
374		5.859375
375		1.953125
376		7.812500
377		3.906250
378		9.765625
379		7.812500
380		13.671875
381		9.765625
382		13.671875
383		13.671875
384		17.578125
385		15.625000
386		19.531250
387		17.578125
388		21.484375
389		19.531250
390		25.390625
391		23.437500
392		27.343750
393		25.390625
394		31.250000
395		29.296875
396		33.203125
397		29.296875
398		35.156250
399		33.203125
400		37.109375
401		35.156250
402		39.062500
403		37.109375
404		41.015625
405		41.015625
406		44.921875
407		42.968750
408		46.875000
409		44.921875
410		48.828125
411		46.875000
412		52.734375
413		50.781250
414		54.687500
415		50.781250
416		56.640625
417		54.687500
418		58.593750
419		54.687500
420		60.546875
421		58.593750
422		62.500000
423		60.546875
424		64.453125
425		62.500000
426		66.406250
427		64.453125
428		70.312500
429		66.406250
430		70.312500
431		68.359375
432		72.265625
433		72.265625
434		74.218750
435		72.265625
436		76.171875
437		74.218750
438		80.078125
439		76.171875
440		80.078125
441		78.125000
442		82.031250
443		80.078125
444		83.984375
445		82.031250
446		85.937500
447		83.984375
448		87.890625
449		85.937500
450		89.843750
451		85.937500
452		91.796875
453		87.890625
454		91.796875
455		89.843750
456		93.750000
457		91.796875
458		95.703125
459		91.796875
460		95.703125
461		93.750000
462		97.656250
463		95.703125
464		99.609375
465		97.656250
466		99.609375
467		97.656250
468		101.562500
469		99.609375
470		103.515625
471		99.609375
472		103.515625
473		101.562500
474		105.468750
475		103.515625
476		105.468750
477		103.515625
478		107.421875
479		103.515625
480		107.421875
481		105.468750
482		109.375000
483		107.421875
484		109.375000
485		107.421875
486		111.328125
487		107.421875
488		111.328125
489		107.421875
490		113.281250
491		109.375000
492		113.281250
493		109.375000
494		113.281250
495		111.328125
496		113.281250
497		111.328125
498		115.234375
499		111.328125
500		113.281250
501		111.328125
502		115.234375
503		111.328125
504		115.234375
505		111.328125
506		115.234375
507		113.281250
508		115.234375
509		113.281250
510		115.234375
511		113.281250
512		117.187500
513		113.281250
514		117.187500
515		113.281250
516		115.234375
517		113.281250
518		115.234375
519		111.328125
520		115.234375
521		111.328125
522		115.234375
523		113.281250
524		115.234375
525		111.328125
526		115.234375
527		113.281250
528		115.234375
529		111.328125
530		115.234375
531		111.328125
532		115.234375
533		111.328125
534		113.281250
535		109.375000
536		113.281250
537		109.375000
538		115.234375
539		107.421875
540		113.281250
541		109.375000
542		111.328125
543		107.421875
544		111.328125
545		107.421875
546		111.328125
547		105.468750
548		109.375000
549		105.468750
550		109.375000
551		105.468750
552		107.421875
553		101.562500
554		107.421875
555		101.562500
556		107.421875
557		101.562500
558		107.421875
559		101.562500
560		103.515625
561		99.609375
562		103.515625
563		97.656250
564		101.562500
565		97.656250
566		101.562500
567		95.703125
568		99.609375
569		91.796875
570		97.656250
571		91.796875
572		97.656250
573		89.843750
574		97.656250
575		87.890625
576		93.750000
577		87.890625
578		93.750000
579		85.937500
580		89.843750
581		83.984375
582		89.843750
583		83.984375
584		85.937500
585		82.031250
586		85.937500
587		78.125000
588		85.937500
589		76.171875
590		82.031250
591		76.171875
592		82.031250
593		72.265625
594		80.078125
595		72.265625
596		78.125000
597		68.359375
598		74.218750
599		68.359375
600		72.265625
601		66.406250
602		70.312500
603		62.500000
604		68.359375
605		58.593750
606		66.406250
607		58.593750
608		64.453125
609		54.687500
610		62.500000
611		52.734375
612		60.546875
613		52.734375
614		58.593750
615		48.828125
616		56.640625
617		48.828125
618		52.734375
619		44.921875
620		50.781250
621		41.015625
622		48.828125
623		39.062500
624		46.875000
625		37.109375
626		44.921875
627		35.156250
628		42.968750
629		33.203125
630		41.015625
631		31.250000
632		39.062500
633		29.296875
634		33.203125
635		27.343750
636		31.250000
637		21.484375
638		29.296875
639		19.531250
640		27.343750
641		17.578125
642		25.390625
643		15.625000
644		21.484375
645		13.671875
646		19.531250
647		9.765625
648		17.578125
649		7.812500
650		15.625000
651		5.859375
652		9.765625
653		1.953125
654		7.812500
655		0.000000
656		7.812500
657		-1.953125
658		3.906250
659		-5.859375
660		1.953125
661		-7.812500
662		0.000000
663		-11.718750
664		-1.953125
665		-11.718750
666		-5.859375
667		-13.671875
668		-9.765625
669		-15.625000
670		-11.718750
671		-19.531250
672		-13.671875
673		-21.484375
674		-15.625000
675		-25.390625
676		-17.578125
677		-27.343750
678		-19.531250
679		-31.250000
680		-23.437500
681		-31.250000
682		-25.390625
683		-33.203125
684		-27.343750
685		-35.156250
686		-31.250000
687		-39.062500
688		-33.203125
689		-41.015625
690		-35.156250
691		-42.968750
692		-37.109375
693		-44.921875
694		-39.062500
695		-48.828125
696		-41.015625
697		-50.781250
698		-42.968750
699		-50.781250
700		-44.921875
701		-52.734375
702		-48.828125
703		-56.640625
704		-50.781250
705		-58.593750
706		-50.781250
707		-60.546875
708		-52.734375
709		-62.500000
710		-54.687500
711		-64.453125
712		-56.640625
713		-66.406250
714		-58.593750
715		-68.359375
716		-60.546875
717		-68.359375
718		-64.453125
719		-70.312500
720		-66.406250
721		-72.265625
722		-66.406250
723		-74.218750
724		-66.406250
725		-76.171875
726		-68.359375
727		-78.125000
728		-70.312500
729		-78.125000
730		-72.265625
731		-80.078125
732		-72.265625
733		-80.078125
734		-74.218750
735		-80.078125
736		-78.125000
737		-82.031250
738		-78.125000
739		-83.984375
740		-78.125000
741		-85.937500
742		-78.125000
743		-85.937500
744		-80.078125
745		-87.890625
746		-82.031250
747		-87.890625
748		-82.031250
749		-89.843750
750		-82.031250
751		-87.890625
752		-85.937500
753		-87.890625
754		-85.937500
755		-91.796875
756		-85.937500
757		-91.796875
758		-85.937500
759		-91.796875
760		-85.937500
761		-93.750000
762		-85.937500
763		-93.750000
764		-85.937500
765		-93.750000
766		-85.937500
767		-93.750000
768		-87.890625
769		-91.796875
770		-87.890625
771		-93.750000
772		-87.890625
773		-93.750000
774		-87.890625
775		-93.750000
776		-85.937500
777		-93.750000
778		-85.937500
779		-93.750000
780		-85.937500
781		-91.796875
782		-85.937500
783		-91.796875
784		-85.937500
785		-89.843750
786		-87.890625
787		-89.843750
788		-85.937500
789		-91.796875
790		-83.984375
791		-89.843750
792		-83.984375
793		-89.843750
794		-83.984375
795		-89.843750
796		-82.031250
797		-87.890625
798		-82.031250
799		-87.890625
800		-80.078125
801		-83.984375
802		-82.031250
803		-82.031250
804		-80.078125
805		-83.984375
806		-76.171875
807		-83.984375
808		-76.171875
809		-80.078125
810		-74.218750
811		-80.078125
812		-74.218750
813		-78.125000
814		-72.265625
815		-78.125000
816		-70.312500
817		-76.171875
818		-70.312500
819		-72.265625
820		-68.359375
821		-72.265625
822		-66.406250
823		-72.265625
824		-64.453125
825		-70.312500
826		-62.500000
827		-66.406250
828		-60.546875
829		-66.406250
830		-58.593750
831		-64.453125
832		-56.640625
833		-62.500000
834		-54.687500
835		-58.593750
836		-54.687500
837		-56.640625
838		-52.734375
839		-56.640625
840		-48.828125
841		-54.687500
842		-46.875000
843		-52.734375
844		-44.921875
845		-50.781250
846		-42.968750
847		-48.828125
848		-41.015625
849		-44.921875
850		-39.062500
851		-44.921875
852		-37.109375
853		-39.062500
854		-35.156250
855		-37.109375
856		-31.250000
857		-35.156250
858		-29.296875
859		-35.156250
860		-27.343750
861		-31.250000
862		-25.390625
863		-29.296875
864		-21.484375
865		-27.343750
866		-19.531250
867		-23.437500
868		-17.578125
869		-21.484375
870		-15.625000
871		-17.578125
872		-13.671875
873		-15.625000
874		-9.765625
875		-13.671875
876		-7.812500
877		-11.718750
878		-5.859375
879		-9.765625
880		-1.953125
881		-5.859375
882		0.000000
883		-3.906250
884		1.953125
885		0.000000
886		3.906250
887		1.953125
888		5.859375
889		3.906250
890		9.765625
891		3.906250
892		13.671875
893		7.812500
894		13.671875
895		9.765625
896		17.578125
897		13.671875
898		19.531250
899		15.625000
900		23.437500
901		17.578125
902		23.437500
903		21.484375
904		25.390625
905		25.390625
906		29.296875
907		25.390625
908		33.203125
909		27.343750
910		35.156250
911		31.250000
912		39.062500
913		33.203125
914		41.015625
915		35.156250
916		42.968750
917		39.062500
918		44.921875
919		41.015625
920		44.921875
921		44.921875
922		48.828125
923		44.921875
924		52.734375
925		48.828125
926		54.687500
927		48.828125
928		56.640625
929		52.734375
930		58.593750
931		52.734375
932		60.546875
933		56.640625
934		62.500000
935		58.593750
936		64.453125
937		62.500000
938		66.406250
939		64.453125
940		70.312500
941		64.453125
942		72.265625
943		66.406250
944		74.218750
945		68.359375
946		74.218750
947		70.312500
948		78.125000
949		72.265625
950		78.125000
951		74.218750
952		80.078125
953		78.125000
954		80.078125
955		80.078125
956		82.031250
957		80.078125
958		85.937500
959		80.078125
960		87.890625
961		83.984375
962		89.843750
963		83.984375
964		91.796875
965		85.937500
966		91.796875
967		87.890625
968		93.750000
969		89.843750
970		93.750000
971		91.796875
972		95.703125
973		91.796875
974		97.656250
975		93.750000
976		99.609375
977		93.750000
978		101.562500
979		95.703125
980		103.515625
981		95.703125
982		103.515625
983		97.656250
984		105.468750
985		99.609375
986		105.468750
987		101.562500
988		105.468750
989		101.562500
990		107.421875
991		101.562500
992		109.375000
993		103.515625
994		109.375000
995		103.515625
996		109.375000
997		105.468750
998		111.328125
999		105.468750
1000		111.328125
1001		107.421875
1002		113.281250
1003		109.375000
1004		111.328125
1005		109.375000
1006		111.328125
1007		107.421875
1008		115.234375
1009		109.375000
1010		115.234375
1011		109.375000
1012		115.234375
1013		109.375000
1014		115.234375
1015		109.375000
1016		117.187500
1017		109.375000
1018		117.187500
1019		111.328125
1020		115.234375
1021		111.328125
1022		115.234375
1023		111.328125
1024		117.187500
1025		111.328125
1026		117.187500
1027		109.375000
1028		117.187500
1029		111.328125
1030		117.187500
1031		109.375000
1032		117.187500
1033		111.328125
1034		117.187500
1035		111.328125
1036		117.187500
1037		113.281250
1038		115.234375
1039		111.328125
1040		115.234375
1041		109.375000
1042		117.187500
1043		109.375000
1044		115.234375
1045		109.375000
1046		115.234375
1047		107.421875
1048		115.234375
1049		107.421875
1050		115.234375
1051		107.421875
1052		113.281250
1053		107.421875
1054		111.328125
1055		107.421875
1056		111.328125
1057		105.468750
1058		111.328125
1059		105.468750
1060		111.328125
1061		103.515625
1062		109.375000
1063		103.515625
1064		109.375000
1065		101.562500
1066		109.375000
1067		101.562500
1068		107.421875
1069		101.562500
1070		107.421875
1071		101.562500
1072		103.515625
1073		99.609375
1074		103.515625
1075		95.703125
1076		103.515625
1077		95.703125
1078		101.562500
1079		93.750000
1080		101.562500
1081		93.750000
1082		99.609375
1083		91.796875
1084		97.656250
1085		89.843750
1086		97.656250
1087		89.843750
1088		93.750000
1089		87.890625
1090		91.796875
1091		85.937500
1092		91.796875
1093		83.984375
1094		89.843750
1095		82.031250
1096		89.843750
1097		80.078125
1098		87.890625
1099		78.125000
1100		85.937500
1101		76.171875
1102		83.984375
1103		76.171875
1104		82.031250
1105		74.218750
1106		78.125000
1107		70.312500
1108		76.171875
1109		68.359375
1110		76.171875
1111		66.406250
1112		74.218750
1113		64.453125
1114		72.265625
1115		62.500000
1116		70.312500
1117		60.546875
1118		68.359375
1119		58.593750
1120		66.406250
1121		58.593750
1122		62.500000
1123		54.687500
1124		58.593750
1125		52.734375
1126		58.593750
1127		50.781250
1128		56.640625
1129		46.875000
1130		54.687500
1131		44.921875
1132		52.734375
1133		42.968750
1134		50.781250
1135		39.062500
1136		46.875000
1137		39.062500
1138		44.921875
1139		37.109375
1140		41.015625
1141		33.203125
1142		39.062500
1143		31.250000
1144		39.062500
1145		27.343750
1146		35.156250
1147		25.390625
1148		33.203125
1149		23.437500
1150		31.250000
1151		21.484375
1152		29.296875
1153		19.531250
1154		25.390625
1155		17.578125
1156		21.484375
1157		13.671875
1158		19.531250
1159		11.718750
1160		17.578125
1161		7.812500
1162		17.578125
1163		3.906250
1164		13.671875
1165		1.953125
1166		11.718750
1167		0.000000
1168		7.812500
1169		-1.953125
1170		5.859375
1171		-1.953125
1172		1.953125
1173		-5.859375
1174		-1.953125
1175		-9.765625
1176		-3.906250
1177		-11.718750
1178		-3.906250
1179		-15.625000
1180		-5.859375
1181		-17.578125
1182		-9.765625
1183		-19.531250
1184		-11.718750
1185		-21.484375
1186		-13.671875
1187		-23.437500
1188		-17.578125
1189		-25.390625
1190		-21.484375
1191		-27.343750
1192		-23.437500
1193		-31.250000
1194		-23.437500
1195		-33.203125
1196		-25.390625
1197		-37.109375
1198		-29.296875
1199		-39.062500
1200		-31.250000
1201		-41.015625
1202		-33.203125
1203		-42.968750
1204		-35.156250
1205		-42.968750
1206		-39.062500
1207		-44.921875
1208		-42.968750
1209		-48.828125
1210		-42.968750
1211		-52.734375
1212		-44.921875
1213		-54.687500
1214		-46.875000
1215		-56.640625
1216		-48.828125
1217		-58.593750
1218		-50.781250
1219		-60.546875
1220		-52.734375
1221		-60.546875
1222		-56.640625
1223		-62.500000
1224		-58.593750
1225		-66.406250
1226		-60.546875
1227		-68.359375
1228		-60.546875
1229		-70.312500
1230		-62.500000
1231		-70.312500
1232		-64.453125
1233		-72.265625
1234		-66.406250
1235		-74.218750
1236		-66.406250
1237		-74.218750
1238		-68.359375
1239		-74.218750
1240		-72.265625
1241		-78.125000
1242		-74.218750
1243		-80.078125
1244		-72.265625
1245		-82.031250
1246		-74.218750
1247		-82.031250
1248		-76.171875
1249		-83.984375
1250		-76.171875
1251		-85.937500
1252		-78.125000
1253		-85.937500
1254		-78.125000
1255		-83.984375
1256		-82.031250
1257		-85.937500
1258		-83.984375
1259		-89.843750
1260		-82.031250
1261		-89.843750
1262		-82.031250
1263		-89.843750
1264		-83.984375
1265		-91.796875
1266		-83.984375
1267		-91.796875
1268		-85.937500
1269		-91.796875
1270		-85.937500
1271		-91.796875
1272		-85.937500
1273		-91.796875
1274		-87.890625
1275		-91.796875
1276		-87.890625
1277		-93.750000
1278		-87.890625
1279		-93.750000
1280		-87.890625
1281		-93.750000
1282		-87.890625
1283		-93.750000
1284		-87.890625
1285		-93.750000
1286		-87.890625
1287		-95.703125
1288		-87.890625
1289		-91.796875
1290		-89.843750
1291		-91.796875
1292		-89.843750
1293		-93.750000
1294		-87.890625
1295		-93.750000
1296		-87.890625
1297		-93.750000
1298		-85.937500
1299		-93.750000
1300		-85.937500
1301		-91.796875
1302		-85.937500
1303		-91.796875
1304		-83.984375
1305		-89.843750
1306		-85.937500
1307		-89.843750
1308		-85.937500
1309		-89.843750
1310		-83.984375
1311		-87.890625
1312		-82.031250
1313		-87.890625
1314		-80.078125
1315		-87.890625
1316		-80.078125
1317		-85.937500
1318		-78.125000
1319		-83.984375
1320		-78.125000
1321		-83.984375
1322		-76.171875
1323		-80.078125
1324		-78.125000
1325		-80.078125
1326		-76.171875
1327		-80.078125
1328		-72.265625
1329		-78.125000
1330		-70.312500
1331		-76.171875
1332		-70.312500
1333		-74.218750
1334		-68.359375
1335		-74.218750
1336		-66.406250
1337		-72.265625
1338		-64.453125
1339		-68.359375
1340		-64.453125
1341		-66.406250
1342		-62.500000
1343		-66.406250
1344		-60.546875
1345		-64.453125
1346		-58.593750
1347		-64.453125
1348		-56.640625
1349		-60.546875
1350		-54.687500
1351		-60.546875
1352		-52.734375
1353		-56.640625
1354		-48.828125
1355		-54.687500
1356		-48.828125
1357		-50.781250
1358		-46.875000
1359		-48.828125
1360		-42.968750
1361		-48.828125
1362		-41.015625
1363		-46.875000
1364		-39.062500
1365		-44.921875
1366		-37.109375
1367		-41.015625
1368		-35.156250
1369		-41.015625
1370		-31.250000
1371		-37.109375
1372		-31.250000
1373		-33.203125
1374		-29.296875
1375		-31.250000
1376		-25.390625
1377		-29.296875
1378		-23.437500
1379		-27.343750
1380		-19.531250
1381		-25.390625
1382		-17.578125
1383		-23.437500
1384		-15.625000
1385		-21.484375
1386		-13.671875
1387		-17.578125
1388		-9.765625
1389		-15.625000
1390		-9.765625
1391		-11.718750
1392		-7.812500
1393		-9.765625
1394		-1.953125
1395		-7.812500
1396		0.000000
1397		-5.859375
1398		1.953125
1399		-1.953125
1400		3.906250
1401		-1.953125
1402		7.812500
1403		1.953125
1404		9.765625
1405		3.906250
1406		11.718750
1407		9.765625
1408		13.671875
1409		11.718750
1410		17.578125
1411		11.718750
1412		19.531250
1413		13.671875
1414		23.437500
1415		17.578125
1416		25.390625
1417		19.531250
1418		27.343750
1419		21.484375
1420		29.296875
1421		25.390625
1422		33.203125
1423		27.343750
1424		33.203125
1425		31.250000
1426		35.156250
1427		33.203125
1428		39.062500
1429		35.156250
1430		42.968750
1431		37.109375
1432		44.921875
1433		39.062500
1434		46.875000
1435		42.968750
1436		48.828125
1437		42.968750
1438		50.781250
1439		46.875000
1440		52.734375
1441		50.781250
1442		54.687500
1443		52.734375
1444		58.593750
1445		52.734375
1446		60.546875
1447		56.640625
1448		62.500000
1449		56.640625
1450		64.453125
1451		58.593750
1452		66.406250
1453		60.546875
1454		68.359375
1455		64.453125
1456		70.312500
1457		68.359375
1458		72.265625
1459		70.312500
1460		72.265625
1461		70.312500
1462		76.171875
1463		72.265625
1464		78.125000
1465		72.265625
1466		80.078125
1467		74.218750
1468		82.031250
1469		76.171875
1470		83.984375
1471		78.125000
1472		85.937500
1473		80.078125
1474		85.937500
1475		83.984375
1476		87.890625
1477		83.984375
1478		89.843750
1479		85.937500
1480		91.796875
1481		85.937500
1482		93.750000
1483		87.890625
1484		95.703125
1485		89.843750
1486		95.703125
1487		91.796875
1488		97.656250
1489		91.796875
1490		99.609375
1491		95.703125
1492		99.609375
1493		95.703125
1494		99.609375
1495		95.703125
1496		103.515625
1497		97.656250
1498		103.515625
1499		99.609375
1500		105.468750
1501		99.609375
1502		107.421875
1503		101.562500
1504		107.421875
1505		101.562500
1506		107.421875
1507		105.468750
1508		107.421875
1509		105.468750
1510		107.421875
1511		105.468750
1512		111.328125
1513		105.468750
1514		111.328125
1515		105.468750
1516		111.328125
1517		105.468750
1518		113.281250
1519		107.421875
1520		113.281250
1521		107.421875
1522		115.234375
1523		109.375000
1524		115.234375
1525		111.328125
1526		113.281250
1527		109.375000
1528		115.234375
1529		109.375000
1530		115.234375
1531		109.375000
1532		115.234375
1533		109.375000
1534		117.187500
1535		109.375000
1536		117.187500
1537		109.375000
1538		117.187500
1539		109.375000
1540		117.187500
1541		113.281250
1542		115.234375
1543		113.281250
1544		115.234375
1545		109.375000
1546		117.187500
1547		109.375000
1548		117.187500
1549		109.375000
1550		117.187500
1551		109.375000
1552		115.234375
1553		109.375000
1554		115.234375
1555		109.375000
1556		115.234375
1557		109.375000
1558		115.234375
1559		111.328125
1560		113.281250
1561		107.421875
1562		113.281250
1563		107.421875
1564		113.281250
1565		105.468750
1566		113.281250
1567		107.421875
1568		111.328125
1569		105.468750
1570		111.328125
1571		105.468750
1572		111.328125
1573		103.515625
1574		109.375000
1575		103.515625
1576		107.421875
1577		103.515625
1578		107.421875
1579		101.562500
1580		107.421875
1581		99.609375
1582		107.421875
1583		99.609375
1584		105.468750
1585		97.656250
1586		105.468750
1587		95.703125
1588		103.515625
1589		95.703125
1590		101.562500
1591		95.703125
1592		99.609375
1593		93.750000
1594		97.656250
1595		91.796875
1596		97.656250
1597		89.843750
1598		97.656250
1599		87.890625
1600		95.703125
1601		87.890625
1602		93.750000
1603		85.937500
1604		91.796875
1605		83.984375
1606		91.796875
1607		83.984375
1608		89.843750
1609		82.031250
1610		85.937500
1611		80.078125
1612		83.984375
1613		76.171875
1614		83.984375
1615		74.218750
1616		82.031250
1617		74.218750
1618		80.078125
1619		70.312500
1620		80.078125
1621		70.312500
1622		76.171875
1623		68.359375
1624		74.218750
1625		68.359375
1626		70.312500
1627		64.453125
1628		68.359375
1629		62.500000
1630		68.359375
1631		58.593750
1632		66.406250
1633		56.640625
1634		64.453125
1635		54.687500
1636		62.500000
1637		52.734375
1638		60.546875
1639		50.781250
1640		58.593750
1641		48.828125
1642		56.640625
1643		46.875000
1644		50.781250
1645		42.968750
1646		48.828125
1647		42.968750
1648		48.828125
1649		39.062500
1650		46.875000
1651		37.109375
1652		44.921875
1653		33.203125
1654		41.015625
1655		31.250000
1656		39.062500
1657		29.296875
1658		37.109375
1659		29.296875
1660		33.203125
1661		25.390625
1662		29.296875
1663		21.484375
1664		29.296875
1665		19.531250
1666		27.343750
1667		17.578125
1668		25.390625
1669		15.625000
1670		21.484375
1671		11.718750
1672		19.531250
1673		9.765625
1674		15.625000
1675		7.812500
1676		13.671875
1677		5.859375
1678		9.765625
1679		0.000000
1680		7.812500
1681		-1.953125
1682		5.859375
1683		-1.953125
1684		3.906250
1685		-5.859375
1686		1.953125
1687		-7.812500
1688		-1.953125
1689		-11.718750
1690		-3.906250
1691		-13.671875
1692		-5.859375
1693		-13.671875
1694		-9.765625
1695		-17.578125
1696		-13.671875
1697		-21.484375
1698		-13.671875
1699		-23.437500
1700		-15.625000
1701		-25.390625
1702		-17.578125
1703		-29.296875
1704		-21.484375
1705		-29.296875
1706		-23.437500
1707		-33.203125
1708		-25.390625
1709		-33.203125
1710		-29.296875
1711		-35.156250
1712		-31.250000
1713		-39.062500
1714		-35.156250
1715		-41.015625
1716		-35.156250
1717		-44.921875
1718		-37.109375
1719		-44.921875
1720		-41.015625
1721		-48.828125
1722		-42.968750
1723		-50.781250
1724		-44.921875
1725		-50.781250
1726		-46.875000
1727		-54.687500
1728		-48.828125
1729		-58.593750
1730		-50.781250
1731		-58.593750
1732		-52.734375
1733		-60.546875
1734		-54.687500
1735		-64.453125
1736		-56.640625
1737		-66.406250
1738		-56.640625
1739		-68.359375
1740		-60.546875
1741		-66.406250
1742		-62.500000
1743		-68.359375
1744		-64.453125
1745		-70.312500
1746		-66.406250
1747		-74.218750
1748		-66.406250
1749		-74.218750
1750		-68.359375
1751		-76.171875
1752		-70.312500
1753		-78.125000
1754		-70.312500
1755		-80.078125
1756		-72.265625
1757		-82.031250
1758		-74.218750
1759		-80.078125
1760		-76.171875
1761		-82.031250
1762		-78.125000
1763		-83.984375
1764		-78.125000
1765		-85.937500
1766		-78.125000
1767		-85.937500
1768		-80.078125
1769		-87.890625
1770		-80.078125
1771		-87.890625
1772		-82.031250
1773		-89.843750
1774		-82.031250
1775		-89.843750
1776		-83.984375
1777		-87.890625
1778		-85.937500
1779		-89.843750
1780		-85.937500
1781		-91.796875
1782		-85.937500
1783		-91.796875
1784		-85.937500
1785		-91.796875
1786		-85.937500
1787		-93.750000
1788		-85.937500
1789		-93.750000
1790		-87.890625
1791		-93.750000
1792		-87.890625
1793		-91.796875
1794		-89.843750
1795		-91.796875
1796		-89.843750
1797		-93.750000
1798		-87.890625
1799		-93.750000
1800		-87.890625
1801		-93.750000
1802		-87.890625
1803		-93.750000
1804		-87.890625
1805		-93.750000
1806		-87.890625
1807		-93.750000
1808		-87.890625
1809		-91.796875
1810		-87.890625
1811		-91.796875
1812		-87.890625
1813		-91.796875
1814		-85.937500
1815		-91.796875
1816		-85.937500
1817		-91.796875
1818		-83.984375
1819		-89.843750
1820		-83.984375
1821		-89.843750
1822		-83.984375
1823		-89.843750
1824		-82.031250
1825		-89.843750
1826		-82.031250
1827		-85.937500
1828		-82.031250
1829		-83.984375
1830		-82.031250
1831		-85.937500
1832		-78.125000
1833		-83.984375
1834		-78.125000
1835		-83.984375
1836		-76.171875
1837		-82.031250
1838		-76.171875
1839		-82.031250
1840		-74.218750
1841		-78.125000
1842		-72.265625
1843		-78.125000
1844		-72.265625
1845		-74.218750
1846		-70.312500
1847		-74.218750
1848		-68.359375
1849		-72.265625
1850		-66.406250
1851		-72.265625
1852		-64.453125
1853		-68.359375
1854		-62.500000
1855		-68.359375
1856		-60.546875
1857		-66.406250
1858		-58.593750
1859		-64.453125
1860		-58.593750
1861		-60.546875
1862		-56.640625
1863		-58.593750
1864		-54.687500
1865		-58.593750
1866		-50.781250
1867		-54.687500
1868		-48.828125
1869		-54.687500
1870		-46.875000
1871		-52.734375
1872		-44.921875
1873		-50.781250
1874		-42.968750
1875		-48.828125
1876		-41.015625
1877		-44.921875
1878		-39.062500
1879		-41.015625
1880		-37.109375
1881		-41.015625
1882		-33.203125
1883		-39.062500
1884		-31.250000
1885		-35.156250
1886		-29.296875
1887		-35.156250
1888		-27.343750
1889		-31.250000
1890		-23.437500
1891		-29.296875
1892		-21.484375
1893		-27.343750
1894		-21.484375
1895		-21.484375
1896		-17.578125
1897		-19.531250
1898		-13.671875
1899		-19.531250
1900		-11.718750
1901		-17.578125
1902		-9.765625
1903		-13.671875
1904		-5.859375
1905		-11.718750
1906		-3.906250
1907		-9.765625
1908		-1.953125
1909		-7.812500
1910		0.000000
1911		-1.953125
1912		1.953125
1913		0.000000
1914		3.906250
1915		1.953125
1916		7.812500
1917		3.906250
1918		11.718750
1919		5.859375
1920		13.671875
1921		9.765625
1922		15.625000
1923		9.765625
1924		19.531250
1925		15.625000
1926		21.484375
1927		15.625000
1928		21.484375
1929		21.484375
1930		25.390625
1931		21.484375
1932		29.296875
1933		23.437500
1934		31.250000
1935		25.390625
1936		35.156250
1937		27.343750
1938		37.109375
1939		31.250000
1940		39.062500
1941		33.203125
1942		41.015625
1943		37.109375
1944		42.968750
1945		41.015625
1946		42.968750
1947		42.968750
1948		46.875000
1949		42.968750
1950		50.781250
1951		44.921875
1952		52.734375
1953		46.875000
1954		54.687500
1955		48.828125
1956		56.640625
1957		52.734375
1958		58.593750
1959		54.687500
1960		62.500000
1961		58.593750
1962		62.500000
1963		60.546875
1964		64.453125
1965		60.546875
1966		68.359375
1967		62.500000
1968		70.312500
1969		66.406250
1970		72.265625
1971		66.406250
1972		74.218750
1973		68.359375
1974		76.171875
1975		70.312500
1976		78.125000
1977		72.265625
1978		78.125000
1979		76.171875
1980		80.078125
1981		78.125000
1982		83.984375
1983		78.125000
1984		83.984375
1985		80.078125
1986		85.937500
1987		80.078125
1988		87.890625
1989		82.031250
1990		89.843750
1991		83.984375
1992		91.796875
1993		85.937500
1994		93.750000
1995		89.843750
1996		91.796875
1997		91.796875
1998		93.750000
1999		89.843750
2000		97.656250
2001		91.796875
2002		99.609375
2003		91.796875
2004		101.562500
2005		93.750000
2006		101.562500
2007		95.703125
2008		101.562500
2009		95.703125
2010		103.515625
2011		99.609375
2012		103.515625
2013		101.562500
2014		103.515625
2015		101.562500
2016		107.421875
2017		101.562500
2018		107.421875
2019		101.562500
2020		109.375000
2021		103.515625
2022		109.375000
2023		103.515625
2024		111.328125
2025		103.515625
2026		111.328125
2027		105.468750
2028		111.328125
2029		107.421875
2030		111.328125
2031		109.375000
2032		111.328125
2033		107.421875
2034		113.281250
2035		107.421875
2036		115.234375
2037		109.375000
2038		115.234375
2039		107.421875
2040		115.234375
2041		109.375000
2042		115.234375
2043		109.375000
2044		115.234375
2045		111.328125
2046		115.234375
2047		111.328125
2048		115.234375
2049		109.375000
2050		117.187500
2051		109.375000
2052		117.187500
2053		109.375000
2054		117.187500
2055		109.375000
2056		117.187500
2057		109.375000
2058		117.187500
2059		111.328125
2060		117.187500
2061		111.328125
2062		115.234375
2063		111.328125
2064		115.234375
2065		111.328125
2066		115.234375
2067		109.375000
2068		117.187500
2069		109.375000
2070		115.234375
2071		109.375000
2072		115.234375
2073		107.421875
2074		115.234375
2075		107.421875
2076		115.234375
2077		107.421875
2078		113.281250
2079		109.375000
2080		111.328125
2081		107.421875
2082		111.328125
2083		105.468750
2084		111.328125
2085		103.515625
2086		111.328125
2087		103.515625
2088		109.375000
2089		103.515625
2090		109.375000
2091		101.562500
2092		109.375000
2093		101.562500
2094		107.421875
2095		101.562500
2096		107.421875
2097		101.562500
2098		103.515625
2099		97.656250
2100		103.515625
2101		95.703125
2102		103.515625
2103		95.703125
2104		101.562500
2105		93.750000
2106		101.562500
2107		91.796875
2108		99.609375
2109		91.796875
2110		97.656250
2111		89.843750
2112		97.656250
2113		89.843750
2114		93.750000
2115		87.890625
2116		91.796875
2117		83.984375
2118		91.796875
2119		83.984375
2120		89.843750
2121		82.031250
2122		89.843750
2123		80.078125
2124		87.890625
2125		78.125000
2126		85.937500
2127		76.171875
2128		83.984375
2129		76.171875
2130		80.078125
2131		74.218750
2132		78.125000
2133		70.312500
2134		78.125000
2135		68.359375
2136		76.171875
2137		66.406250
2138		74.218750
2139		66.406250
2140		72.265625
2141		62.500000
2142		70.312500
2143		62.500000
2144		68.359375
2145		60.546875
2146		66.406250
2147		58.593750
2148		62.500000
2149		56.640625
2150		60.546875
2151		50.781250
2152		60.546875
2153		50.781250
2154		56.640625
2155		48.828125
2156		54.687500
2157		44.921875
2158		52.734375
2159		42.968750
2160		50.781250
2161		41.015625
2162		48.828125
2163		41.015625
2164		44.921875
2165		37.109375
2166		41.015625
2167		33.203125
2168		39.062500
2169		31.250000
2170		39.062500
2171		27.343750
2172		37.109375
2173		25.390625
2174		33.203125
2175		23.437500
2176		31.250000
2177		21.484375
2178		29.296875
2179		19.531250
2180		27.343750
2181		17.578125
2182		21.484375
2183		13.671875
2184		19.531250
2185		11.718750
2186		19.531250
2187		9.765625
2188		15.625000
2189		5.859375
2190		13.671875
2191		3.906250
2192		11.718750
2193		0.000000
2194		9.765625
2195		0.000000
2196		5.859375
2197		-1.953125
2198		1.953125
2199		-3.906250
2200		-1.953125
2201		-9.765625
2202		-1.953125
2203		-11.718750
2204		-3.906250
2205		-13.671875
2206		-5.859375
2207		-17.578125
2208		-9.765625
2209		-19.531250
2210		-11.718750
2211		-21.484375
2212		-13.671875
2213		-21.484375
2214		-17.578125
2215		-25.390625
2216		-21.484375
2217		-29.296875
2218		-23.437500
2219		-31.250000
2220		-23.437500
2221		-33.203125
2222		-25.390625
2223		-35.156250
2224		-29.296875
2225		-39.062500
2226		-31.250000
2227		-41.015625
2228		-33.203125
2229		-41.015625
2230		-35.156250
2231		-42.968750
2232		-39.062500
2233		-46.875000
2234		-41.015625
2235		-50.781250
2236		-41.015625
2237		-52.734375
2238		-44.921875
2239		-54.687500
2240		-46.875000
2241		-56.640625
2242		-48.828125
2243		-58.593750
2244		-50.781250
2245		-58.593750
2246		-52.734375
2247		-60.546875
2248		-56.640625
2249		-60.546875
2250		-56.640625
2251		-66.406250
2252		-58.593750
2253		-68.359375
2254		-60.546875
2255		-68.359375
2256		-62.500000
2257		-70.312500
2258		-64.453125
2259		-72.265625
2260		-64.453125
2261		-74.218750
2262		-66.406250
2263		-74.218750
2264		-68.359375
2265		-74.218750
2266		-72.265625
2267		-76.171875
2268		-72.265625
2269		-80.078125
2270		-72.265625
2271		-80.078125
2272		-74.218750
2273		-82.031250
2274		-74.218750
2275		-83.984375
2276		-76.171875
2277		-83.984375
2278		-78.125000
2279		-85.937500
2280		-78.125000
2281		-83.984375
2282		-82.031250
2283		-85.937500
2284		-82.031250
2285		-89.843750
2286		-82.031250
2287		-89.843750
2288		-82.031250
2289		-89.843750
2290		-83.984375
2291		-91.796875
2292		-83.984375
2293		-91.796875
2294		-83.984375
2295		-91.796875
2296		-85.937500
2297		-91.796875
2298		-87.890625
2299		-91.796875
2300		-89.843750
2301		-93.750000
2302		-87.890625
2303		-93.750000
2304		-87.890625
2305		-93.750000
2306		-87.890625
2307		-95.703125
2308		-87.890625
2309		-95.703125
2310		-87.890625
2311		-95.703125
2312		-87.890625
2313		-93.750000
2314		-87.890625
2315		-91.796875
2316		-89.843750
2317		-93.750000
2318		-87.890625
2319		-93.750000
2320		-87.890625
2321		-93.750000
2322		-87.890625
2323		-93.750000
2324		-85.937500
2325		-93.750000
2326		-85.937500
2327		-91.796875
2328		-85.937500
2329		-91.796875
2330		-85.937500
2331		-89.843750
2332		-85.937500
2333		-87.890625
2334		-85.937500
2335		-89.843750
2336		-83.984375
2337		-89.843750
2338		-82.031250
2339		-87.890625
2340		-82.031250
2341		-87.890625
2342		-80.078125
2343		-85.937500
2344		-80.078125
2345		-85.937500
2346		-78.125000
2347		-83.984375
2348		-78.125000
2349		-80.078125
2350		-78.125000
2351		-80.078125
2352		-74.218750
2353		-80.078125
2354		-72.265625
2355		-80.078125
2356		-72.265625
2357		-76.171875
2358		-70.312500
2359		-76.171875
2360		-68.359375
2361		-74.218750
2362		-66.406250
2363		-72.265625
2364		-66.406250
2365		-68.359375
2366		-66.406250
2367		-66.406250
2368		-64.453125
2369		-68.359375
2370		-60.546875
2371		-66.406250
2372		-58.593750
2373		-64.453125
2374		-56.640625
2375		-62.500000
2376		-54.687500
2377		-60.546875
2378		-52.734375
2379		-58.593750
2380		-50.781250
2381		-54.687500
2382		-50.781250
2383		-52.734375
2384		-48.828125
2385		-50.781250
2386		-44.921875
2387		-48.828125
2388		-42.968750
2389		-46.875000
2390		-39.062500
2391		-44.921875
2392		-37.109375
2393		-42.968750
2394		-35.156250
2395		-41.015625
2396		-33.203125
2397		-37.109375
2398		-31.250000
2399		-35.156250
2400		-29.296875
2401		-31.250000
2402		-27.343750
2403		-31.250000
2404		-23.437500
2405		-29.296875
2406		-21.484375
2407		-25.390625
2408		-17.578125
2409		-23.437500
2410		-15.625000
2411		-21.484375
2412		-13.671875
2413		-19.531250
2414		-11.718750
2415		-13.671875
2416		-9.765625
2417		-11.718750
2418		-7.812500
2419		-9.765625
2420		-3.906250
2421		-9.765625
2422		0.000000
2423		-5.859375
2424		1.953125
2425		-3.906250
2426		3.906250
2427		0.000000
2428		5.859375
2429		1.953125
2430		9.765625
2431		3.906250
2432		9.765625
2433		7.812500
2434		11.718750
2435		11.718750
2436		15.625000
2437		11.718750
2438		19.531250
2439		13.671875
2440		21.484375
2441		17.578125
2442		25.390625
2443		19.531250
2444		27.343750
2445		21.484375
2446		29.296875
2447		25.390625
2448		31.250000
2449		29.296875
2450		33.203125
2451		31.250000
2452		35.156250
2453		31.250000
2454		39.062500
2455		33.203125
2456		42.968750
2457		35.156250
2458		44.921875
2459		39.062500
2460		46.875000
2461		41.015625
2462		48.828125
2463		42.968750
2464		50.781250
2465		46.875000
2466		50.781250
2467		48.828125
2468		52.734375
2469		50.781250
2470		58.593750
2471		52.734375
2472		60.546875
2473		54.687500
2474		62.500000
2475		56.640625
2476		64.453125
2477		60.546875
2478		66.406250
2479		60.546875
2480		68.359375
2481		62.500000
2482		68.359375
2483		66.406250
2484		70.312500
2485		68.359375
2486		74.218750
2487		68.359375
2488		76.171875
2489		70.312500
2490		78.125000
2491		72.265625
2492		80.078125
2493		74.218750
2494		82.031250
2495		76.171875
2496		83.984375
2497		78.125000
2498		83.984375
2499		82.031250
2500		85.937500
2501		83.984375
2502		85.937500
2503		83.984375
2504		89.843750
2505		83.984375
2506		91.796875
2507		85.937500
2508		93.750000
2509		87.890625
2510		95.703125
2511		89.843750
2512		95.703125
2513		89.843750
2514		97.656250
2515		93.750000
2516		97.656250
2517		95.703125
2518		99.609375
2519		95.703125
2520		101.562500
2521		95.703125
2522		103.515625
2523		97.656250
2524		105.468750
2525		97.656250
2526		105.468750
2527		99.609375
2528		107.421875
2529		99.609375
2530		107.421875
2531		101.562500
2532		107.421875
2533		103.515625
2534		107.421875
2535		105.468750
2536		107.421875
2537		105.468750
2538		111.328125
2539		105.468750
2540		111.328125
2541		105.468750
2542		113.281250
2543		105.468750
2544		113.281250
2545		107.421875
2546		113.281250
2547		107.421875
2548		115.234375
2549		109.375000
2550		113.281250
2551		111.328125
2552		113.281250
2553		109.375000
2554		115.234375
2555		109.375000
2556		115.234375
2557		109.375000
2558		117.187500
2559		109.375000
2560		117.187500
2561		111.328125
2562		117.187500
2563		111.328125
2564		117.187500
2565		111.328125
2566		117.187500
2567		113.281250
2568		115.234375
2569		111.328125
2570		115.234375
2571		111.328125
2572		117.187500
2573		109.375000
2574		117.187500
2575		111.328125
2576		117.187500
2577		109.375000
2578		117.187500
2579		109.375000
2580		115.234375
2581		109.375000
2582		117.187500
2583		111.328125
2584		113.281250
2585		109.375000
2586		113.281250
2587		107.421875
2588		115.234375
2589		107.421875
2590		113.281250
2591		107.421875
2592		113.281250
2593		107.421875
2594		113.281250
2595		105.468750
2596		111.328125
2597		105.468750
2598		111.328125
2599		105.468750
2600		111.328125
2601		105.468750
2602		107.421875
2603		101.562500
2604		109.375000
2605		101.562500
2606		107.421875
2607		99.609375
2608		107.421875
2609		99.609375
2610		107.421875
2611		99.609375
2612		105.468750
2613		97.656250
2614		103.515625
2615		95.703125
2616		103.515625
2617		95.703125
2618		99.609375
2619		95.703125
2620		99.609375
2621		91.796875
2622		99.609375
2623		89.843750
2624		97.656250
2625		89.843750
2626		95.703125
2627		87.890625
2628		95.703125
2629		85.937500
2630		93.750000
2631		83.984375
2632		91.796875
2633		85.937500
2634		89.843750
2635		83.984375
2636		85.937500
2637		80.078125
2638		85.937500
2639		78.125000
2640		85.937500
2641		76.171875
2642		83.984375
2643		76.171875
2644		80.078125
2645		72.265625
2646		80.078125
2647		70.312500
2648		78.125000
2649		70.312500
2650		76.171875
2651		68.359375
2652		72.265625
2653		66.406250
2654		70.312500
2655		62.500000
2656		68.359375
2657		60.546875
2658		66.406250
2659		56.640625
2660		66.406250
2661		56.640625
2662		62.500000
2663		52.734375
2664		60.546875
2665		50.781250
2666		58.593750
2667		50.781250
2668		54.687500
2669		48.828125
2670		52.734375
2671		44.921875
2672		50.781250
2673		42.968750
2674		48.828125
2675		39.062500
2676		46.875000
2677		37.109375
2678		44.921875
2679		35.156250
2680		42.968750
2681		33.203125
2682		41.015625
2683		31.250000
2684		37.109375
2685		29.296875
2686		33.203125
2687		25.390625
2688		31.250000
2689		21.484375
2690		29.296875
2691		21.484375
2692		27.343750
2693		17.578125
2694		25.390625
2695		15.625000
2696		23.437500
2697		13.671875
2698		19.531250
2699		9.765625
2700		17.578125
2701		9.765625
2702		13.671875
2703		5.859375
2704		9.765625
2705		3.906250
2706		7.812500
2707		0.000000
2708		7.812500
2709		-1.953125
2710		3.906250
2711		-5.859375
2712		1.953125
2713		-7.812500
2714		0.000000
2715		-11.718750
2716		-3.906250
2717		-11.718750
2718		-5.859375
2719		-13.671875
2720		-9.765625
2721		-17.578125
2722		-11.718750
2723		-21.484375
2724		-11.718750
2725		-23.437500
2726		-15.625000
2727		-25.390625
2728		-17.578125
2729		-27.343750
2730		-19.531250
2731		-29.296875
2732		-23.437500
2733		-31.250000
2734		-25.390625
2735		-33.203125
2736		-29.296875
2737		-35.156250
2738		-31.250000
2739		-39.062500
2740		-31.250000
2741		-41.015625
2742		-35.156250
2743		-44.921875
2744		-37.109375
2745		-44.921875
2746		-39.062500
2747		-48.828125
2748		-41.015625
2749		-50.781250
2750		-42.968750
2751		-50.781250
2752		-46.875000
2753		-52.734375
2754		-48.828125
2755		-58.593750
2756		-50.781250
2757		-58.593750
2758		-50.781250
2759		-60.546875
2760		-52.734375
2761		-62.500000
2762		-54.687500
2763		-64.453125
2764		-56.640625
2765		-66.406250
2766		-58.593750
2767		-66.406250
2768		-60.546875
2769		-68.359375
2770		-64.453125
2771		-70.312500
2772		-66.406250
2773		-72.265625
2774		-66.406250
2775		-74.218750
2776		-66.406250
2777		-76.171875
2778		-68.359375
2779		-78.125000
2780		-70.312500
2781		-78.125000
2782		-72.265625
2783		-80.078125
2784		-72.265625
2785		-80.078125
2786		-76.171875
2787		-80.078125
2788		-78.125000
2789		-83.984375
2790		-78.125000
2791		-85.937500
2792		-78.125000
2793		-85.937500
2794		-80.078125
2795		-87.890625
2796		-80.078125
2797		-89.843750
2798		-82.031250
2799		-87.890625
2800		-82.031250
2801		-87.890625
2802		-83.984375
2803		-87.890625
2804		-85.937500
2805		-91.796875
2806		-85.937500
2807		-91.796875
2808		-85.937500
2809		-91.796875
2810		-85.937500
2811		-93.750000
2812		-85.937500
2813		-91.796875
2814		-85.937500
2815		-93.750000
2816		-87.890625
2817		-93.750000
2818		-87.890625
2819		-91.796875
2820		-89.843750
2821		-91.796875
2822		-89.843750
2823		-93.750000
2824		-87.890625
2825		-93.750000
2826		-87.890625
2827		-93.750000
2828		-87.890625
2829		-93.750000
2830		-87.890625
2831		-93.750000
2832		-87.890625
2833		-93.750000
2834		-87.890625
2835		-91.796875
2836		-89.843750
2837		-91.796875
2838		-87.890625
2839		-91.796875
2840		-85.937500
2841		-91.796875
2842		-85.937500
2843		-91.796875
2844		-85.937500
2845		-89.843750
2846		-83.984375
2847		-89.843750
2848		-83.984375
2849		-89.843750
2850		-82.031250
2851		-87.890625
2852		-82.031250
2853		-85.937500
2854		-82.031250
2855		-83.984375
2856		-80.078125
2857		-85.937500
2858		-78.125000
2859		-83.984375
2860		-78.125000
2861		-83.984375
2862		-76.171875
2863		-82.031250
2864		-74.218750
2865		-82.031250
2866		-74.218750
2867		-78.125000
2868		-72.265625
2869		-76.171875
2870		-72.265625
2871		-74.218750
2872		-72.265625
2873		-74.218750
2874		-68.359375
2875		-74.218750
2876		-66.406250
2877		-72.265625
2878		-64.453125
2879		-70.312500
2880		-62.500000
2881		-68.359375
2882		-60.546875
2883		-66.406250
2884		-58.593750
2885		-62.500000
2886		-58.593750
2887		-60.546875
2888		-56.640625
2889		-58.593750
2890		-54.687500
2891		-58.593750
2892		-50.781250
2893		-56.640625
2894		-50.781250
2895		-54.687500
2896		-46.875000
2897		-52.734375
2898		-44.921875
2899		-48.828125
2900		-42.968750
2901		-48.828125
2902		-41.015625
2903		-44.921875
2904		-41.015625
2905		-41.015625
2906		-39.062500
2907		-41.015625
2908		-33.203125
2909		-39.062500
2910		-31.250000
2911		-37.109375
2912		-29.296875
2913		-35.156250
2914		-27.343750
2915		-33.203125
2916		-25.390625
2917		-29.296875
2918		-21.484375
2919		-25.390625
2920		-21.484375
2921		-23.437500
2922		-19.531250
2923		-21.484375
2924		-15.625000
2925		-19.531250
2926		-11.718750
2927		-17.578125
2928		-9.765625
2929		-15.625000
2930		-5.859375
2931		-11.718750
2932		-3.906250
2933		-11.718750
2934		-1.953125
2935		-7.812500
2936		-1.953125
2937		-1.953125
2938		1.953125
2939		0.000000
2940		3.906250
2941		0.000000
2942		7.812500
2943		3.906250
2944		9.765625
2945		5.859375
2946		13.671875
2947		7.812500
2948		15.625000
2949		11.718750
2950		17.578125
2951		13.671875
2952		21.484375
2953		17.578125
2954		21.484375
2955		19.531250
2956		23.437500
2957		21.484375
2958		29.296875
2959		23.437500
2960		31.250000
2961		25.390625
2962		33.203125
2963		27.343750
2964		35.156250
2965		31.250000
2966		37.109375
2967		33.203125
2968		41.015625
2969		35.156250
2970		41.015625
2971		39.062500
2972		42.968750
2973		41.015625
2974		46.875000
2975		42.968750
2976		50.781250
2977		44.921875
2978		52.734375
2979		46.875000
2980		54.687500
2981		48.828125
2982		56.640625
2983		52.734375
2984		60.546875
2985		52.734375
2986		60.546875
2987		58.593750
2988		60.546875
2989		60.546875
2990		64.453125
2991		60.546875
2992		68.359375
2993		62.500000
2994		68.359375
2995		64.453125
2996		72.265625
2997		68.359375
2998		74.218750
2999		68.359375
3000		76.171875
3001		70.312500
3002		78.125000
3003		72.265625
3004		78.125000
3005		76.171875
3006		80.078125
3007		76.171875
3008		83.984375
3009		76.171875
3010		83.984375
3011		80.078125
3012		85.937500
3013		80.078125
3014		87.890625
3015		82.031250
3016		89.843750
3017		83.984375
3018		91.796875
3019		85.937500
3020		91.796875
3021		89.843750
3022		91.796875
3023		89.843750
3024		95.703125
3025		89.843750
3026		97.656250
3027		91.796875
3028		97.656250
3029		91.796875
3030		99.609375
3031		93.750000
3032		101.562500
3033		95.703125
3034		101.562500
3035		97.656250
3036		103.515625
3037		99.609375
3038		103.515625
3039		101.562500
3040		103.515625
3041		99.609375
3042		107.421875
3043		101.562500
3044		107.421875
3045		101.562500
3046		109.375000
3047		103.515625
3048		109.375000
3049		103.515625
3050		109.375000
3051		103.515625
3052		111.328125
3053		105.468750
3054		111.328125
3055		107.421875
3056		111.328125
3057		107.421875
3058		113.281250
3059		107.421875
3060		113.281250
3061		107.421875
3062		115.234375
3063		109.375000
3064		115.234375
3065		109.375000
3066		115.234375
3067		109.375000
3068		115.234375
3069		109.375000
3070		115.234375
3071		111.328125
3072		113.281250
3073		111.328125
3074		115.234375
3075		109.375000
3076		117.187500
3077		111.328125
3078		117.187500
3079		109.375000
3080		117.187500
3081		111.328125
3082		117.187500
3083		109.375000
3084		117.187500
3085		111.328125
3086		117.187500
3087		111.328125
3088		115.234375
3089		111.328125
3090		115.234375
3091		109.375000
3092		117.187500
3093		109.375000
3094		117.187500
3095		109.375000
3096		115.234375
3097		109.375000
3098		115.234375
3099		109.375000
3100		115.234375
3101		107.421875
3102		115.234375
3103		107.421875
3104		113.281250
3105		109.375000
3106		111.328125
3107		105.468750
3108		111.328125
3109		105.468750
3110		111.328125
3111		103.515625
3112		111.328125
3113		103.515625
3114		109.375000
3115		103.515625
3116		109.375000
3117		101.562500
3118		107.421875
3119		101.562500
3120		107.421875
3121		101.562500
3122		105.468750
3123		101.562500
3124		103.515625
3125		97.656250
3126		105.468750
3127		95.703125
3128		103.515625
3129		95.703125
3130		101.562500
3131		93.750000
3132		101.562500
3133		93.750000
3134		99.609375
3135		91.796875
3136		97.656250
3137		91.796875
3138		95.703125
3139		89.843750
3140		93.750000
3141		87.890625
3142		93.750000
3143		85.937500
3144		93.750000
3145		83.984375
3146		89.843750
3147		82.031250
3148		89.843750
3149		80.078125
3150		87.890625
3151		78.125000
3152		85.937500
3153		78.125000
3154		83.984375
3155		76.171875
3156		80.078125
3157		76.171875
3158		78.125000
3159		70.312500
3160		78.125000
3161		68.359375
3162		76.171875
3163		66.406250
3164		74.218750
3165		66.406250
3166		72.265625
3167		62.500000
3168		70.312500
3169		60.546875
3170		68.359375
3171		60.546875
3172		66.406250
3173		58.593750
3174		62.500000
3175		54.687500
3176		60.546875
3177		52.734375
3178		60.546875
3179		50.781250
3180		58.593750
3181		46.875000
3182		56.640625
3183		44.921875
3184		52.734375
3185		42.968750
3186		50.781250
3187		42.968750
3188		48.828125
3189		41.015625
3190		44.921875
3191		37.109375
3192		41.015625
3193		33.203125
3194		41.015625
3195		31.250000
3196		39.062500
3197		27.343750
3198		37.109375
3199		25.390625
3200		33.203125
3201		23.437500
3202		31.250000
3203		21.484375
3204		29.296875
3205		21.484375
3206		25.390625
3207		17.578125
3208		21.484375
3209		13.671875
3210		21.484375
3211		11.718750
3212		17.578125
3213		9.765625
3214		15.625000
3215		5.859375
3216		13.671875
3217		3.906250
3218		11.718750
3219		0.000000
3220		9.765625
3221		0.000000
3222		5.859375
3223		-1.953125
3224		1.953125
3225		-7.812500
3226		0.000000
3227		-9.765625
3228		-1.953125
3229		-11.718750
3230		-3.906250
3231		-15.625000
3232		-5.859375
3233		-17.578125
3234		-7.812500
3235		-19.531250
3236		-11.718750
3237		-21.484375
3238		-13.671875
3239		-21.484375
3240		-17.578125
3241		-25.390625
3242		-21.484375
3243		-29.296875
3244		-21.484375
3245		-31.250000
3246		-23.437500
3247		-33.203125
3248		-27.343750
3249		-35.156250
3250		-29.296875
3251		-39.062500
3252		-31.250000
3253		-41.015625
3254		-33.203125
3255		-41.015625
3256		-37.109375
3257		-42.968750
3258		-39.062500
3259		-46.875000
3260		-41.015625
3261		-50.781250
3262		-41.015625
3263		-52.734375
3264		-44.921875
3265		-54.687500
3266		-46.875000
3267		-54.687500
3268		-48.828125
3269		-58.593750
3270		-50.781250
3271		-58.593750
3272		-52.734375
3273		-60.546875
3274		-56.640625
3275		-62.500000
3276		-58.593750
3277		-66.406250
3278		-58.593750
3279		-68.359375
3280		-60.546875
3281		-70.312500
3282		-62.500000
3283		-72.265625
3284		-64.453125
3285		-72.265625
3286		-66.406250
3287		-74.218750
3288		-66.406250
3289		-74.218750
3290		-70.312500
3291		-76.171875
3292		-72.265625
3293		-78.125000
3294		-72.265625
3295		-80.078125
3296		-72.265625
3297		-82.031250
3298		-74.218750
3299		-82.031250
3300		-76.171875
3301		-83.984375
3302		-76.171875
3303		-85.937500
3304		-78.125000
3305		-85.937500
3306		-80.078125
3307		-85.937500
3308		-82.031250
3309		-87.890625
3310		-82.031250
3311		-89.843750
3312		-82.031250
3313		-89.843750
3314		-82.031250
3315		-91.796875
3316		-83.984375
3317		-91.796875
3318		-85.937500
3319		-91.796875
3320		-85.937500
3321		-91.796875
3322		-85.937500
3323		-91.796875
3324		-87.890625
3325		-91.796875
3326		-89.843750
3327		-93.750000
3328		-87.890625
3329		-93.750000
3330		-87.890625
3331		-95.703125
3332		-87.890625
3333		-95.703125
3334		-87.890625
3335		-95.703125
3336		-87.890625
3337		-95.703125
3338		-87.890625
3339		-93.750000
3340		-89.843750
3341		-93.750000
3342		-91.796875
3343		-95.703125
3344		-89.843750
3345		-95.703125
3346		-87.890625
3347		-93.750000
3348		-87.890625
3349		-93.750000
3350		-87.890625
3351		-93.750000
3352		-85.937500
3353		-93.750000
3354		-85.937500
3355		-91.796875
3356		-85.937500
3357		-89.843750
3358		-87.890625
3359		-89.843750
3360		-85.937500
3361		-89.843750
3362		-83.984375
3363		-89.843750
3364		-82.031250
3365		-89.843750
3366		-82.031250
3367		-87.890625
3368		-82.031250
3369		-85.937500
3370		-80.078125
3371		-85.937500
3372		-78.125000
3373		-82.031250
3374		-80.078125
3375		-82.031250
3376		-78.125000
3377		-82.031250
3378		-76.171875
3379		-80.078125
3380		-74.218750
3381		-80.078125
3382		-72.265625
3383		-78.125000
3384		-70.312500
3385		-76.171875
3386		-68.359375
3387		-74.218750
3388		-68.359375
3389		-74.218750
3390		-68.359375
3391		-70.312500
3392		-66.406250
3393		-68.359375
3394		-64.453125
3395		-66.406250
3396		-62.500000
3397		-66.406250
3398		-58.593750
3399		-62.500000
3400		-58.593750
3401		-62.500000
3402		-56.640625
3403		-60.546875
3404		-54.687500
3405		-58.593750
3406		-52.734375
3407		-54.687500
3408		-50.781250
3409		-52.734375
3410		-48.828125
3411		-52.734375
3412		-44.921875
3413		-50.781250
3414		-42.968750
3415		-46.875000
3416		-41.015625
3417		-44.921875
3418		-37.109375
3419		-42.968750
3420		-37.109375
3421		-41.015625
3422		-33.203125
3423		-37.109375
3424		-33.203125
3425		-35.156250
3426		-31.250000
3427		-33.203125
3428		-25.390625
3429		-31.250000
3430		-23.437500
3431		-29.296875
3432		-21.484375
3433		-27.343750
3434		-19.531250
3435		-25.390625
3436		-17.578125
3437		-23.437500
3438		-13.671875
3439		-19.531250
3440		-11.718750
3441		-15.625000
3442		-11.718750
3443		-11.718750
3444		-7.812500
3445		-11.718750
3446		-3.906250
3447		-9.765625
3448		-1.953125
3449		-7.812500
3450		0.000000
3451		-3.906250
3452		3.906250
3453		-1.953125
3454		5.859375
3455		0.000000
3456		7.812500
3457		3.906250
3458		9.765625
3459		7.812500
3460		11.718750
3461		9.765625
3462		15.625000
3463		11.718750
3464		19.531250
3465		13.671875
3466		21.484375
3467		15.625000
3468		23.437500
3469		19.531250
3470		25.390625
3471		21.484375
3472		27.343750
3473		23.437500
3474		29.296875
3475		27.343750
3476		31.250000
3477		29.296875
3478		35.156250
3479		31.250000
3480		37.109375
3481		33.203125
3482		41.015625
3483		35.156250
3484		42.968750
3485		37.109375
3486		46.875000
3487		41.015625
3488		46.875000
3489		42.968750
3490		48.828125
3491		46.875000
3492		50.781250
3493		48.828125
3494		52.734375
3495		50.781250
3496		56.640625
3497		52.734375
3498		60.546875
3499		52.734375
3500		60.546875
3501		54.687500
3502		62.500000
3503		56.640625
3504		66.406250
3505		60.546875
3506		68.359375
3507		62.500000
3508		68.359375
3509		66.406250
3510		70.312500
3511		66.406250
3512		74.218750
3513		68.359375
3514		76.171875
3515		70.312500
3516		78.125000
3517		72.265625
3518		80.078125
3519		74.218750
3520		82.031250
3521		76.171875
3522		82.031250
3523		78.125000
3524		83.984375
3525		82.031250
3526		83.984375
3527		83.984375
3528		85.937500
3529		82.031250
3530		89.843750
3531		83.984375
3532		91.796875
3533		85.937500
3534		93.750000
3535		85.937500
3536		93.750000
3537		87.890625
3538		95.703125
3539		89.843750
3540		97.656250
3541		93.750000
3542		97.656250
3543		95.703125
3544		97.656250
3545		93.750000
3546		101.562500
3547		95.703125
3548		101.562500
3549		95.703125
3550		103.515625
3551		97.656250
3552		103.515625
3553		97.656250
3554		105.468750
3555		99.609375
3556		107.421875
3557		99.609375
3558		107.421875
3559		103.515625
3560		105.468750
3561		105.468750
3562		109.375000
3563		103.515625
3564		109.375000
3565		103.515625
3566		111.328125
3567		105.468750
3568		111.328125
3569		105.468750
3570		113.281250
3571		105.468750
3572		113.281250
3573		107.421875
3574		113.281250
3575		109.375000
3576		111.328125
3577		109.375000
3578		113.281250
3579		109.375000
3580		115.234375
3581		109.375000
3582		115.234375
3583		109.375000
3584		115.234375
3585		109.375000
3586		115.234375
3587		109.375000
3588		117.187500
3589		109.375000
3590		115.234375
3591		111.328125
3592		117.187500
3593		111.328125
3594		115.234375
3595		109.375000
3596		115.234375
3597		109.375000
3598		117.187500
3599		109.375000
3600		117.187500
3601		109.375000
3602		117.187500
3603		109.375000
3604		115.234375
3605		109.375000
3606		115.234375
3607		109.375000
3608		115.234375
3609		111.328125
3610		113.281250
3611		109.375000
3612		113.281250
3613		107.421875
3614		113.281250
3615		107.421875
3616		113.281250
3617		105.468750
3618		113.281250
3619		105.468750
3620		111.328125
3621		105.468750
3622		113.281250
3623		103.515625
3624		111.328125
3625		105.468750
3626		109.375000
3627		105.468750
3628		107.421875
3629		103.515625
3630		107.421875
3631		101.562500
3632		107.421875
3633		99.609375
3634		107.421875
3635		99.609375
3636		105.468750
3637		97.656250
3638		105.468750
3639		97.656250
3640		103.515625
3641		95.703125
3642		101.562500
3643		95.703125
3644		99.609375
3645		91.796875
3646		99.609375
3647		91.796875
3648		99.609375
3649		89.843750
3650		97.656250
3651		89.843750
3652		95.703125
3653		87.890625
3654		93.750000
3655		85.937500
3656		93.750000
3657		83.984375
3658		91.796875
3659		83.984375
3660		87.890625
3661		83.984375
3662		85.937500
3663		80.078125
3664		85.937500
3665		78.125000
3666		83.984375
3667		76.171875
3668		83.984375
3669		74.218750
3670		82.031250
3671		72.265625
3672		80.078125
3673		70.312500
3674		78.125000
3675		70.312500
3676		76.171875
3677		68.359375
3678		72.265625
3679		64.453125
3680		70.312500
3681		62.500000
3682		70.312500
3683		60.546875
3684		68.359375
3685		56.640625
3686		64.453125
3687		56.640625
3688		62.500000
3689		52.734375
3690		60.546875
3691		52.734375
3692		58.593750
3693		50.781250
3694		54.687500
3695		48.828125
3696		52.734375
3697		44.921875
3698		52.734375
3699		42.968750
3700		48.828125
3701		41.015625
3702		46.875000
3703		37.109375
3704		44.921875
3705		35.156250
3706		42.968750
3707		33.203125
3708		41.015625
3709		31.250000
3710		37.109375
3711		29.296875
3712		33.203125
3713		25.390625
3714		31.250000
3715		21.484375
3716		31.250000
3717		19.531250
3718		27.343750
3719		17.578125
3720		25.390625
3721		15.625000
3722		23.437500
3723		13.671875
3724		19.531250
3725		11.718750
3726		17.578125
3727		9.765625
3728		13.671875
3729		3.906250
3730		11.718750
3731		3.906250
3732		9.765625
3733		0.000000
3734		7.812500
3735		-1.953125
3736		5.859375
3737		-5.859375
3738		1.953125
3739		-7.812500
3740		0.000000
3741		-9.765625
3742		-1.953125
3743		-11.718750
3744		-7.812500
3745		-13.671875
3746		-9.765625
3747		-17.578125
3748		-11.718750
3749		-19.531250
3750		-11.718750
3751		-23.437500
3752		-15.625000
3753		-25.390625
3754		-17.578125
3755		-27.343750
3756		-19.531250
3757		-31.250000
3758		-23.437500
3759		-31.250000
3760		-25.390625
3761		-33.203125
3762		-29.296875
3763		-37.109375
3764		-31.250000
3765		-41.015625
3766		-31.250000
3767		-41.015625
3768		-33.203125
3769		-44.921875
3770		-37.109375
3771		-46.875000
3772		-39.062500
3773		-46.875000
3774		-41.015625
3775		-50.781250
3776		-42.968750
3777		-50.781250
3778		-46.875000
3779		-52.734375
3780		-48.828125
3781		-56.640625
3782		-48.828125
3783		-58.593750
3784		-50.781250
3785		-60.546875
3786		-52.734375
3787		-62.500000
3788		-54.687500
3789		-64.453125
3790		-56.640625
3791		-66.406250
3792		-58.593750
3793		-66.406250
3794		-60.546875
3795		-68.359375
3796		-64.453125
3797		-72.265625
3798		-64.453125
3799		-72.265625
3800		-66.406250
3801		-74.218750
3802		-68.359375
3803		-76.171875
3804		-70.312500
3805		-78.125000
3806		-70.312500
3807		-78.125000
3808		-72.265625
3809		-78.125000
3810		-72.265625
3811		-80.078125
3812		-76.171875
3813		-82.031250
3814		-78.125000
3815		-83.984375
3816		-78.125000
3817		-83.984375
3818		-78.125000
3819		-85.937500
3820		-80.078125
3821		-87.890625
3822		-80.078125
3823		-87.890625
3824		-80.078125
3825		-87.890625
3826		-82.031250
3827		-87.890625
3828		-85.937500
3829		-87.890625
3830		-85.937500
3831		-91.796875
3832		-83.984375
3833		-91.796875
3834		-85.937500
3835		-91.796875
3836		-85.937500
3837		-93.750000
3838		-85.937500
3839		-91.796875
3840		-85.937500
3841		-93.750000
3842		-87.890625
3843		-93.750000
3844		-87.890625
3845		-91.796875
3846		-89.843750
3847		-93.750000
3848		-87.890625
3849		-93.750000
3850		-87.890625
3851		-95.703125
3852		-87.890625
3853		-93.750000
3854		-87.890625
3855		-93.750000
3856		-87.890625
3857		-93.750000
3858		-87.890625
3859		-93.750000
3860		-87.890625
3861		-91.796875
3862		-89.843750
3863		-89.843750
3864		-87.890625
3865		-91.796875
3866		-85.937500
3867		-91.796875
3868		-85.937500
3869		-91.796875
3870		-83.984375
3871		-89.843750
3872		-83.984375
3873		-89.843750
3874		-83.984375
3875		-89.843750
3876		-82.031250
3877		-87.890625
3878		-83.984375
3879		-85.937500
3880		-82.031250
3881		-85.937500
3882		-80.078125
3883		-85.937500
3884		-78.125000
3885		-83.984375
3886		-78.125000
3887		-83.984375
3888		-76.171875
3889		-82.031250
3890		-76.171875
3891		-80.078125
3892		-74.218750
3893		-80.078125
3894		-74.218750
3895		-76.171875
3896		-72.265625
3897		-74.218750
3898		-70.312500
3899		-76.171875
3900		-68.359375
3901		-74.218750
3902		-66.406250
3903		-72.265625
3904		-64.453125
3905		-70.312500
3906		-62.500000
3907		-68.359375
3908		-60.546875
3909		-66.406250
3910		-60.546875
3911		-62.500000
3912		-58.593750
3913		-60.546875
3914		-56.640625
3915		-60.546875
3916		-52.734375
3917		-58.593750
3918		-52.734375
3919		-56.640625
3920		-48.828125
3921		-54.687500
3922		-46.875000
3923		-52.734375
3924		-44.921875
3925		-50.781250
3926		-42.968750
3927		-48.828125
3928		-42.968750
3929		-44.921875
3930		-41.015625
3931		-42.968750
3932		-35.156250
3933		-41.015625
3934		-35.156250
3935		-39.062500
3936		-31.250000
3937		-37.109375
3938		-29.296875
3939		-35.156250
3940		-27.343750
3941		-31.250000
3942		-25.390625
3943		-31.250000
3944		-23.437500
3945		-25.390625
3946		-21.484375
3947		-23.437500
3948		-19.531250
3949		-23.437500
3950		-15.625000
3951		-19.531250
3952		-13.671875
3953		-17.578125
3954		-9.765625
3955		-15.625000
3956		-7.812500
3957		-11.718750
3958		-5.859375
3959		-9.765625
3960		-1.953125
3961		-5.859375
3962		-1.953125
3963		-3.906250
3964		1.953125
3965		-1.953125
3966		5.859375
3967		0.000000
3968		7.812500
3969		1.953125
3970		9.765625
3971		3.906250
3972		13.671875
3973		7.812500
3974		15.625000
3975		9.765625
3976		17.578125
3977		13.671875
3978		19.531250
3979		17.578125
3980		21.484375
3981		19.531250
3982		23.437500
3983		19.531250
3984		29.296875
3985		23.437500
3986		29.296875
3987		25.390625
3988		33.203125
3989		29.296875
3990		35.156250
3991		29.296875
3992		37.109375
3993		33.203125
3994		41.015625
3995		37.109375
3996		41.015625
3997		39.062500
3998		42.968750
3999		41.015625
4000		46.875000
4001		42.968750
4002		48.828125
4003		44.921875
4004		52.734375
4005		46.875000
4006		54.687500
4007		48.828125
4008		56.640625
4009		50.781250
4010		58.593750
4011		52.734375
4012		60.546875
4013		56.640625
4014		60.546875
4015		58.593750
4016		66.406250
4017		60.546875
4018		66.406250
4019		62.500000
4020		70.312500
4021		64.453125
4022		72.265625
4023		66.406250
4024		74.218750
4025		68.359375
4026		76.171875
4027		70.312500
4028		76.171875
4029		74.218750
4030		78.125000
4031		76.171875
4032		80.078125
4033		76.171875
4034		82.031250
4035		78.125000
4036		83.984375
4037		78.125000
4038		85.937500
4039		82.031250
4040		87.890625
4041		82.031250
4042		89.843750
4043		83.984375
4044		91.796875
4045		87.890625
4046		91.796875
4047		89.843750
4048		91.796875
4049		89.843750
4050		95.703125
4051		89.843750
4052		97.656250
4053		91.796875
4054		99.609375
4055		93.750000
4056		99.609375
4057		95.703125
4058		101.562500
4059		95.703125
4060		103.515625
4061		97.656250
4062		103.515625
4063		99.609375
4064		103.515625
4065		101.562500
4066		103.515625
4067		101.562500
4068		107.421875
4069		101.562500
4070		107.421875
4071		103.515625
4072		109.375000
4073		103.515625
4074		109.375000
4075		105.468750
4076		111.328125
4077		105.468750
4078		111.328125
4079		107.421875
4080		109.375000
4081		107.421875
4082		111.328125
4083		107.421875
4084		113.281250
4085		107.421875
4086		115.234375
4087		107.421875
4088		115.234375
4089		109.375000
4090		115.234375
4091		109.375000
4092		115.234375
4093		109.375000
4094		115.234375
4095		111.328125
4096		115.234375
4097		113.281250
4098		115.234375
4099		111.328125
4100		115.234375
4101		113.281250
4102		115.234375
4103		113.281250
4104		115.234375
4105		113.281250
4106		115.234375
4107		111.328125
4108		117.187500
4109		111.328125
4110		117.187500
4111		113.281250
4112		117.187500
4113		113.281250
4114		115.234375
4115		113.281250
4116		115.234375
4117		111.328125
4118		117.187500
4119		111.328125
4120		115.234375
4121		111.328125
4122		115.234375
4123		111.328125
4124		115.234375
4125		111.328125
4126		113.281250
4127		107.421875
4128		115.234375
4129		109.375000
4130		113.281250
4131		109.375000
4132		113.281250
4133		109.375000
4134		113.281250
4135		107.421875
4136		111.328125
4137		107.421875
4138		111.328125
4139		107.421875
4140		109.375000
4141		105.468750
4142		109.375000
4143		105.468750
4144		107.421875
4145		103.515625
4146		107.421875
4147		103.515625
4148		105.468750
4149		101.562500
4150		105.468750
4151		101.562500
4152		103.515625
4153		99.609375
4154		103.515625
4155		97.656250
4156		101.562500
4157		95.703125
4158		99.609375
4159		95.703125
4160		99.609375
4161		95.703125
4162		97.656250
4163		93.750000
4164		97.656250
4165		91.796875
4166		95.703125
4167		89.843750
4168		93.750000
4169		87.890625
4170		91.796875
4171		87.890625
4172		91.796875
4173		85.937500
4174		89.843750
4175		83.984375
4176		87.890625
4177		82.031250
4178		85.937500
4179		80.078125
4180		83.984375
4181		78.125000
4182		82.031250
4183		76.171875
4184		80.078125
4185		74.218750
4186		78.125000
4187		72.265625
4188		76.171875
4189		70.312500
4190		74.218750
4191		68.359375
4192		72.265625
4193		66.406250
4194		70.312500
4195		62.500000
4196		68.359375
4197		62.500000
4198		66.406250
4199		60.546875
4200		64.453125
4201		58.593750
4202		62.500000
4203		56.640625
4204		60.546875
4205		52.734375
4206		58.593750
4207		50.781250
4208		54.687500
4209		48.828125
4210		52.734375
4211		46.875000
4212		50.781250
4213		44.921875
4214		48.828125
4215		42.968750
4216		46.875000
4217		39.062500
4218		42.968750
4219		37.109375
4220		41.015625
4221		33.203125
4222		39.062500
4223		31.250000
4224		35.156250
4225		29.296875
4226		35.156250
4227		27.343750
4228		31.250000
4229		25.390625
4230		29.296875
4231		21.484375
4232		27.343750
4233		19.531250
4234		23.437500
4235		17.578125
4236		23.437500
4237		15.625000
4238		19.531250
4239		11.718750
4240		15.625000
4241		9.765625
4242		13.671875
4243		7.812500
4244		11.718750
4245		3.906250
4246		7.812500
4247		1.953125
4248		5.859375
4249		0.000000
4250		3.906250
4251		-3.906250
4252		1.953125
4253		-5.859375
4254		0.000000
4255		-7.812500
4256		-3.906250
4257		-11.718750
4258		-5.859375
4259		-13.671875
4260		-9.765625
4261		-15.625000
4262		-11.718750
4263		-17.578125
4264		-13.671875
4265		-21.484375
4266		-15.625000
4267		-23.437500
4268		-19.531250
4269		-25.390625
4270		-21.484375
4271		-27.343750
4272		-23.437500
4273		-29.296875
4274		-25.390625
4275		-33.203125
4276		-29.296875
4277		-35.156250
4278		-29.296875
4279		-39.062500
4280		-33.203125
4281		-39.062500
4282		-35.156250
4283		-41.015625
4284		-37.109375
4285		-44.921875
4286		-41.015625
4287		-46.875000
4288		-42.968750
4289		-48.828125
4290		-44.921875
4291		-50.781250
4292		-46.875000
4293		-52.734375
4294		-46.875000
4295		-54.687500
4296		-50.781250
4297		-56.640625
4298		-52.734375
4299		-58.593750
4300		-54.687500
4301		-60.546875
4302		-56.640625
4303		-62.500000
4304		-58.593750
4305		-64.453125
4306		-60.546875
4307		-66.406250
4308		-60.546875
4309		-68.359375
4310		-62.500000
4311		-68.359375
4312		-66.406250
4313		-70.312500
4314		-66.406250
4315		-72.265625
4316		-68.359375
4317		-74.218750
4318		-70.312500
4319		-76.171875
4320		-70.312500
4321		-76.171875
4322		-74.218750
4323		-78.125000
4324		-74.218750
4325		-80.078125
4326		-76.171875
4327		-80.078125
4328		-76.171875
4329		-82.031250
4330		-78.125000
4331		-83.984375
4332		-80.078125
4333		-83.984375
4334		-80.078125
4335		-83.984375
4336		-82.031250
4337		-85.937500
4338		-82.031250
4339		-87.890625
4340		-83.984375
4341		-87.890625
4342		-83.984375
4343		-87.890625
4344		-83.984375
4345		-89.843750
4346		-85.937500
4347		-89.843750
4348		-85.937500
4349		-89.843750
4350		-87.890625
4351		-89.843750
4352		-87.890625
4353		-91.796875
4354		-87.890625
4355		-91.796875
4356		-87.890625
4357		-91.796875
4358		-87.890625
4359		-91.796875
4360		-87.890625
4361		-91.796875
4362		-87.890625
4363		-91.796875
4364		-87.890625
4365		-91.796875
4366		-89.843750
4367		-91.796875
4368		-89.843750
4369		-91.796875
4370		-87.890625
4371		-91.796875
4372		-87.890625
4373		-91.796875
4374		-87.890625
4375		-89.843750
4376		-87.890625
4377		-89.843750
4378		-85.937500
4379		-89.843750
4380		-85.937500
4381		-89.843750
4382		-85.937500
4383		-87.890625
4384		-85.937500
4385		-89.843750
4386		-83.984375
4387		-87.890625
4388		-83.984375
4389		-85.937500
4390		-83.984375
4391		-85.937500
4392		-83.984375
4393		-83.984375
4394		-82.031250
4395		-83.984375
4396		-80.078125
4397		-83.984375
4398		-80.078125
4399		-82.031250
4400		-78.125000
4401		-80.078125
4402		-78.125000
4403		-80.078125
4404		-76.171875
4405		-78.125000
4406		-74.218750
4407		-76.171875
4408		-72.265625
4409		-76.171875
4410		-72.265625
4411		-74.218750
4412		-70.312500
4413		-72.265625
4414		-68.359375
4415		-72.265625
4416		-66.406250
4417		-68.359375
4418		-64.453125
4419		-66.406250
4420		-62.500000
4421		-66.406250
4422		-62.500000
4423		-64.453125
4424		-58.593750
4425		-62.500000
4426		-58.593750
4427		-60.546875
4428		-56.640625
4429		-58.593750
4430		-54.687500
4431		-56.640625
4432		-52.734375
4433		-54.687500
4434		-50.781250
4435		-50.781250
4436		-46.875000
4437		-48.828125
4438		-46.875000
4439		-48.828125
4440		-42.968750
4441		-44.921875
4442		-41.015625
4443		-42.968750
4444		-39.062500
4445		-41.015625
4446		-37.109375
4447		-39.062500
4448		-33.203125
4449		-37.109375
4450		-31.250000
4451		-33.203125
4452		-29.296875
4453		-31.250000
4454		-27.343750
4455		-29.296875
4456		-25.390625
4457		-27.343750
4458		-21.484375
4459		-23.437500
4460		-19.531250
4461		-21.484375
4462		-17.578125
4463		-19.531250
4464		-15.625000
4465		-17.578125
4466		-13.671875
4467		-13.671875
4468		-9.765625
4469		-11.718750
4470		-7.812500
4471		-9.765625
4472		-5.859375
4473		-5.859375
4474		-1.953125
4475		-3.906250
4476		0.000000
4477		-1.953125
4478		1.953125
4479		0.000000
4480		3.906250
4481		3.906250
4482		7.812500
4483		5.859375
4484		9.765625
4485		7.812500
4486		11.718750
4487		11.718750
4488		15.625000
4489		13.671875
4490		17.578125
4491		15.625000
4492		19.531250
4493		17.578125
4494		23.437500
4495		21.484375
4496		25.390625
4497		23.437500
4498		27.343750
4499		25.390625
4500		29.296875
4501		29.296875
4502		33.203125
4503		31.250000
4504		35.156250
4505		33.203125
4506		37.109375
4507		35.156250
4508		39.062500
4509		37.109375
4510		42.968750
4511		41.015625
4512		44.921875
4513		42.968750
4514		46.875000
4515		44.921875
4516		50.781250
4517		46.875000
4518		50.781250
4519		50.781250
4520		52.734375
4521		50.781250
4522		56.640625
4523		54.687500
4524		58.593750
4525		56.640625
4526		60.546875
4527		58.593750
4528		62.500000
4529		60.546875
4530		64.453125
4531		62.500000
4532		66.406250
4533		64.453125
4534		68.359375
4535		66.406250
4536		70.312500
4537		68.359375
4538		72.265625
4539		70.312500
4540		76.171875
4541		72.265625
4542		78.125000
4543		74.218750
4544		80.078125
4545		76.171875
4546		80.078125
4547		78.125000
4548		82.031250
4549		78.125000
4550		83.984375
4551		82.031250
4552		85.937500
4553		83.984375
4554		87.890625
4555		85.937500
4556		89.843750
4557		85.937500
4558		89.843750
4559		87.890625
4560		91.796875
4561		89.843750
4562		93.750000
4563		91.796875
4564		95.703125
4565		91.796875
4566		97.656250
4567		93.750000
4568		97.656250
4569		95.703125
4570		97.656250
4571		95.703125
4572		99.609375
4573		97.656250
4574		101.562500
4575		97.656250
4576		103.515625
4577		99.609375
4578		103.515625
4579		101.562500
4580		103.515625
4581		101.562500
4582		105.468750
4583		103.515625
4584		107.421875
4585		103.515625
4586		107.421875
4587		105.468750
4588		109.375000
4589		107.421875
4590		109.375000
4591		107.421875
4592		109.375000
4593		107.421875
4594		111.328125
4595		109.375000
4596		111.328125
4597		109.375000
4598		113.281250
4599		109.375000
4600		113.281250
4601		111.328125
4602		113.281250
4603		111.328125
4604		113.281250
4605		111.328125
4606		115.234375
4607		111.328125
4608		115.234375
4609		111.328125
4610		115.234375
4611		113.281250
4612		115.234375
4613		111.328125
4614		115.234375
4615		111.328125
4616		115.234375
4617		113.281250
4618		115.234375
4619		113.281250
4620		115.234375
4621		113.281250
4622		117.187500
4623		113.281250
4624		115.234375
4625		113.281250
4626		115.234375
4627		113.281250
4628		115.234375
4629		111.328125
4630		115.234375
4631		111.328125
4632		115.234375
4633		111.328125
4634		115.234375
4635		111.328125
4636		113.281250
4637		111.328125
4638		113.281250
4639		111.328125
4640		113.281250
4641		111.328125
4642		113.281250
4643		109.375000
4644		113.281250
4645		109.375000
4646		111.328125
4647		107.421875
4648		111.328125
4649		107.421875
4650		111.328125
4651		107.421875
4652		109.375000
4653		107.421875
4654		109.375000
4655		105.468750
4656		109.375000
4657		103.515625
4658		107.421875
4659		103.515625
4660		107.421875
4661		101.562500
4662		105.468750
4663		101.562500
4664		105.468750
4665		99.609375
4666		103.515625
4667		99.609375
4668		103.515625
4669		97.656250
4670		101.562500
4671		95.703125
4672		99.609375
4673		95.703125
4674		99.609375
4675		93.750000
4676		97.656250
4677		91.796875
4678		95.703125
4679		91.796875
4680		95.703125
4681		87.890625
4682		93.750000
4683		87.890625
4684		91.796875
4685		85.937500
4686		89.843750
4687		83.984375
4688		87.890625
4689		82.031250
4690		87.890625
4691		80.078125
4692		83.984375
4693		78.125000
4694		82.031250
4695		78.125000
4696		82.031250
4697		76.171875
4698		78.125000
4699		74.218750
4700		78.125000
4701		72.265625
4702		76.171875
4703		70.312500
4704		72.265625
4705		68.359375
4706		72.265625
4707		66.406250
4708		68.359375
4709		62.500000
4710		66.406250
4711		60.546875
4712		66.406250
4713		58.593750
4714		62.500000
4715		56.640625
4716		62.500000
4717		54.687500
4718		58.593750
4719		52.734375
4720		56.640625
4721		48.828125
4722		54.687500
4723		46.875000
4724		52.734375
4725		44.921875
4726		50.781250
4727		42.968750
4728		46.875000
4729		41.015625
4730		44.921875
4731		39.062500
4732		42.968750
4733		35.156250
4734		41.015625
4735		33.203125
4736		37.109375
4737		31.250000
4738		35.156250
4739		29.296875
4740		33.203125
4741		27.343750
4742		31.250000
4743		23.437500
4744		27.343750
4745		21.484375
4746		25.390625
4747		19.531250
4748		23.437500
4749		15.625000
4750		21.484375
4751		13.671875
4752		17.578125
4753		11.718750
4754		15.625000
4755		7.812500
4756		13.671875
4757		5.859375
4758		9.765625
4759		1.953125
4760		7.812500
4761		1.953125
4762		5.859375
4763		-1.953125
4764		3.906250
4765		-3.906250
4766		0.000000
4767		-7.812500
4768		-1.953125
4769		-9.765625
4770		-3.906250
4771		-11.718750
4772		-7.812500
4773		-13.671875
4774		-9.765625
4775		-17.578125
4776		-11.718750
4777		-19.531250
4778		-15.625000
4779		-21.484375
4780		-17.578125
4781		-23.437500
4782		-19.531250
4783		-25.390625
4784		-21.484375
4785		-29.296875
4786		-23.437500
4787		-31.250000
4788		-27.343750
4789		-33.203125
4790		-29.296875
4791		-37.109375
4792		-31.250000
4793		-37.109375
4794		-33.203125
4795		-41.015625
4796		-35.156250
4797		-42.968750
4798		-39.062500
4799		-44.921875
4800		-41.015625
4801		-48.828125
4802		-42.968750
4803		-48.828125
4804		-44.921875
4805		-52.734375
4806		-46.875000
4807		-52.734375
4808		-48.828125
4809		-54.687500
4810		-50.781250
4811		-56.640625
4812		-52.734375
4813		-58.593750
4814		-54.687500
4815		-60.546875
4816		-56.640625
4817		-64.453125
4818		-58.593750
4819		-64.453125
4820		-60.546875
4821		-66.406250
4822		-62.500000
4823		-68.359375
4824		-64.453125
4825		-70.312500
4826		-66.406250
4827		-72.265625
4828		-68.359375
4829		-72.265625
4830		-70.312500
4831		-74.218750
4832		-70.312500
4833		-76.171875
4834		-72.265625
4835		-78.125000
4836		-72.265625
4837		-78.125000
4838		-76.171875
4839		-80.078125
4840		-76.171875
4841		-82.031250
4842		-78.125000
4843		-82.031250
4844		-78.125000
4845		-83.984375
4846		-80.078125
4847		-83.984375
4848		-80.078125
4849		-85.937500
4850		-82.031250
4851		-85.937500
4852		-82.031250
4853		-85.937500
4854		-83.984375
4855		-87.890625
4856		-85.937500
4857		-89.843750
4858		-85.937500
4859		-89.843750
4860		-85.937500
4861		-89.843750
4862		-85.937500
4863		-89.843750
4864		-87.890625
4865		-91.796875
4866		-87.890625
4867		-91.796875
4868		-87.890625
4869		-91.796875
4870		-87.890625
4871		-91.796875
4872		-89.843750
4873		-91.796875
4874		-87.890625
4875		-91.796875
4876		-87.890625
4877		-91.796875
4878		-89.843750
4879		-91.796875
4880		-89.843750
4881		-93.750000
4882		-87.890625
4883		-91.796875
4884		-87.890625
4885		-91.796875
4886		-87.890625
4887		-91.796875
4888		-89.843750
4889		-91.796875
4890		-87.890625
4891		-89.843750
4892		-85.937500
4893		-89.843750
4894		-85.937500
4895		-89.843750
4896		-85.937500
4897		-87.890625
4898		-85.937500
4899		-87.890625
4900		-83.984375
4901		-87.890625
4902		-82.031250
4903		-85.937500
4904		-83.984375
4905		-85.937500
4906		-82.031250
4907		-83.984375
4908		-80.078125
4909		-83.984375
4910		-80.078125
4911		-82.031250
4912		-78.125000
4913		-82.031250
4914		-78.125000
4915		-80.078125
4916		-76.171875
4917		-80.078125
4918		-76.171875
4919		-78.125000
4920		-74.218750
4921		-76.171875
4922		-72.265625
4923		-76.171875
4924		-70.312500
4925		-74.218750
4926		-68.359375
4927		-72.265625
4928		-68.359375
4929		-70.312500
4930		-66.406250
4931		-68.359375
4932		-64.453125
4933		-66.406250
4934		-62.500000
4935		-64.453125
4936		-60.546875
4937		-64.453125
4938		-60.546875
4939		-60.546875
4940		-56.640625
4941		-60.546875
4942		-54.687500
4943		-56.640625
4944		-52.734375
4945		-54.687500
4946		-50.781250
4947		-52.734375
4948		-48.828125
4949		-50.781250
4950		-46.875000
4951		-48.828125
4952		-44.921875
4953		-48.828125
4954		-42.968750
4955		-44.921875
4956		-41.015625
4957		-42.968750
4958		-39.062500
4959		-41.015625
4960		-37.109375
4961		-39.062500
4962		-33.203125
4963		-35.156250
4964		-31.250000
4965		-33.203125
4966		-29.296875
4967		-31.250000
4968		-27.343750
4969		-29.296875
4970		-23.437500
4971		-25.390625
4972		-21.484375
4973		-23.437500
4974		-19.531250
4975		-21.484375
4976		-15.625000
4977		-17.578125
4978		-13.671875
4979		-15.625000
4980		-11.718750
4981		-13.671875
4982		-9.765625
4983		-11.718750
4984		-5.859375
4985		-7.812500
4986		-3.906250
4987		-5.859375
4988		-1.953125
4989		-3.906250
4990		0.000000
4991		-1.953125
4992		3.906250
4993		1.953125
4994		5.859375
4995		3.906250
4996		9.765625
4997		5.859375
4998		11.718750
4999		9.765625
5000		13.671875
5001		11.718750
5002		15.625000
5003		13.671875
5004		17.578125
5005		17.578125
5006		21.484375
5007		19.531250
5008		23.437500
5009		21.484375
5010		25.390625
5011		23.437500
5012		29.296875
5013		27.343750
5014		31.250000
5015		29.296875
5016		33.203125
5017		31.250000
5018		35.156250
5019		33.203125
5020		39.062500
5021		37.109375
5022		41.015625
5023		39.062500
5024		42.968750
5025		41.015625
5026		44.921875
5027		42.968750
5028		48.828125
5029		46.875000
5030		50.781250
5031		48.828125
5032		52.734375
5033		50.781250
5034		54.687500
5035		52.734375
5036		56.640625
5037		52.734375
5038		58.593750
5039		56.640625
5040		60.546875
5041		58.593750
5042		62.500000
5043		60.546875
5044		64.453125
5045		62.500000
5046		68.359375
5047		64.453125
5048		70.312500
5049		68.359375
5050		70.312500
5051		68.359375
5052		72.265625
5053		70.312500
5054		76.171875
5055		74.218750
5056		76.171875
5057		76.171875
5058		80.078125
5059		76.171875
5060		80.078125
5061		78.125000
5062		82.031250
5063		80.078125
5064		83.984375
5065		82.031250
5066		85.937500
5067		83.984375
5068		87.890625
5069		85.937500
5070		89.843750
5071		87.890625
5072		89.843750
5073		89.843750
5074		91.796875
5075		89.843750
5076		93.750000
5077		91.796875
5078		95.703125
5079		93.750000
5080		97.656250
5081		93.750000
5082		97.656250
5083		95.703125
5084		99.609375
5085		97.656250
5086		99.609375
5087		97.656250
5088		101.562500
5089		99.609375
5090		103.515625
5091		99.609375
5092		103.515625
5093		101.562500
5094		105.468750
5095		101.562500
5096		105.468750
5097		103.515625
5098		105.468750
5099		103.515625
5100		109.375000
5101		105.468750
5102		109.375000
5103		105.468750
5104		109.375000
5105		107.421875
5106		109.375000
5107		107.421875
5108		111.328125
5109		107.421875
5110		111.328125
5111		109.375000
5112		111.328125
5113		109.375000
5114		113.281250
5115		111.328125
5116		113.281250
5117		111.328125
5118		113.281250
5119		111.328125
5120		115.234375
5121		111.328125
5122		115.234375
5123		111.328125
5124		115.234375
5125		111.328125
5126		115.234375
5127		113.281250
5128		115.234375
5129		113.281250
5130		115.234375
5131		113.281250
5132		115.234375
5133		113.281250
5134		115.234375
5135		113.281250
5136		115.234375
5137		113.281250
5138		117.187500
5139		113.281250
5140		115.234375
5141		113.281250
5142		115.234375
5143		111.328125
5144		115.234375
5145		111.328125
5146		115.234375
5147		111.328125
5148		115.234375
5149		111.328125
5150		115.234375
5151		111.328125
5152		115.234375
5153		109.375000
5154		113.281250
5155		109.375000
5156		113.281250
5157		109.375000
5158		113.281250
5159		107.421875
5160		111.328125
5161		107.421875
5162		111.328125
5163		107.421875
5164		111.328125
5165		107.421875
5166		109.375000
5167		105.468750
5168		109.375000
5169		105.468750
5170		107.421875
5171		103.515625
5172		107.421875
5173		103.515625
5174		105.468750
5175		101.562500
5176		105.468750
5177		101.562500
5178		103.515625
5179		99.609375
5180		103.515625
5181		99.609375
5182		101.562500
5183		97.656250
5184		101.562500
5185		95.703125
5186		99.609375
5187		93.750000
5188		97.656250
5189		91.796875
5190		95.703125
5191		91.796875
5192		95.703125
5193		89.843750
5194		93.750000
5195		89.843750
5196		93.750000
5197		87.890625
5198		91.796875
5199		85.937500
5200		89.843750
5201		83.984375
5202		87.890625
5203		82.031250
5204		85.937500
5205		80.078125
5206		83.984375
5207		78.125000
5208		82.031250
5209		76.171875
5210		80.078125
5211		74.218750
5212		78.125000
5213		72.265625
5214		78.125000
5215		70.312500
5216		74.218750
5217		68.359375
5218		72.265625
5219		66.406250
5220		70.312500
5221		64.453125
5222		68.359375
5223		62.500000
5224		66.406250
5225		60.546875
5226		64.453125
5227		58.593750
5228		62.500000
5229		54.687500
5230		60.546875
5231		54.687500
5232		58.593750
5233		52.734375
5234		54.687500
5235		48.828125
5236		54.687500
5237		46.875000
5238		50.781250
5239		44.921875
5240		48.828125
5241		42.968750
5242		46.875000
5243		39.062500
5244		44.921875
5245		37.109375
5246		42.968750
5247		35.156250
5248		39.062500
5249		31.250000
5250		37.109375
5251		29.296875
5252		35.156250
5253		27.343750
5254		31.250000
5255		25.390625
5256		29.296875
5257		23.437500
5258		27.343750
5259		19.531250
5260		23.437500
5261		17.578125
5262		21.484375
5263		15.625000
5264		19.531250
5265		13.671875
5266		17.578125
5267		9.765625
5268		13.671875
5269		7.812500
5270		11.718750
5271		3.906250
5272		9.765625
5273		1.953125
5274		5.859375
5275		0.000000
5276		3.906250
5277		-1.953125
5278		1.953125
5279		-3.906250
5280		0.000000
5281		-7.812500
5282		-1.953125
5283		-9.765625
5284		-5.859375
5285		-11.718750
5286		-7.812500
5287		-15.625000
5288		-11.718750
5289		-17.578125
5290		-13.671875
5291		-19.531250
5292		-15.625000
5293		-23.437500
5294		-17.578125
5295		-25.390625
5296		-21.484375
5297		-27.343750
5298		-23.437500
5299		-29.296875
5300		-25.390625
5301		-33.203125
5302		-27.343750
5303		-35.156250
5304		-29.296875
5305		-37.109375
5306		-33.203125
5307		-39.062500
5308		-35.156250
5309		-41.015625
5310		-37.109375
5311		-42.968750
5312		-39.062500
5313		-46.875000
5314		-41.015625
5315		-46.875000
5316		-42.968750
5317		-50.781250
5318		-46.875000
5319		-52.734375
5320		-48.828125
5321		-54.687500
5322		-48.828125
5323		-56.640625
5324		-50.781250
5325		-58.593750
5326		-54.687500
5327		-60.546875
5328		-56.640625
5329		-62.500000
5330		-58.593750
5331		-62.500000
5332		-60.546875
5333		-66.406250
5334		-60.546875
5335		-66.406250
5336		-62.500000
5337		-68.359375
5338		-64.453125
5339		-70.312500
5340		-66.406250
5341		-72.265625
5342		-68.359375
5343		-74.218750
5344		-70.312500
5345		-76.171875
5346		-70.312500
5347		-76.171875
5348		-72.265625
5349		-78.125000
5350		-74.218750
5351		-78.125000
5352		-76.171875
5353		-80.078125
5354		-76.171875
5355		-82.031250
5356		-78.125000
5357		-82.031250
5358		-80.078125
5359		-83.984375
5360		-80.078125
5361		-85.937500
5362		-80.078125
5363		-85.937500
5364		-82.031250
5365		-87.890625
5366		-82.031250
5367		-85.937500
5368		-83.984375
5369		-87.890625
5370		-83.984375
5371		-87.890625
5372		-85.937500
5373		-89.843750
5374		-85.937500
5375		-89.843750
5376		-85.937500
5377		-89.843750
5378		-87.890625
5379		-89.843750
5380		-87.890625
5381		-91.796875
5382		-87.890625
5383		-91.796875
5384		-87.890625
5385		-91.796875
5386		-87.890625
5387		-91.796875
5388		-87.890625
5389		-93.750000
5390		-87.890625
5391		-91.796875
5392		-89.843750
5393		-91.796875
5394		-89.843750
5395		-91.796875
5396		-87.890625
5397		-91.796875
5398		-87.890625
5399		-91.796875
5400		-87.890625
5401		-91.796875
5402		-87.890625
5403		-89.843750
5404		-87.890625
5405		-89.843750
5406		-85.937500
5407		-89.843750
5408		-85.937500
5409		-87.890625
5410		-85.937500
5411		-87.890625
5412		-83.984375
5413		-87.890625
5414		-83.984375
5415		-85.937500
5416		-83.984375
5417		-85.937500
5418		-82.031250
5419		-85.937500
5420		-82.031250
5421		-83.984375
5422		-80.078125
5423		-83.984375
5424		-80.078125
5425		-82.031250
5426		-78.125000
5427		-80.078125
5428		-76.171875
5429		-80.078125
5430		-76.171875
5431		-78.125000
5432		-74.218750
5433		-76.171875
5434		-74.218750
5435		-76.171875
5436		-72.265625
5437		-74.218750
5438		-70.312500
5439		-72.265625
5440		-68.359375
5441		-70.312500
5442		-68.359375
5443		-68.359375
5444		-66.406250
5445		-68.359375
5446		-62.500000
5447		-66.406250
5448		-62.500000
5449		-64.453125
5450		-60.546875
5451		-62.500000
5452		-58.593750
5453		-60.546875
5454		-56.640625
5455		-58.593750
5456		-54.687500
5457		-56.640625
5458		-52.734375
5459		-54.687500
5460		-50.781250
5461		-52.734375
5462		-48.828125
5463		-48.828125
5464		-46.875000
5465		-46.875000
5466		-42.968750
5467		-44.921875
5468		-41.015625
5469		-44.921875
5470		-39.062500
5471		-41.015625
5472		-37.109375
5473		-39.062500
5474		-33.203125
5475		-37.109375
5476		-33.203125
5477		-33.203125
5478		-29.296875
5479		-33.203125
5480		-27.343750
5481		-29.296875
5482		-25.390625
5483		-27.343750
5484		-23.437500
5485		-23.437500
5486		-19.531250
5487		-21.484375
5488		-17.578125
5489		-19.531250
5490		-15.625000
5491		-17.578125
5492		-13.671875
5493		-13.671875
5494		-9.765625
5495		-11.718750
5496		-7.812500
5497		-9.765625
5498		-5.859375
5499		-7.812500
5500		-3.906250
5501		-5.859375
5502		0.000000
5503		-1.953125
5504		1.953125
5505		0.000000
5506		3.906250
5507		1.953125
5508		7.812500
5509		5.859375
5510		9.765625
5511		7.812500
5512		13.671875
5513		9.765625
5514		15.625000
5515		13.671875
5516		17.578125
5517		15.625000
5518		19.531250
5519		17.578125
5520		21.484375
5521		19.531250
5522		25.390625
5523		23.437500
5524		27.343750
5525		25.390625
5526		29.296875
5527		27.343750
5528		31.250000
5529		31.250000
5530		35.156250
5531		33.203125
5532		37.109375
5533		35.156250
5534		39.062500
5535		39.062500
5536		42.968750
5537		39.062500
5538		44.921875
5539		42.968750
5540		46.875000
5541		44.921875
5542		48.828125
5543		46.875000
5544		50.781250
5545		50.781250
5546		54.687500
5547		50.781250
5548		54.687500
5549		54.687500
5550		58.593750
5551		56.640625
5552		60.546875
5553		58.593750
5554		62.500000
5555		60.546875
5556		64.453125
5557		62.500000
5558		68.359375
5559		64.453125
5560		68.359375
5561		66.406250
5562		70.312500
5563		68.359375
5564		72.265625
5565		70.312500
5566		74.218750
5567		72.265625
5568		76.171875
5569		74.218750
5570		78.125000
5571		76.171875
5572		80.078125
5573		78.125000
5574		82.031250
5575		80.078125
5576		83.984375
5577		82.031250
5578		85.937500
5579		83.984375
5580		87.890625
5581		83.984375
5582		89.843750
5583		85.937500
5584		89.843750
5585		87.890625
5586		91.796875
5587		89.843750
5588		93.750000
5589		89.843750
5590		95.703125
5591		91.796875
5592		95.703125
5593		93.750000
5594		97.656250
5595		95.703125
5596		99.609375
5597		97.656250
5598		99.609375
5599		97.656250
5600		101.562500
5601		99.609375
5602		101.562500
5603		99.609375
5604		103.515625
5605		101.562500
5606		105.468750
5607		101.562500
5608		107.421875
5609		103.515625
5610		107.421875
5611		103.515625
5612		107.421875
5613		105.468750
5614		109.375000
5615		105.468750
5616		109.375000
5617		107.421875
5618		111.328125
5619		107.421875
5620		111.328125
5621		107.421875
5622		111.328125
5623		109.375000
5624		113.281250
5625		109.375000
5626		113.281250
5627		111.328125
5628		113.281250
5629		111.328125
5630		115.234375
5631		111.328125
5632		115.234375
5633		111.328125
5634		115.234375
5635		113.281250
5636		115.234375
5637		111.328125
5638		115.234375
5639		113.281250
5640		115.234375
5641		113.281250
5642		117.187500
5643		113.281250
5644		115.234375
5645		113.281250
5646		115.234375
5647		113.281250
5648		117.187500
5649		113.281250
5650		117.187500
5651		113.281250
5652		117.187500
5653		113.281250
5654		117.187500
5655		113.281250
5656		115.234375
5657		113.281250
5658		115.234375
5659		111.328125
5660		115.234375
5661		113.281250
5662		115.234375
5663		111.328125
5664		115.234375
5665		111.328125
5666		115.234375
5667		111.328125
5668		113.281250
5669		111.328125
5670		113.281250
5671		109.375000
5672		113.281250
5673		109.375000
5674		113.281250
5675		107.421875
5676		111.328125
5677		107.421875
5678		111.328125
5679		105.468750
5680		109.375000
5681		105.468750
5682		109.375000
5683		105.468750
5684		109.375000
5685		103.515625
5686		107.421875
5687		103.515625
5688		107.421875
5689		101.562500
5690		105.468750
5691		101.562500
5692		103.515625
5693		99.609375
5694		103.515625
5695		97.656250
5696		101.562500
5697		97.656250
5698		101.562500
5699		95.703125
5700		99.609375
5701		93.750000
5702		99.609375
5703		93.750000
5704		95.703125
5705		91.796875
5706		95.703125
5707		89.843750
5708		93.750000
5709		89.843750
5710		91.796875
5711		87.890625
5712		89.843750
5713		85.937500
5714		89.843750
5715		83.984375
5716		87.890625
5717		82.031250
5718		85.937500
5719		80.078125
5720		83.984375
5721		78.125000
5722		82.031250
5723		76.171875
5724		80.078125
5725		74.218750
5726		80.078125
5727		72.265625
5728		76.171875
5729		72.265625
5730		74.218750
5731		68.359375
5732		74.218750
5733		66.406250
5734		70.312500
5735		64.453125
5736		70.312500
5737		62.500000
5738		66.406250
5739		60.546875
5740		64.453125
5741		58.593750
5742		62.500000
5743		56.640625
5744		60.546875
5745		54.687500
5746		58.593750
5747		50.781250
5748		54.687500
5749		48.828125
5750		52.734375
5751		46.875000
5752		52.734375
5753		42.968750
5754		48.828125
5755		42.968750
5756		46.875000
5757		39.062500
5758		44.921875
5759		37.109375
5760		41.015625
5761		35.156250
5762		39.062500
5763		33.203125
5764		37.109375
5765		29.296875
5766		35.156250
5767		27.343750
5768		31.250000
5769		25.390625
5770		29.296875
5771		23.437500
5772		27.343750
5773		19.531250
5774		25.390625
5775		17.578125
5776		21.484375
5777		15.625000
5778		19.531250
5779		13.671875
5780		15.625000
5781		9.765625
5782		15.625000
5783		7.812500
5784		11.718750
5785		5.859375
5786		9.765625
5787		1.953125
5788		5.859375
5789		-1.953125
5790		3.906250
5791		-1.953125
5792		1.953125
5793		-5.859375
5794		0.000000
5795		-7.812500
5796		-3.906250
5797		-9.765625
5798		-5.859375
5799		-13.671875
5800		-7.812500
5801		-15.625000
5802		-11.718750
5803		-17.578125
5804		-11.718750
5805		-19.531250
5806		-15.625000
5807		-23.437500
5808		-17.578125
5809		-25.390625
5810		-21.484375
5811		-27.343750
5812		-23.437500
5813		-29.296875
5814		-25.390625
5815		-33.203125
5816		-27.343750
5817		-35.156250
5818		-29.296875
5819		-37.109375
5820		-31.250000
5821		-41.015625
5822		-35.156250
5823		-41.015625
5824		-37.109375
5825		-42.968750
5826		-39.062500
5827		-44.921875
5828		-41.015625
5829		-46.875000
5830		-42.968750
5831		-50.781250
5832		-44.921875
5833		-52.734375
5834		-48.828125
5835		-54.687500
5836		-48.828125
5837		-56.640625
5838		-50.781250
5839		-58.593750
5840		-52.734375
5841		-60.546875
5842		-56.640625
5843		-60.546875
5844		-56.640625
5845		-62.500000
5846		-58.593750
5847		-64.453125
5848		-62.500000
5849		-68.359375
5850		-62.500000
5851		-70.312500
5852		-64.453125
5853		-70.312500
5854		-64.453125
5855		-72.265625
5856		-66.406250
5857		-74.218750
5858		-68.359375
5859		-76.171875
5860		-70.312500
5861		-76.171875
5862		-72.265625
5863		-78.125000
5864		-74.218750
5865		-80.078125
5866		-74.218750
5867		-80.078125
5868		-76.171875
5869		-82.031250
5870		-76.171875
5871		-82.031250
5872		-78.125000
5873		-83.984375
5874		-78.125000
5875		-83.984375
5876		-80.078125
5877		-85.937500
5878		-80.078125
5879		-85.937500
5880		-82.031250
5881		-85.937500
5882		-83.984375
5883		-87.890625
5884		-83.984375
5885		-87.890625
5886		-83.984375
5887		-89.843750
5888		-83.984375
5889		-89.843750
5890		-85.937500
5891		-89.843750
5892		-85.937500
5893		-89.843750
5894		-85.937500
5895		-89.843750
5896		-87.890625
5897		-89.843750
5898		-87.890625
5899		-91.796875
5900		-87.890625
5901		-91.796875
5902		-85.937500
5903		-91.796875
5904		-85.937500
5905		-91.796875
5906		-87.890625
5907		-91.796875
5908		-85.937500
5909		-91.796875
5910		-85.937500
5911		-89.843750
5912		-87.890625
5913		-89.843750
5914		-87.890625
5915		-89.843750
5916		-85.937500
5917		-89.843750
5918		-85.937500
5919		-89.843750
5920		-85.937500
5921		-87.890625
5922		-85.937500
5923		-87.890625
5924		-85.937500
5925		-85.937500
5926		-83.984375
5927		-87.890625
5928		-83.984375
5929		-85.937500
5930		-82.031250
5931		-83.984375
5932		-82.031250
5933		-83.984375
5934		-80.078125
5935		-82.031250
5936		-80.078125
5937		-82.031250
5938		-78.125000
5939		-80.078125
5940		-78.125000
5941		-80.078125
5942		-76.171875
5943		-78.125000
5944		-74.218750
5945		-78.125000
5946		-74.218750
5947		-76.171875
5948		-72.265625
5949		-74.218750
5950		-70.312500
5951		-72.265625
5952		-68.359375
5953		-70.312500
5954		-68.359375
5955		-70.312500
5956		-66.406250
5957		-68.359375
5958		-64.453125
5959		-66.406250
5960		-62.500000
5961		-64.453125
5962		-60.546875
5963		-62.500000
5964		-58.593750
5965		-60.546875
5966		-56.640625
5967		-58.593750
5968		-54.687500
5969		-56.640625
5970		-52.734375
5971		-54.687500
5972		-50.781250
5973		-52.734375
5974		-48.828125
5975		-50.781250
5976		-46.875000
5977		-48.828125
5978		-44.921875
5979		-46.875000
5980		-42.968750
5981		-44.921875
5982		-41.015625
5983		-42.968750
5984		-39.062500
5985		-39.062500
5986		-35.156250
5987		-37.109375
5988		-33.203125
5989		-35.156250
5990		-31.250000
5991		-33.203125
5992		-29.296875
5993		-31.250000
5994		-27.343750
5995		-27.343750
5996		-25.390625
5997		-25.390625
5998		-21.484375
5999		-23.437500
6000		-19.531250
6001		-21.484375
6002		-17.578125
6003		-17.578125
6004		-13.671875
6005		-15.625000
6006		-11.718750
6007		-13.671875
6008		-9.765625
6009		-11.718750
6010		-7.812500
6011		-7.812500
6012		-3.906250
6013		-5.859375
6014		-1.953125
6015		-3.906250
6016		0.000000
6017		-3.906250
6018		3.906250
6019		-1.953125
6020		7.812500
6021		1.953125
6022		9.765625
6023		7.812500
6024		9.765625
6025		9.765625
6026		13.671875
6027		11.718750
6028		15.625000
6029		13.671875
6030		17.578125
6031		17.578125
6032		21.484375
6033		17.578125
6034		25.390625
6035		21.484375
6036		29.296875
6037		21.484375
6038		31.250000
6039		27.343750
6040		31.250000
6041		29.296875
6042		33.203125
6043		31.250000
6044		35.156250
6045		33.203125
6046		39.062500
6047		37.109375
6048		41.015625
6049		39.062500
6050		46.875000
6051		39.062500
6052		48.828125
6053		41.015625
6054		50.781250
6055		42.968750
6056		50.781250
6057		48.828125
6058		52.734375
6059		50.781250
6060		54.687500
6061		52.734375
6062		56.640625
6063		54.687500
6064		58.593750
6065		58.593750
6066		62.500000
6067		56.640625
6068		66.406250
6069		58.593750
6070		68.359375
6071		60.546875
6072		70.312500
6073		66.406250
6074		70.312500
6075		68.359375
6076		72.265625
6077		70.312500
6078		74.218750
6079		72.265625
6080		76.171875
6081		74.218750
6082		78.125000
6083		74.218750
6084		82.031250
6085		74.218750
6086		83.984375
6087		76.171875
6088		87.890625
6089		78.125000
6090		85.937500
6091		83.984375
6092		85.937500
6093		83.984375
6094		87.890625
6095		85.937500
6096		89.843750
6097		87.890625
6098		91.796875
6099		89.843750
6100		93.750000
6101		87.890625
6102		97.656250
6103		89.843750
6104		97.656250
6105		89.843750
6106		99.609375
6107		95.703125
6108		97.656250
6109		97.656250
6110		99.609375
6111		97.656250
6112		101.562500
6113		99.609375
6114		101.562500
6115		99.609375
6116		103.515625
6117		99.609375
6118		107.421875
6119		99.609375
6120		109.375000
6121		101.562500
6122		109.375000
6123		105.468750
6124		107.421875
6125		105.468750
6126		107.421875
6127		107.421875
6128		109.375000
6129		107.421875
6130		109.375000
6131		107.421875
6132		111.328125
6133		107.421875
6134		115.234375
6135		105.468750
6136		117.187500
6137		105.468750
6138		117.187500
6139		107.421875
6140		117.187500
6141		111.328125
6142		113.281250
6143		111.328125
6144		115.234375
6145		113.281250
6146		115.234375
6147		113.281250
6148		115.234375
6149		113.281250
6150		115.234375
6151		109.375000
6152		119.140625
6153		111.328125
6154		119.140625
6155		111.328125
6156		121.093750
6157		113.281250
6158		117.187500
6159		115.234375
6160		117.187500
6161		115.234375
6162		117.187500
6163		115.234375
6164		117.187500
6165		115.234375
6166		117.187500
6167		111.328125
6168		119.140625
6169		111.328125
6170		119.140625
6171		111.328125
6172		119.140625
6173		111.328125
6174		117.187500
6175		113.281250
6176		115.234375
6177		113.281250
6178		115.234375
6179		111.328125
6180		115.234375
6181		111.328125
6182		113.281250
6183		111.328125
6184		113.281250
6185		107.421875
6186		117.187500
6187		107.421875
6188		115.234375
6189		105.468750
6190		113.281250
6191		107.421875
6192		111.328125
6193		107.421875
6194		109.375000
6195		107.421875
6196		109.375000
6197		105.468750
6198		107.421875
6199		103.515625
6200		107.421875
6201		103.515625
6202		107.421875
6203		101.562500
6204		107.421875
6205		99.609375
6206		107.421875
6207		99.609375
6208		103.515625
6209		99.609375
6210		101.562500
6211		97.656250
6212		101.562500
6213		95.703125
6214		99.609375
6215		95.703125
6216		97.656250
6217		93.750000
6218		95.703125
6219		89.843750
6220		97.656250
6221		87.890625
6222		95.703125
6223		87.890625
6224		95.703125
6225		87.890625
6226		89.843750
6227		85.937500
6228		87.890625
6229		83.984375
6230		87.890625
6231		82.031250
6232		85.937500
6233		80.078125
6234		83.984375
6235		78.125000
6236		82.031250
6237		76.171875
6238		82.031250
6239		74.218750
6240		80.078125
6241		72.265625
6242		76.171875
6243		70.312500
6244		74.218750
6245		68.359375
6246		72.265625
6247		66.406250
6248		70.312500
6249		64.453125
6250		68.359375
6251		62.500000
6252		66.406250
6253		60.546875
6254		64.453125
6255		58.593750
6256		62.500000
6257		56.640625
6258		60.546875
6259		52.734375
6260		56.640625
6261		50.781250
6262		54.687500
6263		48.828125
6264		52.734375
6265		46.875000
6266		50.781250
6267		44.921875
6268		48.828125
6269		42.968750
6270		46.875000
6271		39.062500
6272		42.968750
6273		37.109375
6274		41.015625
6275		35.156250
6276		39.062500
6277		33.203125
6278		37.109375
6279		29.296875
6280		33.203125
6281		27.343750
6282		31.250000
6283		25.390625
6284		29.296875
6285		21.484375
6286		25.390625
6287		19.531250
6288		23.437500
6289		17.578125
6290		21.484375
6291		13.671875
6292		17.578125
6293		11.718750
6294		15.625000
6295		9.765625
6296		13.671875
6297		7.812500
6298		11.718750
6299		3.906250
6300		7.812500
6301		1.953125
6302		5.859375
6303		0.000000
6304		3.906250
6305		-3.906250
6306		1.953125
6307		-5.859375
6308		-1.953125
6309		-7.812500
6310		-3.906250
6311		-9.765625
6312		-5.859375
6313		-13.671875
6314		-9.765625
6315		-15.625000
6316		-11.718750
6317		-17.578125
6318		-13.671875
6319		-21.484375
6320		-15.625000
6321		-23.437500
6322		-19.531250
6323		-25.390625
6324		-21.484375
6325		-29.296875
6326		-23.437500
6327		-29.296875
6328		-25.390625
6329		-33.203125
6330		-29.296875
6331		-35.156250
6332		-31.250000
6333		-37.109375
6334		-33.203125
6335		-41.015625
6336		-35.156250
6337		-42.968750
6338		-37.109375
6339		-42.968750
6340		-41.015625
6341		-46.875000
6342		-42.968750
6343		-48.828125
6344		-42.968750
6345		-50.781250
6346		-46.875000
6347		-52.734375
6348		-48.828125
6349		-54.687500
6350		-50.781250
6351		-56.640625
6352		-52.734375
6353		-58.593750
6354		-52.734375
6355		-60.546875
6356		-56.640625
6357		-62.500000
6358		-58.593750
6359		-64.453125
6360		-60.546875
6361		-66.406250
6362		-62.500000
6363		-66.406250
6364		-64.453125
6365		-68.359375
6366		-64.453125
6367		-70.312500
6368		-66.406250
6369		-72.265625
6370		-66.406250
6371		-74.218750
6372		-70.312500
6373		-74.218750
6374		-72.265625
6375		-76.171875
6376		-72.265625
6377		-78.125000
6378		-74.218750
6379		-78.125000
6380		-76.171875
6381		-80.078125
6382		-78.125000
6383		-80.078125
6384		-78.125000
6385		-83.984375
6386		-78.125000
6387		-83.984375
6388		-80.078125
6389		-83.984375
6390		-80.078125
6391		-83.984375
6392		-82.031250
6393		-85.937500
6394		-83.984375
6395		-85.937500
6396		-83.984375
6397		-87.890625
6398		-83.984375
6399		-87.890625
6400		-85.937500
6401		-87.890625
6402		-85.937500
6403		-91.796875
6404		-83.984375
6405		-89.843750
6406		-85.937500
6407		-89.843750
6408		-87.890625
6409		-91.796875
6410		-87.890625
6411		-91.796875
6412		-87.890625
6413		-89.843750
6414		-87.890625
6415		-91.796875
6416		-87.890625
6417		-91.796875
6418		-89.843750
6419		-93.750000
6420		-85.937500
6421		-91.796875
6422		-87.890625
6423		-91.796875
6424		-87.890625
6425		-91.796875
6426		-87.890625
6427		-91.796875
6428		-87.890625
6429		-89.843750
6430		-87.890625
6431		-89.843750
6432		-87.890625
6433		-87.890625
6434		-85.937500
6435		-87.890625
6436		-85.937500
6437		-89.843750
6438		-83.984375
6439		-87.890625
6440		-83.984375
6441		-85.937500
6442		-83.984375
6443		-85.937500
6444		-82.031250
6445		-85.937500
6446		-82.031250
6447		-83.984375
6448		-80.078125
6449		-82.031250
6450		-80.078125
6451		-82.031250
6452		-78.125000
6453		-82.031250
6454		-76.171875
6455		-80.078125
6456		-76.171875
6457		-78.125000
6458		-74.218750
6459		-76.171875
6460		-72.265625
6461		-76.171875
6462		-72.265625
6463		-74.218750
6464		-70.312500
6465		-72.265625
6466		-68.359375
6467		-70.312500
6468		-68.359375
6469		-68.359375
6470		-64.453125
6471		-68.359375
6472		-64.453125
6473		-66.406250
6474		-62.500000
6475		-64.453125
6476		-60.546875
6477		-62.500000
6478		-58.593750
6479		-62.500000
6480		-56.640625
6481		-58.593750
6482		-54.687500
6483		-56.640625
6484		-52.734375
6485		-54.687500
6486		-50.781250
6487		-52.734375
6488		-48.828125
6489		-50.781250
6490		-46.875000
6491		-48.828125
6492		-44.921875
6493		-46.875000
6494		-42.968750
6495		-44.921875
6496		-41.015625
6497		-41.015625
6498		-37.109375
6499		-39.062500
6500		-35.156250
6501		-37.109375
6502		-33.203125
6503		-35.156250
6504		-31.250000
6505		-33.203125
6506		-29.296875
6507		-29.296875
6508		-25.390625
6509		-27.343750
6510		-23.437500
6511		-25.390625
6512		-21.484375
6513		-23.437500
6514		-19.531250
6515		-19.531250
6516		-15.625000
6517		-17.578125
6518		-13.671875
6519		-15.625000
6520		-11.718750
6521		-13.671875
6522		-9.765625
6523		-9.765625
6524		-5.859375
6525		-7.812500
6526		-3.906250
6527		-3.906250
6528		-1.953125
6529		-1.953125
6530		1.953125
6531		0.000000
6532		3.906250
6533		1.953125
6534		5.859375
6535		3.906250
6536		9.765625
6537		7.812500
6538		11.718750
6539		9.765625
6540		13.671875
6541		11.718750
6542		15.625000
6543		15.625000
6544		19.531250
6545		17.578125
6546		21.484375
6547		19.531250
6548		23.437500
6549		23.437500
6550		27.343750
6551		25.390625
6552		29.296875
6553		27.343750
6554		31.250000
6555		29.296875
6556		33.203125
6557		33.203125
6558		37.109375
6559		35.156250
6560		39.062500
6561		37.109375
6562		41.015625
6563		39.062500
6564		42.968750
6565		41.015625
6566		44.921875
6567		44.921875
6568		48.828125
6569		46.875000
6570		50.781250
6571		48.828125
6572		52.734375
6573		50.781250
6574		54.687500
6575		52.734375
6576		56.640625
6577		56.640625
6578		58.593750
6579		58.593750
6580		62.500000
6581		60.546875
6582		64.453125
6583		62.500000
6584		66.406250
6585		64.453125
6586		68.359375
6587		66.406250
6588		70.312500
6589		68.359375
6590		72.265625
6591		70.312500
6592		74.218750
6593		72.265625
6594		76.171875
6595		74.218750
6596		78.125000
6597		76.171875
6598		80.078125
6599		78.125000
6600		82.031250
6601		80.078125
6602		83.984375
6603		82.031250
6604		83.984375
6605		82.031250
6606		85.937500
6607		83.984375
6608		87.890625
6609		85.937500
6610		89.843750
6611		87.890625
6612		91.796875
6613		89.843750
6614		93.750000
6615		91.796875
6616		93.750000
6617		91.796875
6618		95.703125
6619		93.750000
6620		97.656250
6621		95.703125
6622		97.656250
6623		95.703125
6624		99.609375
6625		97.656250
6626		101.562500
6627		99.609375
6628		101.562500
6629		99.609375
6630		103.515625
6631		101.562500
6632		105.468750
6633		101.562500
6634		105.468750
6635		103.515625
6636		105.468750
6637		105.468750
6638		109.375000
6639		103.515625
6640		109.375000
6641		105.468750
6642		109.375000
6643		107.421875
6644		109.375000
6645		107.421875
6646		111.328125
6647		109.375000
6648		111.328125
6649		109.375000
6650		111.328125
6651		109.375000
6652		113.281250
6653		111.328125
6654		113.281250
6655		109.375000
6656		115.234375
6657		111.328125
6658		115.234375
6659		111.328125
6660		115.234375
6661		113.281250
6662		115.234375
6663		113.281250
6664		115.234375
6665		113.281250
6666		115.234375
6667		113.281250
6668		115.234375
6669		113.281250
6670		115.234375
6671		111.328125
6672		119.140625
6673		111.328125
6674		117.187500
6675		113.281250
6676		115.234375
6677		113.281250
6678		117.187500
6679		113.281250
6680		115.234375
6681		113.281250
6682		115.234375
6683		113.281250
6684		115.234375
6685		113.281250
6686		115.234375
6687		113.281250
6688		115.234375
6689		111.328125
6690		117.187500
6691		109.375000
6692		115.234375
6693		111.328125
6694		113.281250
6695		111.328125
6696		113.281250
6697		111.328125
6698		113.281250
6699		109.375000
6700		111.328125
6701		109.375000
6702		111.328125
6703		107.421875
6704		111.328125
6705		105.468750
6706		111.328125
6707		105.468750
6708		111.328125
6709		105.468750
6710		107.421875
6711		103.515625
6712		107.421875
6713		103.515625
6714		105.468750
6715		103.515625
6716		105.468750
6717		101.562500
6718		103.515625
6719		99.609375
6720		103.515625
6721		97.656250
6722		103.515625
6723		95.703125
6724		103.515625
6725		95.703125
6726		101.562500
6727		95.703125
6728		97.656250
6729		93.750000
6730		97.656250
6731		91.796875
6732		95.703125
6733		89.843750
6734		93.750000
6735		89.843750
6736		91.796875
6737		87.890625
6738		89.843750
6739		83.984375
6740		89.843750
6741		82.031250
6742		89.843750
6743		82.031250
6744		85.937500
6745		80.078125
6746		83.984375
6747		78.125000
6748		82.031250
6749		76.171875
6750		80.078125
6751		74.218750
6752		78.125000
6753		72.265625
6754		76.171875
6755		70.312500
6756		74.218750
6757		68.359375
6758		74.218750
6759		66.406250
6760		72.265625
6761		64.453125
6762		68.359375
6763		62.500000
6764		66.406250
6765		60.546875
6766		64.453125
6767		58.593750
6768		62.500000
6769		56.640625
6770		60.546875
6771		54.687500
6772		58.593750
6773		50.781250
6774		56.640625
6775		48.828125
6776		54.687500
6777		46.875000
6778		50.781250
6779		44.921875
6780		48.828125
6781		42.968750
6782		46.875000
6783		41.015625
6784		42.968750
6785		37.109375
6786		41.015625
6787		35.156250
6788		39.062500
6789		31.250000
6790		37.109375
6791		29.296875
6792		35.156250
6793		27.343750
6794		31.250000
6795		25.390625
6796		29.296875
6797		23.437500
6798		27.343750
6799		21.484375
6800		23.437500
6801		17.578125
6802		21.484375
6803		15.625000
6804		19.531250
6805		11.718750
6806		17.578125
6807		9.765625
6808		15.625000
6809		7.812500
6810		13.671875
6811		5.859375
6812		9.765625
6813		1.953125
6814		5.859375
6815		0.000000
6816		3.906250
6817		-1.953125
6818		1.953125
6819		-5.859375
6820		-1.953125
6821		-7.812500
6822		-3.906250
6823		-11.718750
6824		-5.859375
6825		-13.671875
6826		-7.812500
6827		-15.625000
6828		-9.765625
6829		-17.578125
6830		-13.671875
6831		-19.531250
6832		-15.625000
6833		-21.484375
6834		-19.531250
6835		-25.390625
6836		-21.484375
6837		-27.343750
6838		-23.437500
6839		-31.250000
6840		-25.390625
6841		-31.250000
6842		-29.296875
6843		-35.156250
6844		-31.250000
6845		-37.109375
6846		-33.203125
6847		-39.062500
6848		-35.156250
6849		-41.015625
6850		-37.109375
6851		-42.968750
6852		-39.062500
6853		-44.921875
6854		-41.015625
6855		-46.875000
6856		-44.921875
6857		-48.828125
6858		-44.921875
6859		-52.734375
6860		-48.828125
6861		-54.687500
6862		-50.781250
6863		-56.640625
6864		-52.734375
6865		-56.640625
6866		-54.687500
6867		-60.546875
6868		-56.640625
6869		-60.546875
6870		-58.593750
6871		-62.500000
6872		-60.546875
6873		-64.453125
6874		-60.546875
6875		-66.406250
6876		-62.500000
6877		-68.359375
6878		-64.453125
6879		-70.312500
6880		-66.406250
6881		-72.265625
6882		-68.359375
6883		-74.218750
6884		-70.312500
6885		-74.218750
6886		-72.265625
6887		-76.171875
6888		-72.265625
6889		-78.125000
6890		-74.218750
6891		-78.125000
6892		-76.171875
6893		-80.078125
6894		-76.171875
6895		-82.031250
6896		-78.125000
6897		-82.031250
6898		-80.078125
6899		-83.984375
6900		-80.078125
6901		-83.984375
6902		-82.031250
6903		-85.937500
6904		-82.031250
6905		-85.937500
6906		-83.984375
6907		-85.937500
6908		-83.984375
6909		-87.890625
6910		-85.937500
6911		-87.890625
6912		-85.937500
6913		-89.843750
6914		-85.937500
6915		-89.843750
6916		-87.890625
6917		-89.843750
6918		-87.890625
6919		-89.843750
6920		-87.890625
6921		-89.843750
6922		-87.890625
6923		-91.796875
6924		-87.890625
6925		-91.796875
6926		-87.890625
6927		-91.796875
6928		-89.843750
6929		-91.796875
6930		-89.843750
6931		-91.796875
6932		-87.890625
6933		-91.796875
6934		-89.843750
6935		-91.796875
6936		-89.843750
6937		-91.796875
6938		-89.843750
6939		-91.796875
6940		-87.890625
6941		-89.843750
6942		-87.890625
6943		-89.843750
6944		-87.890625
6945		-89.843750
6946		-87.890625
6947		-89.843750
6948		-87.890625
6949		-87.890625
6950		-85.937500
6951		-87.890625
6952		-85.937500
6953		-87.890625
6954		-83.984375
6955		-85.937500
6956		-83.984375
6957		-85.937500
6958		-82.031250
6959		-83.984375
6960		-82.031250
6961		-83.984375
6962		-82.031250
6963		-82.031250
6964		-80.078125
6965		-82.031250
6966		-78.125000
6967		-80.078125
6968		-78.125000
6969		-80.078125
6970		-76.171875
6971		-78.125000
6972		-74.218750
6973		-76.171875
6974		-74.218750
6975		-74.218750
6976		-72.265625
6977		-74.218750
6978		-70.312500
6979		-72.265625
6980		-68.359375
6981		-70.312500
6982		-66.406250
6983		-68.359375
6984		-66.406250
6985		-66.406250
6986		-64.453125
6987		-66.406250
6988		-62.500000
6989		-64.453125
6990		-60.546875
6991		-62.500000
6992		-58.593750
6993		-60.546875
6994		-56.640625
6995		-58.593750
6996		-54.687500
6997		-56.640625
6998		-52.734375
6999		-54.687500
7000		-50.781250
7001		-52.734375
7002		-48.828125
7003		-48.828125
7004		-46.875000
7005		-46.875000
7006		-44.921875
7007		-44.921875
7008		-41.015625
7009		-42.968750
7010		-39.062500
7011		-41.015625
7012		-37.109375
7013		-39.062500
7014		-35.156250
7015		-37.109375
7016		-33.203125
7017		-35.156250
7018		-29.296875
7019		-31.250000
7020		-27.343750
7021		-29.296875
7022		-25.390625
7023		-27.343750
7024		-23.437500
7025		-25.390625
7026		-19.531250
7027		-21.484375
7028		-17.578125
7029		-19.531250
7030		-15.625000
7031		-17.578125
7032		-13.671875
7033		-13.671875
7034		-9.765625
7035		-11.718750
7036		-7.812500
7037		-9.765625
7038		-5.859375
7039		-7.812500
7040		-3.906250
7041		-3.906250
7042		0.000000
7043		-1.953125
7044		1.953125
7045		0.000000
7046		3.906250
7047		3.906250
7048		7.812500
7049		5.859375
7050		9.765625
7051		7.812500
7052		11.718750
7053		11.718750
7054		15.625000
7055		13.671875
7056		17.578125
7057		15.625000
7058		19.531250
7059		17.578125
7060		21.484375
7061		21.484375
7062		25.390625
7063		23.437500
7064		27.343750
7065		25.390625
7066		29.296875
7067		29.296875
7068		31.250000
7069		31.250000
7070		35.156250
7071		33.203125
7072		37.109375
7073		35.156250
7074		39.062500
7075		39.062500
7076		42.968750
7077		41.015625
7078		44.921875
7079		42.968750
7080		46.875000
7081		44.921875
7082		48.828125
7083		46.875000
7084		50.781250
7085		50.781250
7086		52.734375
7087		52.734375
7088		54.687500
7089		54.687500
7090		58.593750
7091		56.640625
7092		60.546875
7093		58.593750
7094		62.500000
7095		60.546875
7096		64.453125
7097		62.500000
7098		66.406250
7099		64.453125
7100		68.359375
7101		66.406250
7102		70.312500
7103		68.359375
7104		72.265625
7105		70.312500
7106		74.218750
7107		72.265625
7108		76.171875
7109		74.218750
7110		78.125000
7111		76.171875
7112		80.078125
7113		78.125000
7114		82.031250
7115		80.078125
7116		83.984375
7117		82.031250
7118		85.937500
7119		83.984375
7120		85.937500
7121		85.937500
7122		87.890625
7123		85.937500
7124		89.843750
7125		87.890625
7126		91.796875
7127		89.843750
7128		93.750000
7129		91.796875
7130		93.750000
7131		91.796875
7132		95.703125
7133		93.750000
7134		97.656250
7135		95.703125
7136		97.656250
7137		95.703125
7138		99.609375
7139		97.656250
7140		101.562500
7141		99.609375
7142		101.562500
7143		99.609375
7144		103.515625
7145		101.562500
7146		103.515625
7147		101.562500
7148		105.468750
7149		103.515625
7150		105.468750
7151		103.515625
7152		107.421875
7153		105.468750
7154		107.421875
7155		105.468750
7156		109.375000
7157		107.421875
7158		109.375000
7159		107.421875
7160		109.375000
7161		107.421875
7162		111.328125
7163		109.375000
7164		111.328125
7165		109.375000
7166		113.281250
7167		109.375000
7168		113.281250
7169		111.328125
7170		113.281250
7171		111.328125
7172		113.281250
7173		111.328125
7174		113.281250
7175		111.328125
7176		113.281250
7177		113.281250
7178		115.234375
7179		111.328125
7180		115.234375
7181		113.281250
7182		115.234375
7183		113.281250
7184		115.234375
7185		113.281250
7186		115.234375
7187		113.281250
7188		115.234375
7189		113.281250
7190		115.234375
7191		113.281250
7192		115.234375
7193		113.281250
7194		115.234375
7195		113.281250
7196		115.234375
7197		113.281250
7198		115.234375
7199		111.328125
7200		115.234375
7201		111.328125
7202		113.281250
7203		111.328125
7204		113.281250
7205		111.328125
7206		113.281250
7207		111.328125
7208		113.281250
7209		109.375000
7210		113.281250
7211		109.375000
7212		111.328125
7213		107.421875
7214		111.328125
7215		107.421875
7216		111.328125
7217		107.421875
7218		109.375000
7219		105.468750
7220		109.375000
7221		105.468750
7222		107.421875
7223		103.515625
7224		107.421875
7225		103.515625
7226		105.468750
7227		101.562500
7228		105.468750
7229		101.562500
7230		103.515625
7231		99.609375
7232		103.515625
7233		99.609375
7234		103.515625
7235		97.656250
7236		101.562500
7237		95.703125
7238		99.609375
7239		95.703125
7240		97.656250
7241		93.750000
7242		97.656250
7243		91.796875
7244		95.703125
7245		91.796875
7246		93.750000
7247		89.843750
7248		93.750000
7249		87.890625
7250		91.796875
7251		85.937500
7252		89.843750
7253		83.984375
7254		87.890625
7255		83.984375
7256		85.937500
7257		82.031250
7258		83.984375
7259		80.078125
7260		83.984375
7261		78.125000
7262		82.031250
7263		76.171875
7264		80.078125
7265		74.218750
7266		78.125000
7267		72.265625
7268		76.171875
7269		70.312500
7270		74.218750
7271		68.359375
7272		72.265625
7273		66.406250
7274		70.312500
7275		64.453125
7276		68.359375
7277		62.500000
7278		66.406250
7279		60.546875
7280		64.453125
7281		56.640625
7282		60.546875
7283		54.687500
7284		58.593750
7285		52.734375
7286		56.640625
7287		50.781250
7288		54.687500
7289		48.828125
7290		52.734375
7291		46.875000
7292		48.828125
7293		42.968750
7294		46.875000
7295		41.015625
7296		44.921875
7297		39.062500
7298		42.968750
7299		37.109375
7300		41.015625
7301		33.203125
7302		37.109375
7303		31.250000
7304		35.156250
7305		29.296875
7306		33.203125
7307		27.343750
7308		31.250000
7309		23.437500
7310		27.343750
7311		21.484375
7312		25.390625
7313		19.531250
7314		23.437500
7315		15.625000
7316		21.484375
7317		13.671875
7318		17.578125
7319		11.718750
7320		15.625000
7321		9.765625
7322		13.671875
7323		5.859375
7324		9.765625
7325		3.906250
7326		7.812500
7327		1.953125
7328		5.859375
7329		-1.953125
7330		1.953125
7331		-3.906250
7332		0.000000
7333		-5.859375
7334		-1.953125
7335		-9.765625
7336		-5.859375
7337		-11.718750
7338		-7.812500
7339		-13.671875
7340		-9.765625
7341		-15.625000
7342		-11.718750
7343		-19.531250
7344		-15.625000
7345		-21.484375
7346		-17.578125
7347		-23.437500
7348		-19.531250
7349		-25.390625
7350		-21.484375
7351		-29.296875
7352		-25.390625
7353		-31.250000
7354		-27.343750
7355		-33.203125
7356		-29.296875
7357		-35.156250
7358		-31.250000
7359		-37.109375
7360		-35.156250
7361		-41.015625
7362		-37.109375
7363		-42.968750
7364		-39.062500
7365		-44.921875
7366		-41.015625
7367		-46.875000
7368		-42.968750
7369		-48.828125
7370		-44.921875
7371		-50.781250
7372		-46.875000
7373		-52.734375
7374		-48.828125
7375		-54.687500
7376		-50.781250
7377		-56.640625
7378		-52.734375
7379		-58.593750
7380		-54.687500
7381		-60.546875
7382		-56.640625
7383		-62.500000
7384		-58.593750
7385		-64.453125
7386		-60.546875
7387		-66.406250
7388		-62.500000
7389		-68.359375
7390		-64.453125
7391		-68.359375
7392		-66.406250
7393		-70.312500
7394		-68.359375
7395		-72.265625
7396		-70.312500
7397		-74.218750
7398		-70.312500
7399		-76.171875
7400		-72.265625
7401		-76.171875
7402		-74.218750
7403		-78.125000
7404		-74.218750
7405		-80.078125
7406		-76.171875
7407		-80.078125
7408		-78.125000
7409		-82.031250
7410		-78.125000
7411		-82.031250
7412		-80.078125
7413		-83.984375
7414		-82.031250
7415		-83.984375
7416		-82.031250
7417		-85.937500
7418		-83.984375
7419		-85.937500
7420		-83.984375
7421		-87.890625
7422		-83.984375
7423		-87.890625
7424		-85.937500
7425		-89.843750
7426		-85.937500
7427		-89.843750
7428		-85.937500
7429		-89.843750
7430		-87.890625
7431		-89.843750
7432		-87.890625
7433		-89.843750
7434		-87.890625
7435		-89.843750
7436		-87.890625
7437		-91.796875
7438		-89.843750
7439		-91.796875
7440		-89.843750
7441		-91.796875
7442		-89.843750
7443		-91.796875
7444		-89.843750
7445		-91.796875
7446		-89.843750
7447		-91.796875
7448		-89.843750
7449		-91.796875
7450		-87.890625
7451		-91.796875
7452		-87.890625
7453		-89.843750
7454		-87.890625
7455		-89.843750
7456		-87.890625
7457		-89.843750
7458		-87.890625
7459		-89.843750
7460		-87.890625
7461		-89.843750
7462		-85.937500
7463		-87.890625
7464		-85.937500
7465		-87.890625
7466		-85.937500
7467		-85.937500
7468		-83.984375
7469		-85.937500
7470		-83.984375
7471		-85.937500
7472		-82.031250
7473		-83.984375
7474		-82.031250
7475		-83.984375
7476		-80.078125
7477		-82.031250
7478		-80.078125
7479		-82.031250
7480		-78.125000
7481		-80.078125
7482		-76.171875
7483		-78.125000
7484		-76.171875
7485		-78.125000
7486		-74.218750
7487		-76.171875
7488		-72.265625
7489		-74.218750
7490		-72.265625
7491		-74.218750
7492		-70.312500
7493		-72.265625
7494		-68.359375
7495		-70.312500
7496		-66.406250
7497		-68.359375
7498		-64.453125
7499		-66.406250
7500		-64.453125
7501		-64.453125
7502		-62.500000
7503		-62.500000
7504		-60.546875
7505		-60.546875
7506		-58.593750
7507		-60.546875
7508		-56.640625
7509		-56.640625
7510		-54.687500
7511		-54.687500
7512		-52.734375
7513		-52.734375
7514		-48.828125
7515		-50.781250
7516		-46.875000
7517		-48.828125
7518		-44.921875
7519		-46.875000
7520		-42.968750
7521		-44.921875
7522		-41.015625
7523		-42.968750
7524		-39.062500
7525		-41.015625
7526		-37.109375
7527		-39.062500
7528		-35.156250
7529		-35.156250
7530		-31.250000
7531		-33.203125
7532		-29.296875
7533		-31.250000
7534		-27.343750
7535		-29.296875
7536		-25.390625
7537		-25.390625
7538		-21.484375
7539		-23.437500
7540		-19.531250
7541		-21.484375
7542		-17.578125
7543		-19.531250
7544		-15.625000
7545		-15.625000
7546		-13.671875
7547		-13.671875
7548		-9.765625
7549		-11.718750
7550		-7.812500
7551		-9.765625
7552		-5.859375
7553		-5.859375
7554		-1.953125
7555		-3.906250
7556		0.000000
7557		-1.953125
7558		1.953125
7559		1.953125
7560		3.906250
7561		3.906250
7562		7.812500
7563		5.859375
7564		9.765625
7565		7.812500
7566		11.718750
7567		11.718750
7568		15.625000
7569		13.671875
7570		17.578125
7571		15.625000
7572		19.531250
7573		19.531250
7574		23.437500
7575		21.484375
7576		25.390625
7577		23.437500
7578		27.343750
7579		25.390625
7580		29.296875
7581		29.296875
7582		33.203125
7583		31.250000
7584		35.156250
7585		33.203125
7586		37.109375
7587		35.156250
7588		39.062500
7589		39.062500
7590		42.968750
7591		41.015625
7592		44.921875
7593		42.968750
7594		46.875000
7595		44.921875
7596		48.828125
7597		48.828125
7598		50.781250
7599		48.828125
7600		54.687500
7601		52.734375
7602		56.640625
7603		54.687500
7604		58.593750
7605		56.640625
7606		60.546875
7607		58.593750
7608		62.500000
7609		60.546875
7610		64.453125
7611		62.500000
7612		66.406250
7613		64.453125
7614		68.359375
7615		66.406250
7616		70.312500
7617		70.312500
7618		72.265625
7619		72.265625
7620		74.218750
7621		72.265625
7622		76.171875
7623		76.171875
7624		78.125000
7625		76.171875
7626		80.078125
7627		78.125000
7628		82.031250
7629		80.078125
7630		83.984375
7631		82.031250
7632		85.937500
7633		83.984375
7634		87.890625
7635		85.937500
7636		89.843750
7637		87.890625
7638		89.843750
7639		87.890625
7640		91.796875
7641		89.843750
7642		93.750000
7643		91.796875
7644		95.703125
7645		93.750000
7646		95.703125
7647		95.703125
7648		97.656250
7649		95.703125
7650		99.609375
7651		97.656250
7652		99.609375
7653		99.609375
7654		101.562500
7655		99.609375
7656		103.515625
7657		101.562500
7658		103.515625
7659		101.562500
7660		105.468750
7661		103.515625
7662		105.468750
7663		103.515625
7664		107.421875
7665		105.468750
7666		107.421875
7667		105.468750
7668		109.375000
7669		107.421875
7670		109.375000
7671		105.468750
7672		111.328125
7673		107.421875
7674		111.328125
7675		109.375000
7676		111.328125
7677		109.375000
7678		111.328125
7679		111.328125
7680		113.281250
7681		111.328125
7682		113.281250
7683		111.328125
7684		113.281250
7685		109.375000
7686		115.234375
7687		111.328125
7688		115.234375
7689		111.328125
7690		117.187500
7691		113.281250
7692		115.234375
7693		111.328125
7694		117.187500
7695		113.281250
7696		115.234375
7697		113.281250
7698		115.234375
7699		113.281250
7700		115.234375
7701		111.328125
7702		117.187500
7703		113.281250
7704		115.234375
7705		111.328125
7706		117.187500
7707		113.281250
7708		115.234375
7709		111.328125
7710		117.187500
7711		111.328125
7712		115.234375
7713		111.328125
7714		115.234375
7715		111.328125
7716		115.234375
7717		109.375000
7718		115.234375
7719		111.328125
7720		113.281250
7721		109.375000
7722		113.281250
7723		107.421875
7724		113.281250
7725		107.421875
7726		113.281250
7727		109.375000
7728		111.328125
7729		107.421875
7730		111.328125
7731		105.468750
7732		109.375000
7733		103.515625
7734		111.328125
7735		103.515625
7736		111.328125
7737		103.515625
7738		107.421875
7739		101.562500
7740		107.421875
7741		103.515625
7742		105.468750
7743		99.609375
7744		107.421875
7745		99.609375
7746		103.515625
7747		97.656250
7748		101.562500
7749		93.750000
7750		101.562500
7751		95.703125
7752		101.562500
7753		95.703125
7754		99.609375
7755		91.796875
7756		97.656250
7757		89.843750
7758		97.656250
7759		87.890625
7760		95.703125
7761		87.890625
7762		91.796875
7763		87.890625
7764		91.796875
7765		83.984375
7766		89.843750
7767		82.031250
7768		89.843750
7769		82.031250
7770		87.890625
7771		80.078125
7772		85.937500
7773		76.171875
7774		83.984375
7775		76.171875
7776		80.078125
7777		72.265625
7778		82.031250
7779		74.218750
7780		76.171875
7781		70.312500
7782		74.218750
7783		66.406250
7784		76.171875
7785		66.406250
7786		72.265625
7787		64.453125
7788		68.359375
7789		60.546875
7790		68.359375
7791		58.593750
7792		68.359375
7793		56.640625
7794		64.453125
7795		56.640625
7796		60.546875
7797		54.687500
7798		58.593750
7799		50.781250
7800		56.640625
7801		48.828125
7802		56.640625
7803		46.875000
7804		52.734375
7805		44.921875
7806		48.828125
7807		39.062500
7808		48.828125
7809		37.109375
7810		46.875000
7811		39.062500
7812		42.968750
7813		35.156250
7814		39.062500
7815		33.203125
7816		37.109375
7817		27.343750
7818		37.109375
7819		27.343750
7820		33.203125
7821		25.390625
7822		29.296875
7823		21.484375
7824		29.296875
7825		19.531250
7826		29.296875
7827		17.578125
7828		25.390625
7829		15.625000
7830		19.531250
7831		11.718750
7832		17.578125
7833		7.812500
7834		15.625000
7835		7.812500
7836		15.625000
7837		5.859375
7838		9.765625
7839		3.906250
7840		7.812500
7841		-1.953125
7842		7.812500
7843		-3.906250
7844		3.906250
7845		-3.906250
7846		0.000000
7847		-7.812500
7848		-3.906250
7849		-9.765625
7850		-5.859375
7851		-13.671875
7852		-5.859375
7853		-15.625000
7854		-9.765625
7855		-17.578125
7856		-13.671875
7857		-23.437500
7858		-13.671875
7859		-21.484375
7860		-15.625000
7861		-25.390625
7862		-17.578125
7863		-27.343750
7864		-23.437500
7865		-29.296875
7866		-25.390625
7867		-35.156250
7868		-25.390625
7869		-35.156250
7870		-29.296875
7871		-37.109375
7872		-31.250000
7873		-41.015625
7874		-33.203125
7875		-42.968750
7876		-33.203125
7877		-44.921875
7878		-37.109375
7879		-44.921875
7880		-41.015625
7881		-46.875000
7882		-42.968750
7883		-50.781250
7884		-44.921875
7885		-52.734375
7886		-44.921875
7887		-52.734375
7888		-48.828125
7889		-54.687500
7890		-50.781250
7891		-60.546875
7892		-50.781250
7893		-62.500000
7894		-52.734375
7895		-60.546875
7896		-56.640625
7897		-62.500000
7898		-58.593750
7899		-66.406250
7900		-60.546875
7901		-68.359375
7902		-60.546875
7903		-68.359375
7904		-62.500000
7905		-70.312500
7906		-66.406250
7907		-74.218750
7908		-66.406250
7909		-74.218750
7910		-66.406250
7911		-74.218750
7912		-68.359375
7913		-76.171875
7914		-72.265625
7915		-76.171875
7916		-74.218750
7917		-78.125000
7918		-74.218750
7919		-82.031250
7920		-72.265625
7921		-80.078125
7922		-76.171875
7923		-83.984375
7924		-78.125000
7925		-85.937500
7926		-76.171875
7927		-85.937500
7928		-80.078125
7929		-83.984375
7930		-82.031250
7931		-85.937500
7932		-83.984375
7933		-85.937500
7934		-83.984375
7935		-89.843750
7936		-82.031250
7937		-89.843750
7938		-83.984375
7939		-87.890625
7940		-85.937500
7941		-91.796875
7942		-83.984375
7943		-89.843750
7944		-87.890625
7945		-91.796875
7946		-85.937500
7947		-89.843750
7948		-87.890625
7949		-89.843750
7950		-87.890625
7951		-93.750000
7952		-83.984375
7953		-91.796875
7954		-85.937500
7955		-91.796875
7956		-87.890625
7957		-93.750000
7958		-85.937500
7959		-91.796875
7960		-87.890625
7961		-89.843750
7962		-87.890625
7963		-89.843750
7964		-87.890625
7965		-91.796875
7966		-87.890625
7967		-89.843750
7968		-87.890625
7969		-91.796875
7970		-85.937500
7971		-89.843750
7972		-85.937500
7973		-89.843750
7974		-83.984375
7975		-89.843750
7976		-83.984375
7977		-87.890625
7978		-83.984375
7979		-85.937500
7980		-83.984375
7981		-85.937500
7982		-83.984375
7983		-85.937500
7984		-82.031250
7985		-83.984375
7986		-82.031250
7987		-83.984375
7988		-80.078125
7989		-82.031250
7990		-80.078125
7991		-82.031250
7992		-78.125000
7993		-80.078125
7994		-76.171875
7995		-80.078125
7996		-74.218750
7997		-78.125000
7998		-74.218750
7999		-76.171875
8000		-72.265625
8001		-74.218750
8002		-72.265625
8003		-74.218750
8004		-70.312500
8005		-72.265625
8006		-66.406250
8007		-70.312500
8008		-66.406250
8009		-68.359375
8010		-64.453125
8011		-66.406250
8012		-62.500000
8013		-64.453125
8014		-60.546875
8015		-62.500000
8016		-60.546875
8017		-62.500000
8018		-56.640625
8019		-60.546875
8020		-54.687500
8021		-58.593750
8022		-52.734375
8023		-56.640625
8024		-50.781250
8025		-54.687500
8026		-48.828125
8027		-52.734375
8028		-46.875000
8029		-50.781250
8030		-44.921875
8031		-46.875000
8032		-42.968750
8033		-44.921875
8034		-41.015625
8035		-44.921875
8036		-39.062500
8037		-42.968750
8038		-35.156250
8039		-41.015625
8040		-33.203125
8041		-37.109375
8042		-31.250000
8043		-35.156250
8044		-29.296875
8045		-33.203125
8046		-27.343750
8047		-29.296875
8048		-25.390625
8049		-27.343750
8050		-23.437500
8051		-25.390625
8052		-19.531250
8053		-23.437500
8054		-15.625000
8055		-21.484375
8056		-13.671875
8057		-19.531250
8058		-11.718750
8059		-15.625000
8060		-9.765625
8061		-13.671875
8062		-7.812500
8063		-9.765625
8064		-5.859375
8065		-7.812500
8066		-3.906250
8067		-3.906250
8068		1.953125
8069		-3.906250
8070		3.906250
8071		0.000000
8072		5.859375
8073		1.953125
8074		7.812500
8075		3.906250
8076		9.765625
8077		7.812500
8078		13.671875
8079		9.765625
8080		15.625000
8081		13.671875
8082		17.578125
8083		15.625000
8084		19.531250
8085		17.578125
8086		23.437500
8087		19.531250
8088		25.390625
8089		21.484375
8090		29.296875
8091		23.437500
8092		29.296875
8093		27.343750
8094		33.203125
8095		31.250000
8096		35.156250
8097		33.203125
8098		37.109375
8099		35.156250
8100		39.062500
8101		37.109375
8102		41.015625
8103		39.062500
8104		44.921875
8105		42.968750
8106		46.875000
8107		42.968750
8108		50.781250
8109		46.875000
8110		52.734375
8111		48.828125
8112		54.687500
8113		50.781250
8114		54.687500
8115		54.687500
8116		58.593750
8117		56.640625
8118		60.546875
8119		56.640625
8120		62.500000
8121		58.593750
8122		64.453125
8123		62.500000
8124		68.359375
8125		64.453125
8126		68.359375
8127		66.406250
8128		70.312500
8129		68.359375
8130		72.265625
8131		70.312500
8132		74.218750
8133		72.265625
8134		76.171875
8135		74.218750
8136		78.125000
8137		76.171875
8138		80.078125
8139		78.125000
8140		82.031250
8141		78.125000
8142		83.984375
8143		82.031250
8144		85.937500
8145		83.984375
8146		87.890625
8147		83.984375
8148		87.890625
8149		87.890625
8150		89.843750
8151		87.890625
8152		91.796875
8153		89.843750
8154		93.750000
8155		91.796875
8156		95.703125
8157		91.796875
8158		97.656250
8159		93.750000
8160		97.656250
8161		95.703125
8162		99.609375
8163		95.703125
8164		99.609375
8165		97.656250
8166		101.562500
8167		99.609375
8168		101.562500
8169		99.609375
8170		103.515625
8171		101.562500
8172		105.468750
8173		101.562500
8174		107.421875
8175		101.562500
8176		107.421875
8177		103.515625
8178		107.421875
8179		105.468750
8180		109.375000
8181		105.468750
8182		109.375000
8183		107.421875
8184		109.375000
8185		107.421875
8186		111.328125
8187		107.421875
8188		111.328125
8189		109.375000
8190		111.328125
8191		107.421875
8192		113.281250
8193		109.375000
8194		113.281250
8195		109.375000
8196		113.281250
8197		111.328125
8198		113.281250
8199		111.328125
8200		115.234375
8201		111.328125
8202		115.234375
8203		111.328125
8204		115.234375
8205		111.328125
8206		115.234375
8207		113.281250
8208		117.187500
8209		113.281250
8210		115.234375
8211		111.328125
8212		115.234375
8213		111.328125
8214		115.234375
8215		113.281250
8216		115.234375
8217		113.281250
8218		115.234375
8219		113.281250
8220		117.187500
8221		113.281250
8222		115.234375
8223		111.328125
8224		115.234375
8225		111.328125
8226		117.187500
8227		111.328125
8228		115.234375
8229		111.328125
8230		113.281250
8231		111.328125
8232		113.281250
8233		111.328125
8234		113.281250
8235		109.375000
8236		113.281250
8237		109.375000
8238		113.281250
8239		107.421875
8240		111.328125
8241		107.421875
8242		111.328125
8243		107.421875
8244		109.375000
8245		105.468750
8246		109.375000
8247		105.468750
8248		109.375000
8249		103.515625
8250		107.421875
8251		103.515625
8252		107.421875
8253		101.562500
8254		105.468750
8255		101.562500
8256		105.468750
8257		99.609375
8258		103.515625
8259		97.656250
8260		103.515625
8261		97.656250
8262		101.562500
8263		95.703125
8264		99.609375
8265		95.703125
8266		99.609375
8267		93.750000
8268		97.656250
8269		91.796875
8270		95.703125
8271		89.843750
8272		95.703125
8273		89.843750
8274		93.750000
8275		87.890625
8276		91.796875
8277		85.937500
8278		89.843750
8279		83.984375
8280		87.890625
8281		82.031250
8282		87.890625
8283		82.031250
8284		85.937500
8285		80.078125
8286		83.984375
8287		78.125000
8288		82.031250
8289		76.171875
8290		80.078125
8291		74.218750
8292		78.125000
8293		72.265625
8294		76.171875
8295		70.312500
8296		74.218750
8297		68.359375
8298		72.265625
8299		66.406250
8300		70.312500
8301		64.453125
8302		68.359375
8303		60.546875
8304		66.406250
8305		60.546875
8306		64.453125
8307		56.640625
8308		62.500000
8309		54.687500
8310		58.593750
8311		52.734375
8312		58.593750
8313		50.781250
8314		54.687500
8315		48.828125
8316		52.734375
8317		46.875000
8318		50.781250
8319		42.968750
8320		48.828125
8321		41.015625
8322		44.921875
8323		39.062500
8324		44.921875
8325		37.109375
8326		41.015625
8327		33.203125
8328		39.062500
8329		31.250000
8330		35.156250
8331		29.296875
8332		33.203125
8333		27.343750
8334		31.250000
8335		25.390625
8336		29.296875
8337		21.484375
8338		27.343750
8339		19.531250
8340		23.437500
8341		17.578125
8342		21.484375
8343		13.671875
8344		17.578125
8345		11.718750
8346		15.625000
8347		9.765625
8348		13.671875
8349		7.812500
8350		11.718750
8351		3.906250
8352		7.812500
8353		1.953125
8354		5.859375
8355		0.000000
8356		3.906250
8357		-3.906250
8358		1.953125
8359		-5.859375
8360		-1.953125
8361		-7.812500
8362		-3.906250
8363		-11.718750
8364		-5.859375
8365		-13.671875
8366		-9.765625
8367		-15.625000
8368		-11.718750
8369		-19.531250
8370		-13.671875
8371		-21.484375
8372		-17.578125
8373		-23.437500
8374		-19.531250
8375		-25.390625
8376		-21.484375
8377		-29.296875
8378		-23.437500
8379		-31.250000
8380		-25.390625
8381		-33.203125
8382		-29.296875
8383		-35.156250
8384		-31.250000
8385		-37.109375
8386		-33.203125
8387		-41.015625
8388		-35.156250
8389		-42.968750
8390		-37.109375
8391		-44.921875
8392		-41.015625
8393		-46.875000
8394		-42.968750
8395		-48.828125
8396		-42.968750
8397		-50.781250
8398		-46.875000
8399		-52.734375
8400		-48.828125
8401		-54.687500
8402		-50.781250
8403		-58.593750
8404		-52.734375
8405		-58.593750
8406		-54.687500
8407		-60.546875
8408		-56.640625
8409		-62.500000
8410		-58.593750
8411		-64.453125
8412		-60.546875
8413		-66.406250
8414		-62.500000
8415		-68.359375
8416		-64.453125
8417		-70.312500
8418		-66.406250
8419		-70.312500
8420		-68.359375
8421		-72.265625
8422		-68.359375
8423		-74.218750
8424		-70.312500
8425		-76.171875
8426		-72.265625
8427		-76.171875
8428		-74.218750
8429		-78.125000
8430		-74.218750
8431		-80.078125
8432		-76.171875
8433		-80.078125
8434		-78.125000
8435		-82.031250
8436		-80.078125
8437		-82.031250
8438		-80.078125
8439		-83.984375
8440		-80.078125
8441		-85.937500
8442		-82.031250
8443		-87.890625
8444		-83.984375
8445		-87.890625
8446		-83.984375
8447		-87.890625
8448		-83.984375
8449		-89.843750
8450		-85.937500
8451		-89.843750
8452		-85.937500
8453		-89.843750
8454		-87.890625
8455		-89.843750
8456		-87.890625
8457		-91.796875
8458		-87.890625
8459		-91.796875
8460		-87.890625
8461		-91.796875
8462		-89.843750
8463		-91.796875
8464		-89.843750
8465		-91.796875
8466		-87.890625
8467		-91.796875
8468		-89.843750
8469		-91.796875
8470		-89.843750
8471		-93.750000
8472		-89.843750
8473		-93.750000
8474		-89.843750
8475		-91.796875
8476		-89.843750
8477		-91.796875
8478		-89.843750
8479		-91.796875
8480		-87.890625
8481		-91.796875
8482		-87.890625
8483		-91.796875
8484		-87.890625
8485		-89.843750
8486		-87.890625
8487		-89.843750
8488		-85.937500
8489		-89.843750
8490		-85.937500
8491		-89.843750
8492		-85.937500
8493		-87.890625
8494		-85.937500
8495		-87.890625
8496		-83.984375
8497		-87.890625
8498		-83.984375
8499		-85.937500
8500		-82.031250
8501		-83.984375
8502		-82.031250
8503		-83.984375
8504		-80.078125
8505		-83.984375
8506		-80.078125
8507		-82.031250
8508		-76.171875
8509		-80.078125
8510		-76.171875
8511		-80.078125
8512		-76.171875
8513		-78.125000
8514		-74.218750
8515		-76.171875
8516		-72.265625
8517		-76.171875
8518		-72.265625
8519		-72.265625
8520		-70.312500
8521		-72.265625
8522		-68.359375
8523		-70.312500
8524		-66.406250
8525		-68.359375
8526		-64.453125
8527		-66.406250
8528		-62.500000
8529		-64.453125
8530		-60.546875
8531		-62.500000
8532		-58.593750
8533		-60.546875
8534		-56.640625
8535		-58.593750
8536		-54.687500
8537		-56.640625
8538		-52.734375
8539		-54.687500
8540		-50.781250
8541		-52.734375
8542		-48.828125
8543		-50.781250
8544		-46.875000
8545		-48.828125
8546		-44.921875
8547		-46.875000
8548		-41.015625
8549		-44.921875
8550		-41.015625
8551		-42.968750
8552		-39.062500
8553		-39.062500
8554		-35.156250
8555		-37.109375
8556		-33.203125
8557		-35.156250
8558		-31.250000
8559		-33.203125
8560		-27.343750
8561		-31.250000
8562		-27.343750
8563		-27.343750
8564		-23.437500
8565		-25.390625
8566		-21.484375
8567		-23.437500
8568		-19.531250
8569		-19.531250
8570		-15.625000
8571		-17.578125
8572		-13.671875
8573		-15.625000
8574		-11.718750
8575		-13.671875
8576		-7.812500
8577		-9.765625
8578		-5.859375
8579		-7.812500
8580		-3.906250
8581		-5.859375
8582		-1.953125
8583		-3.906250
8584		1.953125
8585		0.000000
8586		3.906250
8587		1.953125
8588		5.859375
8589		3.906250
8590		9.765625
8591		5.859375
8592		11.718750
8593		9.765625
8594		13.671875
8595		11.718750
8596		17.578125
8597		15.625000
8598		19.531250
8599		17.578125
8600		21.484375
8601		19.531250
8602		23.437500
8603		21.484375
8604		27.343750
8605		25.390625
8606		29.296875
8607		27.343750
8608		31.250000
8609		29.296875
8610		33.203125
8611		31.250000
8612		37.109375
8613		35.156250
8614		39.062500
8615		37.109375
8616		41.015625
8617		39.062500
8618		42.968750
8619		41.015625
8620		44.921875
8621		44.921875
8622		48.828125
8623		46.875000
8624		50.781250
8625		48.828125
8626		52.734375
8627		50.781250
8628		54.687500
8629		52.734375
8630		56.640625
8631		54.687500
8632		58.593750
8633		56.640625
8634		62.500000
8635		60.546875
8636		64.453125
8637		62.500000
8638		64.453125
8639		64.453125
8640		68.359375
8641		64.453125
8642		70.312500
8643		68.359375
8644		72.265625
8645		70.312500
8646		74.218750
8647		72.265625
8648		76.171875
8649		74.218750
8650		78.125000
8651		74.218750
8652		78.125000
8653		78.125000
8654		80.078125
8655		80.078125
8656		83.984375
8657		80.078125
8658		83.984375
8659		82.031250
8660		85.937500
8661		83.984375
8662		87.890625
8663		85.937500
8664		89.843750
8665		87.890625
8666		91.796875
8667		87.890625
8668		91.796875
8669		89.843750
8670		93.750000
8671		91.796875
8672		95.703125
8673		91.796875
8674		97.656250
8675		93.750000
8676		99.609375
8677		95.703125
8678		99.609375
8679		97.656250
8680		101.562500
8681		97.656250
8682		101.562500
8683		99.609375
8684		103.515625
8685		99.609375
8686		103.515625
8687		101.562500
8688		105.468750
8689		103.515625
8690		107.421875
8691		103.515625
8692		107.421875
8693		103.515625
8694		107.421875
8695		105.468750
8696		109.375000
8697		105.468750
8698		109.375000
8699		105.468750
8700		109.375000
8701		107.421875
8702		111.328125
8703		109.375000
8704		111.328125
8705		109.375000
8706		113.281250
8707		109.375000
8708		113.281250
8709		109.375000
8710		113.281250
8711		111.328125
8712		113.281250
8713		111.328125
8714		113.281250
8715		111.328125
8716		115.234375
8717		111.328125
8718		115.234375
8719		111.328125
8720		115.234375
8721		113.281250
8722		115.234375
8723		113.281250
8724		115.234375
8725		111.328125
8726		115.234375
8727		111.328125
8728		115.234375
8729		111.328125
8730		115.234375
8731		111.328125
8732		115.234375
8733		111.328125
8734		115.234375
8735		111.328125
8736		115.234375
8737		111.328125
8738		113.281250
8739		111.328125
8740		115.234375
8741		111.328125
8742		115.234375
8743		111.328125
8744		113.281250
8745		109.375000
8746		113.281250
8747		109.375000
8748		113.281250
8749		109.375000
8750		113.281250
8751		107.421875
8752		111.328125
8753		107.421875
8754		111.328125
8755		107.421875
8756		109.375000
8757		105.468750
8758		109.375000
8759		105.468750
8760		109.375000
8761		105.468750
8762		107.421875
8763		103.515625
8764		107.421875
8765		103.515625
8766		105.468750
8767		101.562500
8768		105.468750
8769		99.609375
8770		103.515625
8771		99.609375
8772		103.515625
8773		97.656250
8774		101.562500
8775		97.656250
8776		101.562500
8777		95.703125
8778		99.609375
8779		93.750000
8780		97.656250
8781		93.750000
8782		95.703125
8783		91.796875
8784		95.703125
8785		89.843750
8786		93.750000
8787		87.890625
8788		91.796875
8789		87.890625
8790		89.843750
8791		85.937500
8792		89.843750
8793		83.984375
8794		87.890625
8795		82.031250
8796		85.937500
8797		80.078125
8798		83.984375
8799		78.125000
8800		82.031250
8801		76.171875
8802		80.078125
8803		74.218750
8804		78.125000
8805		72.265625
8806		76.171875
8807		70.312500
8808		74.218750
8809		68.359375
8810		72.265625
8811		66.406250
8812		70.312500
8813		64.453125
8814		70.312500
8815		62.500000
8816		66.406250
8817		60.546875
8818		64.453125
8819		58.593750
8820		62.500000
8821		56.640625
8822		60.546875
8823		52.734375
8824		58.593750
8825		52.734375
8826		56.640625
8827		48.828125
8828		52.734375
8829		46.875000
8830		50.781250
8831		44.921875
8832		48.828125
8833		42.968750
8834		46.875000
8835		39.062500
8836		44.921875
8837		37.109375
8838		42.968750
8839		35.156250
8840		39.062500
8841		33.203125
8842		37.109375
8843		31.250000
8844		35.156250
8845		27.343750
8846		33.203125
8847		25.390625
8848		29.296875
8849		23.437500
8850		27.343750
8851		19.531250
8852		25.390625
8853		17.578125
8854		23.437500
8855		15.625000
8856		19.531250
8857		13.671875
8858		17.578125
8859		9.765625
8860		13.671875
8861		7.812500
8862		11.718750
8863		5.859375
8864		9.765625
8865		1.953125
8866		7.812500
8867		0.000000
8868		3.906250
8869		-1.953125
8870		1.953125
8871		-3.906250
8872		0.000000
8873		-7.812500
8874		-3.906250
8875		-9.765625
8876		-3.906250
8877		-11.718750
8878		-7.812500
8879		-15.625000
8880		-9.765625
8881		-17.578125
8882		-13.671875
8883		-19.531250
8884		-15.625000
8885		-21.484375
8886		-17.578125
8887		-25.390625
8888		-19.531250
8889		-27.343750
8890		-23.437500
8891		-29.296875
8892		-25.390625
8893		-33.203125
8894		-27.343750
8895		-33.203125
8896		-31.250000
8897		-37.109375
8898		-31.250000
8899		-39.062500
8900		-35.156250
8901		-41.015625
8902		-37.109375
8903		-42.968750
8904		-39.062500
8905		-44.921875
8906		-41.015625
8907		-48.828125
8908		-44.921875
8909		-50.781250
8910		-44.921875
8911		-52.734375
8912		-48.828125
8913		-54.687500
8914		-50.781250
8915		-56.640625
8916		-50.781250
8917		-58.593750
8918		-54.687500
8919		-60.546875
8920		-56.640625
8921		-62.500000
8922		-58.593750
8923		-64.453125
8924		-60.546875
8925		-66.406250
8926		-60.546875
8927		-66.406250
8928		-62.500000
8929		-68.359375
8930		-66.406250
8931		-70.312500
8932		-68.359375
8933		-72.265625
8934		-68.359375
8935		-74.218750
8936		-70.312500
8937		-76.171875
8938		-70.312500
8939		-76.171875
8940		-74.218750
8941		-78.125000
8942		-74.218750
8943		-80.078125
8944		-76.171875
8945		-80.078125
8946		-76.171875
8947		-82.031250
8948		-78.125000
8949		-83.984375
8950		-80.078125
8951		-83.984375
8952		-80.078125
8953		-85.937500
8954		-82.031250
8955		-85.937500
8956		-82.031250
8957		-85.937500
8958		-83.984375
8959		-87.890625
8960		-83.984375
8961		-89.843750
8962		-85.937500
8963		-89.843750
8964		-85.937500
8965		-89.843750
8966		-87.890625
8967		-89.843750
8968		-87.890625
8969		-89.843750
8970		-87.890625
8971		-91.796875
8972		-87.890625
8973		-91.796875
8974		-89.843750
8975		-91.796875
8976		-87.890625
8977		-93.750000
8978		-89.843750
8979		-91.796875
8980		-89.843750
8981		-91.796875
8982		-89.843750
8983		-93.750000
8984		-89.843750
8985		-93.750000
8986		-89.843750
8987		-93.750000
8988		-89.843750
8989		-91.796875
8990		-89.843750
8991		-91.796875
8992		-87.890625
8993		-91.796875
8994		-89.843750
8995		-91.796875
8996		-89.843750
8997		-91.796875
8998		-87.890625
8999		-89.843750
9000		-87.890625
9001		-89.843750
9002		-85.937500
9003		-89.843750
9004		-85.937500
9005		-87.890625
9006		-85.937500
9007		-87.890625
9008		-85.937500
9009		-87.890625
9010		-83.984375
9011		-85.937500
9012		-83.984375
9013		-85.937500
9014		-82.031250
9015		-83.984375
9016		-80.078125
9017		-83.984375
9018		-80.078125
9019		-82.031250
9020		-78.125000
9021		-80.078125
9022		-78.125000
9023		-80.078125
9024		-76.171875
9025		-78.125000
9026		-74.218750
9027		-76.171875
9028		-74.218750
9029		-76.171875
9030		-70.312500
9031		-74.218750
9032		-70.312500
9033		-72.265625
9034		-68.359375
9035		-70.312500
9036		-68.359375
9037		-70.312500
9038		-64.453125
9039		-66.406250
9040		-64.453125
9041		-66.406250
9042		-62.500000
9043		-64.453125
9044		-60.546875
9045		-62.500000
9046		-58.593750
9047		-60.546875
9048		-56.640625
9049		-58.593750
9050		-54.687500
9051		-56.640625
9052		-52.734375
9053		-54.687500
9054		-48.828125
9055		-52.734375
9056		-48.828125
9057		-48.828125
9058		-46.875000
9059		-46.875000
9060		-42.968750
9061		-44.921875
9062		-41.015625
9063		-42.968750
9064		-39.062500
9065		-41.015625
9066		-37.109375
9067		-39.062500
9068		-35.156250
9069		-37.109375
9070		-31.250000
9071		-35.156250
9072		-29.296875
9073		-31.250000
9074		-27.343750
9075		-29.296875
9076		-23.437500
9077		-27.343750
9078		-23.437500
9079		-25.390625
9080		-19.531250
9081		-21.484375
9082		-17.578125
9083		-19.531250
9084		-15.625000
9085		-17.578125
9086		-13.671875
9087		-15.625000
9088		-9.765625
9089		-11.718750
9090		-7.812500
9091		-9.765625
9092		-5.859375
9093		-7.812500
9094		-1.953125
9095		-3.906250
9096		0.000000
9097		-1.953125
9098		1.953125
9099		1.953125
9100		3.906250
9101		1.953125
9102		7.812500
9103		5.859375
9104		9.765625
9105		7.812500
9106		11.718750
9107		11.718750
9108		15.625000
9109		13.671875
9110		17.578125
9111		15.625000
9112		19.531250
9113		17.578125
9114		23.437500
9115		21.484375
9116		25.390625
9117		23.437500
9118		27.343750
9119		25.390625
9120		29.296875
9121		27.343750
9122		33.203125
9123		31.250000
9124		35.156250
9125		33.203125
9126		37.109375
9127		35.156250
9128		39.062500
9129		37.109375
9130		42.968750
9131		41.015625
9132		44.921875
9133		42.968750
9134		46.875000
9135		44.921875
9136		48.828125
9137		46.875000
9138		52.734375
9139		48.828125
9140		52.734375
9141		52.734375
9142		56.640625
9143		54.687500
9144		58.593750
9145		56.640625
9146		60.546875
9147		58.593750
9148		62.500000
9149		60.546875
9150		66.406250
9151		62.500000
9152		66.406250
9153		64.453125
9154		70.312500
9155		66.406250
9156		70.312500
9157		70.312500
9158		72.265625
9159		70.312500
9160		76.171875
9161		72.265625
9162		76.171875
9163		74.218750
9164		78.125000
9165		76.171875
9166		80.078125
9167		78.125000
9168		82.031250
9169		80.078125
9170		83.984375
9171		82.031250
9172		85.937500
9173		83.984375
9174		87.890625
9175		85.937500
9176		87.890625
9177		85.937500
9178		91.796875
9179		87.890625
9180		91.796875
9181		89.843750
9182		93.750000
9183		91.796875
9184		93.750000
9185		91.796875
9186		95.703125
9187		93.750000
9188		97.656250
9189		93.750000
9190		97.656250
9191		95.703125
9192		99.609375
9193		97.656250
9194		101.562500
9195		99.609375
9196		101.562500
9197		99.609375
9198		103.515625
9199		101.562500
9200		105.468750
9201		101.562500
9202		105.468750
9203		103.515625
9204		107.421875
9205		103.515625
9206		107.421875
9207		105.468750
9208		107.421875
9209		105.468750
9210		109.375000
9211		105.468750
9212		109.375000
9213		107.421875
9214		111.328125
9215		107.421875
9216		111.328125
9217		107.421875
9218		111.328125
9219		109.375000
9220		113.281250
9221		109.375000
9222		113.281250
9223		109.375000
9224		113.281250
9225		111.328125
9226		113.281250
9227		109.375000
9228		115.234375
9229		111.328125
9230		115.234375
9231		111.328125
9232		115.234375
9233		111.328125
9234		115.234375
9235		111.328125
9236		115.234375
9237		111.328125
9238		115.234375
9239		111.328125
9240		115.234375
9241		113.281250
9242		115.234375
9243		113.281250
9244		115.234375
9245		111.328125
9246		115.234375
9247		111.328125
9248		115.234375
9249		111.328125
9250		115.234375
9251		111.328125
9252		115.234375
9253		111.328125
9254		115.234375
9255		109.375000
9256		113.281250
9257		111.328125
9258		113.281250
9259		109.375000
9260		113.281250
9261		109.375000
9262		113.281250
9263		109.375000
9264		111.328125
9265		107.421875
9266		111.328125
9267		107.421875
9268		109.375000
9269		107.421875
9270		109.375000
9271		105.468750
9272		109.375000
9273		103.515625
9274		109.375000
9275		105.468750
9276		107.421875
9277		103.515625
9278		107.421875
9279		101.562500
9280		105.468750
9281		101.562500
9282		105.468750
9283		99.609375
9284		103.515625
9285		97.656250
9286		103.515625
9287		97.656250
9288		101.562500
9289		95.703125
9290		99.609375
9291		95.703125
9292		99.609375
9293		93.750000
9294		97.656250
9295		91.796875
9296		95.703125
9297		91.796875
9298		95.703125
9299		89.843750
9300		93.750000
9301		87.890625
9302		91.796875
9303		85.937500
9304		89.843750
9305		83.984375
9306		89.843750
9307		83.984375
9308		87.890625
9309		82.031250
9310		85.937500
9311		80.078125
9312		83.984375
9313		78.125000
9314		82.031250
9315		76.171875
9316		80.078125
9317		74.218750
9318		78.125000
9319		72.265625
9320		76.171875
9321		70.312500
9322		74.218750
9323		68.359375
9324		72.265625
9325		66.406250
9326		70.312500
9327		64.453125
9328		68.359375
9329		62.500000
9330		66.406250
9331		60.546875
9332		64.453125
9333		58.593750
9334		62.500000
9335		54.687500
9336		60.546875
9337		52.734375
9338		56.640625
9339		50.781250
9340		54.687500
9341		48.828125
9342		52.734375
9343		46.875000
9344		50.781250
9345		44.921875
9346		48.828125
9347		41.015625
9348		46.875000
9349		39.062500
9350		42.968750
9351		37.109375
9352		42.968750
9353		35.156250
9354		39.062500
9355		33.203125
9356		37.109375
9357		29.296875
9358		33.203125
9359		27.343750
9360		31.250000
9361		23.437500
9362		27.343750
9363		19.531250
9364		27.343750
9365		19.531250
9366		25.390625
9367		15.625000
9368		21.484375
9369		13.671875
9370		17.578125
9371		11.718750
9372		15.625000
9373		9.765625
9374		13.671875
9375		5.859375
9376		9.765625
9377		3.906250
9378		7.812500
9379		0.000000
9380		5.859375
9381		-1.953125
9382		3.906250
9383		-3.906250
9384		1.953125
9385		-5.859375
9386		-1.953125
9387		-7.812500
9388		-3.906250
9389		-11.718750
9390		-7.812500
9391		-13.671875
9392		-9.765625
9393		-15.625000
9394		-11.718750
9395		-19.531250
9396		-13.671875
9397		-21.484375
9398		-15.625000
9399		-25.390625
9400		-17.578125
9401		-27.343750
9402		-19.531250
9403		-29.296875
9404		-23.437500
9405		-31.250000
9406		-25.390625
9407		-35.156250
9408		-29.296875
9409		-35.156250
9410		-31.250000
9411		-37.109375
9412		-33.203125
9413		-41.015625
9414		-33.203125
9415		-44.921875
9416		-37.109375
9417		-46.875000
9418		-39.062500
9419		-48.828125
9420		-41.015625
9421		-48.828125
9422		-44.921875
9423		-52.734375
9424		-46.875000
9425		-52.734375
9426		-48.828125
9427		-54.687500
9428		-50.781250
9429		-58.593750
9430		-52.734375
9431		-60.546875
9432		-52.734375
9433		-62.500000
9434		-54.687500
9435		-64.453125
9436		-56.640625
9437		-66.406250
9438		-58.593750
9439		-68.359375
9440		-60.546875
9441		-68.359375
9442		-62.500000
9443		-68.359375
9444		-66.406250
9445		-72.265625
9446		-68.359375
9447		-74.218750
9448		-68.359375
9449		-76.171875
9450		-70.312500
9451		-78.125000
9452		-70.312500
9453		-78.125000
9454		-72.265625
9455		-80.078125
9456		-72.265625
9457		-82.031250
9458		-74.218750
9459		-80.078125
9460		-78.125000
9461		-82.031250
9462		-78.125000
9463		-85.937500
9464		-78.125000
9465		-85.937500
9466		-80.078125
9467		-85.937500
9468		-82.031250
9469		-87.890625
9470		-82.031250
9471		-89.843750
9472		-82.031250
9473		-89.843750
9474		-82.031250
9475		-89.843750
9476		-83.984375
9477		-89.843750
9478		-85.937500
9479		-91.796875
9480		-85.937500
9481		-91.796875
9482		-85.937500
9483		-91.796875
9484		-85.937500
9485		-93.750000
9486		-85.937500
9487		-93.750000
9488		-85.937500
9489		-93.750000
9490		-87.890625
9491		-93.750000
9492		-87.890625
9493		-91.796875
9494		-89.843750
9495		-91.796875
9496		-89.843750
9497		-93.750000
9498		-87.890625
9499		-93.750000
9500		-87.890625
9501		-93.750000
9502		-87.890625
9503		-93.750000
9504		-87.890625
9505		-93.750000
9506		-87.890625
9507		-93.750000
9508		-85.937500
9509		-91.796875
9510		-87.890625
9511		-89.843750
9512		-87.890625
9513		-91.796875
9514		-85.937500
9515		-91.796875
9516		-83.984375
9517		-89.843750
9518		-83.984375
9519		-89.843750
9520		-82.031250
9521		-89.843750
9522		-82.031250
9523		-87.890625
9524		-80.078125
9525		-87.890625
9526		-80.078125
9527		-83.984375
9528		-82.031250
9529		-83.984375
9530		-80.078125
9531		-83.984375
9532		-76.171875
9533		-82.031250
9534		-76.171875
9535		-82.031250
9536		-74.218750
9537		-80.078125
9538		-74.218750
9539		-80.078125
9540		-72.265625
9541		-76.171875
9542		-70.312500
9543		-74.218750
9544		-70.312500
9545		-72.265625
9546		-68.359375
9547		-72.265625
9548		-66.406250
9549		-70.312500
9550		-64.453125
9551		-70.312500
9552		-62.500000
9553		-68.359375
9554		-60.546875
9555		-66.406250
9556		-58.593750
9557		-64.453125
9558		-56.640625
9559		-62.500000
9560		-56.640625
9561		-58.593750
9562		-54.687500
9563		-56.640625
9564		-50.781250
9565		-56.640625
9566		-48.828125
9567		-54.687500
9568		-46.875000
9569		-52.734375
9570		-44.921875
9571		-50.781250
9572		-42.968750
9573		-46.875000
9574		-41.015625
9575		-46.875000
9576		-39.062500
9577		-41.015625
9578		-37.109375
9579		-39.062500
9580		-35.156250
9581		-39.062500
9582		-31.250000
9583		-35.156250
9584		-29.296875
9585		-33.203125
9586		-27.343750
9587		-33.203125
9588		-23.437500
9589		-29.296875
9590		-23.437500
9591		-27.343750
9592		-19.531250
9593		-23.437500
9594		-19.531250
9595		-19.531250
9596		-15.625000
9597		-17.578125
9598		-11.718750
9599		-17.578125
9600		-9.765625
9601		-13.671875
9602		-5.859375
9603		-11.718750
9604		-3.906250
9605		-9.765625
9606		-1.953125
9607		-7.812500
9608		1.953125
9609		-3.906250
9610		1.953125
9611		0.000000
9612		3.906250
9613		1.953125
9614		7.812500
9615		3.906250
9616		11.718750
9617		5.859375
9618		13.671875
9619		9.765625
9620		15.625000
9621		11.718750
9622		19.531250
9623		13.671875
9624		21.484375
9625		15.625000
9626		23.437500
9627		19.531250
9628		25.390625
9629		23.437500
9630		27.343750
9631		23.437500
9632		31.250000
9633		27.343750
9634		33.203125
9635		27.343750
9636		37.109375
9637		31.250000
9638		39.062500
9639		33.203125
9640		41.015625
9641		37.109375
9642		42.968750
9643		37.109375
9644		44.921875
9645		42.968750
9646		46.875000
9647		44.921875
9648		50.781250
9649		46.875000
9650		52.734375
9651		46.875000
9652		54.687500
9653		50.781250
9654		56.640625
9655		52.734375
9656		58.593750
9657		52.734375
9658		60.546875
9659		56.640625
9660		62.500000
9661		60.546875
9662		64.453125
9663		62.500000
9664		66.406250
9665		62.500000
9666		70.312500
9667		64.453125
9668		72.265625
9669		66.406250
9670		74.218750
9671		68.359375
9672		76.171875
9673		70.312500
9674		78.125000
9675		72.265625
9676		80.078125
9677		76.171875
9678		80.078125
9679		78.125000
9680		82.031250
9681		78.125000
9682		85.937500
9683		78.125000
9684		85.937500
9685		82.031250
9686		87.890625
9687		82.031250
9688		89.843750
9689		82.031250
9690		91.796875
9691		85.937500
9692		93.750000
9693		87.890625
9694		93.750000
9695		91.796875
9696		93.750000
9697		91.796875
9698		95.703125
9699		93.750000
9700		97.656250
9701		93.750000
9702		99.609375
9703		95.703125
9704		99.609375
9705		95.703125
9706		101.562500
9707		97.656250
9708		103.515625
9709		99.609375
9710		103.515625
9711		101.562500
9712		103.515625
9713		101.562500
9714		105.468750
9715		101.562500
9716		109.375000
9717		103.515625
9718		109.375000
9719		103.515625
9720		109.375000
9721		105.468750
9722		111.328125
9723		103.515625
9724		111.328125
9725		105.468750
9726		111.328125
9727		107.421875
9728		111.328125
9729		109.375000
9730		111.328125
9731		109.375000
9732		113.281250
9733		107.421875
9734		115.234375
9735		107.421875
9736		115.234375
9737		109.375000
9738		115.234375
9739		109.375000
9740		117.187500
9741		109.375000
9742		117.187500
9743		111.328125
9744		117.187500
9745		113.281250
9746		115.234375
9747		113.281250
9748		115.234375
9749		111.328125
9750		117.187500
9751		111.328125
9752		117.187500
9753		111.328125
9754		117.187500
9755		111.328125
9756		117.187500
9757		111.328125
9758		117.187500
9759		111.328125
9760		117.187500
9761		111.328125
9762		117.187500
9763		113.281250
9764		115.234375
9765		111.328125
9766		117.187500
9767		109.375000
9768		117.187500
9769		109.375000
9770		117.187500
9771		109.375000
9772		115.234375
9773		109.375000
9774		115.234375
9775		107.421875
9776		115.234375
9777		107.421875
9778		113.281250
9779		109.375000
9780		111.328125
9781		107.421875
9782		111.328125
9783		105.468750
9784		111.328125
9785		103.515625
9786		111.328125
9787		103.515625
9788		109.375000
9789		101.562500
9790		109.375000
9791		101.562500
9792		107.421875
9793		101.562500
9794		107.421875
9795		101.562500
9796		103.515625
9797		99.609375
9798		103.515625
9799		97.656250
9800		103.515625
9801		97.656250
9802		101.562500
9803		95.703125
9804		101.562500
9805		93.750000
9806		99.609375
9807		91.796875
9808		99.609375
9809		91.796875
9810		97.656250
9811		89.843750
9812		95.703125
9813		89.843750
9814		91.796875
9815		85.937500
9816		91.796875
9817		83.984375
9818		91.796875
9819		82.031250
9820		89.843750
9821		82.031250
9822		87.890625
9823		80.078125
9824		85.937500
9825		78.125000
9826		83.984375
9827		76.171875
9828		83.984375
9829		76.171875
9830		80.078125
9831		74.218750
9832		78.125000
9833		70.312500
9834		76.171875
9835		68.359375
9836		76.171875
9837		68.359375
9838		74.218750
9839		62.500000
9840		72.265625
9841		62.500000
9842		68.359375
9843		58.593750
9844		66.406250
9845		58.593750
9846		64.453125
9847		56.640625
9848		60.546875
9849		52.734375
9850		58.593750
9851		50.781250
9852		58.593750
9853		48.828125
9854		56.640625
9855		46.875000
9856		52.734375
9857		42.968750
9858		50.781250
9859		42.968750
9860		48.828125
9861		41.015625
9862		46.875000
9863		39.062500
9864		42.968750
9865		35.156250
9866		41.015625
9867		33.203125
9868		39.062500
9869		29.296875
9870		37.109375
9871		27.343750
9872		35.156250
9873		25.390625
9874		33.203125
9875		21.484375
9876		29.296875
9877		19.531250
9878		27.343750
9879		19.531250
9880		23.437500
9881		15.625000
9882		19.531250
9883		11.718750
9884		19.531250
9885		9.765625
9886		17.578125
9887		5.859375
9888		13.671875
9889		3.906250
9890		11.718750
9891		1.953125
9892		9.765625
9893		0.000000
9894		7.812500
9895		-1.953125
9896		3.906250
9897		-3.906250
9898		0.000000
9899		-7.812500
9900		-1.953125
9901		-11.718750
9902		-3.906250
9903		-13.671875
9904		-5.859375
9905		-15.625000
9906		-7.812500
9907		-17.578125
9908		-9.765625
9909		-19.531250
9910		-13.671875
9911		-23.437500
9912		-15.625000
9913		-23.437500
9914		-19.531250
9915		-25.390625
9916		-21.484375
9917		-29.296875
9918		-23.437500
9919		-33.203125
9920		-25.390625
9921		-35.156250
9922		-27.343750
9923		-37.109375
9924		-29.296875
9925		-41.015625
9926		-31.250000
9927		-41.015625
9928		-35.156250
9929		-42.968750
9930		-37.109375
9931		-44.921875
9932		-41.015625
9933		-48.828125
9934		-42.968750
9935		-50.781250
9936		-44.921875
9937		-52.734375
9938		-44.921875
9939		-54.687500
9940		-46.875000
9941		-58.593750
9942		-48.828125
9943		-58.593750
9944		-52.734375
9945		-60.546875
9946		-52.734375
9947		-60.546875
9948		-56.640625
9949		-62.500000
9950		-58.593750
9951		-66.406250
9952		-58.593750
9953		-68.359375
9954		-60.546875
9955		-70.312500
9956		-62.500000
9957		-70.312500
9958		-64.453125
9959		-72.265625
9960		-66.406250
9961		-74.218750
9962		-68.359375
9963		-74.218750
9964		-70.312500
9965		-76.171875
9966		-72.265625
9967		-78.125000
9968		-72.265625
9969		-80.078125
9970		-74.218750
9971		-82.031250
9972		-74.218750
9973		-83.984375
9974		-76.171875
9975		-83.984375
9976		-78.125000
9977		-85.937500
9978		-78.125000
9979		-85.937500
9980		-80.078125
9981		-85.937500
9982		-82.031250
9983		-87.890625
9984		-82.031250
9985		-89.843750
9986		-82.031250
9987		-89.843750
9988		-83.984375
9989		-89.843750
9990		-83.984375
9991		-91.796875
9992		-83.984375
9993		-91.796875
9994		-85.937500
9995		-91.796875
9996		-85.937500
9997		-89.843750
9998		-87.890625
9999		-89.843750
10000		-87.890625
