Channel              :		CH1
Frequency            :		1.061kHz
Period               :		0.942ms
PK-PK                :		154.3mV
Probe attenuation    :		1X
Voltage per ADC value:		0.122070mV
Time interval        :		2.00000us

index		CH1_Voltage(mV)
1		52.734375
2		52.734375
3		56.640625
4		50.781250
5		54.687500
6		48.828125
7		52.734375
8		46.875000
9		50.781250
10		46.875000
11		50.781250
12		44.921875
13		48.828125
14		42.968750
15		46.875000
16		41.015625
17		44.921875
18		39.062500
19		42.968750
20		37.109375
21		42.968750
22		35.156250
23		41.015625
24		35.156250
25		39.062500
26		33.203125
27		37.109375
28		31.250000
29		35.156250
30		29.296875
31		33.203125
32		27.343750
33		31.250000
34		25.390625
35		29.296875
36		23.437500
37		29.296875
38		21.484375
39		25.390625
40		19.531250
41		23.437500
42		17.578125
43		23.437500
44		15.625000
45		19.531250
46		13.671875
47		19.531250
48		11.718750
49		15.625000
50		9.765625
51		13.671875
52		7.812500
53		13.671875
54		5.859375
55		9.765625
56		3.906250
57		9.765625
58		1.953125
59		5.859375
60		0.000000
61		3.906250
62		-1.953125
63		3.906250
64		-3.906250
65		1.953125
66		-5.859375
67		-1.953125
68		-7.812500
69		-3.906250
70		-9.765625
71		-3.906250
72		-11.718750
73		-5.859375
74		-13.671875
75		-7.812500
76		-15.625000
77		-9.765625
78		-17.578125
79		-13.671875
80		-19.531250
81		-13.671875
82		-19.531250
83		-15.625000
84		-21.484375
85		-17.578125
86		-23.437500
87		-19.531250
88		-25.390625
89		-21.484375
90		-27.343750
91		-23.437500
92		-29.296875
93		-25.390625
94		-31.250000
95		-27.343750
96		-33.203125
97		-27.343750
98		-35.156250
99		-31.250000
100		-37.109375
101		-33.203125
102		-39.062500
103		-33.203125
104		-39.062500
105		-35.156250
106		-41.015625
107		-37.109375
108		-42.968750
109		-39.062500
110		-44.921875
111		-41.015625
112		-44.921875
113		-41.015625
114		-46.875000
115		-42.968750
116		-48.828125
117		-44.921875
118		-48.828125
119		-44.921875
120		-50.781250
121		-46.875000
122		-52.734375
123		-48.828125
124		-52.734375
125		-48.828125
126		-54.687500
127		-50.781250
128		-56.640625
129		-52.734375
130		-56.640625
131		-52.734375
132		-56.640625
133		-54.687500
134		-58.593750
135		-54.687500
136		-58.593750
137		-54.687500
138		-60.546875
139		-56.640625
140		-60.546875
141		-56.640625
142		-62.500000
143		-58.593750
144		-62.500000
145		-58.593750
146		-62.500000
147		-58.593750
148		-64.453125
149		-60.546875
150		-64.453125
151		-60.546875
152		-64.453125
153		-60.546875
154		-66.406250
155		-62.500000
156		-66.406250
157		-62.500000
158		-66.406250
159		-62.500000
160		-66.406250
161		-62.500000
162		-66.406250
163		-62.500000
164		-66.406250
165		-62.500000
166		-66.406250
167		-64.453125
168		-66.406250
169		-64.453125
170		-68.359375
171		-62.500000
172		-66.406250
173		-62.500000
174		-66.406250
175		-62.500000
176		-66.406250
177		-62.500000
178		-66.406250
179		-62.500000
180		-66.406250
181		-62.500000
182		-66.406250
183		-60.546875
184		-64.453125
185		-62.500000
186		-64.453125
187		-60.546875
188		-64.453125
189		-60.546875
190		-64.453125
191		-60.546875
192		-62.500000
193		-58.593750
194		-62.500000
195		-58.593750
196		-62.500000
197		-56.640625
198		-60.546875
199		-56.640625
200		-60.546875
201		-56.640625
202		-58.593750
203		-54.687500
204		-58.593750
205		-54.687500
206		-56.640625
207		-52.734375
208		-56.640625
209		-52.734375
210		-54.687500
211		-50.781250
212		-54.687500
213		-48.828125
214		-52.734375
215		-48.828125
216		-50.781250
217		-46.875000
218		-50.781250
219		-46.875000
220		-48.828125
221		-44.921875
222		-48.828125
223		-42.968750
224		-46.875000
225		-41.015625
226		-44.921875
227		-41.015625
228		-42.968750
229		-39.062500
230		-42.968750
231		-39.062500
232		-41.015625
233		-37.109375
234		-39.062500
235		-35.156250
236		-37.109375
237		-33.203125
238		-37.109375
239		-31.250000
240		-33.203125
241		-29.296875
242		-31.250000
243		-27.343750
244		-31.250000
245		-27.343750
246		-29.296875
247		-25.390625
248		-27.343750
249		-23.437500
250		-25.390625
251		-21.484375
252		-23.437500
253		-19.531250
254		-21.484375
255		-17.578125
256		-19.531250
257		-15.625000
258		-17.578125
259		-13.671875
260		-15.625000
261		-11.718750
262		-13.671875
263		-9.765625
264		-13.671875
265		-7.812500
266		-11.718750
267		-5.859375
268		-7.812500
269		-3.906250
270		-5.859375
271		-1.953125
272		-3.906250
273		0.000000
274		-3.906250
275		1.953125
276		0.000000
277		3.906250
278		0.000000
279		5.859375
280		3.906250
281		7.812500
282		5.859375
283		9.765625
284		7.812500
285		11.718750
286		7.812500
287		13.671875
288		9.765625
289		15.625000
290		11.718750
291		17.578125
292		13.671875
293		19.531250
294		15.625000
295		21.484375
296		17.578125
297		23.437500
298		19.531250
299		25.390625
300		21.484375
301		25.390625
302		23.437500
303		27.343750
304		25.390625
305		29.296875
306		27.343750
307		31.250000
308		29.296875
309		33.203125
310		31.250000
311		35.156250
312		33.203125
313		37.109375
314		35.156250
315		39.062500
316		37.109375
317		41.015625
318		37.109375
319		41.015625
320		39.062500
321		44.921875
322		41.015625
323		44.921875
324		42.968750
325		46.875000
326		44.921875
327		48.828125
328		44.921875
329		48.828125
330		46.875000
331		52.734375
332		48.828125
333		52.734375
334		50.781250
335		54.687500
336		52.734375
337		54.687500
338		52.734375
339		56.640625
340		54.687500
341		58.593750
342		56.640625
343		60.546875
344		56.640625
345		60.546875
346		58.593750
347		62.500000
348		60.546875
349		64.453125
350		60.546875
351		64.453125
352		62.500000
353		66.406250
354		62.500000
355		66.406250
356		64.453125
357		68.359375
358		64.453125
359		70.312500
360		66.406250
361		70.312500
362		66.406250
363		72.265625
364		68.359375
365		72.265625
366		68.359375
367		72.265625
368		70.312500
369		74.218750
370		70.312500
371		74.218750
372		70.312500
373		74.218750
374		72.265625
375		76.171875
376		72.265625
377		76.171875
378		72.265625
379		78.125000
380		74.218750
381		78.125000
382		74.218750
383		78.125000
384		74.218750
385		78.125000
386		76.171875
387		78.125000
388		76.171875
389		80.078125
390		76.171875
391		80.078125
392		76.171875
393		80.078125
394		76.171875
395		80.078125
396		76.171875
397		80.078125
398		76.171875
399		80.078125
400		76.171875
401		82.031250
402		78.125000
403		80.078125
404		78.125000
405		82.031250
406		78.125000
407		80.078125
408		78.125000
409		80.078125
410		76.171875
411		80.078125
412		76.171875
413		80.078125
414		76.171875
415		80.078125
416		76.171875
417		80.078125
418		76.171875
419		80.078125
420		76.171875
421		80.078125
422		76.171875
423		80.078125
424		76.171875
425		78.125000
426		74.218750
427		78.125000
428		74.218750
429		78.125000
430		74.218750
431		78.125000
432		74.218750
433		76.171875
434		72.265625
435		76.171875
436		72.265625
437		76.171875
438		70.312500
439		76.171875
440		70.312500
441		74.218750
442		70.312500
443		74.218750
444		68.359375
445		72.265625
446		68.359375
447		72.265625
448		66.406250
449		70.312500
450		66.406250
451		70.312500
452		66.406250
453		68.359375
454		64.453125
455		68.359375
456		62.500000
457		68.359375
458		62.500000
459		66.406250
460		60.546875
461		64.453125
462		58.593750
463		62.500000
464		58.593750
465		62.500000
466		56.640625
467		60.546875
468		56.640625
469		60.546875
470		54.687500
471		58.593750
472		52.734375
473		56.640625
474		50.781250
475		54.687500
476		50.781250
477		54.687500
478		48.828125
479		52.734375
480		46.875000
481		50.781250
482		44.921875
483		48.828125
484		44.921875
485		46.875000
486		42.968750
487		46.875000
488		41.015625
489		44.921875
490		39.062500
491		42.968750
492		37.109375
493		41.015625
494		35.156250
495		39.062500
496		33.203125
497		39.062500
498		31.250000
499		37.109375
500		31.250000
501		35.156250
502		29.296875
503		33.203125
504		27.343750
505		31.250000
506		23.437500
507		29.296875
508		23.437500
509		27.343750
510		21.484375
511		25.390625
512		19.531250
513		23.437500
514		17.578125
515		21.484375
516		15.625000
517		19.531250
518		13.671875
519		17.578125
520		11.718750
521		15.625000
522		9.765625
523		13.671875
524		7.812500
525		11.718750
526		5.859375
527		9.765625
528		3.906250
529		7.812500
530		1.953125
531		5.859375
532		0.000000
533		3.906250
534		-1.953125
535		1.953125
536		-3.906250
537		0.000000
538		-5.859375
539		-1.953125
540		-7.812500
541		-3.906250
542		-9.765625
543		-5.859375
544		-11.718750
545		-7.812500
546		-13.671875
547		-9.765625
548		-15.625000
549		-11.718750
550		-17.578125
551		-11.718750
552		-19.531250
553		-13.671875
554		-21.484375
555		-17.578125
556		-23.437500
557		-19.531250
558		-25.390625
559		-21.484375
560		-27.343750
561		-23.437500
562		-27.343750
563		-23.437500
564		-29.296875
565		-25.390625
566		-31.250000
567		-27.343750
568		-33.203125
569		-29.296875
570		-35.156250
571		-31.250000
572		-37.109375
573		-33.203125
574		-37.109375
575		-33.203125
576		-41.015625
577		-35.156250
578		-41.015625
579		-37.109375
580		-42.968750
581		-39.062500
582		-44.921875
583		-39.062500
584		-46.875000
585		-41.015625
586		-46.875000
587		-42.968750
588		-48.828125
589		-44.921875
590		-48.828125
591		-44.921875
592		-50.781250
593		-46.875000
594		-52.734375
595		-48.828125
596		-52.734375
597		-50.781250
598		-54.687500
599		-50.781250
600		-54.687500
601		-52.734375
602		-56.640625
603		-50.781250
604		-56.640625
605		-54.687500
606		-58.593750
607		-54.687500
608		-58.593750
609		-56.640625
610		-60.546875
611		-56.640625
612		-60.546875
613		-56.640625
614		-62.500000
615		-58.593750
616		-62.500000
617		-58.593750
618		-62.500000
619		-60.546875
620		-64.453125
621		-58.593750
622		-64.453125
623		-60.546875
624		-64.453125
625		-60.546875
626		-66.406250
627		-62.500000
628		-64.453125
629		-62.500000
630		-66.406250
631		-62.500000
632		-66.406250
633		-62.500000
634		-66.406250
635		-62.500000
636		-66.406250
637		-62.500000
638		-66.406250
639		-62.500000
640		-66.406250
641		-62.500000
642		-66.406250
643		-62.500000
644		-66.406250
645		-62.500000
646		-66.406250
647		-62.500000
648		-66.406250
649		-62.500000
650		-66.406250
651		-62.500000
652		-66.406250
653		-62.500000
654		-64.453125
655		-62.500000
656		-64.453125
657		-60.546875
658		-64.453125
659		-60.546875
660		-64.453125
661		-60.546875
662		-64.453125
663		-58.593750
664		-62.500000
665		-58.593750
666		-60.546875
667		-58.593750
668		-60.546875
669		-56.640625
670		-60.546875
671		-56.640625
672		-58.593750
673		-56.640625
674		-58.593750
675		-54.687500
676		-58.593750
677		-54.687500
678		-56.640625
679		-52.734375
680		-56.640625
681		-50.781250
682		-54.687500
683		-50.781250
684		-54.687500
685		-48.828125
686		-52.734375
687		-48.828125
688		-50.781250
689		-46.875000
690		-48.828125
691		-44.921875
692		-48.828125
693		-44.921875
694		-46.875000
695		-42.968750
696		-44.921875
697		-41.015625
698		-44.921875
699		-41.015625
700		-42.968750
701		-39.062500
702		-41.015625
703		-37.109375
704		-39.062500
705		-35.156250
706		-37.109375
707		-33.203125
708		-37.109375
709		-33.203125
710		-35.156250
711		-31.250000
712		-33.203125
713		-29.296875
714		-31.250000
715		-27.343750
716		-29.296875
717		-25.390625
718		-27.343750
719		-23.437500
720		-27.343750
721		-21.484375
722		-25.390625
723		-19.531250
724		-23.437500
725		-17.578125
726		-21.484375
727		-15.625000
728		-19.531250
729		-15.625000
730		-17.578125
731		-13.671875
732		-15.625000
733		-9.765625
734		-13.671875
735		-9.765625
736		-13.671875
737		-7.812500
738		-9.765625
739		-5.859375
740		-7.812500
741		-3.906250
742		-5.859375
743		-1.953125
744		-3.906250
745		0.000000
746		-1.953125
747		1.953125
748		0.000000
749		3.906250
750		1.953125
751		5.859375
752		3.906250
753		9.765625
754		5.859375
755		9.765625
756		7.812500
757		11.718750
758		9.765625
759		13.671875
760		11.718750
761		15.625000
762		13.671875
763		17.578125
764		15.625000
765		19.531250
766		17.578125
767		21.484375
768		19.531250
769		23.437500
770		21.484375
771		25.390625
772		23.437500
773		27.343750
774		23.437500
775		29.296875
776		25.390625
777		31.250000
778		27.343750
779		33.203125
780		29.296875
781		35.156250
782		31.250000
783		37.109375
784		33.203125
785		37.109375
786		35.156250
787		39.062500
788		37.109375
789		41.015625
790		39.062500
791		42.968750
792		39.062500
793		44.921875
794		41.015625
795		46.875000
796		42.968750
797		46.875000
798		44.921875
799		48.828125
800		46.875000
801		50.781250
802		46.875000
803		52.734375
804		48.828125
805		52.734375
806		50.781250
807		54.687500
808		52.734375
809		56.640625
810		54.687500
811		58.593750
812		54.687500
813		58.593750
814		56.640625
815		60.546875
816		58.593750
817		60.546875
818		58.593750
819		62.500000
820		60.546875
821		64.453125
822		62.500000
823		64.453125
824		62.500000
825		66.406250
826		62.500000
827		68.359375
828		64.453125
829		68.359375
830		66.406250
831		70.312500
832		66.406250
833		70.312500
834		68.359375
835		70.312500
836		68.359375
837		72.265625
838		70.312500
839		72.265625
840		70.312500
841		74.218750
842		70.312500
843		74.218750
844		72.265625
845		76.171875
846		72.265625
847		76.171875
848		74.218750
849		76.171875
850		74.218750
851		76.171875
852		74.218750
853		78.125000
854		74.218750
855		78.125000
856		76.171875
857		78.125000
858		76.171875
859		80.078125
860		76.171875
861		80.078125
862		76.171875
863		80.078125
864		76.171875
865		80.078125
866		76.171875
867		80.078125
868		76.171875
869		80.078125
870		76.171875
871		80.078125
872		78.125000
873		80.078125
874		78.125000
875		80.078125
876		78.125000
877		80.078125
878		78.125000
879		80.078125
880		78.125000
881		80.078125
882		78.125000
883		82.031250
884		78.125000
885		80.078125
886		76.171875
887		80.078125
888		76.171875
889		80.078125
890		76.171875
891		80.078125
892		76.171875
893		80.078125
894		76.171875
895		80.078125
896		74.218750
897		80.078125
898		74.218750
899		78.125000
900		74.218750
901		78.125000
902		74.218750
903		78.125000
904		74.218750
905		76.171875
906		72.265625
907		76.171875
908		72.265625
909		76.171875
910		70.312500
911		74.218750
912		70.312500
913		74.218750
914		70.312500
915		74.218750
916		68.359375
917		72.265625
918		68.359375
919		72.265625
920		66.406250
921		70.312500
922		66.406250
923		70.312500
924		64.453125
925		68.359375
926		62.500000
927		68.359375
928		62.500000
929		66.406250
930		62.500000
931		66.406250
932		60.546875
933		64.453125
934		58.593750
935		62.500000
936		58.593750
937		62.500000
938		56.640625
939		60.546875
940		54.687500
941		60.546875
942		54.687500
943		58.593750
944		52.734375
945		56.640625
946		50.781250
947		54.687500
948		48.828125
949		54.687500
950		48.828125
951		52.734375
952		46.875000
953		50.781250
954		44.921875
955		48.828125
956		42.968750
957		46.875000
958		41.015625
959		44.921875
960		41.015625
961		44.921875
962		39.062500
963		42.968750
964		37.109375
965		41.015625
966		35.156250
967		39.062500
968		33.203125
969		37.109375
970		31.250000
971		35.156250
972		29.296875
973		35.156250
974		27.343750
975		33.203125
976		25.390625
977		31.250000
978		23.437500
979		29.296875
980		23.437500
981		27.343750
982		21.484375
983		25.390625
984		19.531250
985		23.437500
986		15.625000
987		21.484375
988		15.625000
989		19.531250
990		13.671875
991		17.578125
992		11.718750
993		15.625000
994		9.765625
995		13.671875
996		5.859375
997		11.718750
998		3.906250
999		9.765625
1000		3.906250
1001		7.812500
1002		1.953125
1003		5.859375
1004		-1.953125
1005		3.906250
1006		-1.953125
1007		1.953125
1008		-3.906250
1009		0.000000
1010		-5.859375
1011		-1.953125
1012		-7.812500
1013		-3.906250
1014		-9.765625
1015		-5.859375
1016		-11.718750
1017		-7.812500
1018		-13.671875
1019		-9.765625
1020		-15.625000
1021		-11.718750
1022		-17.578125
1023		-13.671875
1024		-19.531250
1025		-15.625000
1026		-21.484375
1027		-17.578125
1028		-23.437500
1029		-19.531250
1030		-25.390625
1031		-21.484375
1032		-27.343750
1033		-23.437500
1034		-29.296875
1035		-25.390625
1036		-31.250000
1037		-25.390625
1038		-33.203125
1039		-27.343750
1040		-33.203125
1041		-29.296875
1042		-35.156250
1043		-31.250000
1044		-37.109375
1045		-33.203125
1046		-39.062500
1047		-35.156250
1048		-41.015625
1049		-35.156250
1050		-41.015625
1051		-37.109375
1052		-42.968750
1053		-39.062500
1054		-44.921875
1055		-41.015625
1056		-44.921875
1057		-42.968750
1058		-46.875000
1059		-42.968750
1060		-48.828125
1061		-44.921875
1062		-50.781250
1063		-46.875000
1064		-50.781250
1065		-46.875000
1066		-52.734375
1067		-48.828125
1068		-52.734375
1069		-50.781250
1070		-54.687500
1071		-50.781250
1072		-56.640625
1073		-52.734375
1074		-56.640625
1075		-52.734375
1076		-58.593750
1077		-54.687500
1078		-58.593750
1079		-54.687500
1080		-60.546875
1081		-54.687500
1082		-60.546875
1083		-56.640625
1084		-60.546875
1085		-56.640625
1086		-62.500000
1087		-58.593750
1088		-62.500000
1089		-58.593750
1090		-64.453125
1091		-60.546875
1092		-64.453125
1093		-60.546875
1094		-64.453125
1095		-60.546875
1096		-64.453125
1097		-60.546875
1098		-64.453125
1099		-62.500000
1100		-64.453125
1101		-62.500000
1102		-66.406250
1103		-62.500000
1104		-66.406250
1105		-62.500000
1106		-66.406250
1107		-62.500000
1108		-66.406250
1109		-62.500000
1110		-66.406250
1111		-62.500000
1112		-66.406250
1113		-62.500000
1114		-66.406250
1115		-62.500000
1116		-66.406250
1117		-62.500000
1118		-66.406250
1119		-62.500000
1120		-66.406250
1121		-62.500000
1122		-66.406250
1123		-62.500000
1124		-64.453125
1125		-62.500000
1126		-64.453125
1127		-60.546875
1128		-64.453125
1129		-60.546875
1130		-64.453125
1131		-60.546875
1132		-64.453125
1133		-58.593750
1134		-62.500000
1135		-58.593750
1136		-62.500000
1137		-58.593750
1138		-62.500000
1139		-56.640625
1140		-60.546875
1141		-56.640625
1142		-58.593750
1143		-56.640625
1144		-58.593750
1145		-54.687500
1146		-58.593750
1147		-54.687500
1148		-56.640625
1149		-52.734375
1150		-56.640625
1151		-52.734375
1152		-54.687500
1153		-50.781250
1154		-52.734375
1155		-50.781250
1156		-52.734375
1157		-48.828125
1158		-50.781250
1159		-48.828125
1160		-50.781250
1161		-46.875000
1162		-48.828125
1163		-44.921875
1164		-46.875000
1165		-42.968750
1166		-46.875000
1167		-42.968750
1168		-44.921875
1169		-41.015625
1170		-42.968750
1171		-39.062500
1172		-42.968750
1173		-37.109375
1174		-41.015625
1175		-37.109375
1176		-39.062500
1177		-35.156250
1178		-37.109375
1179		-33.203125
1180		-35.156250
1181		-31.250000
1182		-35.156250
1183		-29.296875
1184		-33.203125
1185		-27.343750
1186		-31.250000
1187		-27.343750
1188		-29.296875
1189		-25.390625
1190		-27.343750
1191		-23.437500
1192		-25.390625
1193		-21.484375
1194		-23.437500
1195		-19.531250
1196		-21.484375
1197		-17.578125
1198		-19.531250
1199		-15.625000
1200		-17.578125
1201		-13.671875
1202		-15.625000
1203		-11.718750
1204		-15.625000
1205		-9.765625
1206		-11.718750
1207		-7.812500
1208		-9.765625
1209		-5.859375
1210		-7.812500
1211		-3.906250
1212		-7.812500
1213		-1.953125
1214		-5.859375
1215		1.953125
1216		-3.906250
1217		1.953125
1218		-1.953125
1219		3.906250
1220		0.000000
1221		5.859375
1222		1.953125
1223		7.812500
1224		3.906250
1225		9.765625
1226		5.859375
1227		11.718750
1228		7.812500
1229		15.625000
1230		7.812500
1231		15.625000
1232		11.718750
1233		17.578125
1234		13.671875
1235		17.578125
1236		15.625000
1237		21.484375
1238		17.578125
1239		23.437500
1240		17.578125
1241		25.390625
1242		21.484375
1243		25.390625
1244		23.437500
1245		27.343750
1246		23.437500
1247		31.250000
1248		25.390625
1249		33.203125
1250		27.343750
1251		33.203125
1252		31.250000
1253		37.109375
1254		33.203125
1255		37.109375
1256		33.203125
1257		39.062500
1258		35.156250
1259		39.062500
1260		37.109375
1261		41.015625
1262		39.062500
1263		42.968750
1264		39.062500
1265		46.875000
1266		41.015625
1267		48.828125
1268		42.968750
1269		50.781250
1270		44.921875
1271		50.781250
1272		46.875000
1273		52.734375
1274		46.875000
1275		52.734375
1276		50.781250
1277		54.687500
1278		52.734375
1279		56.640625
1280		50.781250
1281		58.593750
1282		52.734375
1283		60.546875
1284		52.734375
1285		60.546875
1286		54.687500
1287		62.500000
1288		56.640625
1289		64.453125
1290		58.593750
1291		64.453125
1292		60.546875
1293		64.453125
1294		62.500000
1295		64.453125
1296		60.546875
1297		68.359375
1298		62.500000
1299		70.312500
1300		62.500000
1301		70.312500
1302		64.453125
1303		70.312500
1304		64.453125
1305		72.265625
1306		66.406250
1307		72.265625
1308		68.359375
1309		74.218750
1310		70.312500
1311		74.218750
1312		70.312500
1313		76.171875
1314		70.312500
1315		76.171875
1316		70.312500
1317		76.171875
1318		70.312500
1319		78.125000
1320		70.312500
1321		78.125000
1322		72.265625
1323		80.078125
1324		74.218750
1325		80.078125
1326		76.171875
1327		78.125000
1328		76.171875
1329		78.125000
1330		74.218750
1331		82.031250
1332		74.218750
1333		82.031250
1334		74.218750
1335		82.031250
1336		76.171875
1337		82.031250
1338		76.171875
1339		82.031250
1340		76.171875
1341		83.984375
1342		78.125000
1343		80.078125
1344		78.125000
1345		80.078125
1346		76.171875
1347		83.984375
1348		76.171875
1349		83.984375
1350		76.171875
1351		83.984375
1352		76.171875
1353		82.031250
1354		76.171875
1355		82.031250
1356		76.171875
1357		83.984375
1358		76.171875
1359		83.984375
1360		76.171875
1361		80.078125
1362		76.171875
1363		80.078125
1364		74.218750
1365		82.031250
1366		74.218750
1367		82.031250
1368		74.218750
1369		80.078125
1370		74.218750
1371		80.078125
1372		72.265625
1373		80.078125
1374		72.265625
1375		78.125000
1376		74.218750
1377		76.171875
1378		72.265625
1379		76.171875
1380		70.312500
1381		78.125000
1382		68.359375
1383		76.171875
1384		68.359375
1385		76.171875
1386		66.406250
1387		76.171875
1388		66.406250
1389		74.218750
1390		66.406250
1391		74.218750
1392		64.453125
1393		70.312500
1394		66.406250
1395		70.312500
1396		62.500000
1397		70.312500
1398		62.500000
1399		70.312500
1400		60.546875
1401		68.359375
1402		60.546875
1403		66.406250
1404		58.593750
1405		66.406250
1406		58.593750
1407		64.453125
1408		56.640625
1409		62.500000
1410		56.640625
1411		60.546875
1412		54.687500
1413		58.593750
1414		50.781250
1415		58.593750
1416		50.781250
1417		58.593750
1418		48.828125
1419		56.640625
1420		48.828125
1421		54.687500
1422		46.875000
1423		52.734375
1424		44.921875
1425		52.734375
1426		44.921875
1427		48.828125
1428		42.968750
1429		46.875000
1430		41.015625
1431		46.875000
1432		39.062500
1433		44.921875
1434		37.109375
1435		44.921875
1436		35.156250
1437		42.968750
1438		33.203125
1439		41.015625
1440		31.250000
1441		39.062500
1442		31.250000
1443		37.109375
1444		29.296875
1445		33.203125
1446		27.343750
1447		31.250000
1448		25.390625
1449		31.250000
1450		21.484375
1451		31.250000
1452		21.484375
1453		27.343750
1454		19.531250
1455		25.390625
1456		15.625000
1457		23.437500
1458		15.625000
1459		23.437500
1460		15.625000
1461		17.578125
1462		13.671875
1463		17.578125
1464		9.765625
1465		15.625000
1466		7.812500
1467		15.625000
1468		5.859375
1469		13.671875
1470		3.906250
1471		9.765625
1472		0.000000
1473		7.812500
1474		0.000000
1475		5.859375
1476		-1.953125
1477		3.906250
1478		-1.953125
1479		1.953125
1480		-7.812500
1481		0.000000
1482		-9.765625
1483		-1.953125
1484		-9.765625
1485		-1.953125
1486		-11.718750
1487		-3.906250
1488		-13.671875
1489		-7.812500
1490		-15.625000
1491		-7.812500
1492		-17.578125
1493		-9.765625
1494		-17.578125
1495		-13.671875
1496		-19.531250
1497		-15.625000
1498		-23.437500
1499		-15.625000
1500		-25.390625
1501		-17.578125
1502		-27.343750
1503		-19.531250
1504		-29.296875
1505		-21.484375
1506		-31.250000
1507		-23.437500
1508		-33.203125
1509		-25.390625
1510		-33.203125
1511		-27.343750
1512		-35.156250
1513		-29.296875
1514		-37.109375
1515		-31.250000
1516		-39.062500
1517		-31.250000
1518		-41.015625
1519		-33.203125
1520		-42.968750
1521		-35.156250
1522		-44.921875
1523		-35.156250
1524		-44.921875
1525		-39.062500
1526		-46.875000
1527		-39.062500
1528		-46.875000
1529		-42.968750
1530		-46.875000
1531		-42.968750
1532		-50.781250
1533		-42.968750
1534		-50.781250
1535		-44.921875
1536		-52.734375
1537		-44.921875
1538		-54.687500
1539		-46.875000
1540		-54.687500
1541		-48.828125
1542		-56.640625
1543		-50.781250
1544		-56.640625
1545		-52.734375
1546		-56.640625
1547		-52.734375
1548		-58.593750
1549		-52.734375
1550		-60.546875
1551		-52.734375
1552		-62.500000
1553		-54.687500
1554		-62.500000
1555		-54.687500
1556		-62.500000
1557		-54.687500
1558		-64.453125
1559		-56.640625
1560		-62.500000
1561		-58.593750
1562		-62.500000
1563		-58.593750
1564		-66.406250
1565		-58.593750
1566		-66.406250
1567		-58.593750
1568		-66.406250
1569		-58.593750
1570		-66.406250
1571		-58.593750
1572		-68.359375
1573		-60.546875
1574		-66.406250
1575		-60.546875
1576		-68.359375
1577		-60.546875
1578		-66.406250
1579		-62.500000
1580		-66.406250
1581		-62.500000
1582		-68.359375
1583		-60.546875
1584		-68.359375
1585		-60.546875
1586		-68.359375
1587		-60.546875
1588		-66.406250
1589		-60.546875
1590		-68.359375
1591		-60.546875
1592		-66.406250
1593		-60.546875
1594		-66.406250
1595		-60.546875
1596		-64.453125
1597		-60.546875
1598		-66.406250
1599		-58.593750
1600		-66.406250
1601		-58.593750
1602		-64.453125
1603		-58.593750
1604		-64.453125
1605		-56.640625
1606		-64.453125
1607		-56.640625
1608		-62.500000
1609		-56.640625
1610		-64.453125
1611		-54.687500
1612		-60.546875
1613		-56.640625
1614		-58.593750
1615		-54.687500
1616		-60.546875
1617		-52.734375
1618		-58.593750
1619		-52.734375
1620		-58.593750
1621		-50.781250
1622		-56.640625
1623		-50.781250
1624		-56.640625
1625		-48.828125
1626		-54.687500
1627		-46.875000
1628		-52.734375
1629		-48.828125
1630		-50.781250
1631		-46.875000
1632		-50.781250
1633		-44.921875
1634		-50.781250
1635		-42.968750
1636		-48.828125
1637		-41.015625
1638		-46.875000
1639		-41.015625
1640		-44.921875
1641		-39.062500
1642		-44.921875
1643		-37.109375
1644		-42.968750
1645		-37.109375
1646		-39.062500
1647		-35.156250
1648		-39.062500
1649		-33.203125
1650		-37.109375
1651		-31.250000
1652		-37.109375
1653		-29.296875
1654		-35.156250
1655		-27.343750
1656		-33.203125
1657		-25.390625
1658		-31.250000
1659		-23.437500
1660		-29.296875
1661		-23.437500
1662		-25.390625
1663		-21.484375
1664		-25.390625
1665		-19.531250
1666		-23.437500
1667		-17.578125
1668		-23.437500
1669		-15.625000
1670		-21.484375
1671		-13.671875
1672		-19.531250
1673		-11.718750
1674		-17.578125
1675		-9.765625
1676		-15.625000
1677		-7.812500
1678		-11.718750
1679		-7.812500
1680		-9.765625
1681		-5.859375
1682		-7.812500
1683		-1.953125
1684		-7.812500
1685		0.000000
1686		-5.859375
1687		1.953125
1688		-3.906250
1689		3.906250
1690		-1.953125
1691		5.859375
1692		0.000000
1693		7.812500
1694		3.906250
1695		7.812500
1696		5.859375
1697		9.765625
1698		7.812500
1699		11.718750
1700		7.812500
1701		15.625000
1702		9.765625
1703		17.578125
1704		11.718750
1705		19.531250
1706		13.671875
1707		21.484375
1708		13.671875
1709		23.437500
1710		15.625000
1711		25.390625
1712		19.531250
1713		25.390625
1714		23.437500
1715		27.343750
1716		23.437500
1717		31.250000
1718		23.437500
1719		31.250000
1720		25.390625
1721		33.203125
1722		29.296875
1723		35.156250
1724		31.250000
1725		37.109375
1726		31.250000
1727		39.062500
1728		33.203125
1729		41.015625
1730		37.109375
1731		41.015625
1732		39.062500
1733		44.921875
1734		39.062500
1735		44.921875
1736		39.062500
1737		46.875000
1738		41.015625
1739		50.781250
1740		42.968750
1741		50.781250
1742		44.921875
1743		52.734375
1744		46.875000
1745		52.734375
1746		48.828125
1747		54.687500
1748		50.781250
1749		54.687500
1750		50.781250
1751		58.593750
1752		52.734375
1753		60.546875
1754		52.734375
1755		60.546875
1756		54.687500
1757		60.546875
1758		54.687500
1759		64.453125
1760		58.593750
1761		64.453125
1762		60.546875
1763		64.453125
1764		62.500000
1765		66.406250
1766		60.546875
1767		68.359375
1768		62.500000
1769		70.312500
1770		62.500000
1771		70.312500
1772		64.453125
1773		70.312500
1774		64.453125
1775		72.265625
1776		66.406250
1777		72.265625
1778		68.359375
1779		74.218750
1780		70.312500
1781		72.265625
1782		70.312500
1783		74.218750
1784		70.312500
1785		76.171875
1786		70.312500
1787		76.171875
1788		72.265625
1789		76.171875
1790		72.265625
1791		78.125000
1792		72.265625
1793		78.125000
1794		74.218750
1795		78.125000
1796		74.218750
1797		78.125000
1798		76.171875
1799		78.125000
1800		74.218750
1801		82.031250
1802		74.218750
1803		82.031250
1804		76.171875
1805		82.031250
1806		74.218750
1807		82.031250
1808		76.171875
1809		83.984375
1810		76.171875
1811		82.031250
1812		76.171875
1813		82.031250
1814		78.125000
1815		82.031250
1816		78.125000
1817		83.984375
1818		76.171875
1819		83.984375
1820		76.171875
1821		82.031250
1822		76.171875
1823		82.031250
1824		76.171875
1825		83.984375
1826		76.171875
1827		83.984375
1828		76.171875
1829		82.031250
1830		78.125000
1831		82.031250
1832		78.125000
1833		80.078125
1834		76.171875
1835		83.984375
1836		74.218750
1837		82.031250
1838		74.218750
1839		82.031250
1840		74.218750
1841		82.031250
1842		72.265625
1843		80.078125
1844		74.218750
1845		80.078125
1846		72.265625
1847		80.078125
1848		74.218750
1849		78.125000
1850		72.265625
1851		76.171875
1852		70.312500
1853		78.125000
1854		70.312500
1855		76.171875
1856		68.359375
1857		76.171875
1858		66.406250
1859		76.171875
1860		68.359375
1861		74.218750
1862		66.406250
1863		74.218750
1864		66.406250
1865		70.312500
1866		66.406250
1867		70.312500
1868		62.500000
1869		70.312500
1870		62.500000
1871		70.312500
1872		60.546875
1873		68.359375
1874		60.546875
1875		66.406250
1876		58.593750
1877		66.406250
1878		56.640625
1879		64.453125
1880		58.593750
1881		64.453125
1882		56.640625
1883		60.546875
1884		52.734375
1885		60.546875
1886		52.734375
1887		60.546875
1888		50.781250
1889		56.640625
1890		48.828125
1891		56.640625
1892		46.875000
1893		54.687500
1894		46.875000
1895		52.734375
1896		44.921875
1897		52.734375
1898		44.921875
1899		48.828125
1900		41.015625
1901		46.875000
1902		39.062500
1903		46.875000
1904		37.109375
1905		44.921875
1906		35.156250
1907		42.968750
1908		35.156250
1909		42.968750
1910		33.203125
1911		41.015625
1912		31.250000
1913		39.062500
1914		31.250000
1915		35.156250
1916		29.296875
1917		33.203125
1918		25.390625
1919		33.203125
1920		23.437500
1921		31.250000
1922		21.484375
1923		29.296875
1924		19.531250
1925		27.343750
1926		17.578125
1927		25.390625
1928		17.578125
1929		23.437500
1930		15.625000
1931		21.484375
1932		15.625000
1933		19.531250
1934		9.765625
1935		17.578125
1936		9.765625
1937		17.578125
1938		7.812500
1939		15.625000
1940		5.859375
1941		11.718750
1942		3.906250
1943		9.765625
1944		0.000000
1945		9.765625
1946		0.000000
1947		7.812500
1948		-1.953125
1949		3.906250
1950		-1.953125
1951		1.953125
1952		-5.859375
1953		1.953125
1954		-7.812500
1955		-1.953125
1956		-11.718750
1957		-3.906250
1958		-11.718750
1959		-5.859375
1960		-15.625000
1961		-7.812500
1962		-15.625000
1963		-7.812500
1964		-17.578125
1965		-9.765625
1966		-17.578125
1967		-13.671875
1968		-23.437500
1969		-15.625000
1970		-23.437500
1971		-15.625000
1972		-25.390625
1973		-17.578125
1974		-27.343750
1975		-19.531250
1976		-31.250000
1977		-21.484375
1978		-31.250000
1979		-23.437500
1980		-31.250000
1981		-25.390625
1982		-31.250000
1983		-29.296875
1984		-35.156250
1985		-29.296875
1986		-37.109375
1987		-31.250000
1988		-39.062500
1989		-31.250000
1990		-41.015625
1991		-33.203125
1992		-42.968750
1993		-35.156250
1994		-44.921875
1995		-37.109375
1996		-44.921875
1997		-37.109375
1998		-44.921875
1999		-41.015625
2000		-46.875000
2001		-42.968750
2002		-48.828125
2003		-42.968750
2004		-50.781250
2005		-42.968750
2006		-52.734375
2007		-44.921875
2008		-52.734375
2009		-44.921875
2010		-54.687500
2011		-46.875000
2012		-54.687500
2013		-48.828125
2014		-54.687500
2015		-50.781250
2016		-54.687500
2017		-52.734375
2018		-58.593750
2019		-52.734375
2020		-58.593750
2021		-52.734375
2022		-60.546875
2023		-52.734375
2024		-60.546875
2025		-54.687500
2026		-62.500000
2027		-54.687500
2028		-62.500000
2029		-56.640625
2030		-62.500000
2031		-56.640625
2032		-62.500000
2033		-58.593750
2034		-62.500000
2035		-58.593750
2036		-64.453125
2037		-56.640625
2038		-64.453125
2039		-58.593750
2040		-66.406250
2041		-58.593750
2042		-66.406250
2043		-58.593750
2044		-66.406250
2045		-60.546875
2046		-68.359375
2047		-60.546875
2048		-66.406250
2049		-60.546875
2050		-64.453125
2051		-62.500000
2052		-66.406250
2053		-60.546875
2054		-68.359375
2055		-60.546875
2056		-68.359375
2057		-60.546875
2058		-66.406250
2059		-60.546875
2060		-66.406250
2061		-60.546875
2062		-66.406250
2063		-60.546875
2064		-66.406250
2065		-60.546875
2066		-64.453125
2067		-60.546875
2068		-64.453125
2069		-60.546875
2070		-66.406250
2071		-58.593750
2072		-64.453125
2073		-58.593750
2074		-64.453125
2075		-58.593750
2076		-64.453125
2077		-56.640625
2078		-64.453125
2079		-56.640625
2080		-62.500000
2081		-56.640625
2082		-60.546875
2083		-56.640625
2084		-58.593750
2085		-56.640625
2086		-60.546875
2087		-52.734375
2088		-60.546875
2089		-52.734375
2090		-58.593750
2091		-50.781250
2092		-56.640625
2093		-50.781250
2094		-56.640625
2095		-48.828125
2096		-54.687500
2097		-48.828125
2098		-52.734375
2099		-46.875000
2100		-50.781250
2101		-46.875000
2102		-48.828125
2103		-44.921875
2104		-50.781250
2105		-42.968750
2106		-48.828125
2107		-42.968750
2108		-46.875000
2109		-41.015625
2110		-46.875000
2111		-39.062500
2112		-46.875000
2113		-37.109375
2114		-42.968750
2115		-37.109375
2116		-41.015625
2117		-37.109375
2118		-39.062500
2119		-35.156250
2120		-39.062500
2121		-31.250000
2122		-39.062500
2123		-31.250000
2124		-35.156250
2125		-29.296875
2126		-33.203125
2127		-25.390625
2128		-31.250000
2129		-25.390625
2130		-31.250000
2131		-23.437500
2132		-27.343750
2133		-23.437500
2134		-25.390625
2135		-21.484375
2136		-25.390625
2137		-17.578125
2138		-23.437500
2139		-15.625000
2140		-21.484375
2141		-13.671875
2142		-19.531250
2143		-11.718750
2144		-17.578125
2145		-11.718750
2146		-15.625000
2147		-7.812500
2148		-13.671875
2149		-7.812500
2150		-9.765625
2151		-5.859375
2152		-7.812500
2153		-3.906250
2154		-9.765625
2155		0.000000
2156		-5.859375
2157		0.000000
2158		-5.859375
2159		1.953125
2160		-3.906250
2161		3.906250
2162		0.000000
2163		5.859375
2164		0.000000
2165		9.765625
2166		3.906250
2167		7.812500
2168		5.859375
2169		11.718750
2170		7.812500
2171		13.671875
2172		9.765625
2173		17.578125
2174		9.765625
2175		19.531250
2176		13.671875
2177		19.531250
2178		13.671875
2179		21.484375
2180		15.625000
2181		23.437500
2182		17.578125
2183		25.390625
2184		21.484375
2185		27.343750
2186		23.437500
2187		29.296875
2188		23.437500
2189		31.250000
2190		25.390625
2191		33.203125
2192		27.343750
2193		35.156250
2194		29.296875
2195		37.109375
2196		31.250000
2197		39.062500
2198		33.203125
2199		39.062500
2200		37.109375
2201		41.015625
2202		39.062500
2203		41.015625
2204		37.109375
2205		44.921875
2206		39.062500
2207		46.875000
2208		41.015625
2209		48.828125
2210		42.968750
2211		48.828125
2212		44.921875
2213		50.781250
2214		46.875000
2215		52.734375
2216		46.875000
2217		54.687500
2218		50.781250
2219		54.687500
2220		50.781250
2221		56.640625
2222		50.781250
2223		58.593750
2224		52.734375
2225		60.546875
2226		54.687500
2227		60.546875
2228		56.640625
2229		62.500000
2230		56.640625
2231		64.453125
2232		58.593750
2233		66.406250
2234		60.546875
2235		64.453125
2236		62.500000
2237		66.406250
2238		62.500000
2239		68.359375
2240		62.500000
2241		70.312500
2242		64.453125
2243		70.312500
2244		64.453125
2245		72.265625
2246		66.406250
2247		72.265625
2248		66.406250
2249		74.218750
2250		68.359375
2251		74.218750
2252		70.312500
2253		74.218750
2254		70.312500
2255		76.171875
2256		70.312500
2257		78.125000
2258		70.312500
2259		78.125000
2260		72.265625
2261		78.125000
2262		72.265625
2263		78.125000
2264		74.218750
2265		80.078125
2266		74.218750
2267		80.078125
2268		76.171875
2269		80.078125
2270		74.218750
2271		82.031250
2272		74.218750
2273		82.031250
2274		76.171875
2275		82.031250
2276		76.171875
2277		82.031250
2278		76.171875
2279		82.031250
2280		76.171875
2281		82.031250
2282		76.171875
2283		83.984375
2284		78.125000
2285		82.031250
2286		80.078125
2287		82.031250
2288		78.125000
2289		83.984375
2290		76.171875
2291		83.984375
2292		76.171875
2293		83.984375
2294		76.171875
2295		83.984375
2296		76.171875
2297		83.984375
2298		76.171875
2299		83.984375
2300		78.125000
2301		82.031250
2302		78.125000
2303		82.031250
2304		76.171875
2305		82.031250
2306		76.171875
2307		83.984375
2308		76.171875
2309		82.031250
2310		76.171875
2311		82.031250
2312		74.218750
2313		82.031250
2314		74.218750
2315		80.078125
2316		74.218750
2317		80.078125
2318		74.218750
2319		78.125000
2320		72.265625
2321		78.125000
2322		72.265625
2323		78.125000
2324		70.312500
2325		78.125000
2326		70.312500
2327		76.171875
2328		68.359375
2329		76.171875
2330		68.359375
2331		76.171875
2332		68.359375
2333		74.218750
2334		68.359375
2335		72.265625
2336		68.359375
2337		70.312500
2338		64.453125
2339		70.312500
2340		64.453125
2341		70.312500
2342		62.500000
2343		70.312500
2344		60.546875
2345		68.359375
2346		60.546875
2347		66.406250
2348		58.593750
2349		66.406250
2350		58.593750
2351		66.406250
2352		58.593750
2353		62.500000
2354		54.687500
2355		60.546875
2356		52.734375
2357		60.546875
2358		52.734375
2359		60.546875
2360		50.781250
2361		56.640625
2362		48.828125
2363		56.640625
2364		48.828125
2365		54.687500
2366		46.875000
2367		52.734375
2368		46.875000
2369		50.781250
2370		44.921875
2371		48.828125
2372		41.015625
2373		48.828125
2374		39.062500
2375		46.875000
2376		39.062500
2377		44.921875
2378		37.109375
2379		42.968750
2380		35.156250
2381		42.968750
2382		33.203125
2383		41.015625
2384		31.250000
2385		39.062500
2386		31.250000
2387		35.156250
2388		27.343750
2389		33.203125
2390		27.343750
2391		33.203125
2392		23.437500
2393		31.250000
2394		21.484375
2395		29.296875
2396		19.531250
2397		27.343750
2398		19.531250
2399		25.390625
2400		17.578125
2401		23.437500
2402		15.625000
2403		19.531250
2404		13.671875
2405		17.578125
2406		11.718750
2407		17.578125
2408		7.812500
2409		15.625000
2410		5.859375
2411		13.671875
2412		3.906250
2413		11.718750
2414		1.953125
2415		9.765625
2416		0.000000
2417		7.812500
2418		0.000000
2419		5.859375
2420		-1.953125
2421		1.953125
2422		-5.859375
2423		1.953125
2424		-5.859375
2425		0.000000
2426		-9.765625
2427		0.000000
2428		-9.765625
2429		-1.953125
2430		-13.671875
2431		-5.859375
2432		-13.671875
2433		-7.812500
2434		-15.625000
2435		-7.812500
2436		-15.625000
2437		-11.718750
2438		-19.531250
2439		-13.671875
2440		-21.484375
2441		-15.625000
2442		-23.437500
2443		-17.578125
2444		-25.390625
2445		-17.578125
2446		-27.343750
2447		-19.531250
2448		-29.296875
2449		-21.484375
2450		-31.250000
2451		-23.437500
2452		-31.250000
2453		-27.343750
2454		-33.203125
2455		-29.296875
2456		-37.109375
2457		-29.296875
2458		-37.109375
2459		-29.296875
2460		-39.062500
2461		-31.250000
2462		-41.015625
2463		-33.203125
2464		-41.015625
2465		-35.156250
2466		-44.921875
2467		-37.109375
2468		-44.921875
2469		-37.109375
2470		-44.921875
2471		-41.015625
2472		-48.828125
2473		-41.015625
2474		-48.828125
2475		-41.015625
2476		-50.781250
2477		-42.968750
2478		-52.734375
2479		-44.921875
2480		-52.734375
2481		-44.921875
2482		-54.687500
2483		-46.875000
2484		-54.687500
2485		-48.828125
2486		-54.687500
2487		-50.781250
2488		-54.687500
2489		-52.734375
2490		-58.593750
2491		-50.781250
2492		-58.593750
2493		-50.781250
2494		-60.546875
2495		-52.734375
2496		-60.546875
2497		-54.687500
2498		-60.546875
2499		-54.687500
2500		-62.500000
2501		-56.640625
2502		-62.500000
2503		-56.640625
2504		-62.500000
2505		-58.593750
2506		-64.453125
2507		-58.593750
2508		-64.453125
2509		-56.640625
2510		-64.453125
2511		-58.593750
2512		-66.406250
2513		-58.593750
2514		-66.406250
2515		-58.593750
2516		-66.406250
2517		-58.593750
2518		-66.406250
2519		-58.593750
2520		-64.453125
2521		-60.546875
2522		-66.406250
2523		-60.546875
2524		-66.406250
2525		-60.546875
2526		-66.406250
2527		-58.593750
2528		-66.406250
2529		-60.546875
2530		-66.406250
2531		-60.546875
2532		-66.406250
2533		-58.593750
2534		-66.406250
2535		-60.546875
2536		-64.453125
2537		-60.546875
2538		-62.500000
2539		-60.546875
2540		-64.453125
2541		-58.593750
2542		-64.453125
2543		-56.640625
2544		-64.453125
2545		-56.640625
2546		-64.453125
2547		-56.640625
2548		-62.500000
2549		-56.640625
2550		-62.500000
2551		-54.687500
2552		-60.546875
2553		-54.687500
2554		-58.593750
2555		-54.687500
2556		-58.593750
2557		-52.734375
2558		-58.593750
2559		-52.734375
2560		-58.593750
2561		-50.781250
2562		-56.640625
2563		-50.781250
2564		-56.640625
2565		-48.828125
2566		-54.687500
2567		-48.828125
2568		-54.687500
2569		-46.875000
2570		-50.781250
2571		-46.875000
2572		-48.828125
2573		-46.875000
2574		-50.781250
2575		-42.968750
2576		-48.828125
2577		-42.968750
2578		-48.828125
2579		-41.015625
2580		-46.875000
2581		-39.062500
2582		-44.921875
2583		-39.062500
2584		-42.968750
2585		-37.109375
2586		-42.968750
2587		-37.109375
2588		-39.062500
2589		-35.156250
2590		-39.062500
2591		-31.250000
2592		-37.109375
2593		-31.250000
2594		-37.109375
2595		-27.343750
2596		-35.156250
2597		-27.343750
2598		-33.203125
2599		-25.390625
2600		-31.250000
2601		-23.437500
2602		-29.296875
2603		-23.437500
2604		-25.390625
2605		-21.484375
2606		-23.437500
2607		-19.531250
2608		-23.437500
2609		-17.578125
2610		-23.437500
2611		-15.625000
2612		-19.531250
2613		-11.718750
2614		-19.531250
2615		-11.718750
2616		-15.625000
2617		-9.765625
2618		-15.625000
2619		-7.812500
2620		-11.718750
2621		-7.812500
2622		-9.765625
2623		-3.906250
2624		-7.812500
2625		-1.953125
2626		-5.859375
2627		1.953125
2628		-5.859375
2629		1.953125
2630		-3.906250
2631		3.906250
2632		-1.953125
2633		5.859375
2634		0.000000
2635		7.812500
2636		3.906250
2637		7.812500
2638		5.859375
2639		11.718750
2640		7.812500
2641		13.671875
2642		7.812500
2643		15.625000
2644		9.765625
2645		17.578125
2646		11.718750
2647		19.531250
2648		13.671875
2649		21.484375
2650		15.625000
2651		23.437500
2652		17.578125
2653		25.390625
2654		21.484375
2655		25.390625
2656		23.437500
2657		27.343750
2658		23.437500
2659		31.250000
2660		25.390625
2661		33.203125
2662		27.343750
2663		33.203125
2664		29.296875
2665		35.156250
2666		31.250000
2667		37.109375
2668		33.203125
2669		39.062500
2670		33.203125
2671		39.062500
2672		37.109375
2673		42.968750
2674		39.062500
2675		44.921875
2676		39.062500
2677		46.875000
2678		41.015625
2679		48.828125
2680		42.968750
2681		48.828125
2682		42.968750
2683		50.781250
2684		44.921875
2685		52.734375
2686		46.875000
2687		54.687500
2688		50.781250
2689		54.687500
2690		52.734375
2691		56.640625
2692		50.781250
2693		58.593750
2694		52.734375
2695		60.546875
2696		54.687500
2697		60.546875
2698		54.687500
2699		62.500000
2700		56.640625
2701		64.453125
2702		58.593750
2703		64.453125
2704		60.546875
2705		64.453125
2706		62.500000
2707		66.406250
2708		62.500000
2709		68.359375
2710		62.500000
2711		70.312500
2712		64.453125
2713		70.312500
2714		64.453125
2715		72.265625
2716		64.453125
2717		74.218750
2718		66.406250
2719		74.218750
2720		66.406250
2721		74.218750
2722		70.312500
2723		74.218750
2724		70.312500
2725		76.171875
2726		70.312500
2727		78.125000
2728		70.312500
2729		78.125000
2730		70.312500
2731		78.125000
2732		72.265625
2733		80.078125
2734		72.265625
2735		80.078125
2736		74.218750
2737		80.078125
2738		76.171875
2739		80.078125
2740		76.171875
2741		80.078125
2742		74.218750
2743		82.031250
2744		76.171875
2745		83.984375
2746		76.171875
2747		82.031250
2748		76.171875
2749		83.984375
2750		76.171875
2751		83.984375
2752		76.171875
2753		83.984375
2754		76.171875
2755		83.984375
2756		80.078125
2757		82.031250
2758		76.171875
2759		83.984375
2760		78.125000
2761		83.984375
2762		78.125000
2763		83.984375
2764		78.125000
2765		83.984375
2766		76.171875
2767		83.984375
2768		78.125000
2769		83.984375
2770		76.171875
2771		83.984375
2772		78.125000
2773		82.031250
2774		78.125000
2775		82.031250
2776		76.171875
2777		82.031250
2778		76.171875
2779		82.031250
2780		76.171875
2781		82.031250
2782		76.171875
2783		82.031250
2784		74.218750
2785		82.031250
2786		74.218750
2787		82.031250
2788		76.171875
2789		78.125000
2790		76.171875
2791		78.125000
2792		72.265625
2793		78.125000
2794		70.312500
2795		78.125000
2796		70.312500
2797		78.125000
2798		70.312500
2799		76.171875
2800		68.359375
2801		76.171875
2802		68.359375
2803		74.218750
2804		68.359375
2805		74.218750
2806		68.359375
2807		72.265625
2808		66.406250
2809		70.312500
2810		64.453125
2811		72.265625
2812		62.500000
2813		70.312500
2814		62.500000
2815		70.312500
2816		60.546875
2817		68.359375
2818		58.593750
2819		68.359375
2820		58.593750
2821		66.406250
2822		58.593750
2823		62.500000
2824		58.593750
2825		60.546875
2826		54.687500
2827		62.500000
2828		52.734375
2829		60.546875
2830		50.781250
2831		58.593750
2832		48.828125
2833		56.640625
2834		48.828125
2835		56.640625
2836		46.875000
2837		54.687500
2838		46.875000
2839		52.734375
2840		46.875000
2841		50.781250
2842		42.968750
2843		48.828125
2844		41.015625
2845		48.828125
2846		41.015625
2847		46.875000
2848		37.109375
2849		44.921875
2850		35.156250
2851		42.968750
2852		35.156250
2853		42.968750
2854		33.203125
2855		41.015625
2856		33.203125
2857		37.109375
2858		31.250000
2859		35.156250
2860		27.343750
2861		33.203125
2862		25.390625
2863		33.203125
2864		23.437500
2865		31.250000
2866		21.484375
2867		29.296875
2868		19.531250
2869		29.296875
2870		17.578125
2871		25.390625
2872		17.578125
2873		23.437500
2874		15.625000
2875		19.531250
2876		11.718750
2877		19.531250
2878		9.765625
2879		17.578125
2880		7.812500
2881		15.625000
2882		5.859375
2883		13.671875
2884		3.906250
2885		11.718750
2886		1.953125
2887		11.718750
2888		1.953125
2889		7.812500
2890		0.000000
2891		3.906250
2892		-1.953125
2893		3.906250
2894		-5.859375
2895		1.953125
2896		-5.859375
2897		0.000000
2898		-9.765625
2899		-1.953125
2900		-11.718750
2901		-1.953125
2902		-11.718750
2903		-5.859375
2904		-15.625000
2905		-7.812500
2906		-15.625000
2907		-9.765625
2908		-17.578125
2909		-11.718750
2910		-21.484375
2911		-13.671875
2912		-23.437500
2913		-13.671875
2914		-23.437500
2915		-17.578125
2916		-25.390625
2917		-19.531250
2918		-27.343750
2919		-21.484375
2920		-29.296875
2921		-23.437500
2922		-29.296875
2923		-23.437500
2924		-31.250000
2925		-27.343750
2926		-35.156250
2927		-29.296875
2928		-35.156250
2929		-27.343750
2930		-37.109375
2931		-29.296875
2932		-39.062500
2933		-33.203125
2934		-41.015625
2935		-33.203125
2936		-42.968750
2937		-35.156250
2938		-42.968750
2939		-37.109375
2940		-42.968750
2941		-39.062500
2942		-44.921875
2943		-41.015625
2944		-48.828125
2945		-41.015625
2946		-48.828125
2947		-42.968750
2948		-50.781250
2949		-42.968750
2950		-52.734375
2951		-42.968750
2952		-52.734375
2953		-46.875000
2954		-54.687500
2955		-46.875000
2956		-52.734375
2957		-48.828125
2958		-54.687500
2959		-50.781250
2960		-56.640625
2961		-50.781250
2962		-58.593750
2963		-50.781250
2964		-60.546875
2965		-52.734375
2966		-60.546875
2967		-52.734375
2968		-60.546875
2969		-54.687500
2970		-60.546875
2971		-54.687500
2972		-62.500000
2973		-54.687500
2974		-60.546875
2975		-58.593750
2976		-60.546875
2977		-58.593750
2978		-64.453125
2979		-56.640625
2980		-64.453125
2981		-58.593750
2982		-64.453125
2983		-58.593750
2984		-64.453125
2985		-58.593750
2986		-66.406250
2987		-58.593750
2988		-66.406250
2989		-58.593750
2990		-64.453125
2991		-60.546875
2992		-64.453125
2993		-60.546875
2994		-66.406250
2995		-58.593750
2996		-66.406250
2997		-60.546875
2998		-66.406250
2999		-58.593750
3000		-66.406250
3001		-58.593750
3002		-66.406250
3003		-60.546875
3004		-66.406250
3005		-58.593750
3006		-66.406250
3007		-60.546875
3008		-64.453125
3009		-60.546875
3010		-64.453125
3011		-58.593750
3012		-64.453125
3013		-58.593750
3014		-64.453125
3015		-58.593750
3016		-62.500000
3017		-56.640625
3018		-62.500000
3019		-56.640625
3020		-62.500000
3021		-54.687500
3022		-62.500000
3023		-56.640625
3024		-58.593750
3025		-56.640625
3026		-58.593750
3027		-54.687500
3028		-58.593750
3029		-52.734375
3030		-58.593750
3031		-50.781250
3032		-58.593750
3033		-50.781250
3034		-56.640625
3035		-50.781250
3036		-54.687500
3037		-48.828125
3038		-54.687500
3039		-46.875000
3040		-52.734375
3041		-48.828125
3042		-50.781250
3043		-46.875000
3044		-50.781250
3045		-42.968750
3046		-50.781250
3047		-42.968750
3048		-48.828125
3049		-41.015625
3050		-46.875000
3051		-41.015625
3052		-46.875000
3053		-39.062500
3054		-44.921875
3055		-37.109375
3056		-42.968750
3057		-37.109375
3058		-39.062500
3059		-35.156250
3060		-39.062500
3061		-33.203125
3062		-39.062500
3063		-31.250000
3064		-37.109375
3065		-29.296875
3066		-35.156250
3067		-27.343750
3068		-33.203125
3069		-25.390625
3070		-31.250000
3071		-25.390625
3072		-31.250000
3073		-23.437500
3074		-27.343750
3075		-23.437500
3076		-25.390625
3077		-21.484375
3078		-25.390625
3079		-17.578125
3080		-23.437500
3081		-15.625000
3082		-21.484375
3083		-13.671875
3084		-19.531250
3085		-11.718750
3086		-17.578125
3087		-9.765625
3088		-15.625000
3089		-7.812500
3090		-15.625000
3091		-7.812500
3092		-9.765625
3093		-5.859375
3094		-7.812500
3095		-3.906250
3096		-7.812500
3097		0.000000
3098		-5.859375
3099		1.953125
3100		-3.906250
3101		3.906250
3102		-1.953125
3103		5.859375
3104		-1.953125
3105		7.812500
3106		1.953125
3107		7.812500
3108		5.859375
3109		9.765625
3110		7.812500
3111		11.718750
3112		7.812500
3113		13.671875
3114		9.765625
3115		17.578125
3116		11.718750
3117		17.578125
3118		11.718750
3119		19.531250
3120		13.671875
3121		21.484375
3122		17.578125
3123		25.390625
3124		19.531250
3125		25.390625
3126		23.437500
3127		27.343750
3128		23.437500
3129		31.250000
3130		23.437500
3131		33.203125
3132		25.390625
3133		35.156250
3134		27.343750
3135		35.156250
3136		29.296875
3137		37.109375
3138		31.250000
3139		39.062500
3140		33.203125
3141		39.062500
3142		37.109375
3143		41.015625
3144		39.062500
3145		44.921875
3146		37.109375
3147		44.921875
3148		39.062500
3149		46.875000
3150		41.015625
3151		48.828125
3152		42.968750
3153		50.781250
3154		44.921875
3155		50.781250
3156		44.921875
3157		52.734375
3158		48.828125
3159		52.734375
3160		50.781250
3161		54.687500
3162		50.781250
3163		58.593750
3164		52.734375
3165		60.546875
3166		52.734375
3167		60.546875
3168		54.687500
3169		62.500000
3170		56.640625
3171		62.500000
3172		56.640625
3173		64.453125
3174		58.593750
3175		66.406250
3176		62.500000
3177		66.406250
3178		62.500000
3179		66.406250
3180		62.500000
3181		68.359375
3182		62.500000
3183		72.265625
3184		64.453125
3185		72.265625
3186		64.453125
3187		72.265625
3188		66.406250
3189		72.265625
3190		66.406250
3191		74.218750
3192		70.312500
3193		74.218750
3194		70.312500
3195		74.218750
3196		70.312500
3197		78.125000
3198		70.312500
3199		78.125000
3200		72.265625
3201		78.125000
3202		72.265625
3203		78.125000
3204		72.265625
3205		80.078125
3206		72.265625
3207		80.078125
3208		76.171875
3209		80.078125
3210		76.171875
3211		80.078125
3212		74.218750
3213		82.031250
3214		76.171875
3215		82.031250
3216		76.171875
3217		82.031250
3218		76.171875
3219		83.984375
3220		76.171875
3221		83.984375
3222		76.171875
3223		83.984375
3224		76.171875
3225		83.984375
3226		78.125000
3227		82.031250
3228		78.125000
3229		83.984375
3230		78.125000
3231		83.984375
3232		78.125000
3233		83.984375
3234		78.125000
3235		83.984375
3236		78.125000
3237		83.984375
3238		78.125000
3239		83.984375
3240		78.125000
3241		83.984375
3242		78.125000
3243		82.031250
3244		80.078125
3245		82.031250
3246		76.171875
3247		83.984375
3248		76.171875
3249		83.984375
3250		76.171875
3251		82.031250
3252		76.171875
3253		82.031250
3254		74.218750
3255		82.031250
3256		74.218750
3257		82.031250
3258		74.218750
3259		80.078125
3260		76.171875
3261		78.125000
3262		74.218750
3263		78.125000
3264		72.265625
3265		80.078125
3266		72.265625
3267		78.125000
3268		70.312500
3269		78.125000
3270		70.312500
3271		76.171875
3272		68.359375
3273		76.171875
3274		68.359375
3275		76.171875
3276		68.359375
3277		72.265625
3278		68.359375
3279		72.265625
3280		66.406250
3281		72.265625
3282		62.500000
3283		72.265625
3284		62.500000
3285		70.312500
3286		62.500000
3287		68.359375
3288		60.546875
3289		68.359375
3290		60.546875
3291		66.406250
3292		60.546875
3293		66.406250
3294		58.593750
3295		62.500000
3296		56.640625
3297		62.500000
3298		54.687500
3299		60.546875
3300		52.734375
3301		60.546875
3302		52.734375
3303		58.593750
3304		48.828125
3305		56.640625
3306		48.828125
3307		56.640625
3308		46.875000
3309		54.687500
3310		46.875000
3311		50.781250
3312		44.921875
3313		50.781250
3314		41.015625
3315		50.781250
3316		41.015625
3317		48.828125
3318		39.062500
3319		46.875000
3320		37.109375
3321		44.921875
3322		35.156250
3323		42.968750
3324		35.156250
3325		41.015625
3326		35.156250
3327		39.062500
3328		33.203125
3329		37.109375
3330		29.296875
3331		35.156250
3332		27.343750
3333		35.156250
3334		25.390625
3335		31.250000
3336		23.437500
3337		29.296875
3338		21.484375
3339		29.296875
3340		17.578125
3341		27.343750
3342		19.531250
3343		25.390625
3344		17.578125
3345		21.484375
3346		15.625000
3347		19.531250
3348		11.718750
3349		19.531250
3350		9.765625
3351		17.578125
3352		7.812500
3353		15.625000
3354		5.859375
3355		13.671875
3356		3.906250
3357		11.718750
3358		1.953125
3359		9.765625
3360		1.953125
3361		5.859375
3362		0.000000
3363		3.906250
3364		-3.906250
3365		3.906250
3366		-5.859375
3367		1.953125
3368		-7.812500
3369		1.953125
3370		-9.765625
3371		-1.953125
3372		-11.718750
3373		-3.906250
3374		-13.671875
3375		-5.859375
3376		-13.671875
3377		-7.812500
3378		-15.625000
3379		-11.718750
3380		-17.578125
3381		-13.671875
3382		-21.484375
3383		-13.671875
3384		-23.437500
3385		-13.671875
3386		-23.437500
3387		-17.578125
3388		-25.390625
3389		-17.578125
3390		-27.343750
3391		-19.531250
3392		-29.296875
3393		-21.484375
3394		-29.296875
3395		-25.390625
3396		-31.250000
3397		-27.343750
3398		-35.156250
3399		-27.343750
3400		-35.156250
3401		-29.296875
3402		-39.062500
3403		-29.296875
3404		-41.015625
3405		-31.250000
3406		-41.015625
3407		-35.156250
3408		-42.968750
3409		-33.203125
3410		-41.015625
3411		-39.062500
3412		-42.968750
3413		-39.062500
3414		-46.875000
3415		-41.015625
3416		-46.875000
3417		-41.015625
3418		-48.828125
3419		-41.015625
3420		-50.781250
3421		-42.968750
3422		-50.781250
3423		-44.921875
3424		-52.734375
3425		-46.875000
3426		-52.734375
3427		-48.828125
3428		-52.734375
3429		-50.781250
3430		-56.640625
3431		-50.781250
3432		-56.640625
3433		-48.828125
3434		-58.593750
3435		-50.781250
3436		-58.593750
3437		-52.734375
3438		-60.546875
3439		-52.734375
3440		-60.546875
3441		-54.687500
3442		-62.500000
3443		-52.734375
3444		-60.546875
3445		-56.640625
3446		-60.546875
3447		-56.640625
3448		-62.500000
3449		-56.640625
3450		-64.453125
3451		-56.640625
3452		-64.453125
3453		-56.640625
3454		-64.453125
3455		-58.593750
3456		-66.406250
3457		-58.593750
3458		-64.453125
3459		-58.593750
3460		-66.406250
3461		-58.593750
3462		-62.500000
3463		-60.546875
3464		-64.453125
3465		-58.593750
3466		-64.453125
3467		-60.546875
3468		-66.406250
3469		-60.546875
3470		-64.453125
3471		-58.593750
3472		-64.453125
3473		-60.546875
3474		-64.453125
3475		-60.546875
3476		-64.453125
3477		-60.546875
3478		-62.500000
3479		-58.593750
3480		-62.500000
3481		-60.546875
3482		-64.453125
3483		-56.640625
3484		-64.453125
3485		-56.640625
3486		-62.500000
3487		-56.640625
3488		-62.500000
3489		-54.687500
3490		-62.500000
3491		-56.640625
3492		-62.500000
3493		-54.687500
3494		-58.593750
3495		-54.687500
3496		-58.593750
3497		-54.687500
3498		-58.593750
3499		-52.734375
3500		-58.593750
3501		-50.781250
3502		-56.640625
3503		-50.781250
3504		-56.640625
3505		-48.828125
3506		-56.640625
3507		-48.828125
3508		-54.687500
3509		-46.875000
3510		-52.734375
3511		-46.875000
3512		-50.781250
3513		-46.875000
3514		-48.828125
3515		-44.921875
3516		-48.828125
3517		-42.968750
3518		-48.828125
3519		-41.015625
3520		-46.875000
3521		-41.015625
3522		-46.875000
3523		-39.062500
3524		-44.921875
3525		-37.109375
3526		-42.968750
3527		-37.109375
3528		-39.062500
3529		-35.156250
3530		-39.062500
3531		-35.156250
3532		-39.062500
3533		-31.250000
3534		-37.109375
3535		-29.296875
3536		-35.156250
3537		-27.343750
3538		-33.203125
3539		-25.390625
3540		-33.203125
3541		-23.437500
3542		-31.250000
3543		-23.437500
3544		-29.296875
3545		-23.437500
3546		-25.390625
3547		-21.484375
3548		-23.437500
3549		-17.578125
3550		-23.437500
3551		-15.625000
3552		-21.484375
3553		-13.671875
3554		-19.531250
3555		-13.671875
3556		-19.531250
3557		-9.765625
3558		-15.625000
3559		-7.812500
3560		-13.671875
3561		-7.812500
3562		-11.718750
3563		-5.859375
3564		-7.812500
3565		-3.906250
3566		-7.812500
3567		0.000000
3568		-5.859375
3569		1.953125
3570		-3.906250
3571		3.906250
3572		-3.906250
3573		3.906250
3574		0.000000
3575		7.812500
3576		0.000000
3577		7.812500
3578		3.906250
3579		9.765625
3580		5.859375
3581		11.718750
3582		7.812500
3583		13.671875
3584		7.812500
3585		17.578125
3586		9.765625
3587		17.578125
3588		11.718750
3589		19.531250
3590		13.671875
3591		21.484375
3592		15.625000
3593		23.437500
3594		17.578125
3595		25.390625
3596		21.484375
3597		25.390625
3598		23.437500
3599		27.343750
3600		23.437500
3601		31.250000
3602		25.390625
3603		33.203125
3604		27.343750
3605		33.203125
3606		29.296875
3607		37.109375
3608		31.250000
3609		39.062500
3610		31.250000
3611		41.015625
3612		35.156250
3613		41.015625
3614		37.109375
3615		42.968750
3616		39.062500
3617		44.921875
3618		39.062500
3619		46.875000
3620		41.015625
3621		48.828125
3622		42.968750
3623		50.781250
3624		42.968750
3625		50.781250
3626		44.921875
3627		52.734375
3628		46.875000
3629		54.687500
3630		50.781250
3631		54.687500
3632		52.734375
3633		56.640625
3634		52.734375
3635		60.546875
3636		52.734375
3637		60.546875
3638		54.687500
3639		62.500000
3640		56.640625
3641		62.500000
3642		56.640625
3643		64.453125
3644		58.593750
3645		64.453125
3646		62.500000
3647		64.453125
3648		62.500000
3649		66.406250
3650		62.500000
3651		68.359375
3652		62.500000
3653		70.312500
3654		64.453125
3655		72.265625
3656		64.453125
3657		72.265625
3658		64.453125
3659		74.218750
3660		68.359375
3661		76.171875
3662		70.312500
3663		74.218750
3664		70.312500
3665		74.218750
3666		70.312500
3667		76.171875
3668		70.312500
3669		78.125000
3670		72.265625
3671		78.125000
3672		72.265625
3673		80.078125
3674		74.218750
3675		80.078125
3676		74.218750
3677		80.078125
3678		74.218750
3679		82.031250
3680		76.171875
3681		80.078125
3682		76.171875
3683		80.078125
3684		76.171875
3685		83.984375
3686		76.171875
3687		82.031250
3688		76.171875
3689		83.984375
3690		76.171875
3691		83.984375
3692		78.125000
3693		83.984375
3694		78.125000
3695		85.937500
3696		80.078125
3697		83.984375
3698		80.078125
3699		83.984375
3700		78.125000
3701		85.937500
3702		78.125000
3703		83.984375
3704		78.125000
3705		85.937500
3706		78.125000
3707		85.937500
3708		78.125000
3709		83.984375
3710		78.125000
3711		85.937500
3712		78.125000
3713		83.984375
3714		80.078125
3715		82.031250
3716		80.078125
3717		82.031250
3718		78.125000
3719		83.984375
3720		76.171875
3721		83.984375
3722		76.171875
3723		83.984375
3724		76.171875
3725		82.031250
3726		76.171875
3727		83.984375
3728		76.171875
3729		82.031250
3730		76.171875
3731		80.078125
3732		76.171875
3733		80.078125
3734		74.218750
3735		80.078125
3736		72.265625
3737		80.078125
3738		72.265625
3739		80.078125
3740		70.312500
3741		78.125000
3742		70.312500
3743		78.125000
3744		70.312500
3745		76.171875
3746		70.312500
3747		74.218750
3748		70.312500
3749		72.265625
3750		68.359375
3751		72.265625
3752		66.406250
3753		72.265625
3754		66.406250
3755		70.312500
3756		64.453125
3757		70.312500
3758		62.500000
3759		68.359375
3760		60.546875
3761		68.359375
3762		62.500000
3763		66.406250
3764		60.546875
3765		64.453125
3766		58.593750
3767		62.500000
3768		58.593750
3769		62.500000
3770		54.687500
3771		62.500000
3772		54.687500
3773		60.546875
3774		52.734375
3775		60.546875
3776		50.781250
3777		56.640625
3778		50.781250
3779		56.640625
3780		48.828125
3781		52.734375
3782		48.828125
3783		52.734375
3784		44.921875
3785		50.781250
3786		44.921875
3787		48.828125
3788		42.968750
3789		46.875000
3790		39.062500
3791		44.921875
3792		39.062500
3793		42.968750
3794		37.109375
3795		42.968750
3796		35.156250
3797		41.015625
3798		35.156250
3799		39.062500
3800		31.250000
3801		37.109375
3802		29.296875
3803		35.156250
3804		29.296875
3805		33.203125
3806		27.343750
3807		31.250000
3808		23.437500
3809		31.250000
3810		21.484375
3811		29.296875
3812		21.484375
3813		25.390625
3814		19.531250
3815		23.437500
3816		17.578125
3817		21.484375
3818		15.625000
3819		19.531250
3820		13.671875
3821		17.578125
3822		11.718750
3823		15.625000
3824		9.765625
3825		13.671875
3826		7.812500
3827		11.718750
3828		5.859375
3829		11.718750
3830		3.906250
3831		7.812500
3832		1.953125
3833		5.859375
3834		0.000000
3835		3.906250
3836		-1.953125
3837		3.906250
3838		-3.906250
3839		0.000000
3840		-5.859375
3841		-1.953125
3842		-7.812500
3843		-3.906250
3844		-9.765625
3845		-5.859375
3846		-11.718750
3847		-7.812500
3848		-13.671875
3849		-9.765625
3850		-15.625000
3851		-9.765625
3852		-17.578125
3853		-11.718750
3854		-19.531250
3855		-15.625000
3856		-19.531250
3857		-15.625000
3858		-21.484375
3859		-17.578125
3860		-25.390625
3861		-19.531250
3862		-27.343750
3863		-21.484375
3864		-27.343750
3865		-23.437500
3866		-29.296875
3867		-25.390625
3868		-31.250000
3869		-27.343750
3870		-33.203125
3871		-27.343750
3872		-35.156250
3873		-29.296875
3874		-37.109375
3875		-31.250000
3876		-37.109375
3877		-33.203125
3878		-39.062500
3879		-35.156250
3880		-41.015625
3881		-35.156250
3882		-41.015625
3883		-37.109375
3884		-42.968750
3885		-39.062500
3886		-44.921875
3887		-41.015625
3888		-44.921875
3889		-41.015625
3890		-46.875000
3891		-42.968750
3892		-48.828125
3893		-44.921875
3894		-48.828125
3895		-44.921875
3896		-50.781250
3897		-46.875000
3898		-50.781250
3899		-48.828125
3900		-52.734375
3901		-48.828125
3902		-52.734375
3903		-48.828125
3904		-54.687500
3905		-50.781250
3906		-54.687500
3907		-50.781250
3908		-56.640625
3909		-52.734375
3910		-56.640625
3911		-52.734375
3912		-58.593750
3913		-54.687500
3914		-58.593750
3915		-54.687500
3916		-58.593750
3917		-56.640625
3918		-60.546875
3919		-54.687500
3920		-60.546875
3921		-56.640625
3922		-60.546875
3923		-58.593750
3924		-62.500000
3925		-58.593750
3926		-62.500000
3927		-58.593750
3928		-62.500000
3929		-58.593750
3930		-62.500000
3931		-58.593750
3932		-62.500000
3933		-58.593750
3934		-62.500000
3935		-60.546875
3936		-62.500000
3937		-58.593750
3938		-62.500000
3939		-58.593750
3940		-64.453125
3941		-58.593750
3942		-62.500000
3943		-60.546875
3944		-62.500000
3945		-58.593750
3946		-62.500000
3947		-58.593750
3948		-62.500000
3949		-58.593750
3950		-62.500000
3951		-58.593750
3952		-62.500000
3953		-58.593750
3954		-60.546875
3955		-58.593750
3956		-60.546875
3957		-56.640625
3958		-60.546875
3959		-56.640625
3960		-60.546875
3961		-56.640625
3962		-58.593750
3963		-56.640625
3964		-58.593750
3965		-54.687500
3966		-56.640625
3967		-54.687500
3968		-56.640625
3969		-52.734375
3970		-56.640625
3971		-52.734375
3972		-54.687500
3973		-52.734375
3974		-54.687500
3975		-48.828125
3976		-52.734375
3977		-50.781250
3978		-52.734375
3979		-48.828125
3980		-52.734375
3981		-46.875000
3982		-50.781250
3983		-46.875000
3984		-48.828125
3985		-44.921875
3986		-48.828125
3987		-42.968750
3988		-46.875000
3989		-42.968750
3990		-44.921875
3991		-41.015625
3992		-42.968750
3993		-39.062500
3994		-42.968750
3995		-39.062500
3996		-41.015625
3997		-37.109375
3998		-41.015625
3999		-35.156250
4000		-39.062500
4001		-35.156250
4002		-37.109375
4003		-33.203125
4004		-35.156250
4005		-31.250000
4006		-33.203125
4007		-29.296875
4008		-31.250000
4009		-27.343750
4010		-31.250000
4011		-25.390625
4012		-29.296875
4013		-25.390625
4014		-27.343750
4015		-23.437500
4016		-25.390625
4017		-21.484375
4018		-23.437500
4019		-19.531250
4020		-21.484375
4021		-17.578125
4022		-19.531250
4023		-15.625000
4024		-17.578125
4025		-13.671875
4026		-15.625000
4027		-11.718750
4028		-13.671875
4029		-9.765625
4030		-13.671875
4031		-5.859375
4032		-11.718750
4033		-5.859375
4034		-9.765625
4035		-3.906250
4036		-7.812500
4037		-1.953125
4038		-3.906250
4039		0.000000
4040		-1.953125
4041		1.953125
4042		-1.953125
4043		3.906250
4044		0.000000
4045		5.859375
4046		1.953125
4047		5.859375
4048		3.906250
4049		7.812500
4050		5.859375
4051		11.718750
4052		7.812500
4053		13.671875
4054		9.765625
4055		15.625000
4056		11.718750
4057		17.578125
4058		13.671875
4059		17.578125
4060		15.625000
4061		21.484375
4062		17.578125
4063		21.484375
4064		19.531250
4065		23.437500
4066		21.484375
4067		25.390625
4068		23.437500
4069		27.343750
4070		25.390625
4071		29.296875
4072		27.343750
4073		31.250000
4074		29.296875
4075		33.203125
4076		31.250000
4077		35.156250
4078		33.203125
4079		37.109375
4080		35.156250
4081		39.062500
4082		35.156250
4083		41.015625
4084		37.109375
4085		42.968750
4086		39.062500
4087		44.921875
4088		41.015625
4089		44.921875
4090		42.968750
4091		46.875000
4092		44.921875
4093		48.828125
4094		44.921875
4095		50.781250
4096		46.875000
4097		50.781250
4098		48.828125
4099		54.687500
4100		50.781250
4101		54.687500
4102		52.734375
4103		56.640625
4104		52.734375
4105		58.593750
4106		54.687500
4107		58.593750
4108		56.640625
4109		60.546875
4110		58.593750
4111		62.500000
4112		58.593750
4113		62.500000
4114		60.546875
4115		64.453125
4116		60.546875
4117		66.406250
4118		62.500000
4119		66.406250
4120		64.453125
4121		68.359375
4122		64.453125
4123		68.359375
4124		66.406250
4125		70.312500
4126		66.406250
4127		70.312500
4128		68.359375
4129		72.265625
4130		70.312500
4131		74.218750
4132		70.312500
4133		74.218750
4134		72.265625
4135		76.171875
4136		72.265625
4137		76.171875
4138		72.265625
4139		76.171875
4140		74.218750
4141		78.125000
4142		74.218750
4143		78.125000
4144		74.218750
4145		78.125000
4146		76.171875
4147		80.078125
4148		76.171875
4149		82.031250
4150		78.125000
4151		80.078125
4152		78.125000
4153		82.031250
4154		78.125000
4155		82.031250
4156		80.078125
4157		82.031250
4158		78.125000
4159		83.984375
4160		80.078125
4161		82.031250
4162		80.078125
4163		83.984375
4164		80.078125
4165		83.984375
4166		80.078125
4167		83.984375
4168		80.078125
4169		83.984375
4170		80.078125
4171		83.984375
4172		82.031250
4173		83.984375
4174		80.078125
4175		83.984375
4176		82.031250
4177		83.984375
4178		80.078125
4179		83.984375
4180		82.031250
4181		83.984375
4182		80.078125
4183		83.984375
4184		80.078125
4185		83.984375
4186		80.078125
4187		83.984375
4188		80.078125
4189		83.984375
4190		80.078125
4191		83.984375
4192		80.078125
4193		83.984375
4194		80.078125
4195		82.031250
4196		78.125000
4197		82.031250
4198		78.125000
4199		82.031250
4200		78.125000
4201		82.031250
4202		78.125000
4203		80.078125
4204		76.171875
4205		82.031250
4206		76.171875
4207		80.078125
4208		74.218750
4209		78.125000
4210		74.218750
4211		78.125000
4212		74.218750
4213		78.125000
4214		72.265625
4215		76.171875
4216		72.265625
4217		76.171875
4218		70.312500
4219		76.171875
4220		70.312500
4221		74.218750
4222		68.359375
4223		72.265625
4224		68.359375
4225		72.265625
4226		66.406250
4227		70.312500
4228		64.453125
4229		70.312500
4230		64.453125
4231		68.359375
4232		62.500000
4233		66.406250
4234		62.500000
4235		66.406250
4236		60.546875
4237		64.453125
4238		60.546875
4239		62.500000
4240		58.593750
4241		62.500000
4242		56.640625
4243		60.546875
4244		54.687500
4245		58.593750
4246		54.687500
4247		58.593750
4248		52.734375
4249		56.640625
4250		50.781250
4251		54.687500
4252		48.828125
4253		52.734375
4254		46.875000
4255		52.734375
4256		46.875000
4257		50.781250
4258		44.921875
4259		48.828125
4260		42.968750
4261		46.875000
4262		41.015625
4263		44.921875
4264		39.062500
4265		42.968750
4266		39.062500
4267		41.015625
4268		37.109375
4269		41.015625
4270		35.156250
4271		39.062500
4272		33.203125
4273		37.109375
4274		31.250000
4275		35.156250
4276		29.296875
4277		33.203125
4278		27.343750
4279		31.250000
4280		25.390625
4281		29.296875
4282		23.437500
4283		27.343750
4284		21.484375
4285		27.343750
4286		19.531250
4287		23.437500
4288		17.578125
4289		21.484375
4290		15.625000
4291		19.531250
4292		13.671875
4293		17.578125
4294		11.718750
4295		15.625000
4296		9.765625
4297		13.671875
4298		7.812500
4299		11.718750
4300		5.859375
4301		9.765625
4302		3.906250
4303		7.812500
4304		1.953125
4305		7.812500
4306		0.000000
4307		3.906250
4308		-1.953125
4309		1.953125
4310		-3.906250
4311		0.000000
4312		-5.859375
4313		-1.953125
4314		-7.812500
4315		-1.953125
4316		-9.765625
4317		-5.859375
4318		-11.718750
4319		-7.812500
4320		-13.671875
4321		-7.812500
4322		-15.625000
4323		-9.765625
4324		-17.578125
4325		-11.718750
4326		-19.531250
4327		-13.671875
4328		-19.531250
4329		-15.625000
4330		-21.484375
4331		-17.578125
4332		-23.437500
4333		-19.531250
4334		-25.390625
4335		-21.484375
4336		-27.343750
4337		-23.437500
4338		-29.296875
4339		-25.390625
4340		-31.250000
4341		-25.390625
4342		-31.250000
4343		-27.343750
4344		-33.203125
4345		-29.296875
4346		-35.156250
4347		-31.250000
4348		-37.109375
4349		-33.203125
4350		-39.062500
4351		-35.156250
4352		-41.015625
4353		-37.109375
4354		-41.015625
4355		-37.109375
4356		-42.968750
4357		-39.062500
4358		-44.921875
4359		-39.062500
4360		-44.921875
4361		-41.015625
4362		-46.875000
4363		-42.968750
4364		-48.828125
4365		-44.921875
4366		-48.828125
4367		-44.921875
4368		-50.781250
4369		-46.875000
4370		-50.781250
4371		-48.828125
4372		-52.734375
4373		-48.828125
4374		-52.734375
4375		-48.828125
4376		-54.687500
4377		-50.781250
4378		-56.640625
4379		-50.781250
4380		-56.640625
4381		-52.734375
4382		-56.640625
4383		-52.734375
4384		-58.593750
4385		-54.687500
4386		-58.593750
4387		-54.687500
4388		-60.546875
4389		-54.687500
4390		-58.593750
4391		-54.687500
4392		-60.546875
4393		-56.640625
4394		-60.546875
4395		-56.640625
4396		-60.546875
4397		-58.593750
4398		-60.546875
4399		-58.593750
4400		-62.500000
4401		-58.593750
4402		-62.500000
4403		-58.593750
4404		-62.500000
4405		-58.593750
4406		-62.500000
4407		-58.593750
4408		-62.500000
4409		-58.593750
4410		-62.500000
4411		-58.593750
4412		-62.500000
4413		-58.593750
4414		-62.500000
4415		-58.593750
4416		-62.500000
4417		-58.593750
4418		-62.500000
4419		-58.593750
4420		-62.500000
4421		-58.593750
4422		-60.546875
4423		-56.640625
4424		-62.500000
4425		-56.640625
4426		-60.546875
4427		-56.640625
4428		-60.546875
4429		-56.640625
4430		-60.546875
4431		-56.640625
4432		-58.593750
4433		-54.687500
4434		-58.593750
4435		-54.687500
4436		-58.593750
4437		-54.687500
4438		-56.640625
4439		-54.687500
4440		-56.640625
4441		-52.734375
4442		-54.687500
4443		-50.781250
4444		-54.687500
4445		-50.781250
4446		-54.687500
4447		-50.781250
4448		-52.734375
4449		-48.828125
4450		-50.781250
4451		-48.828125
4452		-50.781250
4453		-46.875000
4454		-48.828125
4455		-46.875000
4456		-48.828125
4457		-44.921875
4458		-46.875000
4459		-42.968750
4460		-44.921875
4461		-41.015625
4462		-44.921875
4463		-41.015625
4464		-42.968750
4465		-39.062500
4466		-42.968750
4467		-37.109375
4468		-41.015625
4469		-37.109375
4470		-39.062500
4471		-35.156250
4472		-37.109375
4473		-33.203125
4474		-35.156250
4475		-31.250000
4476		-35.156250
4477		-31.250000
4478		-33.203125
4479		-27.343750
4480		-31.250000
4481		-27.343750
4482		-31.250000
4483		-25.390625
4484		-29.296875
4485		-23.437500
4486		-25.390625
4487		-23.437500
4488		-25.390625
4489		-19.531250
4490		-23.437500
4491		-19.531250
4492		-21.484375
4493		-17.578125
4494		-19.531250
4495		-13.671875
4496		-17.578125
4497		-13.671875
4498		-15.625000
4499		-9.765625
4500		-13.671875
4501		-9.765625
4502		-11.718750
4503		-7.812500
4504		-9.765625
4505		-5.859375
4506		-7.812500
4507		-3.906250
4508		-7.812500
4509		-1.953125
4510		-3.906250
4511		0.000000
4512		-1.953125
4513		1.953125
4514		-1.953125
4515		3.906250
4516		1.953125
4517		5.859375
4518		1.953125
4519		7.812500
4520		5.859375
4521		9.765625
4522		5.859375
4523		11.718750
4524		7.812500
4525		13.671875
4526		11.718750
4527		15.625000
4528		11.718750
4529		17.578125
4530		13.671875
4531		19.531250
4532		17.578125
4533		21.484375
4534		17.578125
4535		23.437500
4536		19.531250
4537		23.437500
4538		21.484375
4539		25.390625
4540		23.437500
4541		27.343750
4542		25.390625
4543		29.296875
4544		27.343750
4545		31.250000
4546		29.296875
4547		33.203125
4548		31.250000
4549		35.156250
4550		33.203125
4551		39.062500
4552		35.156250
4553		39.062500
4554		37.109375
4555		41.015625
4556		37.109375
4557		42.968750
4558		39.062500
4559		42.968750
4560		41.015625
4561		44.921875
4562		42.968750
4563		46.875000
4564		44.921875
4565		48.828125
4566		46.875000
4567		50.781250
4568		48.828125
4569		52.734375
4570		48.828125
4571		52.734375
4572		50.781250
4573		54.687500
4574		52.734375
4575		56.640625
4576		54.687500
4577		58.593750
4578		54.687500
4579		58.593750
4580		56.640625
4581		60.546875
4582		58.593750
4583		62.500000
4584		60.546875
4585		62.500000
4586		60.546875
4587		64.453125
4588		62.500000
4589		66.406250
4590		62.500000
4591		66.406250
4592		64.453125
4593		68.359375
4594		66.406250
4595		70.312500
4596		66.406250
4597		70.312500
4598		68.359375
4599		72.265625
4600		68.359375
4601		72.265625
4602		70.312500
4603		74.218750
4604		70.312500
4605		74.218750
4606		72.265625
4607		74.218750
4608		72.265625
4609		76.171875
4610		72.265625
4611		76.171875
4612		74.218750
4613		78.125000
4614		76.171875
4615		78.125000
4616		74.218750
4617		80.078125
4618		76.171875
4619		80.078125
4620		76.171875
4621		80.078125
4622		78.125000
4623		80.078125
4624		78.125000
4625		82.031250
4626		78.125000
4627		82.031250
4628		78.125000
4629		82.031250
4630		80.078125
4631		82.031250
4632		80.078125
4633		82.031250
4634		80.078125
4635		83.984375
4636		80.078125
4637		83.984375
4638		80.078125
4639		83.984375
4640		80.078125
4641		83.984375
4642		80.078125
4643		83.984375
4644		80.078125
4645		83.984375
4646		80.078125
4647		83.984375
4648		80.078125
4649		83.984375
4650		80.078125
4651		83.984375
4652		80.078125
4653		83.984375
4654		80.078125
4655		83.984375
4656		80.078125
4657		83.984375
4658		80.078125
4659		83.984375
4660		80.078125
4661		83.984375
4662		80.078125
4663		82.031250
4664		80.078125
4665		82.031250
4666		80.078125
4667		82.031250
4668		78.125000
4669		82.031250
4670		78.125000
4671		82.031250
4672		78.125000
4673		80.078125
4674		76.171875
4675		80.078125
4676		76.171875
4677		80.078125
4678		76.171875
4679		78.125000
4680		74.218750
4681		78.125000
4682		74.218750
4683		78.125000
4684		74.218750
4685		78.125000
4686		72.265625
4687		76.171875
4688		72.265625
4689		74.218750
4690		70.312500
4691		74.218750
4692		68.359375
4693		74.218750
4694		68.359375
4695		72.265625
4696		68.359375
4697		72.265625
4698		66.406250
4699		70.312500
4700		64.453125
4701		68.359375
4702		64.453125
4703		68.359375
4704		62.500000
4705		66.406250
4706		62.500000
4707		64.453125
4708		60.546875
4709		64.453125
4710		58.593750
4711		62.500000
4712		58.593750
4713		62.500000
4714		56.640625
4715		60.546875
4716		54.687500
4717		58.593750
4718		52.734375
4719		56.640625
4720		52.734375
4721		56.640625
4722		50.781250
4723		54.687500
4724		48.828125
4725		52.734375
4726		46.875000
4727		52.734375
4728		44.921875
4729		50.781250
4730		42.968750
4731		48.828125
4732		42.968750
4733		46.875000
4734		41.015625
4735		44.921875
4736		39.062500
4737		42.968750
4738		37.109375
4739		41.015625
4740		35.156250
4741		39.062500
4742		33.203125
4743		37.109375
4744		31.250000
4745		35.156250
4746		29.296875
4747		33.203125
4748		27.343750
4749		31.250000
4750		25.390625
4751		31.250000
4752		23.437500
4753		29.296875
4754		21.484375
4755		27.343750
4756		19.531250
4757		25.390625
4758		17.578125
4759		23.437500
4760		17.578125
4761		21.484375
4762		15.625000
4763		19.531250
4764		13.671875
4765		17.578125
4766		11.718750
4767		15.625000
4768		9.765625
4769		13.671875
4770		5.859375
4771		11.718750
4772		5.859375
4773		9.765625
4774		3.906250
4775		7.812500
4776		1.953125
4777		5.859375
4778		0.000000
4779		3.906250
4780		-3.906250
4781		1.953125
4782		-3.906250
4783		0.000000
4784		-5.859375
4785		-1.953125
4786		-7.812500
4787		-3.906250
4788		-9.765625
4789		-5.859375
4790		-11.718750
4791		-7.812500
4792		-13.671875
4793		-9.765625
4794		-15.625000
4795		-11.718750
4796		-17.578125
4797		-13.671875
4798		-19.531250
4799		-15.625000
4800		-21.484375
4801		-17.578125
4802		-23.437500
4803		-19.531250
4804		-25.390625
4805		-19.531250
4806		-25.390625
4807		-23.437500
4808		-27.343750
4809		-23.437500
4810		-29.296875
4811		-25.390625
4812		-31.250000
4813		-27.343750
4814		-33.203125
4815		-29.296875
4816		-35.156250
4817		-31.250000
4818		-37.109375
4819		-31.250000
4820		-37.109375
4821		-33.203125
4822		-39.062500
4823		-35.156250
4824		-41.015625
4825		-37.109375
4826		-42.968750
4827		-39.062500
4828		-42.968750
4829		-39.062500
4830		-44.921875
4831		-41.015625
4832		-46.875000
4833		-41.015625
4834		-46.875000
4835		-42.968750
4836		-48.828125
4837		-44.921875
4838		-50.781250
4839		-44.921875
4840		-50.781250
4841		-46.875000
4842		-52.734375
4843		-48.828125
4844		-52.734375
4845		-48.828125
4846		-54.687500
4847		-50.781250
4848		-54.687500
4849		-50.781250
4850		-56.640625
4851		-50.781250
4852		-56.640625
4853		-52.734375
4854		-58.593750
4855		-52.734375
4856		-56.640625
4857		-54.687500
4858		-58.593750
4859		-54.687500
4860		-58.593750
4861		-56.640625
4862		-60.546875
4863		-56.640625
4864		-60.546875
4865		-56.640625
4866		-60.546875
4867		-58.593750
4868		-60.546875
4869		-56.640625
4870		-62.500000
4871		-58.593750
4872		-62.500000
4873		-58.593750
4874		-62.500000
4875		-58.593750
4876		-62.500000
4877		-58.593750
4878		-62.500000
4879		-58.593750
4880		-62.500000
4881		-58.593750
4882		-62.500000
4883		-58.593750
4884		-62.500000
4885		-58.593750
4886		-62.500000
4887		-60.546875
4888		-62.500000
4889		-58.593750
4890		-62.500000
4891		-58.593750
4892		-60.546875
4893		-58.593750
4894		-62.500000
4895		-58.593750
4896		-62.500000
4897		-56.640625
4898		-60.546875
4899		-58.593750
4900		-60.546875
4901		-56.640625
4902		-58.593750
4903		-56.640625
4904		-58.593750
4905		-54.687500
4906		-58.593750
4907		-54.687500
4908		-56.640625
4909		-54.687500
4910		-56.640625
4911		-52.734375
4912		-56.640625
4913		-52.734375
4914		-54.687500
4915		-50.781250
4916		-54.687500
4917		-50.781250
4918		-52.734375
4919		-50.781250
4920		-52.734375
4921		-48.828125
4922		-52.734375
4923		-46.875000
4924		-50.781250
4925		-46.875000
4926		-48.828125
4927		-44.921875
4928		-46.875000
4929		-42.968750
4930		-46.875000
4931		-42.968750
4932		-44.921875
4933		-41.015625
4934		-44.921875
4935		-41.015625
4936		-42.968750
4937		-39.062500
4938		-41.015625
4939		-37.109375
4940		-39.062500
4941		-35.156250
4942		-39.062500
4943		-35.156250
4944		-37.109375
4945		-33.203125
4946		-35.156250
4947		-31.250000
4948		-33.203125
4949		-29.296875
4950		-33.203125
4951		-29.296875
4952		-31.250000
4953		-25.390625
4954		-29.296875
4955		-25.390625
4956		-27.343750
4957		-23.437500
4958		-25.390625
4959		-21.484375
4960		-23.437500
4961		-17.578125
4962		-21.484375
4963		-17.578125
4964		-19.531250
4965		-15.625000
4966		-17.578125
4967		-13.671875
4968		-17.578125
4969		-11.718750
4970		-15.625000
4971		-11.718750
4972		-13.671875
4973		-7.812500
4974		-11.718750
4975		-7.812500
4976		-9.765625
4977		-5.859375
4978		-7.812500
4979		-1.953125
4980		-5.859375
4981		0.000000
4982		-3.906250
4983		0.000000
4984		-1.953125
4985		1.953125
4986		0.000000
4987		3.906250
4988		1.953125
4989		5.859375
4990		1.953125
4991		7.812500
4992		5.859375
4993		9.765625
4994		7.812500
4995		11.718750
4996		9.765625
4997		13.671875
4998		11.718750
4999		15.625000
5000		13.671875
5001		17.578125
5002		15.625000
5003		19.531250
5004		17.578125
5005		21.484375
5006		19.531250
5007		23.437500
5008		21.484375
5009		25.390625
5010		23.437500
5011		27.343750
5012		25.390625
5013		29.296875
5014		27.343750
5015		31.250000
5016		29.296875
5017		33.203125
5018		31.250000
5019		35.156250
5020		33.203125
5021		37.109375
5022		33.203125
5023		39.062500
5024		35.156250
5025		39.062500
5026		37.109375
5027		41.015625
5028		39.062500
5029		42.968750
5030		41.015625
5031		44.921875
5032		41.015625
5033		46.875000
5034		44.921875
5035		48.828125
5036		46.875000
5037		50.781250
5038		46.875000
5039		50.781250
5040		48.828125
5041		52.734375
5042		50.781250
5043		54.687500
5044		50.781250
5045		56.640625
5046		52.734375
5047		56.640625
5048		54.687500
5049		58.593750
5050		56.640625
5051		60.546875
5052		56.640625
5053		62.500000
5054		58.593750
5055		62.500000
5056		60.546875
5057		64.453125
5058		62.500000
5059		64.453125
5060		62.500000
5061		66.406250
5062		64.453125
5063		68.359375
5064		64.453125
5065		70.312500
5066		66.406250
5067		70.312500
5068		68.359375
5069		72.265625
5070		68.359375
5071		72.265625
5072		68.359375
5073		72.265625
5074		70.312500
5075		74.218750
5076		70.312500
5077		74.218750
5078		72.265625
5079		76.171875
5080		72.265625
5081		76.171875
5082		72.265625
5083		78.125000
5084		74.218750
5085		78.125000
5086		76.171875
5087		80.078125
5088		76.171875
5089		80.078125
5090		76.171875
5091		80.078125
5092		78.125000
5093		80.078125
5094		78.125000
5095		82.031250
5096		78.125000
5097		82.031250
5098		78.125000
5099		82.031250
5100		80.078125
5101		83.984375
5102		80.078125
5103		82.031250
5104		80.078125
5105		83.984375
5106		80.078125
5107		83.984375
5108		80.078125
5109		83.984375
5110		80.078125
5111		83.984375
5112		80.078125
5113		83.984375
5114		80.078125
5115		83.984375
5116		82.031250
5117		83.984375
5118		80.078125
5119		83.984375
5120		80.078125
5121		83.984375
5122		82.031250
5123		83.984375
5124		80.078125
5125		85.937500
5126		80.078125
5127		83.984375
5128		80.078125
5129		83.984375
5130		80.078125
5131		83.984375
5132		80.078125
5133		83.984375
5134		80.078125
5135		82.031250
5136		78.125000
5137		83.984375
5138		78.125000
5139		82.031250
5140		78.125000
5141		82.031250
5142		78.125000
5143		82.031250
5144		78.125000
5145		80.078125
5146		76.171875
5147		80.078125
5148		76.171875
5149		80.078125
5150		76.171875
5151		78.125000
5152		74.218750
5153		78.125000
5154		74.218750
5155		78.125000
5156		72.265625
5157		76.171875
5158		72.265625
5159		76.171875
5160		72.265625
5161		74.218750
5162		68.359375
5163		74.218750
5164		70.312500
5165		72.265625
5166		68.359375
5167		72.265625
5168		66.406250
5169		70.312500
5170		66.406250
5171		70.312500
5172		64.453125
5173		70.312500
5174		62.500000
5175		68.359375
5176		62.500000
5177		66.406250
5178		60.546875
5179		64.453125
5180		60.546875
5181		64.453125
5182		58.593750
5183		62.500000
5184		56.640625
5185		60.546875
5186		56.640625
5187		60.546875
5188		54.687500
5189		58.593750
5190		52.734375
5191		56.640625
5192		52.734375
5193		54.687500
5194		50.781250
5195		54.687500
5196		48.828125
5197		52.734375
5198		46.875000
5199		52.734375
5200		44.921875
5201		48.828125
5202		42.968750
5203		48.828125
5204		41.015625
5205		46.875000
5206		39.062500
5207		44.921875
5208		39.062500
5209		42.968750
5210		37.109375
5211		41.015625
5212		35.156250
5213		39.062500
5214		33.203125
5215		37.109375
5216		31.250000
5217		35.156250
5218		29.296875
5219		33.203125
5220		27.343750
5221		31.250000
5222		25.390625
5223		29.296875
5224		23.437500
5225		27.343750
5226		21.484375
5227		25.390625
5228		19.531250
5229		25.390625
5230		17.578125
5231		23.437500
5232		15.625000
5233		21.484375
5234		13.671875
5235		17.578125
5236		11.718750
5237		17.578125
5238		11.718750
5239		15.625000
5240		7.812500
5241		13.671875
5242		5.859375
5243		11.718750
5244		5.859375
5245		9.765625
5246		1.953125
5247		7.812500
5248		0.000000
5249		5.859375
5250		-1.953125
5251		3.906250
5252		-3.906250
5253		1.953125
5254		-5.859375
5255		0.000000
5256		-7.812500
5257		-1.953125
5258		-9.765625
5259		-3.906250
5260		-9.765625
5261		-5.859375
5262		-11.718750
5263		-7.812500
5264		-13.671875
5265		-9.765625
5266		-15.625000
5267		-11.718750
5268		-17.578125
5269		-13.671875
5270		-19.531250
5271		-15.625000
5272		-23.437500
5273		-17.578125
5274		-23.437500
5275		-19.531250
5276		-25.390625
5277		-19.531250
5278		-27.343750
5279		-23.437500
5280		-27.343750
5281		-23.437500
5282		-29.296875
5283		-25.390625
5284		-31.250000
5285		-27.343750
5286		-33.203125
5287		-29.296875
5288		-35.156250
5289		-31.250000
5290		-37.109375
5291		-31.250000
5292		-37.109375
5293		-33.203125
5294		-39.062500
5295		-35.156250
5296		-41.015625
5297		-37.109375
5298		-42.968750
5299		-39.062500
5300		-44.921875
5301		-39.062500
5302		-44.921875
5303		-41.015625
5304		-46.875000
5305		-42.968750
5306		-46.875000
5307		-42.968750
5308		-48.828125
5309		-44.921875
5310		-50.781250
5311		-46.875000
5312		-50.781250
5313		-46.875000
5314		-52.734375
5315		-46.875000
5316		-52.734375
5317		-48.828125
5318		-54.687500
5319		-48.828125
5320		-54.687500
5321		-50.781250
5322		-56.640625
5323		-52.734375
5324		-56.640625
5325		-52.734375
5326		-56.640625
5327		-52.734375
5328		-58.593750
5329		-54.687500
5330		-58.593750
5331		-54.687500
5332		-58.593750
5333		-54.687500
5334		-58.593750
5335		-56.640625
5336		-60.546875
5337		-56.640625
5338		-60.546875
5339		-56.640625
5340		-60.546875
5341		-56.640625
5342		-60.546875
5343		-58.593750
5344		-60.546875
5345		-58.593750
5346		-60.546875
5347		-58.593750
5348		-62.500000
5349		-58.593750
5350		-62.500000
5351		-58.593750
5352		-62.500000
5353		-58.593750
5354		-62.500000
5355		-58.593750
5356		-62.500000
5357		-58.593750
5358		-62.500000
5359		-58.593750
5360		-62.500000
5361		-58.593750
5362		-60.546875
5363		-58.593750
5364		-62.500000
5365		-58.593750
5366		-60.546875
5367		-56.640625
5368		-60.546875
5369		-56.640625
5370		-60.546875
5371		-56.640625
5372		-60.546875
5373		-56.640625
5374		-58.593750
5375		-56.640625
5376		-58.593750
5377		-54.687500
5378		-56.640625
5379		-54.687500
5380		-56.640625
5381		-52.734375
5382		-56.640625
5383		-52.734375
5384		-54.687500
5385		-52.734375
5386		-54.687500
5387		-50.781250
5388		-54.687500
5389		-48.828125
5390		-52.734375
5391		-48.828125
5392		-52.734375
5393		-46.875000
5394		-50.781250
5395		-46.875000
5396		-48.828125
5397		-44.921875
5398		-48.828125
5399		-42.968750
5400		-46.875000
5401		-42.968750
5402		-46.875000
5403		-41.015625
5404		-44.921875
5405		-41.015625
5406		-42.968750
5407		-39.062500
5408		-41.015625
5409		-37.109375
5410		-41.015625
5411		-35.156250
5412		-39.062500
5413		-35.156250
5414		-37.109375
5415		-33.203125
5416		-35.156250
5417		-31.250000
5418		-35.156250
5419		-31.250000
5420		-33.203125
5421		-29.296875
5422		-31.250000
5423		-27.343750
5424		-29.296875
5425		-25.390625
5426		-27.343750
5427		-23.437500
5428		-27.343750
5429		-21.484375
5430		-25.390625
5431		-19.531250
5432		-23.437500
5433		-17.578125
5434		-21.484375
5435		-15.625000
5436		-19.531250
5437		-15.625000
5438		-17.578125
5439		-11.718750
5440		-15.625000
5441		-11.718750
5442		-13.671875
5443		-9.765625
5444		-11.718750
5445		-7.812500
5446		-9.765625
5447		-5.859375
5448		-7.812500
5449		-3.906250
5450		-5.859375
5451		-1.953125
5452		-3.906250
5453		0.000000
5454		-3.906250
5455		1.953125
5456		0.000000
5457		3.906250
5458		0.000000
5459		5.859375
5460		3.906250
5461		7.812500
5462		5.859375
5463		9.765625
5464		7.812500
5465		11.718750
5466		9.765625
5467		13.671875
5468		11.718750
5469		15.625000
5470		13.671875
5471		17.578125
5472		13.671875
5473		19.531250
5474		15.625000
5475		21.484375
5476		19.531250
5477		23.437500
5478		21.484375
5479		25.390625
5480		23.437500
5481		25.390625
5482		23.437500
5483		27.343750
5484		25.390625
5485		31.250000
5486		27.343750
5487		33.203125
5488		29.296875
5489		33.203125
5490		31.250000
5491		35.156250
5492		33.203125
5493		37.109375
5494		35.156250
5495		39.062500
5496		37.109375
5497		41.015625
5498		39.062500
5499		42.968750
5500		41.015625
5501		44.921875
5502		41.015625
5503		46.875000
5504		42.968750
5505		46.875000
5506		44.921875
5507		48.828125
5508		46.875000
5509		50.781250
5510		46.875000
5511		52.734375
5512		50.781250
5513		52.734375
5514		50.781250
5515		54.687500
5516		50.781250
5517		56.640625
5518		54.687500
5519		58.593750
5520		54.687500
5521		60.546875
5522		56.640625
5523		60.546875
5524		58.593750
5525		62.500000
5526		58.593750
5527		64.453125
5528		58.593750
5529		64.453125
5530		62.500000
5531		66.406250
5532		62.500000
5533		68.359375
5534		64.453125
5535		68.359375
5536		66.406250
5537		70.312500
5538		66.406250
5539		72.265625
5540		68.359375
5541		72.265625
5542		68.359375
5543		72.265625
5544		70.312500
5545		74.218750
5546		72.265625
5547		74.218750
5548		72.265625
5549		76.171875
5550		72.265625
5551		76.171875
5552		74.218750
5553		78.125000
5554		74.218750
5555		78.125000
5556		76.171875
5557		78.125000
5558		76.171875
5559		80.078125
5560		76.171875
5561		80.078125
5562		78.125000
5563		80.078125
5564		78.125000
5565		82.031250
5566		76.171875
5567		82.031250
5568		78.125000
5569		82.031250
5570		80.078125
5571		82.031250
5572		80.078125
5573		83.984375
5574		80.078125
5575		83.984375
5576		80.078125
5577		83.984375
5578		80.078125
5579		83.984375
5580		82.031250
5581		83.984375
5582		80.078125
5583		83.984375
5584		82.031250
5585		83.984375
5586		82.031250
5587		85.937500
5588		82.031250
5589		83.984375
5590		82.031250
5591		83.984375
5592		82.031250
5593		83.984375
5594		80.078125
5595		83.984375
5596		82.031250
5597		83.984375
5598		82.031250
5599		83.984375
5600		80.078125
5601		83.984375
5602		80.078125
5603		83.984375
5604		80.078125
5605		83.984375
5606		80.078125
5607		83.984375
5608		80.078125
5609		83.984375
5610		80.078125
5611		82.031250
5612		78.125000
5613		83.984375
5614		78.125000
5615		82.031250
5616		78.125000
5617		80.078125
5618		78.125000
5619		80.078125
5620		76.171875
5621		80.078125
5622		76.171875
5623		78.125000
5624		74.218750
5625		78.125000
5626		74.218750
5627		78.125000
5628		72.265625
5629		76.171875
5630		72.265625
5631		76.171875
5632		70.312500
5633		74.218750
5634		70.312500
5635		74.218750
5636		70.312500
5637		74.218750
5638		68.359375
5639		72.265625
5640		68.359375
5641		70.312500
5642		66.406250
5643		70.312500
5644		64.453125
5645		68.359375
5646		64.453125
5647		68.359375
5648		62.500000
5649		66.406250
5650		62.500000
5651		66.406250
5652		60.546875
5653		64.453125
5654		58.593750
5655		62.500000
5656		56.640625
5657		62.500000
5658		54.687500
5659		60.546875
5660		54.687500
5661		58.593750
5662		52.734375
5663		56.640625
5664		50.781250
5665		54.687500
5666		48.828125
5667		54.687500
5668		48.828125
5669		52.734375
5670		46.875000
5671		50.781250
5672		44.921875
5673		48.828125
5674		41.015625
5675		46.875000
5676		42.968750
5677		46.875000
5678		39.062500
5679		44.921875
5680		39.062500
5681		42.968750
5682		37.109375
5683		41.015625
5684		35.156250
5685		39.062500
5686		33.203125
5687		37.109375
5688		31.250000
5689		35.156250
5690		29.296875
5691		33.203125
5692		27.343750
5693		31.250000
5694		25.390625
5695		31.250000
5696		23.437500
5697		29.296875
5698		21.484375
5699		27.343750
5700		19.531250
5701		23.437500
5702		17.578125
5703		23.437500
5704		15.625000
5705		21.484375
5706		13.671875
5707		19.531250
5708		11.718750
5709		17.578125
5710		9.765625
5711		15.625000
5712		9.765625
5713		13.671875
5714		5.859375
5715		11.718750
5716		3.906250
5717		7.812500
5718		1.953125
5719		7.812500
5720		1.953125
5721		5.859375
5722		-1.953125
5723		3.906250
5724		-3.906250
5725		1.953125
5726		-5.859375
5727		0.000000
5728		-7.812500
5729		-1.953125
5730		-9.765625
5731		-3.906250
5732		-9.765625
5733		-5.859375
5734		-11.718750
5735		-7.812500
5736		-13.671875
5737		-9.765625
5738		-17.578125
5739		-11.718750
5740		-17.578125
5741		-13.671875
5742		-19.531250
5743		-15.625000
5744		-21.484375
5745		-17.578125
5746		-23.437500
5747		-17.578125
5748		-25.390625
5749		-21.484375
5750		-27.343750
5751		-23.437500
5752		-29.296875
5753		-25.390625
5754		-29.296875
5755		-25.390625
5756		-31.250000
5757		-27.343750
5758		-33.203125
5759		-29.296875
5760		-35.156250
5761		-31.250000
5762		-37.109375
5763		-33.203125
5764		-37.109375
5765		-35.156250
5766		-39.062500
5767		-35.156250
5768		-41.015625
5769		-37.109375
5770		-42.968750
5771		-39.062500
5772		-44.921875
5773		-39.062500
5774		-44.921875
5775		-41.015625
5776		-46.875000
5777		-42.968750
5778		-46.875000
5779		-42.968750
5780		-48.828125
5781		-44.921875
5782		-48.828125
5783		-46.875000
5784		-52.734375
5785		-46.875000
5786		-52.734375
5787		-48.828125
5788		-52.734375
5789		-48.828125
5790		-54.687500
5791		-48.828125
5792		-54.687500
5793		-50.781250
5794		-54.687500
5795		-52.734375
5796		-56.640625
5797		-52.734375
5798		-56.640625
5799		-54.687500
5800		-58.593750
5801		-54.687500
5802		-58.593750
5803		-54.687500
5804		-60.546875
5805		-54.687500
5806		-60.546875
5807		-56.640625
5808		-60.546875
5809		-56.640625
5810		-60.546875
5811		-56.640625
5812		-60.546875
5813		-56.640625
5814		-60.546875
5815		-58.593750
5816		-60.546875
5817		-58.593750
5818		-62.500000
5819		-58.593750
5820		-62.500000
5821		-58.593750
5822		-62.500000
5823		-58.593750
5824		-62.500000
5825		-56.640625
5826		-62.500000
5827		-58.593750
5828		-62.500000
5829		-58.593750
5830		-62.500000
5831		-58.593750
5832		-62.500000
5833		-58.593750
5834		-60.546875
5835		-58.593750
5836		-60.546875
5837		-58.593750
5838		-60.546875
5839		-56.640625
5840		-60.546875
5841		-56.640625
5842		-60.546875
5843		-56.640625
5844		-60.546875
5845		-54.687500
5846		-58.593750
5847		-54.687500
5848		-58.593750
5849		-54.687500
5850		-56.640625
5851		-54.687500
5852		-56.640625
5853		-52.734375
5854		-54.687500
5855		-52.734375
5856		-54.687500
5857		-50.781250
5858		-54.687500
5859		-50.781250
5860		-52.734375
5861		-48.828125
5862		-52.734375
5863		-48.828125
5864		-50.781250
5865		-46.875000
5866		-50.781250
5867		-46.875000
5868		-48.828125
5869		-44.921875
5870		-48.828125
5871		-42.968750
5872		-46.875000
5873		-42.968750
5874		-46.875000
5875		-41.015625
5876		-44.921875
5877		-39.062500
5878		-42.968750
5879		-39.062500
5880		-41.015625
5881		-37.109375
5882		-41.015625
5883		-37.109375
5884		-39.062500
5885		-35.156250
5886		-37.109375
5887		-33.203125
5888		-35.156250
5889		-31.250000
5890		-35.156250
5891		-29.296875
5892		-33.203125
5893		-27.343750
5894		-31.250000
5895		-25.390625
5896		-29.296875
5897		-23.437500
5898		-27.343750
5899		-23.437500
5900		-25.390625
5901		-21.484375
5902		-23.437500
5903		-19.531250
5904		-23.437500
5905		-17.578125
5906		-21.484375
5907		-15.625000
5908		-19.531250
5909		-13.671875
5910		-17.578125
5911		-11.718750
5912		-15.625000
5913		-9.765625
5914		-13.671875
5915		-9.765625
5916		-11.718750
5917		-5.859375
5918		-9.765625
5919		-3.906250
5920		-7.812500
5921		-1.953125
5922		-7.812500
5923		-1.953125
5924		-3.906250
5925		1.953125
5926		-1.953125
5927		3.906250
5928		-1.953125
5929		5.859375
5930		1.953125
5931		5.859375
5932		3.906250
5933		7.812500
5934		5.859375
5935		9.765625
5936		5.859375
5937		11.718750
5938		7.812500
5939		15.625000
5940		9.765625
5941		15.625000
5942		11.718750
5943		17.578125
5944		15.625000
5945		19.531250
5946		17.578125
5947		21.484375
5948		17.578125
5949		23.437500
5950		21.484375
5951		25.390625
5952		23.437500
5953		29.296875
5954		23.437500
5955		29.296875
5956		25.390625
5957		31.250000
5958		27.343750
5959		35.156250
5960		29.296875
5961		35.156250
5962		31.250000
5963		37.109375
5964		33.203125
5965		39.062500
5966		35.156250
5967		39.062500
5968		37.109375
5969		41.015625
5970		39.062500
5971		44.921875
5972		39.062500
5973		44.921875
5974		41.015625
5975		46.875000
5976		42.968750
5977		48.828125
5978		44.921875
5979		50.781250
5980		46.875000
5981		52.734375
5982		48.828125
5983		52.734375
5984		50.781250
5985		54.687500
5986		50.781250
5987		54.687500
5988		52.734375
5989		56.640625
5990		54.687500
5991		58.593750
5992		56.640625
5993		60.546875
5994		56.640625
5995		60.546875
5996		58.593750
5997		62.500000
5998		60.546875
5999		62.500000
6000		62.500000
6001		64.453125
6002		62.500000
6003		66.406250
6004		64.453125
6005		68.359375
6006		64.453125
6007		68.359375
6008		66.406250
6009		70.312500
6010		66.406250
6011		70.312500
6012		68.359375
6013		72.265625
6014		68.359375
6015		74.218750
6016		70.312500
6017		74.218750
6018		72.265625
6019		74.218750
6020		72.265625
6021		76.171875
6022		74.218750
6023		76.171875
6024		74.218750
6025		76.171875
6026		74.218750
6027		78.125000
6028		76.171875
6029		78.125000
6030		76.171875
6031		78.125000
6032		76.171875
6033		80.078125
6034		76.171875
6035		80.078125
6036		78.125000
6037		82.031250
6038		78.125000
6039		82.031250
6040		78.125000
6041		82.031250
6042		80.078125
6043		82.031250
6044		80.078125
6045		82.031250
6046		80.078125
6047		83.984375
6048		80.078125
6049		83.984375
6050		80.078125
6051		83.984375
6052		80.078125
6053		83.984375
6054		82.031250
6055		83.984375
6056		82.031250
6057		83.984375
6058		82.031250
6059		83.984375
6060		82.031250
6061		83.984375
6062		82.031250
6063		83.984375
6064		82.031250
6065		83.984375
6066		82.031250
6067		83.984375
6068		82.031250
6069		83.984375
6070		80.078125
6071		83.984375
6072		80.078125
6073		83.984375
6074		80.078125
6075		83.984375
6076		80.078125
6077		82.031250
6078		80.078125
6079		82.031250
6080		80.078125
6081		82.031250
6082		78.125000
6083		82.031250
6084		78.125000
6085		82.031250
6086		74.218750
6087		83.984375
6088		74.218750
6089		82.031250
6090		74.218750
6091		83.984375
6092		74.218750
6093		82.031250
6094		74.218750
6095		78.125000
6096		74.218750
6097		78.125000
6098		74.218750
6099		76.171875
6100		72.265625
6101		76.171875
6102		72.265625
6103		74.218750
6104		68.359375
6105		76.171875
6106		68.359375
6107		76.171875
6108		66.406250
6109		74.218750
6110		68.359375
6111		70.312500
6112		66.406250
6113		70.312500
6114		64.453125
6115		68.359375
6116		64.453125
6117		68.359375
6118		62.500000
6119		66.406250
6120		58.593750
6121		68.359375
6122		56.640625
6123		66.406250
6124		56.640625
6125		66.406250
6126		56.640625
6127		64.453125
6128		56.640625
6129		60.546875
6130		54.687500
6131		58.593750
6132		54.687500
6133		56.640625
6134		52.734375
6135		56.640625
6136		50.781250
6137		54.687500
6138		46.875000
6139		56.640625
6140		44.921875
6141		54.687500
6142		42.968750
6143		52.734375
6144		44.921875
6145		48.828125
6146		42.968750
6147		46.875000
6148		41.015625
6149		44.921875
6150		39.062500
6151		42.968750
6152		37.109375
6153		41.015625
6154		31.250000
6155		42.968750
6156		31.250000
6157		41.015625
6158		29.296875
6159		39.062500
6160		31.250000
6161		35.156250
6162		29.296875
6163		33.203125
6164		27.343750
6165		31.250000
6166		25.390625
6167		29.296875
6168		23.437500
6169		27.343750
6170		17.578125
6171		27.343750
6172		15.625000
6173		27.343750
6174		13.671875
6175		25.390625
6176		13.671875
6177		21.484375
6178		13.671875
6179		17.578125
6180		11.718750
6181		15.625000
6182		9.765625
6183		13.671875
6184		7.812500
6185		11.718750
6186		5.859375
6187		9.765625
6188		0.000000
6189		9.765625
6190		0.000000
6191		7.812500
6192		-3.906250
6193		5.859375
6194		-1.953125
6195		1.953125
6196		-3.906250
6197		0.000000
6198		-5.859375
6199		-1.953125
6200		-7.812500
6201		-3.906250
6202		-9.765625
6203		-5.859375
6204		-15.625000
6205		-3.906250
6206		-17.578125
6207		-5.859375
6208		-17.578125
6209		-7.812500
6210		-17.578125
6211		-9.765625
6212		-19.531250
6213		-13.671875
6214		-21.484375
6215		-17.578125
6216		-23.437500
6217		-19.531250
6218		-23.437500
6219		-21.484375
6220		-25.390625
6221		-21.484375
6222		-29.296875
6223		-19.531250
6224		-31.250000
6225		-23.437500
6226		-33.203125
6227		-23.437500
6228		-33.203125
6229		-29.296875
6230		-35.156250
6231		-31.250000
6232		-35.156250
6233		-31.250000
6234		-37.109375
6235		-33.203125
6236		-39.062500
6237		-35.156250
6238		-42.968750
6239		-35.156250
6240		-44.921875
6241		-35.156250
6242		-46.875000
6243		-37.109375
6244		-44.921875
6245		-41.015625
6246		-46.875000
6247		-42.968750
6248		-46.875000
6249		-42.968750
6250		-48.828125
6251		-44.921875
6252		-48.828125
6253		-46.875000
6254		-52.734375
6255		-46.875000
6256		-54.687500
6257		-44.921875
6258		-56.640625
6259		-46.875000
6260		-56.640625
6261		-46.875000
6262		-54.687500
6263		-50.781250
6264		-54.687500
6265		-52.734375
6266		-56.640625
6267		-52.734375
6268		-56.640625
6269		-54.687500
6270		-58.593750
6271		-54.687500
6272		-58.593750
6273		-54.687500
6274		-62.500000
6275		-54.687500
6276		-60.546875
6277		-54.687500
6278		-60.546875
6279		-56.640625
6280		-60.546875
6281		-58.593750
6282		-62.500000
6283		-58.593750
6284		-62.500000
6285		-58.593750
6286		-62.500000
6287		-58.593750
6288		-62.500000
6289		-58.593750
6290		-64.453125
6291		-56.640625
6292		-64.453125
6293		-56.640625
6294		-62.500000
6295		-58.593750
6296		-62.500000
6297		-58.593750
6298		-62.500000
6299		-58.593750
6300		-62.500000
6301		-58.593750
6302		-62.500000
6303		-58.593750
6304		-62.500000
6305		-58.593750
6306		-62.500000
6307		-58.593750
6308		-64.453125
6309		-56.640625
6310		-62.500000
6311		-56.640625
6312		-60.546875
6313		-56.640625
6314		-60.546875
6315		-56.640625
6316		-60.546875
6317		-56.640625
6318		-58.593750
6319		-56.640625
6320		-58.593750
6321		-54.687500
6322		-56.640625
6323		-54.687500
6324		-56.640625
6325		-52.734375
6326		-56.640625
6327		-52.734375
6328		-54.687500
6329		-52.734375
6330		-54.687500
6331		-50.781250
6332		-54.687500
6333		-50.781250
6334		-52.734375
6335		-48.828125
6336		-50.781250
6337		-48.828125
6338		-50.781250
6339		-46.875000
6340		-48.828125
6341		-44.921875
6342		-48.828125
6343		-44.921875
6344		-46.875000
6345		-42.968750
6346		-44.921875
6347		-42.968750
6348		-44.921875
6349		-41.015625
6350		-42.968750
6351		-39.062500
6352		-41.015625
6353		-39.062500
6354		-41.015625
6355		-37.109375
6356		-39.062500
6357		-35.156250
6358		-37.109375
6359		-33.203125
6360		-35.156250
6361		-31.250000
6362		-35.156250
6363		-31.250000
6364		-33.203125
6365		-29.296875
6366		-31.250000
6367		-27.343750
6368		-29.296875
6369		-25.390625
6370		-27.343750
6371		-23.437500
6372		-25.390625
6373		-21.484375
6374		-25.390625
6375		-19.531250
6376		-23.437500
6377		-17.578125
6378		-21.484375
6379		-15.625000
6380		-19.531250
6381		-13.671875
6382		-17.578125
6383		-11.718750
6384		-15.625000
6385		-11.718750
6386		-13.671875
6387		-9.765625
6388		-11.718750
6389		-7.812500
6390		-9.765625
6391		-5.859375
6392		-7.812500
6393		-3.906250
6394		-5.859375
6395		-1.953125
6396		-3.906250
6397		0.000000
6398		-1.953125
6399		1.953125
6400		0.000000
6401		3.906250
6402		1.953125
6403		5.859375
6404		3.906250
6405		7.812500
6406		3.906250
6407		9.765625
6408		7.812500
6409		11.718750
6410		9.765625
6411		13.671875
6412		11.718750
6413		15.625000
6414		13.671875
6415		17.578125
6416		15.625000
6417		19.531250
6418		17.578125
6419		21.484375
6420		19.531250
6421		23.437500
6422		21.484375
6423		27.343750
6424		21.484375
6425		27.343750
6426		23.437500
6427		29.296875
6428		25.390625
6429		31.250000
6430		27.343750
6431		33.203125
6432		29.296875
6433		35.156250
6434		31.250000
6435		35.156250
6436		33.203125
6437		37.109375
6438		35.156250
6439		39.062500
6440		35.156250
6441		41.015625
6442		39.062500
6443		42.968750
6444		41.015625
6445		44.921875
6446		42.968750
6447		46.875000
6448		42.968750
6449		48.828125
6450		44.921875
6451		48.828125
6452		46.875000
6453		50.781250
6454		48.828125
6455		52.734375
6456		50.781250
6457		54.687500
6458		50.781250
6459		54.687500
6460		52.734375
6461		56.640625
6462		54.687500
6463		58.593750
6464		54.687500
6465		60.546875
6466		56.640625
6467		60.546875
6468		58.593750
6469		62.500000
6470		60.546875
6471		62.500000
6472		60.546875
6473		64.453125
6474		60.546875
6475		66.406250
6476		62.500000
6477		66.406250
6478		64.453125
6479		68.359375
6480		66.406250
6481		70.312500
6482		66.406250
6483		70.312500
6484		68.359375
6485		72.265625
6486		68.359375
6487		72.265625
6488		70.312500
6489		74.218750
6490		68.359375
6491		76.171875
6492		72.265625
6493		76.171875
6494		72.265625
6495		76.171875
6496		74.218750
6497		76.171875
6498		74.218750
6499		78.125000
6500		74.218750
6501		78.125000
6502		76.171875
6503		78.125000
6504		76.171875
6505		80.078125
6506		74.218750
6507		82.031250
6508		76.171875
6509		80.078125
6510		78.125000
6511		82.031250
6512		78.125000
6513		82.031250
6514		78.125000
6515		82.031250
6516		78.125000
6517		82.031250
6518		80.078125
6519		82.031250
6520		80.078125
6521		82.031250
6522		80.078125
6523		82.031250
6524		80.078125
6525		83.984375
6526		80.078125
6527		83.984375
6528		80.078125
6529		83.984375
6530		80.078125
6531		83.984375
6532		80.078125
6533		83.984375
6534		80.078125
6535		83.984375
6536		80.078125
6537		83.984375
6538		80.078125
6539		83.984375
6540		80.078125
6541		83.984375
6542		80.078125
6543		83.984375
6544		80.078125
6545		83.984375
6546		80.078125
6547		82.031250
6548		78.125000
6549		83.984375
6550		78.125000
6551		82.031250
6552		78.125000
6553		82.031250
6554		78.125000
6555		82.031250
6556		78.125000
6557		80.078125
6558		76.171875
6559		80.078125
6560		76.171875
6561		80.078125
6562		76.171875
6563		78.125000
6564		74.218750
6565		78.125000
6566		74.218750
6567		78.125000
6568		74.218750
6569		76.171875
6570		72.265625
6571		76.171875
6572		72.265625
6573		74.218750
6574		70.312500
6575		74.218750
6576		70.312500
6577		72.265625
6578		68.359375
6579		72.265625
6580		68.359375
6581		72.265625
6582		66.406250
6583		70.312500
6584		66.406250
6585		68.359375
6586		64.453125
6587		68.359375
6588		64.453125
6589		66.406250
6590		62.500000
6591		66.406250
6592		60.546875
6593		64.453125
6594		60.546875
6595		62.500000
6596		58.593750
6597		62.500000
6598		56.640625
6599		60.546875
6600		54.687500
6601		58.593750
6602		54.687500
6603		56.640625
6604		52.734375
6605		56.640625
6606		50.781250
6607		54.687500
6608		48.828125
6609		52.734375
6610		46.875000
6611		50.781250
6612		46.875000
6613		50.781250
6614		44.921875
6615		48.828125
6616		42.968750
6617		46.875000
6618		41.015625
6619		44.921875
6620		39.062500
6621		42.968750
6622		37.109375
6623		41.015625
6624		37.109375
6625		39.062500
6626		35.156250
6627		39.062500
6628		33.203125
6629		37.109375
6630		31.250000
6631		35.156250
6632		29.296875
6633		33.203125
6634		27.343750
6635		31.250000
6636		25.390625
6637		29.296875
6638		23.437500
6639		27.343750
6640		21.484375
6641		25.390625
6642		19.531250
6643		23.437500
6644		17.578125
6645		21.484375
6646		15.625000
6647		19.531250
6648		13.671875
6649		17.578125
6650		11.718750
6651		15.625000
6652		9.765625
6653		13.671875
6654		7.812500
6655		11.718750
6656		5.859375
6657		9.765625
6658		3.906250
6659		7.812500
6660		1.953125
6661		5.859375
6662		0.000000
6663		3.906250
6664		-1.953125
6665		1.953125
6666		-3.906250
6667		0.000000
6668		-5.859375
6669		-1.953125
6670		-7.812500
6671		-3.906250
6672		-9.765625
6673		-5.859375
6674		-11.718750
6675		-7.812500
6676		-13.671875
6677		-9.765625
6678		-15.625000
6679		-11.718750
6680		-17.578125
6681		-13.671875
6682		-19.531250
6683		-13.671875
6684		-19.531250
6685		-17.578125
6686		-21.484375
6687		-17.578125
6688		-23.437500
6689		-19.531250
6690		-25.390625
6691		-21.484375
6692		-27.343750
6693		-23.437500
6694		-29.296875
6695		-25.390625
6696		-31.250000
6697		-27.343750
6698		-33.203125
6699		-29.296875
6700		-35.156250
6701		-29.296875
6702		-35.156250
6703		-31.250000
6704		-37.109375
6705		-33.203125
6706		-39.062500
6707		-35.156250
6708		-41.015625
6709		-37.109375
6710		-42.968750
6711		-37.109375
6712		-42.968750
6713		-39.062500
6714		-44.921875
6715		-41.015625
6716		-44.921875
6717		-42.968750
6718		-46.875000
6719		-42.968750
6720		-48.828125
6721		-44.921875
6722		-48.828125
6723		-44.921875
6724		-50.781250
6725		-46.875000
6726		-52.734375
6727		-46.875000
6728		-52.734375
6729		-48.828125
6730		-54.687500
6731		-50.781250
6732		-54.687500
6733		-50.781250
6734		-54.687500
6735		-52.734375
6736		-56.640625
6737		-52.734375
6738		-56.640625
6739		-54.687500
6740		-58.593750
6741		-54.687500
6742		-60.546875
6743		-54.687500
6744		-60.546875
6745		-54.687500
6746		-60.546875
6747		-56.640625
6748		-60.546875
6749		-56.640625
6750		-60.546875
6751		-58.593750
6752		-60.546875
6753		-58.593750
6754		-62.500000
6755		-58.593750
6756		-62.500000
6757		-58.593750
6758		-62.500000
6759		-58.593750
6760		-64.453125
6761		-58.593750
6762		-64.453125
6763		-58.593750
6764		-62.500000
6765		-60.546875
6766		-62.500000
6767		-60.546875
6768		-62.500000
6769		-60.546875
6770		-62.500000
6771		-60.546875
6772		-62.500000
6773		-60.546875
6774		-62.500000
6775		-60.546875
6776		-64.453125
6777		-58.593750
6778		-62.500000
6779		-56.640625
6780		-62.500000
6781		-58.593750
6782		-60.546875
6783		-58.593750
6784		-60.546875
6785		-58.593750
6786		-60.546875
6787		-56.640625
6788		-60.546875
6789		-56.640625
6790		-58.593750
6791		-56.640625
6792		-58.593750
6793		-54.687500
6794		-58.593750
6795		-52.734375
6796		-58.593750
6797		-52.734375
6798		-56.640625
6799		-52.734375
6800		-54.687500
6801		-52.734375
6802		-54.687500
6803		-50.781250
6804		-52.734375
6805		-50.781250
6806		-52.734375
6807		-48.828125
6808		-50.781250
6809		-48.828125
6810		-50.781250
6811		-44.921875
6812		-50.781250
6813		-44.921875
6814		-48.828125
6815		-44.921875
6816		-46.875000
6817		-42.968750
6818		-44.921875
6819		-41.015625
6820		-44.921875
6821		-41.015625
6822		-42.968750
6823		-39.062500
6824		-41.015625
6825		-37.109375
6826		-41.015625
6827		-35.156250
6828		-39.062500
6829		-33.203125
6830		-37.109375
6831		-33.203125
6832		-35.156250
6833		-31.250000
6834		-33.203125
6835		-29.296875
6836		-31.250000
6837		-29.296875
6838		-31.250000
6839		-27.343750
6840		-29.296875
6841		-25.390625
6842		-27.343750
6843		-23.437500
6844		-27.343750
6845		-21.484375
6846		-25.390625
6847		-19.531250
6848		-21.484375
6849		-17.578125
6850		-19.531250
6851		-15.625000
6852		-17.578125
6853		-13.671875
6854		-17.578125
6855		-11.718750
6856		-13.671875
6857		-9.765625
6858		-13.671875
6859		-9.765625
6860		-11.718750
6861		-5.859375
6862		-9.765625
6863		-3.906250
6864		-7.812500
6865		-3.906250
6866		-5.859375
6867		-1.953125
6868		-3.906250
6869		0.000000
6870		-1.953125
6871		1.953125
6872		0.000000
6873		3.906250
6874		1.953125
6875		5.859375
6876		3.906250
6877		9.765625
6878		3.906250
6879		11.718750
6880		7.812500
6881		11.718750
6882		9.765625
6883		13.671875
6884		11.718750
6885		15.625000
6886		13.671875
6887		17.578125
6888		15.625000
6889		19.531250
6890		17.578125
6891		21.484375
6892		19.531250
6893		23.437500
6894		21.484375
6895		25.390625
6896		23.437500
6897		27.343750
6898		25.390625
6899		29.296875
6900		27.343750
6901		31.250000
6902		29.296875
6903		33.203125
6904		31.250000
6905		35.156250
6906		33.203125
6907		37.109375
6908		33.203125
6909		39.062500
6910		35.156250
6911		41.015625
6912		37.109375
6913		41.015625
6914		39.062500
6915		42.968750
6916		41.015625
6917		44.921875
6918		42.968750
6919		46.875000
6920		44.921875
6921		48.828125
6922		44.921875
6923		50.781250
6924		46.875000
6925		50.781250
6926		48.828125
6927		52.734375
6928		50.781250
6929		54.687500
6930		52.734375
6931		54.687500
6932		52.734375
6933		56.640625
6934		54.687500
6935		58.593750
6936		56.640625
6937		60.546875
6938		56.640625
6939		60.546875
6940		58.593750
6941		62.500000
6942		60.546875
6943		64.453125
6944		60.546875
6945		64.453125
6946		62.500000
6947		66.406250
6948		64.453125
6949		66.406250
6950		64.453125
6951		68.359375
6952		66.406250
6953		70.312500
6954		66.406250
6955		70.312500
6956		68.359375
6957		72.265625
6958		68.359375
6959		72.265625
6960		70.312500
6961		74.218750
6962		70.312500
6963		74.218750
6964		72.265625
6965		74.218750
6966		72.265625
6967		76.171875
6968		74.218750
6969		76.171875
6970		74.218750
6971		78.125000
6972		74.218750
6973		78.125000
6974		76.171875
6975		80.078125
6976		76.171875
6977		80.078125
6978		76.171875
6979		80.078125
6980		78.125000
6981		80.078125
6982		78.125000
6983		80.078125
6984		78.125000
6985		82.031250
6986		78.125000
6987		82.031250
6988		80.078125
6989		82.031250
6990		80.078125
6991		82.031250
6992		80.078125
6993		82.031250
6994		80.078125
6995		83.984375
6996		80.078125
6997		83.984375
6998		80.078125
6999		83.984375
7000		80.078125
7001		83.984375
7002		80.078125
7003		83.984375
7004		80.078125
7005		83.984375
7006		80.078125
7007		83.984375
7008		80.078125
7009		83.984375
7010		80.078125
7011		83.984375
7012		80.078125
7013		83.984375
7014		80.078125
7015		82.031250
7016		80.078125
7017		82.031250
7018		80.078125
7019		82.031250
7020		78.125000
7021		82.031250
7022		78.125000
7023		82.031250
7024		78.125000
7025		82.031250
7026		76.171875
7027		80.078125
7028		76.171875
7029		80.078125
7030		76.171875
7031		80.078125
7032		76.171875
7033		78.125000
7034		74.218750
7035		78.125000
7036		74.218750
7037		78.125000
7038		74.218750
7039		76.171875
7040		72.265625
7041		76.171875
7042		72.265625
7043		76.171875
7044		70.312500
7045		74.218750
7046		70.312500
7047		74.218750
7048		68.359375
7049		72.265625
7050		68.359375
7051		72.265625
7052		66.406250
7053		70.312500
7054		66.406250
7055		70.312500
7056		64.453125
7057		68.359375
7058		64.453125
7059		66.406250
7060		62.500000
7061		66.406250
7062		60.546875
7063		64.453125
7064		60.546875
7065		64.453125
7066		58.593750
7067		62.500000
7068		56.640625
7069		60.546875
7070		56.640625
7071		60.546875
7072		54.687500
7073		58.593750
7074		52.734375
7075		56.640625
7076		50.781250
7077		54.687500
7078		50.781250
7079		54.687500
7080		48.828125
7081		52.734375
7082		46.875000
7083		50.781250
7084		44.921875
7085		48.828125
7086		42.968750
7087		46.875000
7088		41.015625
7089		44.921875
7090		41.015625
7091		44.921875
7092		39.062500
7093		42.968750
7094		37.109375
7095		41.015625
7096		35.156250
7097		39.062500
7098		33.203125
7099		37.109375
7100		31.250000
7101		35.156250
7102		29.296875
7103		33.203125
7104		27.343750
7105		31.250000
7106		25.390625
7107		31.250000
7108		23.437500
7109		29.296875
7110		21.484375
7111		27.343750
7112		19.531250
7113		25.390625
7114		19.531250
7115		23.437500
7116		17.578125
7117		21.484375
7118		15.625000
7119		19.531250
7120		11.718750
7121		17.578125
7122		11.718750
7123		15.625000
7124		7.812500
7125		13.671875
7126		5.859375
7127		11.718750
7128		5.859375
7129		9.765625
7130		1.953125
7131		7.812500
7132		0.000000
7133		5.859375
7134		0.000000
7135		3.906250
7136		-3.906250
7137		1.953125
7138		-5.859375
7139		0.000000
7140		-5.859375
7141		-1.953125
7142		-7.812500
7143		-3.906250
7144		-9.765625
7145		-5.859375
7146		-11.718750
7147		-7.812500
7148		-13.671875
7149		-9.765625
7150		-15.625000
7151		-11.718750
7152		-17.578125
7153		-13.671875
7154		-19.531250
7155		-15.625000
7156		-21.484375
7157		-17.578125
7158		-23.437500
7159		-19.531250
7160		-25.390625
7161		-21.484375
7162		-27.343750
7163		-23.437500
7164		-29.296875
7165		-25.390625
7166		-31.250000
7167		-27.343750
7168		-33.203125
7169		-27.343750
7170		-33.203125
7171		-29.296875
7172		-35.156250
7173		-31.250000
7174		-37.109375
7175		-33.203125
7176		-39.062500
7177		-35.156250
7178		-41.015625
7179		-37.109375
7180		-41.015625
7181		-37.109375
7182		-42.968750
7183		-39.062500
7184		-44.921875
7185		-41.015625
7186		-44.921875
7187		-41.015625
7188		-46.875000
7189		-42.968750
7190		-48.828125
7191		-44.921875
7192		-48.828125
7193		-44.921875
7194		-50.781250
7195		-46.875000
7196		-50.781250
7197		-46.875000
7198		-52.734375
7199		-48.828125
7200		-52.734375
7201		-50.781250
7202		-54.687500
7203		-50.781250
7204		-56.640625
7205		-52.734375
7206		-56.640625
7207		-52.734375
7208		-56.640625
7209		-54.687500
7210		-58.593750
7211		-54.687500
7212		-58.593750
7213		-54.687500
7214		-60.546875
7215		-56.640625
7216		-60.546875
7217		-56.640625
7218		-60.546875
7219		-56.640625
7220		-60.546875
7221		-58.593750
7222		-62.500000
7223		-58.593750
7224		-62.500000
7225		-58.593750
7226		-62.500000
7227		-60.546875
7228		-62.500000
7229		-60.546875
7230		-62.500000
7231		-60.546875
7232		-64.453125
7233		-60.546875
7234		-64.453125
7235		-60.546875
7236		-64.453125
7237		-60.546875
7238		-64.453125
7239		-60.546875
7240		-64.453125
7241		-60.546875
7242		-64.453125
7243		-60.546875
7244		-64.453125
7245		-60.546875
7246		-62.500000
7247		-60.546875
7248		-62.500000
7249		-60.546875
7250		-62.500000
7251		-58.593750
7252		-62.500000
7253		-58.593750
7254		-62.500000
7255		-58.593750
7256		-60.546875
7257		-58.593750
7258		-60.546875
7259		-58.593750
7260		-60.546875
7261		-56.640625
7262		-60.546875
7263		-56.640625
7264		-58.593750
7265		-54.687500
7266		-58.593750
7267		-54.687500
7268		-56.640625
7269		-54.687500
7270		-56.640625
7271		-52.734375
7272		-56.640625
7273		-52.734375
7274		-54.687500
7275		-50.781250
7276		-54.687500
7277		-50.781250
7278		-52.734375
7279		-48.828125
7280		-50.781250
7281		-48.828125
7282		-50.781250
7283		-46.875000
7284		-48.828125
7285		-46.875000
7286		-48.828125
7287		-44.921875
7288		-46.875000
7289		-42.968750
7290		-44.921875
7291		-42.968750
7292		-44.921875
7293		-41.015625
7294		-42.968750
7295		-39.062500
7296		-41.015625
7297		-39.062500
7298		-39.062500
7299		-35.156250
7300		-39.062500
7301		-35.156250
7302		-37.109375
7303		-33.203125
7304		-35.156250
7305		-31.250000
7306		-33.203125
7307		-29.296875
7308		-31.250000
7309		-29.296875
7310		-31.250000
7311		-27.343750
7312		-29.296875
7313		-25.390625
7314		-27.343750
7315		-23.437500
7316		-25.390625
7317		-21.484375
7318		-23.437500
7319		-19.531250
7320		-21.484375
7321		-17.578125
7322		-19.531250
7323		-15.625000
7324		-17.578125
7325		-13.671875
7326		-17.578125
7327		-11.718750
7328		-15.625000
7329		-9.765625
7330		-13.671875
7331		-7.812500
7332		-11.718750
7333		-7.812500
7334		-9.765625
7335		-3.906250
7336		-7.812500
7337		-3.906250
7338		-5.859375
7339		-1.953125
7340		-3.906250
7341		0.000000
7342		-1.953125
7343		1.953125
7344		0.000000
7345		3.906250
7346		1.953125
7347		5.859375
7348		3.906250
7349		7.812500
7350		5.859375
7351		9.765625
7352		7.812500
7353		11.718750
7354		9.765625
7355		13.671875
7356		11.718750
7357		15.625000
7358		13.671875
7359		17.578125
7360		15.625000
7361		19.531250
7362		17.578125
7363		21.484375
7364		19.531250
7365		23.437500
7366		21.484375
7367		25.390625
7368		23.437500
7369		27.343750
7370		25.390625
7371		29.296875
7372		27.343750
7373		31.250000
7374		29.296875
7375		33.203125
7376		31.250000
7377		35.156250
7378		33.203125
7379		37.109375
7380		33.203125
7381		39.062500
7382		35.156250
7383		39.062500
7384		37.109375
7385		41.015625
7386		39.062500
7387		42.968750
7388		41.015625
7389		44.921875
7390		42.968750
7391		46.875000
7392		44.921875
7393		48.828125
7394		44.921875
7395		50.781250
7396		46.875000
7397		50.781250
7398		48.828125
7399		52.734375
7400		50.781250
7401		54.687500
7402		50.781250
7403		54.687500
7404		52.734375
7405		56.640625
7406		54.687500
7407		58.593750
7408		56.640625
7409		58.593750
7410		56.640625
7411		60.546875
7412		58.593750
7413		62.500000
7414		60.546875
7415		64.453125
7416		60.546875
7417		64.453125
7418		62.500000
7419		66.406250
7420		64.453125
7421		66.406250
7422		64.453125
7423		68.359375
7424		66.406250
7425		68.359375
7426		66.406250
7427		70.312500
7428		68.359375
7429		72.265625
7430		68.359375
7431		72.265625
7432		70.312500
7433		72.265625
7434		70.312500
7435		74.218750
7436		72.265625
7437		74.218750
7438		72.265625
7439		76.171875
7440		74.218750
7441		76.171875
7442		74.218750
7443		78.125000
7444		74.218750
7445		78.125000
7446		76.171875
7447		78.125000
7448		76.171875
7449		80.078125
7450		76.171875
7451		80.078125
7452		78.125000
7453		80.078125
7454		78.125000
7455		80.078125
7456		78.125000
7457		82.031250
7458		78.125000
7459		82.031250
7460		78.125000
7461		82.031250
7462		80.078125
7463		82.031250
7464		80.078125
7465		82.031250
7466		80.078125
7467		82.031250
7468		80.078125
7469		82.031250
7470		80.078125
7471		82.031250
7472		80.078125
7473		82.031250
7474		80.078125
7475		83.984375
7476		80.078125
7477		82.031250
7478		80.078125
7479		83.984375
7480		80.078125
7481		82.031250
7482		80.078125
7483		82.031250
7484		80.078125
7485		82.031250
7486		80.078125
7487		82.031250
7488		78.125000
7489		82.031250
7490		78.125000
7491		82.031250
7492		78.125000
7493		82.031250
7494		78.125000
7495		80.078125
7496		78.125000
7497		80.078125
7498		76.171875
7499		80.078125
7500		76.171875
7501		80.078125
7502		76.171875
7503		78.125000
7504		74.218750
7505		78.125000
7506		74.218750
7507		78.125000
7508		74.218750
7509		76.171875
7510		72.265625
7511		76.171875
7512		72.265625
7513		76.171875
7514		72.265625
7515		74.218750
7516		70.312500
7517		74.218750
7518		70.312500
7519		72.265625
7520		68.359375
7521		72.265625
7522		68.359375
7523		70.312500
7524		66.406250
7525		70.312500
7526		64.453125
7527		68.359375
7528		64.453125
7529		68.359375
7530		62.500000
7531		66.406250
7532		62.500000
7533		64.453125
7534		60.546875
7535		64.453125
7536		58.593750
7537		62.500000
7538		58.593750
7539		60.546875
7540		56.640625
7541		60.546875
7542		54.687500
7543		58.593750
7544		52.734375
7545		56.640625
7546		52.734375
7547		56.640625
7548		50.781250
7549		54.687500
7550		48.828125
7551		52.734375
7552		48.828125
7553		50.781250
7554		46.875000
7555		50.781250
7556		44.921875
7557		48.828125
7558		42.968750
7559		46.875000
7560		41.015625
7561		44.921875
7562		39.062500
7563		42.968750
7564		37.109375
7565		41.015625
7566		35.156250
7567		41.015625
7568		35.156250
7569		37.109375
7570		33.203125
7571		37.109375
7572		31.250000
7573		35.156250
7574		29.296875
7575		33.203125
7576		27.343750
7577		31.250000
7578		25.390625
7579		29.296875
7580		23.437500
7581		27.343750
7582		21.484375
7583		25.390625
7584		19.531250
7585		23.437500
7586		17.578125
7587		21.484375
7588		15.625000
7589		19.531250
7590		13.671875
7591		17.578125
7592		11.718750
7593		15.625000
7594		9.765625
7595		13.671875
7596		7.812500
7597		11.718750
7598		5.859375
7599		9.765625
7600		3.906250
7601		7.812500
7602		1.953125
7603		5.859375
7604		0.000000
7605		3.906250
7606		-1.953125
7607		1.953125
7608		-3.906250
7609		0.000000
7610		-5.859375
7611		-1.953125
7612		-7.812500
7613		-3.906250
7614		-9.765625
7615		-5.859375
7616		-11.718750
7617		-7.812500
7618		-13.671875
7619		-9.765625
7620		-15.625000
7621		-11.718750
7622		-17.578125
7623		-11.718750
7624		-19.531250
7625		-15.625000
7626		-21.484375
7627		-17.578125
7628		-23.437500
7629		-17.578125
7630		-25.390625
7631		-21.484375
7632		-25.390625
7633		-21.484375
7634		-27.343750
7635		-23.437500
7636		-29.296875
7637		-25.390625
7638		-31.250000
7639		-27.343750
7640		-33.203125
7641		-29.296875
7642		-35.156250
7643		-31.250000
7644		-37.109375
7645		-33.203125
7646		-37.109375
7647		-33.203125
7648		-39.062500
7649		-35.156250
7650		-41.015625
7651		-37.109375
7652		-42.968750
7653		-39.062500
7654		-42.968750
7655		-39.062500
7656		-44.921875
7657		-41.015625
7658		-46.875000
7659		-42.968750
7660		-46.875000
7661		-44.921875
7662		-48.828125
7663		-44.921875
7664		-50.781250
7665		-46.875000
7666		-50.781250
7667		-46.875000
7668		-52.734375
7669		-48.828125
7670		-54.687500
7671		-50.781250
7672		-54.687500
7673		-50.781250
7674		-54.687500
7675		-52.734375
7676		-56.640625
7677		-52.734375
7678		-56.640625
7679		-54.687500
7680		-58.593750
7681		-54.687500
7682		-58.593750
7683		-56.640625
7684		-60.546875
7685		-56.640625
7686		-60.546875
7687		-56.640625
7688		-62.500000
7689		-58.593750
7690		-62.500000
7691		-58.593750
7692		-62.500000
7693		-58.593750
7694		-62.500000
7695		-60.546875
7696		-62.500000
7697		-60.546875
7698		-64.453125
7699		-60.546875
7700		-64.453125
7701		-60.546875
7702		-64.453125
7703		-60.546875
7704		-64.453125
7705		-60.546875
7706		-64.453125
7707		-60.546875
7708		-64.453125
7709		-60.546875
7710		-64.453125
7711		-62.500000
7712		-64.453125
7713		-60.546875
7714		-64.453125
7715		-60.546875
7716		-64.453125
7717		-60.546875
7718		-64.453125
7719		-60.546875
7720		-64.453125
7721		-60.546875
7722		-62.500000
7723		-60.546875
7724		-62.500000
7725		-60.546875
7726		-62.500000
7727		-58.593750
7728		-62.500000
7729		-58.593750
7730		-62.500000
7731		-58.593750
7732		-60.546875
7733		-58.593750
7734		-60.546875
7735		-56.640625
7736		-60.546875
7737		-56.640625
7738		-62.500000
7739		-54.687500
7740		-58.593750
7741		-54.687500
7742		-58.593750
7743		-52.734375
7744		-56.640625
7745		-52.734375
7746		-54.687500
7747		-52.734375
7748		-54.687500
7749		-50.781250
7750		-52.734375
7751		-50.781250
7752		-52.734375
7753		-48.828125
7754		-52.734375
7755		-46.875000
7756		-50.781250
7757		-44.921875
7758		-48.828125
7759		-44.921875
7760		-50.781250
7761		-42.968750
7762		-48.828125
7763		-39.062500
7764		-44.921875
7765		-41.015625
7766		-42.968750
7767		-39.062500
7768		-42.968750
7769		-37.109375
7770		-41.015625
7771		-37.109375
7772		-39.062500
7773		-35.156250
7774		-39.062500
7775		-33.203125
7776		-37.109375
7777		-31.250000
7778		-35.156250
7779		-29.296875
7780		-35.156250
7781		-27.343750
7782		-31.250000
7783		-27.343750
7784		-29.296875
7785		-25.390625
7786		-29.296875
7787		-23.437500
7788		-25.390625
7789		-21.484375
7790		-25.390625
7791		-19.531250
7792		-21.484375
7793		-17.578125
7794		-21.484375
7795		-17.578125
7796		-19.531250
7797		-13.671875
7798		-17.578125
7799		-13.671875
7800		-15.625000
7801		-11.718750
7802		-13.671875
7803		-7.812500
7804		-13.671875
7805		-5.859375
7806		-11.718750
7807		-5.859375
7808		-7.812500
7809		-3.906250
7810		-7.812500
7811		-1.953125
7812		-3.906250
7813		0.000000
7814		-3.906250
7815		1.953125
7816		0.000000
7817		3.906250
7818		1.953125
7819		7.812500
7820		1.953125
7821		11.718750
7822		5.859375
7823		11.718750
7824		7.812500
7825		11.718750
7826		7.812500
7827		17.578125
7828		9.765625
7829		17.578125
7830		11.718750
7831		19.531250
7832		15.625000
7833		19.531250
7834		17.578125
7835		21.484375
7836		17.578125
7837		23.437500
7838		19.531250
7839		27.343750
7840		21.484375
7841		27.343750
7842		23.437500
7843		29.296875
7844		23.437500
7845		33.203125
7846		27.343750
7847		35.156250
7848		29.296875
7849		35.156250
7850		31.250000
7851		35.156250
7852		33.203125
7853		39.062500
7854		33.203125
7855		41.015625
7856		37.109375
7857		41.015625
7858		39.062500
7859		42.968750
7860		37.109375
7861		46.875000
7862		39.062500
7863		46.875000
7864		41.015625
7865		48.828125
7866		44.921875
7867		48.828125
7868		44.921875
7869		52.734375
7870		46.875000
7871		54.687500
7872		46.875000
7873		54.687500
7874		50.781250
7875		54.687500
7876		52.734375
7877		56.640625
7878		52.734375
7879		60.546875
7880		54.687500
7881		62.500000
7882		56.640625
7883		60.546875
7884		58.593750
7885		62.500000
7886		58.593750
7887		64.453125
7888		58.593750
7889		66.406250
7890		58.593750
7891		66.406250
7892		62.500000
7893		66.406250
7894		62.500000
7895		70.312500
7896		62.500000
7897		70.312500
7898		62.500000
7899		72.265625
7900		68.359375
7901		70.312500
7902		68.359375
7903		72.265625
7904		66.406250
7905		76.171875
7906		68.359375
7907		74.218750
7908		70.312500
7909		74.218750
7910		70.312500
7911		76.171875
7912		70.312500
7913		78.125000
7914		70.312500
7915		80.078125
7916		74.218750
7917		78.125000
7918		74.218750
7919		78.125000
7920		74.218750
7921		80.078125
7922		72.265625
7923		82.031250
7924		76.171875
7925		80.078125
7926		76.171875
7927		80.078125
7928		74.218750
7929		83.984375
7930		76.171875
7931		83.984375
7932		78.125000
7933		82.031250
7934		78.125000
7935		82.031250
7936		78.125000
7937		83.984375
7938		76.171875
7939		83.984375
7940		78.125000
7941		82.031250
7942		80.078125
7943		82.031250
7944		76.171875
7945		85.937500
7946		76.171875
7947		85.937500
7948		78.125000
7949		83.984375
7950		80.078125
7951		82.031250
7952		78.125000
7953		82.031250
7954		76.171875
7955		83.984375
7956		76.171875
7957		83.984375
7958		78.125000
7959		82.031250
7960		78.125000
7961		82.031250
7962		74.218750
7963		83.984375
7964		74.218750
7965		82.031250
7966		76.171875
7967		80.078125
7968		76.171875
7969		80.078125
7970		74.218750
7971		80.078125
7972		74.218750
7973		82.031250
7974		74.218750
7975		80.078125
7976		74.218750
7977		78.125000
7978		70.312500
7979		80.078125
7980		70.312500
7981		78.125000
7982		70.312500
7983		78.125000
7984		70.312500
7985		74.218750
7986		70.312500
7987		74.218750
7988		66.406250
7989		74.218750
7990		68.359375
7991		72.265625
7992		68.359375
7993		70.312500
7994		62.500000
7995		72.265625
7996		62.500000
7997		72.265625
7998		62.500000
7999		70.312500
8000		62.500000
8001		66.406250
8002		62.500000
8003		64.453125
8004		58.593750
8005		64.453125
8006		56.640625
8007		64.453125
8008		58.593750
8009		62.500000
8010		56.640625
8011		60.546875
8012		54.687500
8013		60.546875
8014		50.781250
8015		58.593750
8016		52.734375
8017		56.640625
8018		50.781250
8019		54.687500
8020		48.828125
8021		52.734375
8022		44.921875
8023		52.734375
8024		44.921875
8025		50.781250
8026		44.921875
8027		48.828125
8028		41.015625
8029		46.875000
8030		41.015625
8031		44.921875
8032		39.062500
8033		42.968750
8034		39.062500
8035		42.968750
8036		37.109375
8037		41.015625
8038		35.156250
8039		39.062500
8040		31.250000
8041		37.109375
8042		31.250000
8043		35.156250
8044		29.296875
8045		33.203125
8046		27.343750
8047		33.203125
8048		25.390625
8049		29.296875
8050		23.437500
8051		27.343750
8052		21.484375
8053		25.390625
8054		19.531250
8055		23.437500
8056		17.578125
8057		21.484375
8058		15.625000
8059		19.531250
8060		13.671875
8061		17.578125
8062		11.718750
8063		15.625000
8064		9.765625
8065		15.625000
8066		7.812500
8067		11.718750
8068		5.859375
8069		9.765625
8070		3.906250
8071		7.812500
8072		1.953125
8073		5.859375
8074		0.000000
8075		5.859375
8076		-1.953125
8077		1.953125
8078		-3.906250
8079		0.000000
8080		-5.859375
8081		0.000000
8082		-7.812500
8083		-3.906250
8084		-9.765625
8085		-5.859375
8086		-11.718750
8087		-7.812500
8088		-13.671875
8089		-7.812500
8090		-15.625000
8091		-9.765625
8092		-17.578125
8093		-11.718750
8094		-19.531250
8095		-13.671875
8096		-21.484375
8097		-15.625000
8098		-23.437500
8099		-17.578125
8100		-23.437500
8101		-19.531250
8102		-25.390625
8103		-21.484375
8104		-29.296875
8105		-23.437500
8106		-29.296875
8107		-23.437500
8108		-31.250000
8109		-25.390625
8110		-33.203125
8111		-27.343750
8112		-35.156250
8113		-29.296875
8114		-37.109375
8115		-31.250000
8116		-37.109375
8117		-33.203125
8118		-39.062500
8119		-35.156250
8120		-41.015625
8121		-37.109375
8122		-42.968750
8123		-37.109375
8124		-44.921875
8125		-39.062500
8126		-46.875000
8127		-39.062500
8128		-46.875000
8129		-41.015625
8130		-48.828125
8131		-42.968750
8132		-50.781250
8133		-44.921875
8134		-50.781250
8135		-46.875000
8136		-50.781250
8137		-46.875000
8138		-52.734375
8139		-48.828125
8140		-54.687500
8141		-48.828125
8142		-56.640625
8143		-50.781250
8144		-56.640625
8145		-50.781250
8146		-56.640625
8147		-52.734375
8148		-58.593750
8149		-52.734375
8150		-58.593750
8151		-54.687500
8152		-58.593750
8153		-56.640625
8154		-60.546875
8155		-56.640625
8156		-60.546875
8157		-56.640625
8158		-62.500000
8159		-56.640625
8160		-64.453125
8161		-56.640625
8162		-62.500000
8163		-58.593750
8164		-62.500000
8165		-58.593750
8166		-64.453125
8167		-58.593750
8168		-64.453125
8169		-60.546875
8170		-64.453125
8171		-60.546875
8172		-64.453125
8173		-60.546875
8174		-64.453125
8175		-60.546875
8176		-64.453125
8177		-60.546875
8178		-66.406250
8179		-60.546875
8180		-64.453125
8181		-60.546875
8182		-66.406250
8183		-60.546875
8184		-66.406250
8185		-60.546875
8186		-64.453125
8187		-62.500000
8188		-64.453125
8189		-60.546875
8190		-64.453125
8191		-60.546875
8192		-64.453125
8193		-60.546875
8194		-66.406250
8195		-58.593750
8196		-64.453125
8197		-58.593750
8198		-62.500000
8199		-58.593750
8200		-62.500000
8201		-58.593750
8202		-60.546875
8203		-58.593750
8204		-60.546875
8205		-56.640625
8206		-60.546875
8207		-56.640625
8208		-60.546875
8209		-56.640625
8210		-60.546875
8211		-52.734375
8212		-58.593750
8213		-54.687500
8214		-56.640625
8215		-52.734375
8216		-56.640625
8217		-52.734375
8218		-54.687500
8219		-52.734375
8220		-54.687500
8221		-50.781250
8222		-54.687500
8223		-48.828125
8224		-52.734375
8225		-48.828125
8226		-50.781250
8227		-46.875000
8228		-50.781250
8229		-44.921875
8230		-48.828125
8231		-44.921875
8232		-46.875000
8233		-42.968750
8234		-46.875000
8235		-42.968750
8236		-44.921875
8237		-41.015625
8238		-42.968750
8239		-39.062500
8240		-41.015625
8241		-37.109375
8242		-41.015625
8243		-37.109375
8244		-39.062500
8245		-33.203125
8246		-37.109375
8247		-33.203125
8248		-35.156250
8249		-31.250000
8250		-35.156250
8251		-29.296875
8252		-33.203125
8253		-29.296875
8254		-31.250000
8255		-27.343750
8256		-29.296875
8257		-25.390625
8258		-27.343750
8259		-23.437500
8260		-25.390625
8261		-21.484375
8262		-25.390625
8263		-19.531250
8264		-21.484375
8265		-17.578125
8266		-21.484375
8267		-15.625000
8268		-19.531250
8269		-13.671875
8270		-15.625000
8271		-11.718750
8272		-15.625000
8273		-9.765625
8274		-13.671875
8275		-7.812500
8276		-11.718750
8277		-5.859375
8278		-9.765625
8279		-3.906250
8280		-7.812500
8281		-3.906250
8282		-5.859375
8283		0.000000
8284		-3.906250
8285		1.953125
8286		-1.953125
8287		1.953125
8288		0.000000
8289		5.859375
8290		1.953125
8291		5.859375
8292		3.906250
8293		7.812500
8294		5.859375
8295		11.718750
8296		5.859375
8297		11.718750
8298		9.765625
8299		15.625000
8300		11.718750
8301		15.625000
8302		13.671875
8303		17.578125
8304		15.625000
8305		21.484375
8306		17.578125
8307		21.484375
8308		17.578125
8309		25.390625
8310		21.484375
8311		25.390625
8312		23.437500
8313		27.343750
8314		25.390625
8315		29.296875
8316		27.343750
8317		31.250000
8318		29.296875
8319		33.203125
8320		31.250000
8321		35.156250
8322		33.203125
8323		37.109375
8324		33.203125
8325		39.062500
8326		35.156250
8327		39.062500
8328		37.109375
8329		42.968750
8330		39.062500
8331		42.968750
8332		41.015625
8333		44.921875
8334		42.968750
8335		46.875000
8336		44.921875
8337		48.828125
8338		44.921875
8339		48.828125
8340		46.875000
8341		50.781250
8342		48.828125
8343		52.734375
8344		50.781250
8345		54.687500
8346		52.734375
8347		54.687500
8348		52.734375
8349		58.593750
8350		54.687500
8351		58.593750
8352		56.640625
8353		60.546875
8354		56.640625
8355		60.546875
8356		58.593750
8357		62.500000
8358		60.546875
8359		64.453125
8360		60.546875
8361		64.453125
8362		62.500000
8363		66.406250
8364		62.500000
8365		66.406250
8366		64.453125
8367		68.359375
8368		66.406250
8369		68.359375
8370		66.406250
8371		70.312500
8372		68.359375
8373		70.312500
8374		68.359375
8375		72.265625
8376		68.359375
8377		72.265625
8378		70.312500
8379		74.218750
8380		70.312500
8381		76.171875
8382		72.265625
8383		76.171875
8384		72.265625
8385		76.171875
8386		72.265625
8387		76.171875
8388		74.218750
8389		78.125000
8390		74.218750
8391		78.125000
8392		76.171875
8393		80.078125
8394		76.171875
8395		80.078125
8396		76.171875
8397		80.078125
8398		76.171875
8399		80.078125
8400		78.125000
8401		80.078125
8402		76.171875
8403		82.031250
8404		78.125000
8405		82.031250
8406		78.125000
8407		82.031250
8408		78.125000
8409		82.031250
8410		78.125000
8411		82.031250
8412		78.125000
8413		82.031250
8414		78.125000
8415		82.031250
8416		78.125000
8417		82.031250
8418		78.125000
8419		82.031250
8420		78.125000
8421		82.031250
8422		78.125000
8423		82.031250
8424		78.125000
8425		82.031250
8426		78.125000
8427		82.031250
8428		78.125000
8429		82.031250
8430		78.125000
8431		82.031250
8432		78.125000
8433		82.031250
8434		76.171875
8435		80.078125
8436		76.171875
8437		82.031250
8438		76.171875
8439		80.078125
8440		76.171875
8441		80.078125
8442		76.171875
8443		78.125000
8444		74.218750
8445		78.125000
8446		74.218750
8447		78.125000
8448		72.265625
8449		76.171875
8450		72.265625
8451		76.171875
8452		72.265625
8453		76.171875
8454		72.265625
8455		74.218750
8456		70.312500
8457		74.218750
8458		70.312500
8459		74.218750
8460		68.359375
8461		72.265625
8462		66.406250
8463		72.265625
8464		66.406250
8465		70.312500
8466		64.453125
8467		68.359375
8468		64.453125
8469		68.359375
8470		62.500000
8471		68.359375
8472		62.500000
8473		66.406250
8474		60.546875
8475		64.453125
8476		58.593750
8477		64.453125
8478		58.593750
8479		62.500000
8480		56.640625
8481		60.546875
8482		56.640625
8483		60.546875
8484		54.687500
8485		58.593750
8486		52.734375
8487		56.640625
8488		52.734375
8489		56.640625
8490		48.828125
8491		54.687500
8492		48.828125
8493		52.734375
8494		46.875000
8495		50.781250
8496		44.921875
8497		48.828125
8498		42.968750
8499		46.875000
8500		41.015625
8501		46.875000
8502		41.015625
8503		44.921875
8504		39.062500
8505		42.968750
8506		37.109375
8507		41.015625
8508		35.156250
8509		39.062500
8510		33.203125
8511		37.109375
8512		31.250000
8513		35.156250
8514		29.296875
8515		35.156250
8516		27.343750
8517		33.203125
8518		25.390625
8519		31.250000
8520		25.390625
8521		29.296875
8522		23.437500
8523		27.343750
8524		19.531250
8525		25.390625
8526		17.578125
8527		23.437500
8528		15.625000
8529		21.484375
8530		15.625000
8531		19.531250
8532		13.671875
8533		17.578125
8534		11.718750
8535		15.625000
8536		9.765625
8537		13.671875
8538		7.812500
8539		11.718750
8540		5.859375
8541		9.765625
8542		1.953125
8543		7.812500
8544		1.953125
8545		5.859375
8546		0.000000
8547		3.906250
8548		-1.953125
8549		1.953125
8550		-3.906250
8551		0.000000
8552		-5.859375
8553		-1.953125
8554		-7.812500
8555		-1.953125
8556		-9.765625
8557		-5.859375
8558		-13.671875
8559		-7.812500
8560		-13.671875
8561		-7.812500
8562		-15.625000
8563		-11.718750
8564		-17.578125
8565		-13.671875
8566		-19.531250
8567		-15.625000
8568		-21.484375
8569		-17.578125
8570		-23.437500
8571		-19.531250
8572		-25.390625
8573		-21.484375
8574		-27.343750
8575		-23.437500
8576		-27.343750
8577		-25.390625
8578		-31.250000
8579		-25.390625
8580		-31.250000
8581		-27.343750
8582		-33.203125
8583		-29.296875
8584		-35.156250
8585		-31.250000
8586		-37.109375
8587		-33.203125
8588		-39.062500
8589		-35.156250
8590		-39.062500
8591		-35.156250
8592		-42.968750
8593		-37.109375
8594		-42.968750
8595		-39.062500
8596		-44.921875
8597		-41.015625
8598		-44.921875
8599		-41.015625
8600		-46.875000
8601		-42.968750
8602		-48.828125
8603		-44.921875
8604		-48.828125
8605		-44.921875
8606		-50.781250
8607		-46.875000
8608		-52.734375
8609		-48.828125
8610		-52.734375
8611		-48.828125
8612		-54.687500
8613		-50.781250
8614		-54.687500
8615		-50.781250
8616		-56.640625
8617		-52.734375
8618		-56.640625
8619		-52.734375
8620		-58.593750
8621		-54.687500
8622		-58.593750
8623		-54.687500
8624		-58.593750
8625		-56.640625
8626		-60.546875
8627		-56.640625
8628		-60.546875
8629		-56.640625
8630		-62.500000
8631		-58.593750
8632		-62.500000
8633		-58.593750
8634		-62.500000
8635		-58.593750
8636		-62.500000
8637		-58.593750
8638		-62.500000
8639		-60.546875
8640		-64.453125
8641		-60.546875
8642		-64.453125
8643		-60.546875
8644		-64.453125
8645		-60.546875
8646		-64.453125
8647		-60.546875
8648		-64.453125
8649		-60.546875
8650		-64.453125
8651		-62.500000
8652		-64.453125
8653		-60.546875
8654		-66.406250
8655		-60.546875
8656		-64.453125
8657		-62.500000
8658		-66.406250
8659		-60.546875
8660		-64.453125
8661		-60.546875
8662		-64.453125
8663		-60.546875
8664		-64.453125
8665		-60.546875
8666		-64.453125
8667		-60.546875
8668		-62.500000
8669		-60.546875
8670		-64.453125
8671		-58.593750
8672		-62.500000
8673		-58.593750
8674		-60.546875
8675		-58.593750
8676		-60.546875
8677		-56.640625
8678		-60.546875
8679		-56.640625
8680		-60.546875
8681		-56.640625
8682		-58.593750
8683		-54.687500
8684		-58.593750
8685		-54.687500
8686		-56.640625
8687		-52.734375
8688		-56.640625
8689		-50.781250
8690		-54.687500
8691		-50.781250
8692		-54.687500
8693		-50.781250
8694		-52.734375
8695		-48.828125
8696		-52.734375
8697		-48.828125
8698		-50.781250
8699		-46.875000
8700		-48.828125
8701		-44.921875
8702		-48.828125
8703		-44.921875
8704		-46.875000
8705		-42.968750
8706		-44.921875
8707		-41.015625
8708		-42.968750
8709		-41.015625
8710		-42.968750
8711		-39.062500
8712		-41.015625
8713		-37.109375
8714		-39.062500
8715		-35.156250
8716		-39.062500
8717		-35.156250
8718		-37.109375
8719		-33.203125
8720		-35.156250
8721		-31.250000
8722		-33.203125
8723		-29.296875
8724		-31.250000
8725		-27.343750
8726		-31.250000
8727		-25.390625
8728		-29.296875
8729		-23.437500
8730		-27.343750
8731		-23.437500
8732		-25.390625
8733		-21.484375
8734		-23.437500
8735		-19.531250
8736		-21.484375
8737		-17.578125
8738		-19.531250
8739		-15.625000
8740		-17.578125
8741		-13.671875
8742		-15.625000
8743		-9.765625
8744		-13.671875
8745		-9.765625
8746		-11.718750
8747		-7.812500
8748		-9.765625
8749		-5.859375
8750		-7.812500
8751		-3.906250
8752		-5.859375
8753		-1.953125
8754		-3.906250
8755		1.953125
8756		-1.953125
8757		1.953125
8758		0.000000
8759		3.906250
8760		1.953125
8761		5.859375
8762		3.906250
8763		7.812500
8764		5.859375
8765		9.765625
8766		7.812500
8767		11.718750
8768		9.765625
8769		13.671875
8770		11.718750
8771		15.625000
8772		13.671875
8773		17.578125
8774		13.671875
8775		19.531250
8776		17.578125
8777		21.484375
8778		17.578125
8779		23.437500
8780		19.531250
8781		25.390625
8782		21.484375
8783		27.343750
8784		23.437500
8785		29.296875
8786		25.390625
8787		29.296875
8788		27.343750
8789		31.250000
8790		29.296875
8791		33.203125
8792		31.250000
8793		35.156250
8794		33.203125
8795		37.109375
8796		35.156250
8797		39.062500
8798		35.156250
8799		41.015625
8800		39.062500
8801		42.968750
8802		39.062500
8803		44.921875
8804		41.015625
8805		44.921875
8806		42.968750
8807		46.875000
8808		44.921875
8809		48.828125
8810		46.875000
8811		50.781250
8812		48.828125
8813		50.781250
8814		48.828125
8815		52.734375
8816		50.781250
8817		54.687500
8818		52.734375
8819		56.640625
8820		52.734375
8821		58.593750
8822		54.687500
8823		58.593750
8824		56.640625
8825		60.546875
8826		58.593750
8827		60.546875
8828		58.593750
8829		62.500000
8830		60.546875
8831		64.453125
8832		60.546875
8833		64.453125
8834		62.500000
8835		66.406250
8836		64.453125
8837		68.359375
8838		64.453125
8839		68.359375
8840		66.406250
8841		70.312500
8842		66.406250
8843		70.312500
8844		66.406250
8845		72.265625
8846		68.359375
8847		72.265625
8848		70.312500
8849		74.218750
8850		70.312500
8851		74.218750
8852		72.265625
8853		74.218750
8854		72.265625
8855		76.171875
8856		72.265625
8857		76.171875
8858		74.218750
8859		76.171875
8860		74.218750
8861		78.125000
8862		74.218750
8863		78.125000
8864		74.218750
8865		78.125000
8866		76.171875
8867		80.078125
8868		76.171875
8869		80.078125
8870		76.171875
8871		80.078125
8872		76.171875
8873		82.031250
8874		78.125000
8875		80.078125
8876		78.125000
8877		82.031250
8878		78.125000
8879		82.031250
8880		78.125000
8881		82.031250
8882		78.125000
8883		82.031250
8884		78.125000
8885		82.031250
8886		78.125000
8887		82.031250
8888		78.125000
8889		82.031250
8890		76.171875
8891		82.031250
8892		78.125000
8893		82.031250
8894		78.125000
8895		82.031250
8896		78.125000
8897		82.031250
8898		78.125000
8899		82.031250
8900		78.125000
8901		82.031250
8902		78.125000
8903		82.031250
8904		76.171875
8905		80.078125
8906		76.171875
8907		80.078125
8908		76.171875
8909		80.078125
8910		76.171875
8911		80.078125
8912		74.218750
8913		80.078125
8914		74.218750
8915		78.125000
8916		74.218750
8917		78.125000
8918		74.218750
8919		78.125000
8920		72.265625
8921		76.171875
8922		72.265625
8923		76.171875
8924		72.265625
8925		76.171875
8926		70.312500
8927		74.218750
8928		68.359375
8929		74.218750
8930		68.359375
8931		72.265625
8932		68.359375
8933		72.265625
8934		66.406250
8935		70.312500
8936		66.406250
8937		70.312500
8938		64.453125
8939		68.359375
8940		64.453125
8941		66.406250
8942		62.500000
8943		66.406250
8944		60.546875
8945		64.453125
8946		60.546875
8947		64.453125
8948		58.593750
8949		62.500000
8950		58.593750
8951		60.546875
8952		56.640625
8953		60.546875
8954		54.687500
8955		58.593750
8956		52.734375
8957		58.593750
8958		52.734375
8959		56.640625
8960		50.781250
8961		54.687500
8962		48.828125
8963		52.734375
8964		46.875000
8965		50.781250
8966		46.875000
8967		50.781250
8968		44.921875
8969		48.828125
8970		42.968750
8971		46.875000
8972		41.015625
8973		44.921875
8974		39.062500
8975		44.921875
8976		37.109375
8977		41.015625
8978		35.156250
8979		39.062500
8980		33.203125
8981		39.062500
8982		31.250000
8983		37.109375
8984		31.250000
8985		35.156250
8986		27.343750
8987		33.203125
8988		27.343750
8989		31.250000
8990		25.390625
8991		29.296875
8992		23.437500
8993		27.343750
8994		21.484375
8995		25.390625
8996		19.531250
8997		25.390625
8998		17.578125
8999		23.437500
9000		15.625000
9001		19.531250
9002		13.671875
9003		17.578125
9004		11.718750
9005		15.625000
9006		9.765625
9007		13.671875
9008		7.812500
9009		13.671875
9010		5.859375
9011		9.765625
9012		3.906250
9013		7.812500
9014		1.953125
9015		5.859375
9016		0.000000
9017		3.906250
9018		-1.953125
9019		1.953125
9020		-3.906250
9021		0.000000
9022		-5.859375
9023		0.000000
9024		-7.812500
9025		-3.906250
9026		-9.765625
9027		-5.859375
9028		-11.718750
9029		-7.812500
9030		-13.671875
9031		-7.812500
9032		-15.625000
9033		-11.718750
9034		-17.578125
9035		-11.718750
9036		-19.531250
9037		-15.625000
9038		-21.484375
9039		-15.625000
9040		-23.437500
9041		-19.531250
9042		-25.390625
9043		-19.531250
9044		-25.390625
9045		-21.484375
9046		-27.343750
9047		-23.437500
9048		-29.296875
9049		-25.390625
9050		-31.250000
9051		-27.343750
9052		-33.203125
9053		-29.296875
9054		-35.156250
9055		-29.296875
9056		-37.109375
9057		-33.203125
9058		-37.109375
9059		-33.203125
9060		-39.062500
9061		-35.156250
9062		-41.015625
9063		-37.109375
9064		-42.968750
9065		-39.062500
9066		-44.921875
9067		-39.062500
9068		-44.921875
9069		-41.015625
9070		-46.875000
9071		-42.968750
9072		-48.828125
9073		-44.921875
9074		-48.828125
9075		-44.921875
9076		-50.781250
9077		-46.875000
9078		-50.781250
9079		-48.828125
9080		-52.734375
9081		-48.828125
9082		-54.687500
9083		-50.781250
9084		-54.687500
9085		-50.781250
9086		-56.640625
9087		-52.734375
9088		-56.640625
9089		-52.734375
9090		-58.593750
9091		-54.687500
9092		-58.593750
9093		-54.687500
9094		-60.546875
9095		-56.640625
9096		-60.546875
9097		-56.640625
9098		-60.546875
9099		-58.593750
9100		-62.500000
9101		-58.593750
9102		-62.500000
9103		-58.593750
9104		-62.500000
9105		-60.546875
9106		-64.453125
9107		-58.593750
9108		-64.453125
9109		-60.546875
9110		-64.453125
9111		-60.546875
9112		-64.453125
9113		-60.546875
9114		-64.453125
9115		-62.500000
9116		-64.453125
9117		-62.500000
9118		-66.406250
9119		-62.500000
9120		-64.453125
9121		-62.500000
9122		-66.406250
9123		-62.500000
9124		-66.406250
9125		-62.500000
9126		-66.406250
9127		-62.500000
9128		-64.453125
9129		-62.500000
9130		-66.406250
9131		-62.500000
9132		-64.453125
9133		-62.500000
9134		-64.453125
9135		-62.500000
9136		-64.453125
9137		-60.546875
9138		-64.453125
9139		-60.546875
9140		-62.500000
9141		-60.546875
9142		-62.500000
9143		-60.546875
9144		-62.500000
9145		-58.593750
9146		-62.500000
9147		-58.593750
9148		-62.500000
9149		-58.593750
9150		-60.546875
9151		-56.640625
9152		-60.546875
9153		-56.640625
9154		-58.593750
9155		-54.687500
9156		-58.593750
9157		-54.687500
9158		-58.593750
9159		-52.734375
9160		-56.640625
9161		-52.734375
9162		-54.687500
9163		-52.734375
9164		-54.687500
9165		-50.781250
9166		-52.734375
9167		-48.828125
9168		-52.734375
9169		-48.828125
9170		-50.781250
9171		-46.875000
9172		-48.828125
9173		-44.921875
9174		-48.828125
9175		-44.921875
9176		-48.828125
9177		-42.968750
9178		-44.921875
9179		-41.015625
9180		-44.921875
9181		-41.015625
9182		-42.968750
9183		-39.062500
9184		-41.015625
9185		-37.109375
9186		-41.015625
9187		-35.156250
9188		-39.062500
9189		-35.156250
9190		-37.109375
9191		-33.203125
9192		-35.156250
9193		-31.250000
9194		-33.203125
9195		-29.296875
9196		-31.250000
9197		-27.343750
9198		-31.250000
9199		-25.390625
9200		-29.296875
9201		-25.390625
9202		-27.343750
9203		-23.437500
9204		-25.390625
9205		-21.484375
9206		-23.437500
9207		-19.531250
9208		-21.484375
9209		-17.578125
9210		-19.531250
9211		-15.625000
9212		-17.578125
9213		-13.671875
9214		-15.625000
9215		-11.718750
9216		-13.671875
9217		-9.765625
9218		-11.718750
9219		-7.812500
9220		-9.765625
9221		-5.859375
9222		-7.812500
9223		-3.906250
9224		-5.859375
9225		-1.953125
9226		-5.859375
9227		0.000000
9228		-1.953125
9229		1.953125
9230		0.000000
9231		3.906250
9232		1.953125
9233		5.859375
9234		3.906250
9235		7.812500
9236		5.859375
9237		9.765625
9238		7.812500
9239		11.718750
9240		9.765625
9241		13.671875
9242		9.765625
9243		15.625000
9244		13.671875
9245		17.578125
9246		15.625000
9247		19.531250
9248		15.625000
9249		21.484375
9250		19.531250
9251		23.437500
9252		21.484375
9253		25.390625
9254		23.437500
9255		27.343750
9256		23.437500
9257		29.296875
9258		25.390625
9259		29.296875
9260		27.343750
9261		31.250000
9262		29.296875
9263		33.203125
9264		31.250000
9265		35.156250
9266		33.203125
9267		37.109375
9268		35.156250
9269		39.062500
9270		37.109375
9271		41.015625
9272		39.062500
9273		42.968750
9274		41.015625
9275		44.921875
9276		41.015625
9277		46.875000
9278		42.968750
9279		46.875000
9280		44.921875
9281		48.828125
9282		46.875000
9283		50.781250
9284		48.828125
9285		52.734375
9286		48.828125
9287		52.734375
9288		50.781250
9289		54.687500
9290		52.734375
9291		56.640625
9292		52.734375
9293		58.593750
9294		54.687500
9295		58.593750
9296		56.640625
9297		60.546875
9298		58.593750
9299		60.546875
9300		58.593750
9301		62.500000
9302		60.546875
9303		64.453125
9304		62.500000
9305		66.406250
9306		62.500000
9307		66.406250
9308		62.500000
9309		66.406250
9310		64.453125
9311		68.359375
9312		66.406250
9313		70.312500
9314		66.406250
9315		70.312500
9316		66.406250
9317		72.265625
9318		68.359375
9319		72.265625
9320		70.312500
9321		72.265625
9322		70.312500
9323		74.218750
9324		72.265625
9325		74.218750
9326		72.265625
9327		76.171875
9328		72.265625
9329		76.171875
9330		74.218750
9331		76.171875
9332		72.265625
9333		78.125000
9334		74.218750
9335		78.125000
9336		76.171875
9337		78.125000
9338		76.171875
9339		80.078125
9340		76.171875
9341		80.078125
9342		76.171875
9343		80.078125
9344		78.125000
9345		80.078125
9346		78.125000
9347		80.078125
9348		76.171875
9349		82.031250
9350		78.125000
9351		82.031250
9352		78.125000
9353		82.031250
9354		78.125000
9355		82.031250
9356		78.125000
9357		82.031250
9358		78.125000
9359		82.031250
9360		78.125000
9361		82.031250
9362		78.125000
9363		82.031250
9364		78.125000
9365		82.031250
9366		78.125000
9367		82.031250
9368		78.125000
9369		82.031250
9370		78.125000
9371		80.078125
9372		78.125000
9373		80.078125
9374		76.171875
9375		82.031250
9376		76.171875
9377		80.078125
9378		76.171875
9379		80.078125
9380		76.171875
9381		80.078125
9382		76.171875
9383		78.125000
9384		74.218750
9385		80.078125
9386		74.218750
9387		78.125000
9388		74.218750
9389		78.125000
9390		74.218750
9391		76.171875
9392		72.265625
9393		76.171875
9394		72.265625
9395		76.171875
9396		70.312500
9397		74.218750
9398		70.312500
9399		74.218750
9400		68.359375
9401		72.265625
9402		68.359375
9403		72.265625
9404		68.359375
9405		70.312500
9406		66.406250
9407		70.312500
9408		66.406250
9409		68.359375
9410		64.453125
9411		68.359375
9412		64.453125
9413		66.406250
9414		62.500000
9415		66.406250
9416		60.546875
9417		66.406250
9418		60.546875
9419		62.500000
9420		58.593750
9421		62.500000
9422		56.640625
9423		60.546875
9424		56.640625
9425		58.593750
9426		54.687500
9427		58.593750
9428		52.734375
9429		56.640625
9430		50.781250
9431		54.687500
9432		48.828125
9433		54.687500
9434		48.828125
9435		52.734375
9436		46.875000
9437		50.781250
9438		44.921875
9439		48.828125
9440		42.968750
9441		48.828125
9442		42.968750
9443		46.875000
9444		41.015625
9445		44.921875
9446		39.062500
9447		42.968750
9448		37.109375
9449		41.015625
9450		35.156250
9451		39.062500
9452		33.203125
9453		37.109375
9454		31.250000
9455		35.156250
9456		29.296875
9457		35.156250
9458		27.343750
9459		33.203125
9460		25.390625
9461		31.250000
9462		25.390625
9463		29.296875
9464		23.437500
9465		27.343750
9466		21.484375
9467		25.390625
9468		19.531250
9469		23.437500
9470		17.578125
9471		21.484375
9472		15.625000
9473		19.531250
9474		13.671875
9475		17.578125
9476		9.765625
9477		15.625000
9478		7.812500
9479		13.671875
9480		7.812500
9481		11.718750
9482		3.906250
9483		9.765625
9484		3.906250
9485		7.812500
9486		1.953125
9487		5.859375
9488		0.000000
9489		3.906250
9490		-3.906250
9491		1.953125
9492		-3.906250
9493		0.000000
9494		-7.812500
9495		-1.953125
9496		-7.812500
9497		-3.906250
9498		-9.765625
9499		-5.859375
9500		-11.718750
9501		-7.812500
9502		-13.671875
9503		-9.765625
9504		-15.625000
9505		-11.718750
9506		-17.578125
9507		-13.671875
9508		-19.531250
9509		-15.625000
9510		-21.484375
9511		-17.578125
9512		-23.437500
9513		-17.578125
9514		-25.390625
9515		-19.531250
9516		-27.343750
9517		-23.437500
9518		-29.296875
9519		-23.437500
9520		-31.250000
9521		-25.390625
9522		-31.250000
9523		-27.343750
9524		-33.203125
9525		-29.296875
9526		-35.156250
9527		-31.250000
9528		-37.109375
9529		-33.203125
9530		-37.109375
9531		-35.156250
9532		-41.015625
9533		-37.109375
9534		-41.015625
9535		-37.109375
9536		-42.968750
9537		-39.062500
9538		-44.921875
9539		-41.015625
9540		-44.921875
9541		-41.015625
9542		-46.875000
9543		-42.968750
9544		-48.828125
9545		-44.921875
9546		-48.828125
9547		-44.921875
9548		-50.781250
9549		-46.875000
9550		-52.734375
9551		-48.828125
9552		-52.734375
9553		-48.828125
9554		-54.687500
9555		-50.781250
9556		-54.687500
9557		-50.781250
9558		-56.640625
9559		-52.734375
9560		-56.640625
9561		-52.734375
9562		-58.593750
9563		-54.687500
9564		-58.593750
9565		-54.687500
9566		-60.546875
9567		-56.640625
9568		-60.546875
9569		-56.640625
9570		-62.500000
9571		-56.640625
9572		-62.500000
9573		-58.593750
9574		-62.500000
9575		-58.593750
9576		-62.500000
9577		-58.593750
9578		-64.453125
9579		-60.546875
9580		-64.453125
9581		-60.546875
9582		-64.453125
9583		-60.546875
9584		-64.453125
9585		-60.546875
9586		-64.453125
9587		-62.500000
9588		-66.406250
9589		-62.500000
9590		-64.453125
9591		-62.500000
9592		-64.453125
9593		-62.500000
9594		-66.406250
9595		-62.500000
9596		-66.406250
9597		-62.500000
9598		-64.453125
9599		-62.500000
9600		-66.406250
9601		-62.500000
9602		-64.453125
9603		-62.500000
9604		-64.453125
9605		-60.546875
9606		-66.406250
9607		-60.546875
9608		-64.453125
9609		-60.546875
9610		-64.453125
9611		-60.546875
9612		-64.453125
9613		-60.546875
9614		-62.500000
9615		-60.546875
9616		-62.500000
9617		-58.593750
9618		-62.500000
9619		-58.593750
9620		-62.500000
9621		-56.640625
9622		-60.546875
9623		-56.640625
9624		-58.593750
9625		-56.640625
9626		-58.593750
9627		-54.687500
9628		-58.593750
9629		-54.687500
9630		-58.593750
9631		-52.734375
9632		-56.640625
9633		-52.734375
9634		-54.687500
9635		-50.781250
9636		-54.687500
9637		-50.781250
9638		-52.734375
9639		-48.828125
9640		-52.734375
9641		-48.828125
9642		-50.781250
9643		-46.875000
9644		-48.828125
9645		-44.921875
9646		-48.828125
9647		-44.921875
9648		-46.875000
9649		-42.968750
9650		-44.921875
9651		-41.015625
9652		-42.968750
9653		-39.062500
9654		-42.968750
9655		-39.062500
9656		-41.015625
9657		-37.109375
9658		-39.062500
9659		-35.156250
9660		-37.109375
9661		-33.203125
9662		-35.156250
9663		-33.203125
9664		-35.156250
9665		-31.250000
9666		-33.203125
9667		-29.296875
9668		-31.250000
9669		-27.343750
9670		-29.296875
9671		-25.390625
9672		-27.343750
9673		-23.437500
9674		-27.343750
9675		-21.484375
9676		-25.390625
9677		-19.531250
9678		-23.437500
9679		-19.531250
9680		-19.531250
9681		-17.578125
9682		-19.531250
9683		-15.625000
9684		-17.578125
9685		-11.718750
9686		-15.625000
9687		-9.765625
9688		-13.671875
9689		-9.765625
9690		-11.718750
9691		-7.812500
9692		-9.765625
9693		-3.906250
9694		-7.812500
9695		-3.906250
9696		-5.859375
9697		-1.953125
9698		-3.906250
9699		0.000000
9700		-1.953125
9701		1.953125
9702		0.000000
9703		3.906250
9704		1.953125
9705		7.812500
9706		3.906250
9707		7.812500
9708		5.859375
9709		9.765625
9710		7.812500
9711		11.718750
9712		9.765625
9713		13.671875
9714		9.765625
9715		15.625000
9716		13.671875
9717		17.578125
9718		15.625000
9719		19.531250
9720		17.578125
9721		21.484375
9722		19.531250
9723		23.437500
9724		21.484375
9725		25.390625
9726		23.437500
9727		27.343750
9728		23.437500
9729		29.296875
9730		27.343750
9731		31.250000
9732		29.296875
9733		33.203125
9734		31.250000
9735		35.156250
9736		31.250000
9737		37.109375
9738		33.203125
9739		37.109375
9740		35.156250
9741		39.062500
9742		37.109375
9743		41.015625
9744		37.109375
9745		42.968750
9746		39.062500
9747		44.921875
9748		41.015625
9749		44.921875
9750		42.968750
9751		46.875000
9752		44.921875
9753		48.828125
9754		46.875000
9755		50.781250
9756		48.828125
9757		52.734375
9758		50.781250
9759		52.734375
9760		50.781250
9761		54.687500
9762		52.734375
9763		56.640625
9764		52.734375
9765		58.593750
9766		54.687500
9767		58.593750
9768		56.640625
9769		60.546875
9770		58.593750
9771		62.500000
9772		60.546875
9773		62.500000
9774		60.546875
9775		64.453125
9776		60.546875
9777		64.453125
9778		62.500000
9779		66.406250
9780		64.453125
9781		68.359375
9782		64.453125
9783		68.359375
9784		66.406250
9785		70.312500
9786		66.406250
9787		70.312500
9788		68.359375
9789		72.265625
9790		68.359375
9791		72.265625
9792		70.312500
9793		72.265625
9794		70.312500
9795		74.218750
9796		70.312500
9797		74.218750
9798		72.265625
9799		76.171875
9800		72.265625
9801		76.171875
9802		74.218750
9803		78.125000
9804		74.218750
9805		78.125000
9806		74.218750
9807		78.125000
9808		74.218750
9809		80.078125
9810		76.171875
9811		80.078125
9812		76.171875
9813		80.078125
9814		76.171875
9815		80.078125
9816		76.171875
9817		80.078125
9818		76.171875
9819		80.078125
9820		78.125000
9821		80.078125
9822		78.125000
9823		82.031250
9824		78.125000
9825		82.031250
9826		78.125000
9827		82.031250
9828		78.125000
9829		82.031250
9830		78.125000
9831		82.031250
9832		78.125000
9833		82.031250
9834		78.125000
9835		82.031250
9836		78.125000
9837		82.031250
9838		78.125000
9839		82.031250
9840		78.125000
9841		82.031250
9842		76.171875
9843		80.078125
9844		78.125000
9845		80.078125
9846		76.171875
9847		80.078125
9848		76.171875
9849		80.078125
9850		76.171875
9851		80.078125
9852		76.171875
9853		80.078125
9854		74.218750
9855		78.125000
9856		74.218750
9857		78.125000
9858		74.218750
9859		78.125000
9860		74.218750
9861		76.171875
9862		72.265625
9863		76.171875
9864		70.312500
9865		76.171875
9866		72.265625
9867		74.218750
9868		70.312500
9869		74.218750
9870		70.312500
9871		72.265625
9872		68.359375
9873		72.265625
9874		68.359375
9875		70.312500
9876		66.406250
9877		70.312500
9878		66.406250
9879		68.359375
9880		64.453125
9881		68.359375
9882		64.453125
9883		68.359375
9884		62.500000
9885		66.406250
9886		60.546875
9887		64.453125
9888		58.593750
9889		64.453125
9890		58.593750
9891		62.500000
9892		56.640625
9893		62.500000
9894		56.640625
9895		60.546875
9896		54.687500
9897		58.593750
9898		52.734375
9899		56.640625
9900		52.734375
9901		56.640625
9902		48.828125
9903		54.687500
9904		48.828125
9905		52.734375
9906		46.875000
9907		52.734375
9908		46.875000
9909		50.781250
9910		44.921875
9911		48.828125
9912		42.968750
9913		46.875000
9914		41.015625
9915		44.921875
9916		39.062500
9917		42.968750
9918		37.109375
9919		41.015625
9920		37.109375
9921		41.015625
9922		35.156250
9923		39.062500
9924		33.203125
9925		37.109375
9926		31.250000
9927		35.156250
9928		29.296875
9929		33.203125
9930		27.343750
9931		31.250000
9932		25.390625
9933		31.250000
9934		23.437500
9935		27.343750
9936		21.484375
9937		25.390625
9938		19.531250
9939		23.437500
9940		17.578125
9941		23.437500
9942		15.625000
9943		19.531250
9944		13.671875
9945		17.578125
9946		11.718750
9947		15.625000
9948		9.765625
9949		13.671875
9950		7.812500
9951		11.718750
9952		5.859375
9953		9.765625
9954		3.906250
9955		9.765625
9956		1.953125
9957		5.859375
9958		0.000000
9959		5.859375
9960		-1.953125
9961		1.953125
9962		-3.906250
9963		0.000000
9964		-5.859375
9965		0.000000
9966		-7.812500
9967		-1.953125
9968		-9.765625
9969		-5.859375
9970		-11.718750
9971		-5.859375
9972		-13.671875
9973		-7.812500
9974		-15.625000
9975		-9.765625
9976		-17.578125
9977		-11.718750
9978		-19.531250
9979		-13.671875
9980		-21.484375
9981		-15.625000
9982		-21.484375
9983		-17.578125
9984		-23.437500
9985		-19.531250
9986		-27.343750
9987		-21.484375
9988		-27.343750
9989		-23.437500
9990		-29.296875
9991		-25.390625
9992		-31.250000
9993		-27.343750
9994		-33.203125
9995		-29.296875
9996		-35.156250
9997		-29.296875
9998		-37.109375
9999		-33.203125
10000		-37.109375
