Channel              :		CH1
Frequency            :		974.9Hz
Period               :		1.026ms
PK-PK                :		140.6mV
Probe attenuation    :		1X
Voltage per ADC value:		0.122070mV
Time interval        :		2.00000us

index		CH1_Voltage(mV)
1		78.125000
2		78.125000
3		83.984375
4		78.125000
5		83.984375
6		78.125000
7		83.984375
8		76.171875
9		83.984375
10		78.125000
11		83.984375
12		76.171875
13		83.984375
14		76.171875
15		82.031250
16		78.125000
17		80.078125
18		78.125000
19		82.031250
20		76.171875
21		82.031250
22		74.218750
23		82.031250
24		74.218750
25		82.031250
26		74.218750
27		82.031250
28		74.218750
29		80.078125
30		74.218750
31		80.078125
32		74.218750
33		78.125000
34		74.218750
35		76.171875
36		72.265625
37		78.125000
38		70.312500
39		78.125000
40		70.312500
41		78.125000
42		70.312500
43		76.171875
44		68.359375
45		76.171875
46		68.359375
47		76.171875
48		68.359375
49		74.218750
50		68.359375
51		70.312500
52		64.453125
53		72.265625
54		64.453125
55		72.265625
56		62.500000
57		70.312500
58		62.500000
59		70.312500
60		60.546875
61		68.359375
62		60.546875
63		66.406250
64		60.546875
65		66.406250
66		60.546875
67		62.500000
68		58.593750
69		62.500000
70		56.640625
71		62.500000
72		54.687500
73		60.546875
74		54.687500
75		60.546875
76		52.734375
77		58.593750
78		52.734375
79		58.593750
80		48.828125
81		56.640625
82		50.781250
83		54.687500
84		48.828125
85		52.734375
86		46.875000
87		52.734375
88		42.968750
89		50.781250
90		42.968750
91		50.781250
92		41.015625
93		48.828125
94		39.062500
95		46.875000
96		39.062500
97		44.921875
98		37.109375
99		44.921875
100		39.062500
101		41.015625
102		35.156250
103		39.062500
104		33.203125
105		39.062500
106		31.250000
107		39.062500
108		29.296875
109		37.109375
110		27.343750
111		35.156250
112		27.343750
113		33.203125
114		25.390625
115		33.203125
116		25.390625
117		29.296875
118		25.390625
119		27.343750
120		21.484375
121		27.343750
122		19.531250
123		27.343750
124		17.578125
125		25.390625
126		15.625000
127		23.437500
128		13.671875
129		21.484375
130		11.718750
131		19.531250
132		11.718750
133		17.578125
134		11.718750
135		15.625000
136		7.812500
137		13.671875
138		5.859375
139		13.671875
140		3.906250
141		11.718750
142		1.953125
143		9.765625
144		1.953125
145		9.765625
146		0.000000
147		7.812500
148		-1.953125
149		5.859375
150		-1.953125
151		1.953125
152		-1.953125
153		0.000000
154		-5.859375
155		0.000000
156		-7.812500
157		-1.953125
158		-9.765625
159		-1.953125
160		-11.718750
161		-3.906250
162		-11.718750
163		-5.859375
164		-13.671875
165		-7.812500
166		-13.671875
167		-7.812500
168		-15.625000
169		-11.718750
170		-19.531250
171		-11.718750
172		-19.531250
173		-13.671875
174		-21.484375
175		-13.671875
176		-23.437500
177		-15.625000
178		-23.437500
179		-17.578125
180		-25.390625
181		-17.578125
182		-25.390625
183		-19.531250
184		-25.390625
185		-23.437500
186		-27.343750
187		-23.437500
188		-31.250000
189		-23.437500
190		-31.250000
191		-25.390625
192		-33.203125
193		-27.343750
194		-35.156250
195		-27.343750
196		-37.109375
197		-29.296875
198		-37.109375
199		-29.296875
200		-35.156250
201		-31.250000
202		-37.109375
203		-33.203125
204		-39.062500
205		-33.203125
206		-41.015625
207		-33.203125
208		-41.015625
209		-35.156250
210		-42.968750
211		-35.156250
212		-42.968750
213		-37.109375
214		-42.968750
215		-37.109375
216		-44.921875
217		-39.062500
218		-42.968750
219		-41.015625
220		-46.875000
221		-41.015625
222		-46.875000
223		-41.015625
224		-48.828125
225		-41.015625
226		-48.828125
227		-41.015625
228		-48.828125
229		-42.968750
230		-48.828125
231		-42.968750
232		-50.781250
233		-42.968750
234		-48.828125
235		-46.875000
236		-48.828125
237		-46.875000
238		-52.734375
239		-44.921875
240		-52.734375
241		-44.921875
242		-52.734375
243		-44.921875
244		-52.734375
245		-44.921875
246		-52.734375
247		-46.875000
248		-52.734375
249		-46.875000
250		-52.734375
251		-46.875000
252		-50.781250
253		-48.828125
254		-52.734375
255		-46.875000
256		-54.687500
257		-46.875000
258		-52.734375
259		-46.875000
260		-52.734375
261		-46.875000
262		-52.734375
263		-46.875000
264		-52.734375
265		-46.875000
266		-52.734375
267		-46.875000
268		-50.781250
269		-48.828125
270		-50.781250
271		-46.875000
272		-52.734375
273		-44.921875
274		-52.734375
275		-44.921875
276		-50.781250
277		-44.921875
278		-50.781250
279		-42.968750
280		-50.781250
281		-42.968750
282		-50.781250
283		-42.968750
284		-46.875000
285		-44.921875
286		-46.875000
287		-44.921875
288		-48.828125
289		-41.015625
290		-46.875000
291		-41.015625
292		-46.875000
293		-41.015625
294		-44.921875
295		-39.062500
296		-44.921875
297		-39.062500
298		-44.921875
299		-37.109375
300		-42.968750
301		-37.109375
302		-41.015625
303		-37.109375
304		-39.062500
305		-35.156250
306		-41.015625
307		-33.203125
308		-39.062500
309		-33.203125
310		-39.062500
311		-31.250000
312		-37.109375
313		-29.296875
314		-37.109375
315		-29.296875
316		-35.156250
317		-29.296875
318		-31.250000
319		-29.296875
320		-31.250000
321		-27.343750
322		-31.250000
323		-23.437500
324		-29.296875
325		-23.437500
326		-29.296875
327		-21.484375
328		-27.343750
329		-19.531250
330		-27.343750
331		-19.531250
332		-25.390625
333		-17.578125
334		-23.437500
335		-17.578125
336		-19.531250
337		-17.578125
338		-19.531250
339		-13.671875
340		-17.578125
341		-11.718750
342		-17.578125
343		-11.718750
344		-15.625000
345		-9.765625
346		-15.625000
347		-7.812500
348		-13.671875
349		-5.859375
350		-11.718750
351		-5.859375
352		-7.812500
353		-3.906250
354		-5.859375
355		-3.906250
356		-5.859375
357		0.000000
358		-5.859375
359		1.953125
360		-3.906250
361		3.906250
362		-1.953125
363		3.906250
364		0.000000
365		5.859375
366		0.000000
367		7.812500
368		3.906250
369		7.812500
370		5.859375
371		9.765625
372		5.859375
373		11.718750
374		7.812500
375		13.671875
376		9.765625
377		15.625000
378		9.765625
379		17.578125
380		13.671875
381		19.531250
382		13.671875
383		21.484375
384		15.625000
385		21.484375
386		19.531250
387		21.484375
388		21.484375
389		25.390625
390		19.531250
391		27.343750
392		21.484375
393		29.296875
394		23.437500
395		31.250000
396		25.390625
397		33.203125
398		27.343750
399		33.203125
400		27.343750
401		35.156250
402		31.250000
403		35.156250
404		33.203125
405		37.109375
406		33.203125
407		39.062500
408		35.156250
409		41.015625
410		35.156250
411		42.968750
412		37.109375
413		44.921875
414		39.062500
415		44.921875
416		41.015625
417		46.875000
418		42.968750
419		46.875000
420		44.921875
421		48.828125
422		44.921875
423		50.781250
424		44.921875
425		52.734375
426		46.875000
427		52.734375
428		46.875000
429		54.687500
430		50.781250
431		56.640625
432		50.781250
433		58.593750
434		52.734375
435		58.593750
436		54.687500
437		58.593750
438		56.640625
439		58.593750
440		56.640625
441		62.500000
442		56.640625
443		64.453125
444		58.593750
445		64.453125
446		58.593750
447		66.406250
448		60.546875
449		66.406250
450		60.546875
451		68.359375
452		62.500000
453		66.406250
454		64.453125
455		68.359375
456		64.453125
457		70.312500
458		64.453125
459		72.265625
460		66.406250
461		72.265625
462		66.406250
463		72.265625
464		68.359375
465		74.218750
466		68.359375
467		76.171875
468		68.359375
469		74.218750
470		72.265625
471		74.218750
472		72.265625
473		76.171875
474		72.265625
475		78.125000
476		72.265625
477		78.125000
478		72.265625
479		78.125000
480		72.265625
481		80.078125
482		72.265625
483		80.078125
484		74.218750
485		80.078125
486		76.171875
487		78.125000
488		76.171875
489		80.078125
490		76.171875
491		82.031250
492		76.171875
493		82.031250
494		76.171875
495		82.031250
496		76.171875
497		82.031250
498		76.171875
499		83.984375
500		76.171875
501		83.984375
502		78.125000
503		83.984375
504		80.078125
505		82.031250
506		76.171875
507		83.984375
508		78.125000
509		83.984375
510		78.125000
511		83.984375
512		78.125000
513		83.984375
514		78.125000
515		83.984375
516		78.125000
517		83.984375
518		78.125000
519		83.984375
520		80.078125
521		82.031250
522		78.125000
523		82.031250
524		76.171875
525		83.984375
526		76.171875
527		82.031250
528		76.171875
529		83.984375
530		76.171875
531		82.031250
532		74.218750
533		82.031250
534		74.218750
535		82.031250
536		76.171875
537		80.078125
538		76.171875
539		78.125000
540		74.218750
541		80.078125
542		74.218750
543		80.078125
544		72.265625
545		80.078125
546		72.265625
547		80.078125
548		72.265625
549		78.125000
550		72.265625
551		78.125000
552		70.312500
553		78.125000
554		72.265625
555		74.218750
556		70.312500
557		74.218750
558		68.359375
559		74.218750
560		66.406250
561		74.218750
562		66.406250
563		74.218750
564		66.406250
565		72.265625
566		64.453125
567		72.265625
568		64.453125
569		70.312500
570		64.453125
571		68.359375
572		64.453125
573		66.406250
574		60.546875
575		68.359375
576		60.546875
577		66.406250
578		58.593750
579		64.453125
580		58.593750
581		64.453125
582		56.640625
583		62.500000
584		54.687500
585		62.500000
586		56.640625
587		60.546875
588		54.687500
589		58.593750
590		52.734375
591		56.640625
592		50.781250
593		56.640625
594		50.781250
595		56.640625
596		46.875000
597		54.687500
598		46.875000
599		54.687500
600		44.921875
601		52.734375
602		44.921875
603		50.781250
604		44.921875
605		46.875000
606		42.968750
607		46.875000
608		41.015625
609		46.875000
610		39.062500
611		44.921875
612		37.109375
613		42.968750
614		35.156250
615		42.968750
616		35.156250
617		41.015625
618		33.203125
619		39.062500
620		33.203125
621		37.109375
622		31.250000
623		35.156250
624		27.343750
625		33.203125
626		25.390625
627		33.203125
628		23.437500
629		31.250000
630		23.437500
631		29.296875
632		21.484375
633		29.296875
634		19.531250
635		27.343750
636		19.531250
637		25.390625
638		19.531250
639		21.484375
640		15.625000
641		19.531250
642		13.671875
643		21.484375
644		11.718750
645		19.531250
646		9.765625
647		17.578125
648		9.765625
649		15.625000
650		5.859375
651		13.671875
652		5.859375
653		11.718750
654		5.859375
655		9.765625
656		3.906250
657		7.812500
658		0.000000
659		5.859375
660		-1.953125
661		5.859375
662		-3.906250
663		3.906250
664		-3.906250
665		1.953125
666		-5.859375
667		1.953125
668		-7.812500
669		0.000000
670		-7.812500
671		-1.953125
672		-7.812500
673		-5.859375
674		-11.718750
675		-7.812500
676		-15.625000
677		-5.859375
678		-15.625000
679		-7.812500
680		-17.578125
681		-9.765625
682		-17.578125
683		-11.718750
684		-19.531250
685		-11.718750
686		-21.484375
687		-13.671875
688		-21.484375
689		-17.578125
690		-21.484375
691		-17.578125
692		-25.390625
693		-17.578125
694		-27.343750
695		-19.531250
696		-27.343750
697		-21.484375
698		-29.296875
699		-21.484375
700		-31.250000
701		-23.437500
702		-31.250000
703		-25.390625
704		-31.250000
705		-27.343750
706		-31.250000
707		-29.296875
708		-35.156250
709		-29.296875
710		-37.109375
711		-29.296875
712		-39.062500
713		-31.250000
714		-39.062500
715		-31.250000
716		-39.062500
717		-33.203125
718		-41.015625
719		-33.203125
720		-41.015625
721		-35.156250
722		-41.015625
723		-37.109375
724		-41.015625
725		-39.062500
726		-44.921875
727		-37.109375
728		-44.921875
729		-39.062500
730		-44.921875
731		-39.062500
732		-46.875000
733		-39.062500
734		-46.875000
735		-41.015625
736		-48.828125
737		-41.015625
738		-46.875000
739		-44.921875
740		-46.875000
741		-44.921875
742		-50.781250
743		-42.968750
744		-50.781250
745		-44.921875
746		-50.781250
747		-44.921875
748		-50.781250
749		-44.921875
750		-50.781250
751		-44.921875
752		-52.734375
753		-44.921875
754		-52.734375
755		-46.875000
756		-50.781250
757		-48.828125
758		-52.734375
759		-46.875000
760		-52.734375
761		-46.875000
762		-52.734375
763		-46.875000
764		-52.734375
765		-46.875000
766		-52.734375
767		-46.875000
768		-52.734375
769		-46.875000
770		-52.734375
771		-46.875000
772		-50.781250
773		-48.828125
774		-50.781250
775		-48.828125
776		-52.734375
777		-46.875000
778		-52.734375
779		-46.875000
780		-52.734375
781		-44.921875
782		-52.734375
783		-44.921875
784		-50.781250
785		-44.921875
786		-50.781250
787		-44.921875
788		-50.781250
789		-46.875000
790		-48.828125
791		-46.875000
792		-50.781250
793		-42.968750
794		-50.781250
795		-42.968750
796		-48.828125
797		-42.968750
798		-48.828125
799		-41.015625
800		-48.828125
801		-41.015625
802		-46.875000
803		-39.062500
804		-46.875000
805		-41.015625
806		-42.968750
807		-41.015625
808		-42.968750
809		-41.015625
810		-44.921875
811		-37.109375
812		-42.968750
813		-35.156250
814		-42.968750
815		-35.156250
816		-41.015625
817		-35.156250
818		-41.015625
819		-33.203125
820		-39.062500
821		-31.250000
822		-37.109375
823		-33.203125
824		-35.156250
825		-33.203125
826		-35.156250
827		-29.296875
828		-35.156250
829		-27.343750
830		-33.203125
831		-27.343750
832		-33.203125
833		-25.390625
834		-31.250000
835		-23.437500
836		-29.296875
837		-23.437500
838		-29.296875
839		-23.437500
840		-25.390625
841		-23.437500
842		-25.390625
843		-19.531250
844		-25.390625
845		-17.578125
846		-23.437500
847		-17.578125
848		-21.484375
849		-15.625000
850		-21.484375
851		-13.671875
852		-19.531250
853		-13.671875
854		-17.578125
855		-11.718750
856		-13.671875
857		-11.718750
858		-13.671875
859		-9.765625
860		-13.671875
861		-5.859375
862		-13.671875
863		-5.859375
864		-11.718750
865		-3.906250
866		-9.765625
867		-1.953125
868		-7.812500
869		0.000000
870		-5.859375
871		1.953125
872		-3.906250
873		0.000000
874		-1.953125
875		1.953125
876		0.000000
877		5.859375
878		0.000000
879		7.812500
880		1.953125
881		7.812500
882		3.906250
883		9.765625
884		5.859375
885		11.718750
886		5.859375
887		13.671875
888		7.812500
889		13.671875
890		11.718750
891		15.625000
892		13.671875
893		15.625000
894		11.718750
895		19.531250
896		13.671875
897		21.484375
898		15.625000
899		23.437500
900		17.578125
901		25.390625
902		19.531250
903		27.343750
904		21.484375
905		27.343750
906		25.390625
907		27.343750
908		25.390625
909		29.296875
910		27.343750
911		33.203125
912		27.343750
913		33.203125
914		29.296875
915		35.156250
916		31.250000
917		37.109375
918		31.250000
919		39.062500
920		33.203125
921		41.015625
922		35.156250
923		39.062500
924		39.062500
925		41.015625
926		39.062500
927		44.921875
928		39.062500
929		44.921875
930		41.015625
931		46.875000
932		42.968750
933		48.828125
934		42.968750
935		50.781250
936		44.921875
937		50.781250
938		46.875000
939		52.734375
940		48.828125
941		52.734375
942		50.781250
943		52.734375
944		50.781250
945		56.640625
946		50.781250
947		58.593750
948		52.734375
949		58.593750
950		52.734375
951		60.546875
952		54.687500
953		62.500000
954		56.640625
955		62.500000
956		56.640625
957		62.500000
958		60.546875
959		62.500000
960		58.593750
961		66.406250
962		60.546875
963		68.359375
964		62.500000
965		68.359375
966		62.500000
967		68.359375
968		62.500000
969		70.312500
970		64.453125
971		70.312500
972		64.453125
973		72.265625
974		68.359375
975		70.312500
976		68.359375
977		72.265625
978		68.359375
979		74.218750
980		68.359375
981		74.218750
982		70.312500
983		76.171875
984		70.312500
985		76.171875
986		70.312500
987		76.171875
988		70.312500
989		78.125000
990		72.265625
991		76.171875
992		74.218750
993		78.125000
994		74.218750
995		80.078125
996		74.218750
997		80.078125
998		74.218750
999		80.078125
1000		74.218750
1001		82.031250
1002		74.218750
1003		82.031250
1004		76.171875
1005		82.031250
1006		76.171875
1007		82.031250
1008		78.125000
1009		80.078125
1010		76.171875
1011		82.031250
1012		76.171875
1013		82.031250
1014		76.171875
1015		83.984375
1016		76.171875
1017		83.984375
1018		78.125000
1019		83.984375
1020		78.125000
1021		83.984375
1022		78.125000
1023		83.984375
1024		80.078125
1025		82.031250
1026		80.078125
1027		82.031250
1028		78.125000
1029		83.984375
1030		78.125000
1031		83.984375
1032		76.171875
1033		83.984375
1034		76.171875
1035		83.984375
1036		76.171875
1037		83.984375
1038		76.171875
1039		83.984375
1040		76.171875
1041		82.031250
1042		78.125000
1043		80.078125
1044		76.171875
1045		82.031250
1046		74.218750
1047		82.031250
1048		76.171875
1049		82.031250
1050		74.218750
1051		82.031250
1052		74.218750
1053		80.078125
1054		74.218750
1055		80.078125
1056		72.265625
1057		80.078125
1058		74.218750
1059		78.125000
1060		74.218750
1061		76.171875
1062		72.265625
1063		78.125000
1064		70.312500
1065		78.125000
1066		70.312500
1067		76.171875
1068		68.359375
1069		76.171875
1070		68.359375
1071		74.218750
1072		66.406250
1073		74.218750
1074		68.359375
1075		74.218750
1076		68.359375
1077		70.312500
1078		64.453125
1079		72.265625
1080		66.406250
1081		72.265625
1082		62.500000
1083		70.312500
1084		62.500000
1085		70.312500
1086		62.500000
1087		68.359375
1088		60.546875
1089		68.359375
1090		60.546875
1091		66.406250
1092		60.546875
1093		62.500000
1094		56.640625
1095		62.500000
1096		56.640625
1097		64.453125
1098		54.687500
1099		62.500000
1100		52.734375
1101		60.546875
1102		52.734375
1103		58.593750
1104		50.781250
1105		58.593750
1106		50.781250
1107		56.640625
1108		50.781250
1109		52.734375
1110		48.828125
1111		52.734375
1112		46.875000
1113		52.734375
1114		44.921875
1115		50.781250
1116		44.921875
1117		50.781250
1118		41.015625
1119		48.828125
1120		41.015625
1121		46.875000
1122		39.062500
1123		46.875000
1124		39.062500
1125		44.921875
1126		39.062500
1127		41.015625
1128		35.156250
1129		41.015625
1130		33.203125
1131		41.015625
1132		31.250000
1133		39.062500
1134		29.296875
1135		37.109375
1136		27.343750
1137		35.156250
1138		27.343750
1139		35.156250
1140		25.390625
1141		33.203125
1142		25.390625
1143		29.296875
1144		23.437500
1145		27.343750
1146		21.484375
1147		27.343750
1148		19.531250
1149		27.343750
1150		17.578125
1151		25.390625
1152		15.625000
1153		23.437500
1154		13.671875
1155		21.484375
1156		13.671875
1157		19.531250
1158		13.671875
1159		17.578125
1160		11.718750
1161		13.671875
1162		7.812500
1163		13.671875
1164		5.859375
1165		13.671875
1166		3.906250
1167		11.718750
1168		3.906250
1169		9.765625
1170		1.953125
1171		7.812500
1172		0.000000
1173		7.812500
1174		0.000000
1175		5.859375
1176		-1.953125
1177		1.953125
1178		-3.906250
1179		0.000000
1180		-7.812500
1181		1.953125
1182		-7.812500
1183		-1.953125
1184		-9.765625
1185		-1.953125
1186		-9.765625
1187		-3.906250
1188		-13.671875
1189		-5.859375
1190		-13.671875
1191		-7.812500
1192		-13.671875
1193		-9.765625
1194		-15.625000
1195		-11.718750
1196		-17.578125
1197		-11.718750
1198		-21.484375
1199		-13.671875
1200		-21.484375
1201		-13.671875
1202		-23.437500
1203		-15.625000
1204		-23.437500
1205		-17.578125
1206		-25.390625
1207		-19.531250
1208		-27.343750
1209		-21.484375
1210		-27.343750
1211		-23.437500
1212		-29.296875
1213		-23.437500
1214		-31.250000
1215		-23.437500
1216		-33.203125
1217		-25.390625
1218		-33.203125
1219		-27.343750
1220		-35.156250
1221		-27.343750
1222		-35.156250
1223		-29.296875
1224		-37.109375
1225		-29.296875
1226		-35.156250
1227		-33.203125
1228		-37.109375
1229		-33.203125
1230		-41.015625
1231		-33.203125
1232		-41.015625
1233		-35.156250
1234		-42.968750
1235		-35.156250
1236		-42.968750
1237		-35.156250
1238		-44.921875
1239		-37.109375
1240		-44.921875
1241		-39.062500
1242		-42.968750
1243		-41.015625
1244		-44.921875
1245		-41.015625
1246		-46.875000
1247		-41.015625
1248		-48.828125
1249		-41.015625
1250		-48.828125
1251		-42.968750
1252		-48.828125
1253		-42.968750
1254		-48.828125
1255		-42.968750
1256		-50.781250
1257		-42.968750
1258		-50.781250
1259		-44.921875
1260		-48.828125
1261		-46.875000
1262		-52.734375
1263		-46.875000
1264		-52.734375
1265		-44.921875
1266		-52.734375
1267		-44.921875
1268		-52.734375
1269		-46.875000
1270		-52.734375
1271		-46.875000
1272		-54.687500
1273		-46.875000
1274		-52.734375
1275		-46.875000
1276		-50.781250
1277		-48.828125
1278		-50.781250
1279		-48.828125
1280		-52.734375
1281		-46.875000
1282		-54.687500
1283		-46.875000
1284		-52.734375
1285		-46.875000
1286		-52.734375
1287		-46.875000
1288		-54.687500
1289		-46.875000
1290		-52.734375
1291		-46.875000
1292		-52.734375
1293		-46.875000
1294		-50.781250
1295		-48.828125
1296		-52.734375
1297		-46.875000
1298		-52.734375
1299		-44.921875
1300		-50.781250
1301		-44.921875
1302		-50.781250
1303		-44.921875
1304		-50.781250
1305		-44.921875
1306		-50.781250
1307		-42.968750
1308		-50.781250
1309		-42.968750
1310		-46.875000
1311		-44.921875
1312		-46.875000
1313		-42.968750
1314		-48.828125
1315		-41.015625
1316		-46.875000
1317		-41.015625
1318		-46.875000
1319		-39.062500
1320		-46.875000
1321		-39.062500
1322		-44.921875
1323		-39.062500
1324		-42.968750
1325		-37.109375
1326		-41.015625
1327		-39.062500
1328		-39.062500
1329		-37.109375
1330		-41.015625
1331		-35.156250
1332		-41.015625
1333		-33.203125
1334		-39.062500
1335		-33.203125
1336		-39.062500
1337		-31.250000
1338		-37.109375
1339		-31.250000
1340		-35.156250
1341		-29.296875
1342		-35.156250
1343		-29.296875
1344		-31.250000
1345		-27.343750
1346		-29.296875
1347		-27.343750
1348		-31.250000
1349		-23.437500
1350		-29.296875
1351		-23.437500
1352		-29.296875
1353		-21.484375
1354		-27.343750
1355		-21.484375
1356		-25.390625
1357		-17.578125
1358		-25.390625
1359		-17.578125
1360		-21.484375
1361		-17.578125
1362		-19.531250
1363		-17.578125
1364		-19.531250
1365		-13.671875
1366		-17.578125
1367		-11.718750
1368		-17.578125
1369		-11.718750
1370		-15.625000
1371		-9.765625
1372		-13.671875
1373		-7.812500
1374		-13.671875
1375		-5.859375
1376		-11.718750
1377		-5.859375
1378		-7.812500
1379		-5.859375
1380		-5.859375
1381		-1.953125
1382		-5.859375
1383		-1.953125
1384		-3.906250
1385		0.000000
1386		-1.953125
1387		1.953125
1388		-1.953125
1389		3.906250
1390		0.000000
1391		5.859375
1392		1.953125
1393		5.859375
1394		3.906250
1395		7.812500
1396		5.859375
1397		9.765625
1398		5.859375
1399		11.718750
1400		9.765625
1401		13.671875
1402		9.765625
1403		13.671875
1404		11.718750
1405		15.625000
1406		11.718750
1407		17.578125
1408		13.671875
1409		21.484375
1410		15.625000
1411		19.531250
1412		19.531250
1413		21.484375
1414		19.531250
1415		25.390625
1416		19.531250
1417		27.343750
1418		23.437500
1419		27.343750
1420		25.390625
1421		29.296875
1422		25.390625
1423		31.250000
1424		27.343750
1425		33.203125
1426		27.343750
1427		35.156250
1428		31.250000
1429		35.156250
1430		31.250000
1431		35.156250
1432		33.203125
1433		37.109375
1434		35.156250
1435		39.062500
1436		37.109375
1437		41.015625
1438		39.062500
1439		41.015625
1440		39.062500
1441		44.921875
1442		41.015625
1443		46.875000
1444		42.968750
1445		44.921875
1446		44.921875
1447		46.875000
1448		44.921875
1449		48.828125
1450		46.875000
1451		50.781250
1452		48.828125
1453		50.781250
1454		48.828125
1455		52.734375
1456		50.781250
1457		54.687500
1458		50.781250
1459		56.640625
1460		52.734375
1461		56.640625
1462		54.687500
1463		56.640625
1464		54.687500
1465		58.593750
1466		56.640625
1467		60.546875
1468		58.593750
1469		60.546875
1470		58.593750
1471		62.500000
1472		60.546875
1473		62.500000
1474		60.546875
1475		64.453125
1476		62.500000
1477		66.406250
1478		62.500000
1479		66.406250
1480		64.453125
1481		66.406250
1482		64.453125
1483		68.359375
1484		66.406250
1485		68.359375
1486		66.406250
1487		70.312500
1488		68.359375
1489		70.312500
1490		68.359375
1491		72.265625
1492		68.359375
1493		72.265625
1494		68.359375
1495		74.218750
1496		70.312500
1497		74.218750
1498		72.265625
1499		74.218750
1500		72.265625
1501		76.171875
1502		72.265625
1503		76.171875
1504		74.218750
1505		76.171875
1506		74.218750
1507		78.125000
1508		74.218750
1509		78.125000
1510		76.171875
1511		78.125000
1512		76.171875
1513		78.125000
1514		76.171875
1515		80.078125
1516		76.171875
1517		80.078125
1518		76.171875
1519		80.078125
1520		78.125000
1521		80.078125
1522		78.125000
1523		80.078125
1524		78.125000
1525		80.078125
1526		78.125000
1527		82.031250
1528		78.125000
1529		80.078125
1530		78.125000
1531		82.031250
1532		78.125000
1533		82.031250
1534		78.125000
1535		82.031250
1536		78.125000
1537		82.031250
1538		78.125000
1539		82.031250
1540		78.125000
1541		82.031250
1542		78.125000
1543		82.031250
1544		78.125000
1545		82.031250
1546		78.125000
1547		82.031250
1548		78.125000
1549		82.031250
1550		78.125000
1551		82.031250
1552		78.125000
1553		82.031250
1554		78.125000
1555		82.031250
1556		78.125000
1557		80.078125
1558		76.171875
1559		80.078125
1560		76.171875
1561		80.078125
1562		78.125000
1563		80.078125
1564		76.171875
1565		78.125000
1566		76.171875
1567		80.078125
1568		76.171875
1569		78.125000
1570		74.218750
1571		78.125000
1572		74.218750
1573		76.171875
1574		72.265625
1575		76.171875
1576		72.265625
1577		76.171875
1578		72.265625
1579		76.171875
1580		72.265625
1581		74.218750
1582		70.312500
1583		74.218750
1584		70.312500
1585		74.218750
1586		68.359375
1587		72.265625
1588		68.359375
1589		72.265625
1590		68.359375
1591		70.312500
1592		66.406250
1593		70.312500
1594		66.406250
1595		70.312500
1596		64.453125
1597		68.359375
1598		64.453125
1599		66.406250
1600		62.500000
1601		68.359375
1602		62.500000
1603		66.406250
1604		60.546875
1605		64.453125
1606		60.546875
1607		62.500000
1608		58.593750
1609		62.500000
1610		56.640625
1611		60.546875
1612		56.640625
1613		60.546875
1614		54.687500
1615		58.593750
1616		54.687500
1617		58.593750
1618		52.734375
1619		56.640625
1620		50.781250
1621		54.687500
1622		50.781250
1623		52.734375
1624		48.828125
1625		52.734375
1626		46.875000
1627		50.781250
1628		46.875000
1629		50.781250
1630		44.921875
1631		46.875000
1632		42.968750
1633		46.875000
1634		41.015625
1635		44.921875
1636		41.015625
1637		42.968750
1638		39.062500
1639		42.968750
1640		37.109375
1641		41.015625
1642		35.156250
1643		39.062500
1644		33.203125
1645		39.062500
1646		33.203125
1647		37.109375
1648		31.250000
1649		35.156250
1650		29.296875
1651		33.203125
1652		29.296875
1653		31.250000
1654		25.390625
1655		31.250000
1656		25.390625
1657		29.296875
1658		23.437500
1659		27.343750
1660		21.484375
1661		25.390625
1662		19.531250
1663		23.437500
1664		19.531250
1665		21.484375
1666		15.625000
1667		21.484375
1668		15.625000
1669		19.531250
1670		13.671875
1671		17.578125
1672		11.718750
1673		15.625000
1674		9.765625
1675		13.671875
1676		9.765625
1677		11.718750
1678		7.812500
1679		11.718750
1680		5.859375
1681		9.765625
1682		3.906250
1683		7.812500
1684		1.953125
1685		7.812500
1686		0.000000
1687		5.859375
1688		0.000000
1689		3.906250
1690		-1.953125
1691		1.953125
1692		-3.906250
1693		0.000000
1694		-5.859375
1695		-1.953125
1696		-5.859375
1697		-1.953125
1698		-7.812500
1699		-5.859375
1700		-9.765625
1701		-5.859375
1702		-11.718750
1703		-7.812500
1704		-13.671875
1705		-9.765625
1706		-15.625000
1707		-9.765625
1708		-15.625000
1709		-11.718750
1710		-17.578125
1711		-13.671875
1712		-19.531250
1713		-15.625000
1714		-19.531250
1715		-17.578125
1716		-21.484375
1717		-17.578125
1718		-23.437500
1719		-19.531250
1720		-23.437500
1721		-21.484375
1722		-27.343750
1723		-21.484375
1724		-27.343750
1725		-23.437500
1726		-29.296875
1727		-25.390625
1728		-29.296875
1729		-25.390625
1730		-31.250000
1731		-27.343750
1732		-31.250000
1733		-29.296875
1734		-33.203125
1735		-29.296875
1736		-35.156250
1737		-31.250000
1738		-37.109375
1739		-33.203125
1740		-37.109375
1741		-33.203125
1742		-37.109375
1743		-33.203125
1744		-39.062500
1745		-35.156250
1746		-39.062500
1747		-37.109375
1748		-41.015625
1749		-37.109375
1750		-42.968750
1751		-37.109375
1752		-42.968750
1753		-39.062500
1754		-42.968750
1755		-41.015625
1756		-42.968750
1757		-41.015625
1758		-44.921875
1759		-42.968750
1760		-44.921875
1761		-42.968750
1762		-46.875000
1763		-42.968750
1764		-46.875000
1765		-44.921875
1766		-46.875000
1767		-44.921875
1768		-48.828125
1769		-44.921875
1770		-48.828125
1771		-44.921875
1772		-48.828125
1773		-46.875000
1774		-48.828125
1775		-46.875000
1776		-50.781250
1777		-46.875000
1778		-50.781250
1779		-46.875000
1780		-50.781250
1781		-46.875000
1782		-50.781250
1783		-48.828125
1784		-52.734375
1785		-48.828125
1786		-52.734375
1787		-48.828125
1788		-50.781250
1789		-48.828125
1790		-52.734375
1791		-48.828125
1792		-52.734375
1793		-48.828125
1794		-52.734375
1795		-48.828125
1796		-52.734375
1797		-48.828125
1798		-50.781250
1799		-48.828125
1800		-52.734375
1801		-48.828125
1802		-52.734375
1803		-48.828125
1804		-50.781250
1805		-48.828125
1806		-50.781250
1807		-48.828125
1808		-50.781250
1809		-48.828125
1810		-50.781250
1811		-48.828125
1812		-50.781250
1813		-46.875000
1814		-48.828125
1815		-46.875000
1816		-48.828125
1817		-46.875000
1818		-48.828125
1819		-44.921875
1820		-48.828125
1821		-44.921875
1822		-48.828125
1823		-44.921875
1824		-46.875000
1825		-44.921875
1826		-46.875000
1827		-42.968750
1828		-46.875000
1829		-42.968750
1830		-46.875000
1831		-41.015625
1832		-44.921875
1833		-41.015625
1834		-42.968750
1835		-41.015625
1836		-42.968750
1837		-39.062500
1838		-42.968750
1839		-39.062500
1840		-41.015625
1841		-39.062500
1842		-41.015625
1843		-37.109375
1844		-39.062500
1845		-37.109375
1846		-39.062500
1847		-35.156250
1848		-37.109375
1849		-35.156250
1850		-37.109375
1851		-33.203125
1852		-37.109375
1853		-31.250000
1854		-35.156250
1855		-31.250000
1856		-33.203125
1857		-29.296875
1858		-31.250000
1859		-27.343750
1860		-31.250000
1861		-27.343750
1862		-29.296875
1863		-25.390625
1864		-29.296875
1865		-25.390625
1866		-27.343750
1867		-23.437500
1868		-25.390625
1869		-21.484375
1870		-23.437500
1871		-19.531250
1872		-23.437500
1873		-19.531250
1874		-21.484375
1875		-17.578125
1876		-19.531250
1877		-15.625000
1878		-17.578125
1879		-15.625000
1880		-17.578125
1881		-13.671875
1882		-15.625000
1883		-11.718750
1884		-13.671875
1885		-9.765625
1886		-13.671875
1887		-7.812500
1888		-11.718750
1889		-7.812500
1890		-9.765625
1891		-5.859375
1892		-7.812500
1893		-3.906250
1894		-5.859375
1895		-1.953125
1896		-5.859375
1897		-1.953125
1898		-3.906250
1899		0.000000
1900		-1.953125
1901		1.953125
1902		0.000000
1903		3.906250
1904		0.000000
1905		3.906250
1906		1.953125
1907		5.859375
1908		3.906250
1909		7.812500
1910		5.859375
1911		9.765625
1912		7.812500
1913		11.718750
1914		7.812500
1915		13.671875
1916		11.718750
1917		13.671875
1918		11.718750
1919		17.578125
1920		13.671875
1921		17.578125
1922		15.625000
1923		19.531250
1924		17.578125
1925		21.484375
1926		19.531250
1927		23.437500
1928		19.531250
1929		23.437500
1930		21.484375
1931		25.390625
1932		23.437500
1933		27.343750
1934		25.390625
1935		29.296875
1936		25.390625
1937		31.250000
1938		29.296875
1939		31.250000
1940		29.296875
1941		33.203125
1942		31.250000
1943		35.156250
1944		33.203125
1945		37.109375
1946		33.203125
1947		39.062500
1948		35.156250
1949		39.062500
1950		37.109375
1951		41.015625
1952		39.062500
1953		42.968750
1954		41.015625
1955		42.968750
1956		41.015625
1957		44.921875
1958		42.968750
1959		46.875000
1960		44.921875
1961		48.828125
1962		44.921875
1963		48.828125
1964		46.875000
1965		50.781250
1966		48.828125
1967		50.781250
1968		50.781250
1969		54.687500
1970		50.781250
1971		54.687500
1972		52.734375
1973		56.640625
1974		52.734375
1975		56.640625
1976		54.687500
1977		58.593750
1978		54.687500
1979		60.546875
1980		56.640625
1981		60.546875
1982		58.593750
1983		60.546875
1984		58.593750
1985		62.500000
1986		60.546875
1987		64.453125
1988		60.546875
1989		64.453125
1990		62.500000
1991		66.406250
1992		62.500000
1993		68.359375
1994		64.453125
1995		68.359375
1996		64.453125
1997		68.359375
1998		66.406250
1999		70.312500
2000		68.359375
2001		70.312500
2002		68.359375
2003		72.265625
2004		68.359375
2005		72.265625
2006		68.359375
2007		72.265625
2008		70.312500
2009		72.265625
2010		70.312500
2011		74.218750
2012		72.265625
2013		74.218750
2014		72.265625
2015		76.171875
2016		74.218750
2017		76.171875
2018		74.218750
2019		76.171875
2020		74.218750
2021		78.125000
2022		74.218750
2023		78.125000
2024		74.218750
2025		78.125000
2026		76.171875
2027		78.125000
2028		76.171875
2029		78.125000
2030		76.171875
2031		80.078125
2032		76.171875
2033		80.078125
2034		78.125000
2035		80.078125
2036		76.171875
2037		82.031250
2038		78.125000
2039		80.078125
2040		78.125000
2041		82.031250
2042		78.125000
2043		82.031250
2044		78.125000
2045		82.031250
2046		78.125000
2047		82.031250
2048		78.125000
2049		82.031250
2050		78.125000
2051		82.031250
2052		78.125000
2053		80.078125
2054		78.125000
2055		82.031250
2056		78.125000
2057		82.031250
2058		78.125000
2059		82.031250
2060		78.125000
2061		82.031250
2062		78.125000
2063		82.031250
2064		78.125000
2065		82.031250
2066		78.125000
2067		80.078125
2068		78.125000
2069		80.078125
2070		76.171875
2071		80.078125
2072		76.171875
2073		80.078125
2074		76.171875
2075		80.078125
2076		76.171875
2077		78.125000
2078		76.171875
2079		78.125000
2080		74.218750
2081		78.125000
2082		74.218750
2083		78.125000
2084		74.218750
2085		76.171875
2086		72.265625
2087		76.171875
2088		72.265625
2089		76.171875
2090		72.265625
2091		76.171875
2092		72.265625
2093		76.171875
2094		70.312500
2095		74.218750
2096		70.312500
2097		74.218750
2098		68.359375
2099		72.265625
2100		68.359375
2101		72.265625
2102		68.359375
2103		70.312500
2104		66.406250
2105		70.312500
2106		66.406250
2107		68.359375
2108		66.406250
2109		68.359375
2110		64.453125
2111		66.406250
2112		62.500000
2113		66.406250
2114		62.500000
2115		66.406250
2116		60.546875
2117		64.453125
2118		60.546875
2119		64.453125
2120		58.593750
2121		62.500000
2122		58.593750
2123		60.546875
2124		56.640625
2125		60.546875
2126		56.640625
2127		58.593750
2128		54.687500
2129		58.593750
2130		52.734375
2131		56.640625
2132		50.781250
2133		56.640625
2134		50.781250
2135		52.734375
2136		48.828125
2137		52.734375
2138		48.828125
2139		52.734375
2140		46.875000
2141		50.781250
2142		44.921875
2143		48.828125
2144		42.968750
2145		46.875000
2146		41.015625
2147		46.875000
2148		41.015625
2149		44.921875
2150		39.062500
2151		42.968750
2152		39.062500
2153		41.015625
2154		35.156250
2155		41.015625
2156		35.156250
2157		39.062500
2158		33.203125
2159		37.109375
2160		31.250000
2161		35.156250
2162		31.250000
2163		33.203125
2164		29.296875
2165		33.203125
2166		27.343750
2167		31.250000
2168		25.390625
2169		29.296875
2170		23.437500
2171		27.343750
2172		23.437500
2173		25.390625
2174		21.484375
2175		25.390625
2176		19.531250
2177		23.437500
2178		17.578125
2179		21.484375
2180		15.625000
2181		19.531250
2182		13.671875
2183		17.578125
2184		13.671875
2185		15.625000
2186		11.718750
2187		15.625000
2188		9.765625
2189		13.671875
2190		7.812500
2191		11.718750
2192		7.812500
2193		11.718750
2194		5.859375
2195		7.812500
2196		3.906250
2197		7.812500
2198		1.953125
2199		5.859375
2200		0.000000
2201		5.859375
2202		-1.953125
2203		1.953125
2204		-3.906250
2205		0.000000
2206		-3.906250
2207		0.000000
2208		-5.859375
2209		-1.953125
2210		-7.812500
2211		-3.906250
2212		-9.765625
2213		-5.859375
2214		-11.718750
2215		-7.812500
2216		-11.718750
2217		-7.812500
2218		-13.671875
2219		-9.765625
2220		-15.625000
2221		-11.718750
2222		-15.625000
2223		-11.718750
2224		-17.578125
2225		-15.625000
2226		-19.531250
2227		-15.625000
2228		-21.484375
2229		-17.578125
2230		-21.484375
2231		-17.578125
2232		-23.437500
2233		-21.484375
2234		-25.390625
2235		-21.484375
2236		-25.390625
2237		-23.437500
2238		-27.343750
2239		-23.437500
2240		-29.296875
2241		-25.390625
2242		-31.250000
2243		-27.343750
2244		-31.250000
2245		-27.343750
2246		-33.203125
2247		-29.296875
2248		-35.156250
2249		-29.296875
2250		-35.156250
2251		-31.250000
2252		-35.156250
2253		-33.203125
2254		-37.109375
2255		-33.203125
2256		-39.062500
2257		-35.156250
2258		-39.062500
2259		-37.109375
2260		-39.062500
2261		-37.109375
2262		-41.015625
2263		-37.109375
2264		-42.968750
2265		-39.062500
2266		-44.921875
2267		-39.062500
2268		-42.968750
2269		-41.015625
2270		-44.921875
2271		-41.015625
2272		-44.921875
2273		-42.968750
2274		-46.875000
2275		-42.968750
2276		-46.875000
2277		-42.968750
2278		-46.875000
2279		-44.921875
2280		-46.875000
2281		-44.921875
2282		-48.828125
2283		-44.921875
2284		-48.828125
2285		-44.921875
2286		-48.828125
2287		-46.875000
2288		-50.781250
2289		-46.875000
2290		-50.781250
2291		-46.875000
2292		-50.781250
2293		-46.875000
2294		-50.781250
2295		-46.875000
2296		-50.781250
2297		-48.828125
2298		-50.781250
2299		-48.828125
2300		-52.734375
2301		-48.828125
2302		-50.781250
2303		-48.828125
2304		-50.781250
2305		-48.828125
2306		-52.734375
2307		-48.828125
2308		-52.734375
2309		-48.828125
2310		-50.781250
2311		-48.828125
2312		-52.734375
2313		-48.828125
2314		-52.734375
2315		-48.828125
2316		-52.734375
2317		-48.828125
2318		-52.734375
2319		-48.828125
2320		-50.781250
2321		-48.828125
2322		-50.781250
2323		-48.828125
2324		-50.781250
2325		-46.875000
2326		-50.781250
2327		-46.875000
2328		-48.828125
2329		-46.875000
2330		-48.828125
2331		-46.875000
2332		-48.828125
2333		-44.921875
2334		-48.828125
2335		-44.921875
2336		-46.875000
2337		-44.921875
2338		-46.875000
2339		-42.968750
2340		-46.875000
2341		-42.968750
2342		-44.921875
2343		-42.968750
2344		-44.921875
2345		-42.968750
2346		-44.921875
2347		-41.015625
2348		-42.968750
2349		-41.015625
2350		-42.968750
2351		-39.062500
2352		-41.015625
2353		-39.062500
2354		-41.015625
2355		-37.109375
2356		-41.015625
2357		-37.109375
2358		-39.062500
2359		-35.156250
2360		-39.062500
2361		-35.156250
2362		-37.109375
2363		-33.203125
2364		-37.109375
2365		-33.203125
2366		-35.156250
2367		-31.250000
2368		-33.203125
2369		-31.250000
2370		-31.250000
2371		-29.296875
2372		-31.250000
2373		-27.343750
2374		-29.296875
2375		-27.343750
2376		-29.296875
2377		-25.390625
2378		-27.343750
2379		-25.390625
2380		-27.343750
2381		-23.437500
2382		-25.390625
2383		-21.484375
2384		-23.437500
2385		-19.531250
2386		-21.484375
2387		-19.531250
2388		-21.484375
2389		-17.578125
2390		-21.484375
2391		-15.625000
2392		-17.578125
2393		-13.671875
2394		-17.578125
2395		-13.671875
2396		-15.625000
2397		-11.718750
2398		-13.671875
2399		-9.765625
2400		-11.718750
2401		-7.812500
2402		-11.718750
2403		-7.812500
2404		-9.765625
2405		-5.859375
2406		-7.812500
2407		-3.906250
2408		-5.859375
2409		-1.953125
2410		-3.906250
2411		0.000000
2412		-3.906250
2413		0.000000
2414		-1.953125
2415		1.953125
2416		0.000000
2417		3.906250
2418		1.953125
2419		5.859375
2420		3.906250
2421		5.859375
2422		5.859375
2423		9.765625
2424		5.859375
2425		9.765625
2426		7.812500
2427		11.718750
2428		9.765625
2429		13.671875
2430		11.718750
2431		15.625000
2432		13.671875
2433		17.578125
2434		15.625000
2435		19.531250
2436		15.625000
2437		19.531250
2438		17.578125
2439		21.484375
2440		19.531250
2441		23.437500
2442		21.484375
2443		25.390625
2444		23.437500
2445		27.343750
2446		23.437500
2447		27.343750
2448		25.390625
2449		29.296875
2450		27.343750
2451		31.250000
2452		27.343750
2453		33.203125
2454		31.250000
2455		33.203125
2456		31.250000
2457		35.156250
2458		33.203125
2459		37.109375
2460		35.156250
2461		39.062500
2462		37.109375
2463		39.062500
2464		37.109375
2465		41.015625
2466		39.062500
2467		42.968750
2468		41.015625
2469		44.921875
2470		42.968750
2471		44.921875
2472		42.968750
2473		46.875000
2474		44.921875
2475		48.828125
2476		46.875000
2477		50.781250
2478		46.875000
2479		50.781250
2480		48.828125
2481		52.734375
2482		50.781250
2483		52.734375
2484		50.781250
2485		54.687500
2486		52.734375
2487		56.640625
2488		52.734375
2489		56.640625
2490		54.687500
2491		58.593750
2492		56.640625
2493		60.546875
2494		58.593750
2495		60.546875
2496		58.593750
2497		62.500000
2498		60.546875
2499		62.500000
2500		60.546875
2501		64.453125
2502		62.500000
2503		64.453125
2504		62.500000
2505		66.406250
2506		64.453125
2507		68.359375
2508		64.453125
2509		68.359375
2510		66.406250
2511		68.359375
2512		66.406250
2513		70.312500
2514		68.359375
2515		70.312500
2516		68.359375
2517		72.265625
2518		68.359375
2519		72.265625
2520		70.312500
2521		72.265625
2522		70.312500
2523		74.218750
2524		70.312500
2525		74.218750
2526		72.265625
2527		76.171875
2528		72.265625
2529		76.171875
2530		72.265625
2531		76.171875
2532		74.218750
2533		76.171875
2534		74.218750
2535		78.125000
2536		74.218750
2537		78.125000
2538		76.171875
2539		78.125000
2540		76.171875
2541		80.078125
2542		76.171875
2543		80.078125
2544		76.171875
2545		80.078125
2546		78.125000
2547		80.078125
2548		76.171875
2549		80.078125
2550		78.125000
2551		82.031250
2552		78.125000
2553		82.031250
2554		78.125000
2555		80.078125
2556		78.125000
2557		82.031250
2558		78.125000
2559		82.031250
2560		78.125000
2561		82.031250
2562		78.125000
2563		82.031250
2564		78.125000
2565		82.031250
2566		78.125000
2567		82.031250
2568		78.125000
2569		82.031250
2570		78.125000
2571		82.031250
2572		78.125000
2573		82.031250
2574		78.125000
2575		82.031250
2576		78.125000
2577		82.031250
2578		78.125000
2579		82.031250
2580		78.125000
2581		80.078125
2582		78.125000
2583		80.078125
2584		78.125000
2585		80.078125
2586		76.171875
2587		80.078125
2588		76.171875
2589		80.078125
2590		76.171875
2591		80.078125
2592		76.171875
2593		78.125000
2594		74.218750
2595		78.125000
2596		74.218750
2597		78.125000
2598		74.218750
2599		78.125000
2600		72.265625
2601		76.171875
2602		72.265625
2603		76.171875
2604		72.265625
2605		74.218750
2606		72.265625
2607		74.218750
2608		70.312500
2609		74.218750
2610		70.312500
2611		74.218750
2612		68.359375
2613		72.265625
2614		68.359375
2615		72.265625
2616		68.359375
2617		70.312500
2618		66.406250
2619		70.312500
2620		66.406250
2621		70.312500
2622		64.453125
2623		68.359375
2624		62.500000
2625		66.406250
2626		62.500000
2627		66.406250
2628		62.500000
2629		66.406250
2630		60.546875
2631		64.453125
2632		58.593750
2633		62.500000
2634		58.593750
2635		62.500000
2636		56.640625
2637		60.546875
2638		56.640625
2639		58.593750
2640		54.687500
2641		58.593750
2642		54.687500
2643		58.593750
2644		52.734375
2645		56.640625
2646		50.781250
2647		54.687500
2648		50.781250
2649		52.734375
2650		48.828125
2651		52.734375
2652		46.875000
2653		50.781250
2654		46.875000
2655		48.828125
2656		44.921875
2657		48.828125
2658		42.968750
2659		46.875000
2660		42.968750
2661		44.921875
2662		41.015625
2663		44.921875
2664		39.062500
2665		42.968750
2666		37.109375
2667		41.015625
2668		35.156250
2669		41.015625
2670		35.156250
2671		39.062500
2672		33.203125
2673		37.109375
2674		31.250000
2675		35.156250
2676		29.296875
2677		35.156250
2678		29.296875
2679		33.203125
2680		27.343750
2681		31.250000
2682		25.390625
2683		29.296875
2684		23.437500
2685		27.343750
2686		21.484375
2687		25.390625
2688		21.484375
2689		23.437500
2690		19.531250
2691		23.437500
2692		17.578125
2693		21.484375
2694		15.625000
2695		19.531250
2696		13.671875
2697		17.578125
2698		11.718750
2699		17.578125
2700		11.718750
2701		15.625000
2702		9.765625
2703		13.671875
2704		7.812500
2705		11.718750
2706		5.859375
2707		9.765625
2708		3.906250
2709		7.812500
2710		3.906250
2711		7.812500
2712		1.953125
2713		5.859375
2714		0.000000
2715		3.906250
2716		-1.953125
2717		1.953125
2718		-3.906250
2719		0.000000
2720		-5.859375
2721		-1.953125
2722		-5.859375
2723		-3.906250
2724		-7.812500
2725		-3.906250
2726		-9.765625
2727		-5.859375
2728		-11.718750
2729		-7.812500
2730		-11.718750
2731		-9.765625
2732		-13.671875
2733		-9.765625
2734		-15.625000
2735		-11.718750
2736		-17.578125
2737		-13.671875
2738		-19.531250
2739		-15.625000
2740		-19.531250
2741		-17.578125
2742		-21.484375
2743		-17.578125
2744		-23.437500
2745		-19.531250
2746		-25.390625
2747		-21.484375
2748		-25.390625
2749		-21.484375
2750		-27.343750
2751		-23.437500
2752		-27.343750
2753		-23.437500
2754		-29.296875
2755		-25.390625
2756		-29.296875
2757		-27.343750
2758		-31.250000
2759		-29.296875
2760		-33.203125
2761		-29.296875
2762		-33.203125
2763		-31.250000
2764		-35.156250
2765		-31.250000
2766		-35.156250
2767		-33.203125
2768		-37.109375
2769		-33.203125
2770		-39.062500
2771		-35.156250
2772		-39.062500
2773		-35.156250
2774		-39.062500
2775		-37.109375
2776		-41.015625
2777		-37.109375
2778		-42.968750
2779		-39.062500
2780		-42.968750
2781		-39.062500
2782		-42.968750
2783		-41.015625
2784		-44.921875
2785		-41.015625
2786		-44.921875
2787		-41.015625
2788		-46.875000
2789		-42.968750
2790		-46.875000
2791		-42.968750
2792		-48.828125
2793		-44.921875
2794		-46.875000
2795		-44.921875
2796		-48.828125
2797		-44.921875
2798		-48.828125
2799		-44.921875
2800		-48.828125
2801		-44.921875
2802		-50.781250
2803		-46.875000
2804		-50.781250
2805		-46.875000
2806		-50.781250
2807		-46.875000
2808		-50.781250
2809		-46.875000
2810		-50.781250
2811		-46.875000
2812		-50.781250
2813		-48.828125
2814		-50.781250
2815		-48.828125
2816		-52.734375
2817		-48.828125
2818		-52.734375
2819		-48.828125
2820		-52.734375
2821		-48.828125
2822		-52.734375
2823		-48.828125
2824		-50.781250
2825		-48.828125
2826		-52.734375
2827		-48.828125
2828		-50.781250
2829		-48.828125
2830		-50.781250
2831		-48.828125
2832		-52.734375
2833		-46.875000
2834		-50.781250
2835		-46.875000
2836		-50.781250
2837		-46.875000
2838		-50.781250
2839		-46.875000
2840		-48.828125
2841		-46.875000
2842		-48.828125
2843		-46.875000
2844		-48.828125
2845		-44.921875
2846		-48.828125
2847		-44.921875
2848		-46.875000
2849		-44.921875
2850		-46.875000
2851		-44.921875
2852		-46.875000
2853		-42.968750
2854		-46.875000
2855		-42.968750
2856		-44.921875
2857		-42.968750
2858		-44.921875
2859		-41.015625
2860		-44.921875
2861		-41.015625
2862		-42.968750
2863		-39.062500
2864		-42.968750
2865		-39.062500
2866		-41.015625
2867		-37.109375
2868		-41.015625
2869		-37.109375
2870		-39.062500
2871		-37.109375
2872		-39.062500
2873		-35.156250
2874		-37.109375
2875		-35.156250
2876		-35.156250
2877		-33.203125
2878		-35.156250
2879		-31.250000
2880		-35.156250
2881		-31.250000
2882		-33.203125
2883		-29.296875
2884		-31.250000
2885		-29.296875
2886		-31.250000
2887		-27.343750
2888		-29.296875
2889		-25.390625
2890		-27.343750
2891		-25.390625
2892		-27.343750
2893		-23.437500
2894		-27.343750
2895		-21.484375
2896		-25.390625
2897		-21.484375
2898		-23.437500
2899		-19.531250
2900		-21.484375
2901		-17.578125
2902		-21.484375
2903		-15.625000
2904		-19.531250
2905		-15.625000
2906		-17.578125
2907		-13.671875
2908		-15.625000
2909		-11.718750
2910		-13.671875
2911		-9.765625
2912		-11.718750
2913		-9.765625
2914		-11.718750
2915		-7.812500
2916		-9.765625
2917		-5.859375
2918		-7.812500
2919		-3.906250
2920		-5.859375
2921		-3.906250
2922		-5.859375
2923		-1.953125
2924		-3.906250
2925		0.000000
2926		-1.953125
2927		1.953125
2928		-1.953125
2929		3.906250
2930		1.953125
2931		5.859375
2932		3.906250
2933		5.859375
2934		3.906250
2935		7.812500
2936		5.859375
2937		9.765625
2938		7.812500
2939		11.718750
2940		7.812500
2941		11.718750
2942		11.718750
2943		13.671875
2944		13.671875
2945		15.625000
2946		13.671875
2947		17.578125
2948		15.625000
2949		19.531250
2950		17.578125
2951		21.484375
2952		19.531250
2953		21.484375
2954		19.531250
2955		23.437500
2956		21.484375
2957		25.390625
2958		23.437500
2959		27.343750
2960		25.390625
2961		29.296875
2962		27.343750
2963		31.250000
2964		29.296875
2965		31.250000
2966		29.296875
2967		33.203125
2968		31.250000
2969		35.156250
2970		33.203125
2971		37.109375
2972		35.156250
2973		39.062500
2974		35.156250
2975		39.062500
2976		37.109375
2977		41.015625
2978		37.109375
2979		42.968750
2980		39.062500
2981		42.968750
2982		41.015625
2983		44.921875
2984		42.968750
2985		46.875000
2986		44.921875
2987		48.828125
2988		44.921875
2989		48.828125
2990		46.875000
2991		50.781250
2992		48.828125
2993		52.734375
2994		48.828125
2995		52.734375
2996		50.781250
2997		54.687500
2998		52.734375
2999		56.640625
3000		54.687500
3001		56.640625
3002		54.687500
3003		58.593750
3004		56.640625
3005		60.546875
3006		56.640625
3007		60.546875
3008		58.593750
3009		60.546875
3010		60.546875
3011		62.500000
3012		60.546875
3013		64.453125
3014		60.546875
3015		66.406250
3016		62.500000
3017		66.406250
3018		62.500000
3019		66.406250
3020		64.453125
3021		68.359375
3022		66.406250
3023		68.359375
3024		64.453125
3025		68.359375
3026		66.406250
3027		70.312500
3028		68.359375
3029		72.265625
3030		68.359375
3031		74.218750
3032		70.312500
3033		74.218750
3034		70.312500
3035		74.218750
3036		72.265625
3037		74.218750
3038		72.265625
3039		74.218750
3040		72.265625
3041		76.171875
3042		74.218750
3043		76.171875
3044		74.218750
3045		78.125000
3046		74.218750
3047		78.125000
3048		74.218750
3049		78.125000
3050		76.171875
3051		78.125000
3052		76.171875
3053		80.078125
3054		76.171875
3055		80.078125
3056		76.171875
3057		80.078125
3058		78.125000
3059		80.078125
3060		78.125000
3061		80.078125
3062		78.125000
3063		80.078125
3064		78.125000
3065		80.078125
3066		78.125000
3067		82.031250
3068		80.078125
3069		82.031250
3070		80.078125
3071		82.031250
3072		80.078125
3073		82.031250
3074		78.125000
3075		82.031250
3076		80.078125
3077		82.031250
3078		80.078125
3079		82.031250
3080		80.078125
3081		82.031250
3082		80.078125
3083		82.031250
3084		80.078125
3085		82.031250
3086		78.125000
3087		82.031250
3088		78.125000
3089		82.031250
3090		78.125000
3091		82.031250
3092		78.125000
3093		82.031250
3094		78.125000
3095		80.078125
3096		78.125000
3097		82.031250
3098		78.125000
3099		82.031250
3100		76.171875
3101		80.078125
3102		76.171875
3103		80.078125
3104		76.171875
3105		80.078125
3106		76.171875
3107		80.078125
3108		76.171875
3109		80.078125
3110		76.171875
3111		78.125000
3112		74.218750
3113		78.125000
3114		74.218750
3115		76.171875
3116		74.218750
3117		76.171875
3118		72.265625
3119		76.171875
3120		72.265625
3121		74.218750
3122		70.312500
3123		74.218750
3124		70.312500
3125		74.218750
3126		70.312500
3127		72.265625
3128		68.359375
3129		72.265625
3130		68.359375
3131		70.312500
3132		66.406250
3133		70.312500
3134		66.406250
3135		70.312500
3136		64.453125
3137		68.359375
3138		64.453125
3139		68.359375
3140		62.500000
3141		66.406250
3142		62.500000
3143		64.453125
3144		60.546875
3145		64.453125
3146		60.546875
3147		62.500000
3148		58.593750
3149		62.500000
3150		56.640625
3151		60.546875
3152		56.640625
3153		58.593750
3154		54.687500
3155		58.593750
3156		54.687500
3157		56.640625
3158		52.734375
3159		56.640625
3160		52.734375
3161		54.687500
3162		50.781250
3163		52.734375
3164		48.828125
3165		52.734375
3166		46.875000
3167		50.781250
3168		46.875000
3169		48.828125
3170		44.921875
3171		48.828125
3172		42.968750
3173		46.875000
3174		41.015625
3175		44.921875
3176		41.015625
3177		42.968750
3178		39.062500
3179		42.968750
3180		37.109375
3181		41.015625
3182		35.156250
3183		39.062500
3184		33.203125
3185		37.109375
3186		33.203125
3187		37.109375
3188		31.250000
3189		35.156250
3190		29.296875
3191		33.203125
3192		29.296875
3193		33.203125
3194		27.343750
3195		29.296875
3196		23.437500
3197		29.296875
3198		23.437500
3199		27.343750
3200		21.484375
3201		25.390625
3202		19.531250
3203		23.437500
3204		17.578125
3205		21.484375
3206		17.578125
3207		21.484375
3208		15.625000
3209		19.531250
3210		13.671875
3211		17.578125
3212		11.718750
3213		15.625000
3214		9.765625
3215		15.625000
3216		7.812500
3217		11.718750
3218		7.812500
3219		11.718750
3220		5.859375
3221		9.765625
3222		3.906250
3223		7.812500
3224		0.000000
3225		5.859375
3226		1.953125
3227		5.859375
3228		0.000000
3229		1.953125
3230		-1.953125
3231		1.953125
3232		-3.906250
3233		0.000000
3234		-5.859375
3235		-1.953125
3236		-7.812500
3237		-3.906250
3238		-7.812500
3239		-5.859375
3240		-9.765625
3241		-5.859375
3242		-11.718750
3243		-7.812500
3244		-13.671875
3245		-9.765625
3246		-15.625000
3247		-11.718750
3248		-17.578125
3249		-11.718750
3250		-17.578125
3251		-13.671875
3252		-19.531250
3253		-15.625000
3254		-21.484375
3255		-17.578125
3256		-21.484375
3257		-17.578125
3258		-23.437500
3259		-19.531250
3260		-23.437500
3261		-21.484375
3262		-25.390625
3263		-23.437500
3264		-27.343750
3265		-23.437500
3266		-29.296875
3267		-25.390625
3268		-29.296875
3269		-25.390625
3270		-31.250000
3271		-27.343750
3272		-31.250000
3273		-29.296875
3274		-33.203125
3275		-29.296875
3276		-35.156250
3277		-31.250000
3278		-35.156250
3279		-33.203125
3280		-37.109375
3281		-33.203125
3282		-37.109375
3283		-33.203125
3284		-39.062500
3285		-35.156250
3286		-39.062500
3287		-37.109375
3288		-41.015625
3289		-37.109375
3290		-41.015625
3291		-37.109375
3292		-42.968750
3293		-39.062500
3294		-42.968750
3295		-41.015625
3296		-42.968750
3297		-41.015625
3298		-44.921875
3299		-41.015625
3300		-44.921875
3301		-41.015625
3302		-44.921875
3303		-42.968750
3304		-46.875000
3305		-42.968750
3306		-46.875000
3307		-44.921875
3308		-48.828125
3309		-44.921875
3310		-48.828125
3311		-44.921875
3312		-48.828125
3313		-46.875000
3314		-50.781250
3315		-44.921875
3316		-50.781250
3317		-46.875000
3318		-48.828125
3319		-46.875000
3320		-50.781250
3321		-46.875000
3322		-50.781250
3323		-46.875000
3324		-50.781250
3325		-48.828125
3326		-50.781250
3327		-46.875000
3328		-50.781250
3329		-48.828125
3330		-52.734375
3331		-48.828125
3332		-50.781250
3333		-48.828125
3334		-52.734375
3335		-48.828125
3336		-50.781250
3337		-48.828125
3338		-50.781250
3339		-48.828125
3340		-50.781250
3341		-48.828125
3342		-50.781250
3343		-46.875000
3344		-50.781250
3345		-48.828125
3346		-50.781250
3347		-48.828125
3348		-50.781250
3349		-46.875000
3350		-50.781250
3351		-46.875000
3352		-50.781250
3353		-46.875000
3354		-48.828125
3355		-46.875000
3356		-48.828125
3357		-44.921875
3358		-48.828125
3359		-44.921875
3360		-48.828125
3361		-44.921875
3362		-46.875000
3363		-44.921875
3364		-46.875000
3365		-42.968750
3366		-46.875000
3367		-42.968750
3368		-44.921875
3369		-41.015625
3370		-44.921875
3371		-41.015625
3372		-44.921875
3373		-41.015625
3374		-42.968750
3375		-39.062500
3376		-42.968750
3377		-39.062500
3378		-41.015625
3379		-39.062500
3380		-41.015625
3381		-37.109375
3382		-41.015625
3383		-37.109375
3384		-39.062500
3385		-35.156250
3386		-39.062500
3387		-35.156250
3388		-37.109375
3389		-33.203125
3390		-37.109375
3391		-31.250000
3392		-35.156250
3393		-31.250000
3394		-33.203125
3395		-31.250000
3396		-31.250000
3397		-29.296875
3398		-31.250000
3399		-27.343750
3400		-29.296875
3401		-25.390625
3402		-29.296875
3403		-25.390625
3404		-27.343750
3405		-23.437500
3406		-27.343750
3407		-23.437500
3408		-25.390625
3409		-21.484375
3410		-23.437500
3411		-19.531250
3412		-21.484375
3413		-19.531250
3414		-19.531250
3415		-17.578125
3416		-19.531250
3417		-15.625000
3418		-17.578125
3419		-13.671875
3420		-17.578125
3421		-13.671875
3422		-15.625000
3423		-11.718750
3424		-13.671875
3425		-9.765625
3426		-11.718750
3427		-7.812500
3428		-9.765625
3429		-7.812500
3430		-9.765625
3431		-5.859375
3432		-7.812500
3433		-3.906250
3434		-5.859375
3435		-1.953125
3436		-3.906250
3437		0.000000
3438		-1.953125
3439		0.000000
3440		-1.953125
3441		1.953125
3442		0.000000
3443		3.906250
3444		1.953125
3445		5.859375
3446		3.906250
3447		7.812500
3448		5.859375
3449		9.765625
3450		5.859375
3451		9.765625
3452		7.812500
3453		11.718750
3454		9.765625
3455		13.671875
3456		11.718750
3457		15.625000
3458		13.671875
3459		17.578125
3460		13.671875
3461		19.531250
3462		17.578125
3463		19.531250
3464		17.578125
3465		21.484375
3466		17.578125
3467		23.437500
3468		21.484375
3469		25.390625
3470		23.437500
3471		25.390625
3472		23.437500
3473		27.343750
3474		25.390625
3475		29.296875
3476		27.343750
3477		31.250000
3478		29.296875
3479		31.250000
3480		31.250000
3481		33.203125
3482		31.250000
3483		37.109375
3484		33.203125
3485		37.109375
3486		35.156250
3487		39.062500
3488		37.109375
3489		41.015625
3490		39.062500
3491		41.015625
3492		39.062500
3493		42.968750
3494		41.015625
3495		44.921875
3496		42.968750
3497		44.921875
3498		44.921875
3499		48.828125
3500		44.921875
3501		48.828125
3502		46.875000
3503		50.781250
3504		46.875000
3505		50.781250
3506		48.828125
3507		52.734375
3508		50.781250
3509		54.687500
3510		52.734375
3511		56.640625
3512		52.734375
3513		56.640625
3514		54.687500
3515		56.640625
3516		54.687500
3517		58.593750
3518		56.640625
3519		60.546875
3520		58.593750
3521		60.546875
3522		58.593750
3523		62.500000
3524		58.593750
3525		64.453125
3526		60.546875
3527		64.453125
3528		62.500000
3529		66.406250
3530		64.453125
3531		66.406250
3532		64.453125
3533		68.359375
3534		64.453125
3535		68.359375
3536		66.406250
3537		70.312500
3538		66.406250
3539		70.312500
3540		68.359375
3541		70.312500
3542		68.359375
3543		72.265625
3544		68.359375
3545		72.265625
3546		70.312500
3547		72.265625
3548		70.312500
3549		74.218750
3550		70.312500
3551		76.171875
3552		72.265625
3553		76.171875
3554		74.218750
3555		76.171875
3556		74.218750
3557		76.171875
3558		74.218750
3559		78.125000
3560		74.218750
3561		78.125000
3562		74.218750
3563		78.125000
3564		76.171875
3565		78.125000
3566		76.171875
3567		80.078125
3568		76.171875
3569		80.078125
3570		76.171875
3571		80.078125
3572		78.125000
3573		82.031250
3574		78.125000
3575		80.078125
3576		78.125000
3577		82.031250
3578		78.125000
3579		82.031250
3580		78.125000
3581		82.031250
3582		78.125000
3583		82.031250
3584		78.125000
3585		82.031250
3586		80.078125
3587		82.031250
3588		78.125000
3589		82.031250
3590		80.078125
3591		82.031250
3592		80.078125
3593		82.031250
3594		80.078125
3595		82.031250
3596		80.078125
3597		82.031250
3598		80.078125
3599		82.031250
3600		78.125000
3601		82.031250
3602		78.125000
3603		82.031250
3604		78.125000
3605		82.031250
3606		78.125000
3607		80.078125
3608		78.125000
3609		80.078125
3610		78.125000
3611		80.078125
3612		78.125000
3613		80.078125
3614		78.125000
3615		80.078125
3616		76.171875
3617		80.078125
3618		76.171875
3619		80.078125
3620		76.171875
3621		78.125000
3622		76.171875
3623		78.125000
3624		74.218750
3625		78.125000
3626		74.218750
3627		78.125000
3628		72.265625
3629		76.171875
3630		72.265625
3631		76.171875
3632		72.265625
3633		74.218750
3634		70.312500
3635		74.218750
3636		70.312500
3637		74.218750
3638		70.312500
3639		74.218750
3640		68.359375
3641		72.265625
3642		68.359375
3643		72.265625
3644		68.359375
3645		72.265625
3646		66.406250
3647		70.312500
3648		66.406250
3649		68.359375
3650		64.453125
3651		68.359375
3652		62.500000
3653		66.406250
3654		62.500000
3655		66.406250
3656		62.500000
3657		64.453125
3658		60.546875
3659		64.453125
3660		60.546875
3661		62.500000
3662		58.593750
3663		62.500000
3664		56.640625
3665		60.546875
3666		54.687500
3667		58.593750
3668		54.687500
3669		58.593750
3670		52.734375
3671		56.640625
3672		52.734375
3673		56.640625
3674		50.781250
3675		54.687500
3676		48.828125
3677		52.734375
3678		46.875000
3679		50.781250
3680		46.875000
3681		50.781250
3682		44.921875
3683		48.828125
3684		42.968750
3685		48.828125
3686		42.968750
3687		46.875000
3688		41.015625
3689		44.921875
3690		39.062500
3691		42.968750
3692		39.062500
3693		41.015625
3694		37.109375
3695		41.015625
3696		35.156250
3697		39.062500
3698		35.156250
3699		37.109375
3700		33.203125
3701		35.156250
3702		31.250000
3703		35.156250
3704		29.296875
3705		33.203125
3706		27.343750
3707		31.250000
3708		25.390625
3709		29.296875
3710		25.390625
3711		29.296875
3712		21.484375
3713		27.343750
3714		21.484375
3715		25.390625
3716		19.531250
3717		23.437500
3718		17.578125
3719		21.484375
3720		15.625000
3721		21.484375
3722		15.625000
3723		17.578125
3724		13.671875
3725		17.578125
3726		11.718750
3727		15.625000
3728		9.765625
3729		13.671875
3730		9.765625
3731		11.718750
3732		7.812500
3733		9.765625
3734		3.906250
3735		9.765625
3736		3.906250
3737		7.812500
3738		1.953125
3739		5.859375
3740		0.000000
3741		3.906250
3742		-1.953125
3743		1.953125
3744		-1.953125
3745		1.953125
3746		-5.859375
3747		0.000000
3748		-5.859375
3749		-1.953125
3750		-7.812500
3751		-3.906250
3752		-7.812500
3753		-5.859375
3754		-11.718750
3755		-5.859375
3756		-11.718750
3757		-7.812500
3758		-13.671875
3759		-9.765625
3760		-15.625000
3761		-11.718750
3762		-17.578125
3763		-13.671875
3764		-17.578125
3765		-15.625000
3766		-19.531250
3767		-15.625000
3768		-19.531250
3769		-15.625000
3770		-21.484375
3771		-17.578125
3772		-23.437500
3773		-19.531250
3774		-25.390625
3775		-21.484375
3776		-27.343750
3777		-23.437500
3778		-27.343750
3779		-23.437500
3780		-29.296875
3781		-25.390625
3782		-29.296875
3783		-27.343750
3784		-31.250000
3785		-27.343750
3786		-33.203125
3787		-27.343750
3788		-35.156250
3789		-29.296875
3790		-35.156250
3791		-31.250000
3792		-37.109375
3793		-31.250000
3794		-39.062500
3795		-33.203125
3796		-39.062500
3797		-33.203125
3798		-39.062500
3799		-37.109375
3800		-39.062500
3801		-37.109375
3802		-41.015625
3803		-37.109375
3804		-42.968750
3805		-37.109375
3806		-42.968750
3807		-39.062500
3808		-42.968750
3809		-39.062500
3810		-44.921875
3811		-41.015625
3812		-44.921875
3813		-41.015625
3814		-44.921875
3815		-42.968750
3816		-44.921875
3817		-42.968750
3818		-46.875000
3819		-42.968750
3820		-48.828125
3821		-44.921875
3822		-48.828125
3823		-42.968750
3824		-48.828125
3825		-44.921875
3826		-48.828125
3827		-44.921875
3828		-50.781250
3829		-44.921875
3830		-50.781250
3831		-46.875000
3832		-50.781250
3833		-46.875000
3834		-50.781250
3835		-46.875000
3836		-50.781250
3837		-46.875000
3838		-52.734375
3839		-46.875000
3840		-52.734375
3841		-46.875000
3842		-52.734375
3843		-46.875000
3844		-52.734375
3845		-46.875000
3846		-52.734375
3847		-46.875000
3848		-50.781250
3849		-48.828125
3850		-50.781250
3851		-48.828125
3852		-50.781250
3853		-46.875000
3854		-52.734375
3855		-46.875000
3856		-52.734375
3857		-46.875000
3858		-50.781250
3859		-46.875000
3860		-52.734375
3861		-46.875000
3862		-50.781250
3863		-46.875000
3864		-50.781250
3865		-46.875000
3866		-50.781250
3867		-46.875000
3868		-48.828125
3869		-44.921875
3870		-48.828125
3871		-44.921875
3872		-48.828125
3873		-44.921875
3874		-48.828125
3875		-42.968750
3876		-48.828125
3877		-42.968750
3878		-46.875000
3879		-42.968750
3880		-46.875000
3881		-42.968750
3882		-44.921875
3883		-41.015625
3884		-42.968750
3885		-41.015625
3886		-44.921875
3887		-39.062500
3888		-42.968750
3889		-39.062500
3890		-42.968750
3891		-37.109375
3892		-42.968750
3893		-37.109375
3894		-41.015625
3895		-35.156250
3896		-39.062500
3897		-35.156250
3898		-39.062500
3899		-35.156250
3900		-37.109375
3901		-33.203125
3902		-37.109375
3903		-31.250000
3904		-35.156250
3905		-31.250000
3906		-33.203125
3907		-31.250000
3908		-33.203125
3909		-29.296875
3910		-31.250000
3911		-29.296875
3912		-29.296875
3913		-27.343750
3914		-29.296875
3915		-25.390625
3916		-27.343750
3917		-25.390625
3918		-27.343750
3919		-23.437500
3920		-25.390625
3921		-21.484375
3922		-23.437500
3923		-21.484375
3924		-23.437500
3925		-19.531250
3926		-21.484375
3927		-17.578125
3928		-19.531250
3929		-17.578125
3930		-17.578125
3931		-15.625000
3932		-17.578125
3933		-13.671875
3934		-15.625000
3935		-11.718750
3936		-13.671875
3937		-11.718750
3938		-11.718750
3939		-9.765625
3940		-9.765625
3941		-7.812500
3942		-9.765625
3943		-5.859375
3944		-7.812500
3945		-3.906250
3946		-5.859375
3947		-3.906250
3948		-3.906250
3949		-1.953125
3950		-3.906250
3951		0.000000
3952		-1.953125
3953		1.953125
3954		0.000000
3955		3.906250
3956		1.953125
3957		3.906250
3958		1.953125
3959		5.859375
3960		3.906250
3961		7.812500
3962		5.859375
3963		9.765625
3964		7.812500
3965		11.718750
3966		9.765625
3967		11.718750
3968		11.718750
3969		13.671875
3970		11.718750
3971		15.625000
3972		13.671875
3973		17.578125
3974		15.625000
3975		19.531250
3976		17.578125
3977		21.484375
3978		19.531250
3979		21.484375
3980		21.484375
3981		23.437500
3982		21.484375
3983		25.390625
3984		23.437500
3985		27.343750
3986		25.390625
3987		29.296875
3988		27.343750
3989		29.296875
3990		27.343750
3991		31.250000
3992		29.296875
3993		33.203125
3994		31.250000
3995		35.156250
3996		33.203125
3997		35.156250
3998		35.156250
3999		37.109375
4000		35.156250
4001		39.062500
4002		37.109375
4003		41.015625
4004		35.156250
4005		44.921875
4006		37.109375
4007		46.875000
4008		39.062500
4009		46.875000
4010		42.968750
4011		46.875000
4012		44.921875
4013		46.875000
4014		46.875000
4015		50.781250
4016		46.875000
4017		50.781250
4018		48.828125
4019		50.781250
4020		46.875000
4021		56.640625
4022		48.828125
4023		56.640625
4024		50.781250
4025		58.593750
4026		52.734375
4027		56.640625
4028		54.687500
4029		58.593750
4030		56.640625
4031		58.593750
4032		56.640625
4033		60.546875
4034		58.593750
4035		60.546875
4036		58.593750
4037		64.453125
4038		58.593750
4039		66.406250
4040		58.593750
4041		66.406250
4042		60.546875
4043		68.359375
4044		64.453125
4045		66.406250
4046		64.453125
4047		68.359375
4048		66.406250
4049		68.359375
4050		66.406250
4051		68.359375
4052		68.359375
4053		70.312500
4054		64.453125
4055		74.218750
4056		66.406250
4057		74.218750
4058		66.406250
4059		76.171875
4060		70.312500
4061		74.218750
4062		72.265625
4063		74.218750
4064		72.265625
4065		74.218750
4066		72.265625
4067		76.171875
4068		74.218750
4069		76.171875
4070		72.265625
4071		80.078125
4072		70.312500
4073		80.078125
4074		72.265625
4075		82.031250
4076		72.265625
4077		82.031250
4078		76.171875
4079		78.125000
4080		76.171875
4081		80.078125
4082		78.125000
4083		80.078125
4084		78.125000
4085		80.078125
4086		78.125000
4087		80.078125
4088		74.218750
4089		83.984375
4090		76.171875
4091		83.984375
4092		76.171875
4093		83.984375
4094		80.078125
4095		82.031250
4096		80.078125
4097		82.031250
4098		80.078125
4099		82.031250
4100		78.125000
4101		82.031250
4102		80.078125
4103		82.031250
4104		76.171875
4105		85.937500
4106		76.171875
4107		85.937500
4108		76.171875
4109		85.937500
4110		80.078125
4111		82.031250
4112		80.078125
4113		82.031250
4114		80.078125
4115		82.031250
4116		80.078125
4117		82.031250
4118		80.078125
4119		82.031250
4120		74.218750
4121		83.984375
4122		74.218750
4123		83.984375
4124		74.218750
4125		83.984375
4126		74.218750
4127		83.984375
4128		78.125000
4129		80.078125
4130		78.125000
4131		80.078125
4132		76.171875
4133		80.078125
4134		76.171875
4135		78.125000
4136		76.171875
4137		78.125000
4138		70.312500
4139		82.031250
4140		72.265625
4141		80.078125
4142		70.312500
4143		80.078125
4144		74.218750
4145		76.171875
4146		72.265625
4147		74.218750
4148		72.265625
4149		74.218750
4150		70.312500
4151		74.218750
4152		70.312500
4153		72.265625
4154		66.406250
4155		74.218750
4156		66.406250
4157		74.218750
4158		64.453125
4159		74.218750
4160		64.453125
4161		72.265625
4162		66.406250
4163		68.359375
4164		64.453125
4165		68.359375
4166		64.453125
4167		66.406250
4168		62.500000
4169		66.406250
4170		62.500000
4171		64.453125
4172		58.593750
4173		68.359375
4174		56.640625
4175		66.406250
4176		54.687500
4177		64.453125
4178		56.640625
4179		60.546875
4180		56.640625
4181		58.593750
4182		54.687500
4183		58.593750
4184		52.734375
4185		56.640625
4186		52.734375
4187		54.687500
4188		50.781250
4189		54.687500
4190		46.875000
4191		54.687500
4192		46.875000
4193		54.687500
4194		46.875000
4195		50.781250
4196		44.921875
4197		48.828125
4198		44.921875
4199		46.875000
4200		42.968750
4201		44.921875
4202		41.015625
4203		44.921875
4204		39.062500
4205		42.968750
4206		35.156250
4207		42.968750
4208		33.203125
4209		42.968750
4210		35.156250
4211		39.062500
4212		33.203125
4213		37.109375
4214		33.203125
4215		35.156250
4216		31.250000
4217		35.156250
4218		29.296875
4219		33.203125
4220		27.343750
4221		31.250000
4222		25.390625
4223		31.250000
4224		23.437500
4225		29.296875
4226		23.437500
4227		27.343750
4228		21.484375
4229		25.390625
4230		19.531250
4231		23.437500
4232		17.578125
4233		21.484375
4234		17.578125
4235		19.531250
4236		13.671875
4237		17.578125
4238		13.671875
4239		17.578125
4240		11.718750
4241		15.625000
4242		9.765625
4243		13.671875
4244		7.812500
4245		11.718750
4246		5.859375
4247		9.765625
4248		5.859375
4249		7.812500
4250		3.906250
4251		7.812500
4252		1.953125
4253		5.859375
4254		0.000000
4255		3.906250
4256		0.000000
4257		1.953125
4258		-1.953125
4259		0.000000
4260		-3.906250
4261		0.000000
4262		-5.859375
4263		-1.953125
4264		-7.812500
4265		-3.906250
4266		-7.812500
4267		-5.859375
4268		-9.765625
4269		-7.812500
4270		-11.718750
4271		-7.812500
4272		-13.671875
4273		-9.765625
4274		-15.625000
4275		-11.718750
4276		-15.625000
4277		-13.671875
4278		-17.578125
4279		-15.625000
4280		-19.531250
4281		-15.625000
4282		-21.484375
4283		-17.578125
4284		-21.484375
4285		-19.531250
4286		-23.437500
4287		-19.531250
4288		-25.390625
4289		-21.484375
4290		-25.390625
4291		-21.484375
4292		-27.343750
4293		-23.437500
4294		-29.296875
4295		-25.390625
4296		-31.250000
4297		-27.343750
4298		-31.250000
4299		-27.343750
4300		-33.203125
4301		-29.296875
4302		-33.203125
4303		-29.296875
4304		-35.156250
4305		-31.250000
4306		-37.109375
4307		-31.250000
4308		-37.109375
4309		-33.203125
4310		-37.109375
4311		-35.156250
4312		-39.062500
4313		-35.156250
4314		-39.062500
4315		-35.156250
4316		-41.015625
4317		-37.109375
4318		-41.015625
4319		-39.062500
4320		-42.968750
4321		-39.062500
4322		-44.921875
4323		-39.062500
4324		-44.921875
4325		-41.015625
4326		-44.921875
4327		-42.968750
4328		-46.875000
4329		-42.968750
4330		-46.875000
4331		-42.968750
4332		-46.875000
4333		-42.968750
4334		-46.875000
4335		-44.921875
4336		-46.875000
4337		-44.921875
4338		-46.875000
4339		-44.921875
4340		-50.781250
4341		-44.921875
4342		-48.828125
4343		-44.921875
4344		-48.828125
4345		-46.875000
4346		-50.781250
4347		-46.875000
4348		-50.781250
4349		-46.875000
4350		-50.781250
4351		-48.828125
4352		-50.781250
4353		-48.828125
4354		-50.781250
4355		-48.828125
4356		-52.734375
4357		-46.875000
4358		-50.781250
4359		-48.828125
4360		-50.781250
4361		-48.828125
4362		-50.781250
4363		-46.875000
4364		-50.781250
4365		-48.828125
4366		-50.781250
4367		-46.875000
4368		-50.781250
4369		-48.828125
4370		-50.781250
4371		-48.828125
4372		-52.734375
4373		-46.875000
4374		-50.781250
4375		-46.875000
4376		-50.781250
4377		-46.875000
4378		-48.828125
4379		-46.875000
4380		-48.828125
4381		-46.875000
4382		-48.828125
4383		-46.875000
4384		-48.828125
4385		-44.921875
4386		-46.875000
4387		-44.921875
4388		-46.875000
4389		-44.921875
4390		-48.828125
4391		-42.968750
4392		-46.875000
4393		-42.968750
4394		-44.921875
4395		-42.968750
4396		-44.921875
4397		-41.015625
4398		-44.921875
4399		-41.015625
4400		-42.968750
4401		-41.015625
4402		-41.015625
4403		-39.062500
4404		-41.015625
4405		-39.062500
4406		-41.015625
4407		-37.109375
4408		-41.015625
4409		-35.156250
4410		-39.062500
4411		-35.156250
4412		-37.109375
4413		-33.203125
4414		-37.109375
4415		-33.203125
4416		-35.156250
4417		-33.203125
4418		-33.203125
4419		-31.250000
4420		-33.203125
4421		-31.250000
4422		-31.250000
4423		-29.296875
4424		-31.250000
4425		-27.343750
4426		-31.250000
4427		-27.343750
4428		-29.296875
4429		-25.390625
4430		-27.343750
4431		-23.437500
4432		-27.343750
4433		-23.437500
4434		-25.390625
4435		-21.484375
4436		-23.437500
4437		-19.531250
4438		-21.484375
4439		-19.531250
4440		-23.437500
4441		-15.625000
4442		-19.531250
4443		-15.625000
4444		-17.578125
4445		-13.671875
4446		-17.578125
4447		-11.718750
4448		-15.625000
4449		-11.718750
4450		-13.671875
4451		-9.765625
4452		-11.718750
4453		-7.812500
4454		-9.765625
4455		-7.812500
4456		-9.765625
4457		-5.859375
4458		-7.812500
4459		-3.906250
4460		-5.859375
4461		-1.953125
4462		-3.906250
4463		-1.953125
4464		-3.906250
4465		1.953125
4466		-1.953125
4467		1.953125
4468		0.000000
4469		3.906250
4470		1.953125
4471		5.859375
4472		3.906250
4473		5.859375
4474		5.859375
4475		7.812500
4476		7.812500
4477		9.765625
4478		7.812500
4479		11.718750
4480		9.765625
4481		13.671875
4482		11.718750
4483		15.625000
4484		13.671875
4485		17.578125
4486		15.625000
4487		17.578125
4488		17.578125
4489		19.531250
4490		17.578125
4491		21.484375
4492		19.531250
4493		23.437500
4494		21.484375
4495		25.390625
4496		23.437500
4497		25.390625
4498		25.390625
4499		27.343750
4500		25.390625
4501		29.296875
4502		27.343750
4503		31.250000
4504		29.296875
4505		33.203125
4506		31.250000
4507		33.203125
4508		33.203125
4509		35.156250
4510		33.203125
4511		37.109375
4512		35.156250
4513		39.062500
4514		37.109375
4515		39.062500
4516		39.062500
4517		41.015625
4518		39.062500
4519		42.968750
4520		41.015625
4521		44.921875
4522		42.968750
4523		46.875000
4524		42.968750
4525		46.875000
4526		44.921875
4527		48.828125
4528		46.875000
4529		48.828125
4530		48.828125
4531		50.781250
4532		48.828125
4533		52.734375
4534		50.781250
4535		54.687500
4536		52.734375
4537		54.687500
4538		52.734375
4539		56.640625
4540		54.687500
4541		56.640625
4542		56.640625
4543		58.593750
4544		56.640625
4545		60.546875
4546		56.640625
4547		60.546875
4548		58.593750
4549		62.500000
4550		60.546875
4551		62.500000
4552		60.546875
4553		64.453125
4554		62.500000
4555		64.453125
4556		62.500000
4557		66.406250
4558		64.453125
4559		66.406250
4560		64.453125
4561		68.359375
4562		66.406250
4563		68.359375
4564		66.406250
4565		70.312500
4566		68.359375
4567		70.312500
4568		68.359375
4569		72.265625
4570		70.312500
4571		72.265625
4572		70.312500
4573		72.265625
4574		72.265625
4575		74.218750
4576		72.265625
4577		74.218750
4578		72.265625
4579		76.171875
4580		74.218750
4581		76.171875
4582		74.218750
4583		76.171875
4584		74.218750
4585		76.171875
4586		74.218750
4587		78.125000
4588		76.171875
4589		78.125000
4590		76.171875
4591		78.125000
4592		76.171875
4593		80.078125
4594		78.125000
4595		80.078125
4596		78.125000
4597		80.078125
4598		78.125000
4599		80.078125
4600		78.125000
4601		80.078125
4602		78.125000
4603		82.031250
4604		78.125000
4605		82.031250
4606		80.078125
4607		82.031250
4608		78.125000
4609		82.031250
4610		78.125000
4611		82.031250
4612		80.078125
4613		82.031250
4614		80.078125
4615		82.031250
4616		80.078125
4617		82.031250
4618		80.078125
4619		82.031250
4620		80.078125
4621		82.031250
4622		80.078125
4623		82.031250
4624		78.125000
4625		83.984375
4626		78.125000
4627		83.984375
4628		78.125000
4629		83.984375
4630		80.078125
4631		82.031250
4632		78.125000
4633		82.031250
4634		78.125000
4635		82.031250
4636		78.125000
4637		80.078125
4638		78.125000
4639		80.078125
4640		78.125000
4641		80.078125
4642		76.171875
4643		82.031250
4644		76.171875
4645		82.031250
4646		76.171875
4647		78.125000
4648		76.171875
4649		78.125000
4650		76.171875
4651		78.125000
4652		74.218750
4653		78.125000
4654		74.218750
4655		76.171875
4656		74.218750
4657		76.171875
4658		70.312500
4659		76.171875
4660		70.312500
4661		76.171875
4662		72.265625
4663		74.218750
4664		70.312500
4665		72.265625
4666		70.312500
4667		72.265625
4668		68.359375
4669		72.265625
4670		68.359375
4671		70.312500
4672		66.406250
4673		70.312500
4674		66.406250
4675		68.359375
4676		64.453125
4677		70.312500
4678		62.500000
4679		68.359375
4680		62.500000
4681		66.406250
4682		62.500000
4683		64.453125
4684		60.546875
4685		64.453125
4686		58.593750
4687		62.500000
4688		58.593750
4689		62.500000
4690		56.640625
4691		60.546875
4692		54.687500
4693		60.546875
4694		54.687500
4695		60.546875
4696		54.687500
4697		56.640625
4698		52.734375
4699		56.640625
4700		50.781250
4701		54.687500
4702		50.781250
4703		52.734375
4704		48.828125
4705		52.734375
4706		48.828125
4707		50.781250
4708		44.921875
4709		48.828125
4710		42.968750
4711		48.828125
4712		42.968750
4713		48.828125
4714		42.968750
4715		44.921875
4716		41.015625
4717		42.968750
4718		39.062500
4719		42.968750
4720		37.109375
4721		41.015625
4722		37.109375
4723		39.062500
4724		35.156250
4725		37.109375
4726		31.250000
4727		37.109375
4728		31.250000
4729		37.109375
4730		29.296875
4731		33.203125
4732		29.296875
4733		31.250000
4734		27.343750
4735		29.296875
4736		25.390625
4737		29.296875
4738		23.437500
4739		27.343750
4740		21.484375
4741		25.390625
4742		19.531250
4743		23.437500
4744		17.578125
4745		23.437500
4746		17.578125
4747		21.484375
4748		15.625000
4749		19.531250
4750		13.671875
4751		17.578125
4752		11.718750
4753		15.625000
4754		11.718750
4755		13.671875
4756		9.765625
4757		13.671875
4758		7.812500
4759		11.718750
4760		5.859375
4761		11.718750
4762		3.906250
4763		9.765625
4764		3.906250
4765		5.859375
4766		1.953125
4767		3.906250
4768		0.000000
4769		1.953125
4770		-1.953125
4771		1.953125
4772		-3.906250
4773		0.000000
4774		-5.859375
4775		-1.953125
4776		-7.812500
4777		-1.953125
4778		-9.765625
4779		-3.906250
4780		-9.765625
4781		-5.859375
4782		-11.718750
4783		-7.812500
4784		-11.718750
4785		-9.765625
4786		-13.671875
4787		-11.718750
4788		-15.625000
4789		-11.718750
4790		-17.578125
4791		-13.671875
4792		-19.531250
4793		-15.625000
4794		-21.484375
4795		-15.625000
4796		-21.484375
4797		-17.578125
4798		-23.437500
4799		-19.531250
4800		-23.437500
4801		-21.484375
4802		-25.390625
4803		-21.484375
4804		-27.343750
4805		-23.437500
4806		-27.343750
4807		-25.390625
4808		-29.296875
4809		-25.390625
4810		-31.250000
4811		-27.343750
4812		-31.250000
4813		-29.296875
4814		-33.203125
4815		-29.296875
4816		-33.203125
4817		-31.250000
4818		-35.156250
4819		-31.250000
4820		-35.156250
4821		-33.203125
4822		-37.109375
4823		-33.203125
4824		-37.109375
4825		-35.156250
4826		-39.062500
4827		-35.156250
4828		-39.062500
4829		-37.109375
4830		-41.015625
4831		-37.109375
4832		-41.015625
4833		-39.062500
4834		-42.968750
4835		-39.062500
4836		-42.968750
4837		-41.015625
4838		-42.968750
4839		-41.015625
4840		-44.921875
4841		-41.015625
4842		-44.921875
4843		-42.968750
4844		-46.875000
4845		-41.015625
4846		-46.875000
4847		-42.968750
4848		-46.875000
4849		-44.921875
4850		-46.875000
4851		-44.921875
4852		-48.828125
4853		-44.921875
4854		-48.828125
4855		-46.875000
4856		-48.828125
4857		-46.875000
4858		-48.828125
4859		-46.875000
4860		-48.828125
4861		-46.875000
4862		-50.781250
4863		-46.875000
4864		-50.781250
4865		-48.828125
4866		-50.781250
4867		-48.828125
4868		-50.781250
4869		-48.828125
4870		-50.781250
4871		-48.828125
4872		-50.781250
4873		-48.828125
4874		-50.781250
4875		-48.828125
4876		-50.781250
4877		-48.828125
4878		-50.781250
4879		-48.828125
4880		-50.781250
4881		-46.875000
4882		-50.781250
4883		-48.828125
4884		-50.781250
4885		-46.875000
4886		-50.781250
4887		-46.875000
4888		-48.828125
4889		-46.875000
4890		-48.828125
4891		-46.875000
4892		-48.828125
4893		-46.875000
4894		-48.828125
4895		-46.875000
4896		-48.828125
4897		-44.921875
4898		-46.875000
4899		-44.921875
4900		-46.875000
4901		-44.921875
4902		-46.875000
4903		-44.921875
4904		-44.921875
4905		-42.968750
4906		-44.921875
4907		-42.968750
4908		-44.921875
4909		-41.015625
4910		-44.921875
4911		-41.015625
4912		-42.968750
4913		-41.015625
4914		-42.968750
4915		-39.062500
4916		-41.015625
4917		-39.062500
4918		-41.015625
4919		-37.109375
4920		-39.062500
4921		-37.109375
4922		-39.062500
4923		-35.156250
4924		-37.109375
4925		-35.156250
4926		-37.109375
4927		-33.203125
4928		-35.156250
4929		-33.203125
4930		-35.156250
4931		-31.250000
4932		-33.203125
4933		-31.250000
4934		-33.203125
4935		-29.296875
4936		-31.250000
4937		-29.296875
4938		-29.296875
4939		-27.343750
4940		-29.296875
4941		-25.390625
4942		-27.343750
4943		-25.390625
4944		-25.390625
4945		-23.437500
4946		-25.390625
4947		-21.484375
4948		-23.437500
4949		-21.484375
4950		-23.437500
4951		-19.531250
4952		-21.484375
4953		-17.578125
4954		-19.531250
4955		-17.578125
4956		-17.578125
4957		-15.625000
4958		-17.578125
4959		-13.671875
4960		-15.625000
4961		-11.718750
4962		-13.671875
4963		-11.718750
4964		-13.671875
4965		-9.765625
4966		-11.718750
4967		-7.812500
4968		-9.765625
4969		-5.859375
4970		-7.812500
4971		-5.859375
4972		-5.859375
4973		-3.906250
4974		-3.906250
4975		-1.953125
4976		-3.906250
4977		0.000000
4978		-1.953125
4979		1.953125
4980		0.000000
4981		3.906250
4982		1.953125
4983		3.906250
4984		3.906250
4985		5.859375
4986		3.906250
4987		7.812500
4988		5.859375
4989		9.765625
4990		7.812500
4991		11.718750
4992		7.812500
4993		11.718750
4994		11.718750
4995		13.671875
4996		11.718750
4997		15.625000
4998		13.671875
4999		17.578125
5000		15.625000
5001		19.531250
5002		17.578125
5003		21.484375
5004		19.531250
5005		21.484375
5006		21.484375
5007		23.437500
5008		21.484375
5009		25.390625
5010		23.437500
5011		27.343750
5012		25.390625
5013		27.343750
5014		27.343750
5015		29.296875
5016		29.296875
5017		31.250000
5018		29.296875
5019		33.203125
5020		31.250000
5021		35.156250
5022		33.203125
5023		37.109375
5024		35.156250
5025		37.109375
5026		37.109375
5027		39.062500
5028		37.109375
5029		41.015625
5030		39.062500
5031		42.968750
5032		41.015625
5033		42.968750
5034		41.015625
5035		44.921875
5036		42.968750
5037		46.875000
5038		44.921875
5039		46.875000
5040		46.875000
5041		48.828125
5042		46.875000
5043		50.781250
5044		48.828125
5045		50.781250
5046		50.781250
5047		52.734375
5048		50.781250
5049		54.687500
5050		52.734375
5051		54.687500
5052		54.687500
5053		56.640625
5054		54.687500
5055		58.593750
5056		56.640625
5057		58.593750
5058		56.640625
5059		60.546875
5060		58.593750
5061		60.546875
5062		60.546875
5063		62.500000
5064		60.546875
5065		64.453125
5066		62.500000
5067		64.453125
5068		62.500000
5069		66.406250
5070		64.453125
5071		66.406250
5072		64.453125
5073		68.359375
5074		66.406250
5075		68.359375
5076		66.406250
5077		70.312500
5078		68.359375
5079		70.312500
5080		68.359375
5081		70.312500
5082		70.312500
5083		72.265625
5084		70.312500
5085		72.265625
5086		70.312500
5087		74.218750
5088		70.312500
5089		74.218750
5090		72.265625
5091		74.218750
5092		74.218750
5093		76.171875
5094		74.218750
5095		76.171875
5096		74.218750
5097		76.171875
5098		76.171875
5099		78.125000
5100		74.218750
5101		78.125000
5102		76.171875
5103		78.125000
5104		76.171875
5105		78.125000
5106		78.125000
5107		80.078125
5108		78.125000
5109		80.078125
5110		78.125000
5111		82.031250
5112		78.125000
5113		80.078125
5114		78.125000
5115		82.031250
5116		80.078125
5117		82.031250
5118		80.078125
5119		82.031250
5120		80.078125
5121		82.031250
5122		80.078125
5123		82.031250
5124		80.078125
5125		82.031250
5126		80.078125
5127		82.031250
5128		80.078125
5129		82.031250
5130		80.078125
5131		82.031250
5132		80.078125
5133		82.031250
5134		80.078125
5135		82.031250
5136		80.078125
5137		82.031250
5138		80.078125
5139		82.031250
5140		80.078125
5141		82.031250
5142		80.078125
5143		82.031250
5144		78.125000
5145		82.031250
5146		80.078125
5147		82.031250
5148		78.125000
5149		80.078125
5150		78.125000
5151		80.078125
5152		78.125000
5153		80.078125
5154		78.125000
5155		80.078125
5156		76.171875
5157		80.078125
5158		76.171875
5159		80.078125
5160		76.171875
5161		78.125000
5162		76.171875
5163		78.125000
5164		76.171875
5165		78.125000
5166		74.218750
5167		78.125000
5168		74.218750
5169		78.125000
5170		74.218750
5171		76.171875
5172		72.265625
5173		76.171875
5174		72.265625
5175		74.218750
5176		72.265625
5177		74.218750
5178		70.312500
5179		72.265625
5180		68.359375
5181		72.265625
5182		68.359375
5183		72.265625
5184		68.359375
5185		70.312500
5186		66.406250
5187		70.312500
5188		66.406250
5189		68.359375
5190		64.453125
5191		68.359375
5192		64.453125
5193		66.406250
5194		64.453125
5195		66.406250
5196		62.500000
5197		64.453125
5198		60.546875
5199		64.453125
5200		60.546875
5201		62.500000
5202		58.593750
5203		62.500000
5204		58.593750
5205		60.546875
5206		56.640625
5207		58.593750
5208		54.687500
5209		58.593750
5210		54.687500
5211		56.640625
5212		52.734375
5213		56.640625
5214		50.781250
5215		54.687500
5216		50.781250
5217		52.734375
5218		48.828125
5219		52.734375
5220		46.875000
5221		50.781250
5222		46.875000
5223		48.828125
5224		44.921875
5225		46.875000
5226		42.968750
5227		46.875000
5228		42.968750
5229		44.921875
5230		41.015625
5231		42.968750
5232		39.062500
5233		42.968750
5234		37.109375
5235		41.015625
5236		35.156250
5237		39.062500
5238		35.156250
5239		39.062500
5240		33.203125
5241		37.109375
5242		31.250000
5243		35.156250
5244		29.296875
5245		33.203125
5246		29.296875
5247		31.250000
5248		25.390625
5249		29.296875
5250		25.390625
5251		29.296875
5252		23.437500
5253		27.343750
5254		21.484375
5255		25.390625
5256		21.484375
5257		23.437500
5258		19.531250
5259		21.484375
5260		17.578125
5261		21.484375
5262		15.625000
5263		19.531250
5264		13.671875
5265		17.578125
5266		11.718750
5267		15.625000
5268		11.718750
5269		13.671875
5270		9.765625
5271		11.718750
5272		7.812500
5273		11.718750
5274		5.859375
5275		9.765625
5276		3.906250
5277		7.812500
5278		1.953125
5279		5.859375
5280		1.953125
5281		3.906250
5282		0.000000
5283		3.906250
5284		-1.953125
5285		1.953125
5286		-3.906250
5287		0.000000
5288		-5.859375
5289		-1.953125
5290		-5.859375
5291		-3.906250
5292		-7.812500
5293		-5.859375
5294		-9.765625
5295		-5.859375
5296		-11.718750
5297		-7.812500
5298		-11.718750
5299		-9.765625
5300		-13.671875
5301		-11.718750
5302		-15.625000
5303		-11.718750
5304		-17.578125
5305		-13.671875
5306		-19.531250
5307		-15.625000
5308		-19.531250
5309		-17.578125
5310		-21.484375
5311		-17.578125
5312		-21.484375
5313		-19.531250
5314		-23.437500
5315		-21.484375
5316		-25.390625
5317		-21.484375
5318		-27.343750
5319		-23.437500
5320		-27.343750
5321		-25.390625
5322		-29.296875
5323		-25.390625
5324		-31.250000
5325		-27.343750
5326		-31.250000
5327		-29.296875
5328		-33.203125
5329		-29.296875
5330		-33.203125
5331		-31.250000
5332		-35.156250
5333		-33.203125
5334		-35.156250
5335		-33.203125
5336		-37.109375
5337		-33.203125
5338		-37.109375
5339		-35.156250
5340		-39.062500
5341		-37.109375
5342		-39.062500
5343		-37.109375
5344		-41.015625
5345		-39.062500
5346		-41.015625
5347		-39.062500
5348		-42.968750
5349		-39.062500
5350		-42.968750
5351		-41.015625
5352		-42.968750
5353		-41.015625
5354		-44.921875
5355		-41.015625
5356		-44.921875
5357		-42.968750
5358		-44.921875
5359		-42.968750
5360		-46.875000
5361		-44.921875
5362		-46.875000
5363		-44.921875
5364		-46.875000
5365		-44.921875
5366		-48.828125
5367		-44.921875
5368		-48.828125
5369		-46.875000
5370		-48.828125
5371		-46.875000
5372		-48.828125
5373		-46.875000
5374		-48.828125
5375		-46.875000
5376		-48.828125
5377		-46.875000
5378		-50.781250
5379		-46.875000
5380		-50.781250
5381		-46.875000
5382		-50.781250
5383		-48.828125
5384		-50.781250
5385		-48.828125
5386		-50.781250
5387		-48.828125
5388		-50.781250
5389		-46.875000
5390		-50.781250
5391		-46.875000
5392		-50.781250
5393		-46.875000
5394		-50.781250
5395		-46.875000
5396		-48.828125
5397		-46.875000
5398		-48.828125
5399		-46.875000
5400		-48.828125
5401		-46.875000
5402		-48.828125
5403		-46.875000
5404		-48.828125
5405		-46.875000
5406		-48.828125
5407		-46.875000
5408		-48.828125
5409		-44.921875
5410		-46.875000
5411		-44.921875
5412		-46.875000
5413		-42.968750
5414		-46.875000
5415		-44.921875
5416		-44.921875
5417		-42.968750
5418		-44.921875
5419		-42.968750
5420		-44.921875
5421		-41.015625
5422		-42.968750
5423		-41.015625
5424		-44.921875
5425		-41.015625
5426		-42.968750
5427		-39.062500
5428		-41.015625
5429		-39.062500
5430		-41.015625
5431		-37.109375
5432		-39.062500
5433		-37.109375
5434		-39.062500
5435		-37.109375
5436		-37.109375
5437		-35.156250
5438		-37.109375
5439		-35.156250
5440		-35.156250
5441		-33.203125
5442		-35.156250
5443		-31.250000
5444		-33.203125
5445		-31.250000
5446		-33.203125
5447		-29.296875
5448		-31.250000
5449		-29.296875
5450		-31.250000
5451		-27.343750
5452		-29.296875
5453		-25.390625
5454		-27.343750
5455		-25.390625
5456		-27.343750
5457		-23.437500
5458		-25.390625
5459		-21.484375
5460		-23.437500
5461		-21.484375
5462		-23.437500
5463		-19.531250
5464		-21.484375
5465		-17.578125
5466		-19.531250
5467		-17.578125
5468		-17.578125
5469		-15.625000
5470		-17.578125
5471		-13.671875
5472		-15.625000
5473		-11.718750
5474		-13.671875
5475		-11.718750
5476		-13.671875
5477		-9.765625
5478		-11.718750
5479		-7.812500
5480		-9.765625
5481		-5.859375
5482		-7.812500
5483		-5.859375
5484		-7.812500
5485		-3.906250
5486		-5.859375
5487		-1.953125
5488		-3.906250
5489		0.000000
5490		-1.953125
5491		0.000000
5492		0.000000
5493		1.953125
5494		0.000000
5495		3.906250
5496		1.953125
5497		5.859375
5498		3.906250
5499		7.812500
5500		5.859375
5501		9.765625
5502		7.812500
5503		9.765625
5504		9.765625
5505		11.718750
5506		9.765625
5507		15.625000
5508		11.718750
5509		15.625000
5510		13.671875
5511		17.578125
5512		15.625000
5513		19.531250
5514		17.578125
5515		19.531250
5516		19.531250
5517		21.484375
5518		19.531250
5519		23.437500
5520		21.484375
5521		25.390625
5522		23.437500
5523		25.390625
5524		25.390625
5525		27.343750
5526		27.343750
5527		29.296875
5528		27.343750
5529		31.250000
5530		29.296875
5531		33.203125
5532		31.250000
5533		33.203125
5534		33.203125
5535		35.156250
5536		33.203125
5537		37.109375
5538		35.156250
5539		39.062500
5540		37.109375
5541		39.062500
5542		39.062500
5543		41.015625
5544		39.062500
5545		42.968750
5546		41.015625
5547		44.921875
5548		42.968750
5549		46.875000
5550		44.921875
5551		46.875000
5552		44.921875
5553		48.828125
5554		46.875000
5555		50.781250
5556		48.828125
5557		50.781250
5558		48.828125
5559		52.734375
5560		50.781250
5561		52.734375
5562		52.734375
5563		54.687500
5564		52.734375
5565		56.640625
5566		54.687500
5567		58.593750
5568		54.687500
5569		58.593750
5570		56.640625
5571		60.546875
5572		58.593750
5573		60.546875
5574		58.593750
5575		62.500000
5576		60.546875
5577		62.500000
5578		60.546875
5579		64.453125
5580		62.500000
5581		64.453125
5582		64.453125
5583		66.406250
5584		64.453125
5585		66.406250
5586		64.453125
5587		68.359375
5588		66.406250
5589		68.359375
5590		66.406250
5591		70.312500
5592		68.359375
5593		70.312500
5594		68.359375
5595		72.265625
5596		70.312500
5597		72.265625
5598		70.312500
5599		74.218750
5600		72.265625
5601		74.218750
5602		72.265625
5603		76.171875
5604		72.265625
5605		76.171875
5606		74.218750
5607		76.171875
5608		74.218750
5609		76.171875
5610		74.218750
5611		78.125000
5612		76.171875
5613		78.125000
5614		76.171875
5615		80.078125
5616		76.171875
5617		78.125000
5618		78.125000
5619		80.078125
5620		78.125000
5621		80.078125
5622		78.125000
5623		80.078125
5624		78.125000
5625		80.078125
5626		78.125000
5627		82.031250
5628		78.125000
5629		82.031250
5630		80.078125
5631		82.031250
5632		80.078125
5633		82.031250
5634		80.078125
5635		82.031250
5636		80.078125
5637		82.031250
5638		80.078125
5639		82.031250
5640		80.078125
5641		82.031250
5642		80.078125
5643		82.031250
5644		80.078125
5645		82.031250
5646		80.078125
5647		82.031250
5648		80.078125
5649		82.031250
5650		80.078125
5651		83.984375
5652		80.078125
5653		82.031250
5654		78.125000
5655		83.984375
5656		80.078125
5657		82.031250
5658		78.125000
5659		83.984375
5660		80.078125
5661		82.031250
5662		78.125000
5663		82.031250
5664		78.125000
5665		82.031250
5666		78.125000
5667		80.078125
5668		78.125000
5669		80.078125
5670		78.125000
5671		80.078125
5672		76.171875
5673		82.031250
5674		76.171875
5675		80.078125
5676		74.218750
5677		80.078125
5678		76.171875
5679		78.125000
5680		74.218750
5681		80.078125
5682		74.218750
5683		76.171875
5684		72.265625
5685		76.171875
5686		72.265625
5687		76.171875
5688		70.312500
5689		76.171875
5690		70.312500
5691		74.218750
5692		68.359375
5693		74.218750
5694		70.312500
5695		72.265625
5696		66.406250
5697		74.218750
5698		68.359375
5699		70.312500
5700		68.359375
5701		70.312500
5702		64.453125
5703		70.312500
5704		64.453125
5705		70.312500
5706		64.453125
5707		68.359375
5708		62.500000
5709		66.406250
5710		60.546875
5711		66.406250
5712		58.593750
5713		66.406250
5714		60.546875
5715		62.500000
5716		58.593750
5717		60.546875
5718		56.640625
5719		60.546875
5720		54.687500
5721		62.500000
5722		54.687500
5723		60.546875
5724		54.687500
5725		56.640625
5726		50.781250
5727		56.640625
5728		50.781250
5729		54.687500
5730		50.781250
5731		54.687500
5732		48.828125
5733		52.734375
5734		46.875000
5735		50.781250
5736		42.968750
5737		50.781250
5738		42.968750
5739		48.828125
5740		42.968750
5741		46.875000
5742		39.062500
5743		44.921875
5744		39.062500
5745		46.875000
5746		35.156250
5747		42.968750
5748		37.109375
5749		41.015625
5750		35.156250
5751		39.062500
5752		33.203125
5753		37.109375
5754		31.250000
5755		39.062500
5756		29.296875
5757		35.156250
5758		29.296875
5759		33.203125
5760		25.390625
5761		33.203125
5762		27.343750
5763		29.296875
5764		21.484375
5765		33.203125
5766		23.437500
5767		27.343750
5768		21.484375
5769		25.390625
5770		17.578125
5771		25.390625
5772		17.578125
5773		23.437500
5774		17.578125
5775		19.531250
5776		13.671875
5777		19.531250
5778		11.718750
5779		21.484375
5780		9.765625
5781		17.578125
5782		9.765625
5783		13.671875
5784		9.765625
5785		11.718750
5786		5.859375
5787		11.718750
5788		3.906250
5789		11.718750
5790		3.906250
5791		7.812500
5792		1.953125
5793		5.859375
5794		-1.953125
5795		5.859375
5796		-3.906250
5797		5.859375
5798		-1.953125
5799		1.953125
5800		-3.906250
5801		0.000000
5802		-5.859375
5803		-1.953125
5804		-9.765625
5805		0.000000
5806		-7.812500
5807		-3.906250
5808		-9.765625
5809		-5.859375
5810		-13.671875
5811		-5.859375
5812		-15.625000
5813		-5.859375
5814		-15.625000
5815		-7.812500
5816		-15.625000
5817		-11.718750
5818		-17.578125
5819		-13.671875
5820		-21.484375
5821		-13.671875
5822		-21.484375
5823		-13.671875
5824		-21.484375
5825		-17.578125
5826		-23.437500
5827		-19.531250
5828		-27.343750
5829		-17.578125
5830		-29.296875
5831		-21.484375
5832		-25.390625
5833		-23.437500
5834		-27.343750
5835		-25.390625
5836		-31.250000
5837		-25.390625
5838		-33.203125
5839		-23.437500
5840		-33.203125
5841		-27.343750
5842		-33.203125
5843		-29.296875
5844		-37.109375
5845		-27.343750
5846		-35.156250
5847		-31.250000
5848		-37.109375
5849		-29.296875
5850		-37.109375
5851		-33.203125
5852		-39.062500
5853		-35.156250
5854		-42.968750
5855		-33.203125
5856		-41.015625
5857		-35.156250
5858		-41.015625
5859		-37.109375
5860		-42.968750
5861		-37.109375
5862		-44.921875
5863		-37.109375
5864		-44.921875
5865		-37.109375
5866		-42.968750
5867		-41.015625
5868		-44.921875
5869		-41.015625
5870		-46.875000
5871		-41.015625
5872		-48.828125
5873		-41.015625
5874		-46.875000
5875		-42.968750
5876		-46.875000
5877		-42.968750
5878		-50.781250
5879		-41.015625
5880		-48.828125
5881		-42.968750
5882		-48.828125
5883		-44.921875
5884		-48.828125
5885		-46.875000
5886		-48.828125
5887		-44.921875
5888		-52.734375
5889		-44.921875
5890		-50.781250
5891		-44.921875
5892		-48.828125
5893		-46.875000
5894		-52.734375
5895		-44.921875
5896		-52.734375
5897		-42.968750
5898		-52.734375
5899		-44.921875
5900		-48.828125
5901		-46.875000
5902		-50.781250
5903		-46.875000
5904		-50.781250
5905		-46.875000
5906		-50.781250
5907		-44.921875
5908		-50.781250
5909		-46.875000
5910		-48.828125
5911		-46.875000
5912		-52.734375
5913		-42.968750
5914		-50.781250
5915		-42.968750
5916		-48.828125
5917		-46.875000
5918		-48.828125
5919		-46.875000
5920		-48.828125
5921		-42.968750
5922		-50.781250
5923		-41.015625
5924		-46.875000
5925		-42.968750
5926		-46.875000
5927		-44.921875
5928		-46.875000
5929		-42.968750
5930		-44.921875
5931		-42.968750
5932		-46.875000
5933		-39.062500
5934		-42.968750
5935		-41.015625
5936		-42.968750
5937		-41.015625
5938		-44.921875
5939		-37.109375
5940		-42.968750
5941		-37.109375
5942		-41.015625
5943		-39.062500
5944		-41.015625
5945		-35.156250
5946		-39.062500
5947		-37.109375
5948		-39.062500
5949		-35.156250
5950		-37.109375
5951		-35.156250
5952		-35.156250
5953		-33.203125
5954		-35.156250
5955		-31.250000
5956		-35.156250
5957		-29.296875
5958		-33.203125
5959		-29.296875
5960		-31.250000
5961		-27.343750
5962		-33.203125
5963		-27.343750
5964		-29.296875
5965		-27.343750
5966		-29.296875
5967		-25.390625
5968		-27.343750
5969		-25.390625
5970		-25.390625
5971		-23.437500
5972		-25.390625
5973		-21.484375
5974		-23.437500
5975		-19.531250
5976		-21.484375
5977		-19.531250
5978		-21.484375
5979		-17.578125
5980		-19.531250
5981		-15.625000
5982		-19.531250
5983		-13.671875
5984		-17.578125
5985		-13.671875
5986		-15.625000
5987		-11.718750
5988		-13.671875
5989		-9.765625
5990		-11.718750
5991		-9.765625
5992		-9.765625
5993		-5.859375
5994		-9.765625
5995		-5.859375
5996		-7.812500
5997		-3.906250
5998		-5.859375
5999		-1.953125
6000		-3.906250
6001		0.000000
6002		-1.953125
6003		0.000000
6004		-1.953125
6005		1.953125
6006		0.000000
6007		3.906250
6008		1.953125
6009		5.859375
6010		1.953125
6011		7.812500
6012		3.906250
6013		9.765625
6014		5.859375
6015		11.718750
6016		7.812500
6017		11.718750
6018		9.765625
6019		13.671875
6020		11.718750
6021		15.625000
6022		11.718750
6023		17.578125
6024		13.671875
6025		19.531250
6026		15.625000
6027		21.484375
6028		17.578125
6029		23.437500
6030		17.578125
6031		23.437500
6032		19.531250
6033		25.390625
6034		23.437500
6035		25.390625
6036		23.437500
6037		27.343750
6038		25.390625
6039		29.296875
6040		25.390625
6041		31.250000
6042		27.343750
6043		33.203125
6044		29.296875
6045		35.156250
6046		31.250000
6047		37.109375
6048		33.203125
6049		39.062500
6050		33.203125
6051		39.062500
6052		37.109375
6053		39.062500
6054		37.109375
6055		42.968750
6056		39.062500
6057		42.968750
6058		41.015625
6059		44.921875
6060		41.015625
6061		46.875000
6062		42.968750
6063		46.875000
6064		42.968750
6065		48.828125
6066		46.875000
6067		50.781250
6068		46.875000
6069		50.781250
6070		48.828125
6071		52.734375
6072		48.828125
6073		54.687500
6074		50.781250
6075		54.687500
6076		52.734375
6077		58.593750
6078		54.687500
6079		58.593750
6080		54.687500
6081		60.546875
6082		56.640625
6083		60.546875
6084		58.593750
6085		60.546875
6086		58.593750
6087		62.500000
6088		58.593750
6089		64.453125
6090		60.546875
6091		64.453125
6092		62.500000
6093		66.406250
6094		60.546875
6095		68.359375
6096		64.453125
6097		68.359375
6098		64.453125
6099		68.359375
6100		64.453125
6101		68.359375
6102		68.359375
6103		70.312500
6104		68.359375
6105		72.265625
6106		68.359375
6107		72.265625
6108		70.312500
6109		74.218750
6110		68.359375
6111		74.218750
6112		70.312500
6113		76.171875
6114		70.312500
6115		74.218750
6116		72.265625
6117		76.171875
6118		74.218750
6119		76.171875
6120		74.218750
6121		76.171875
6122		74.218750
6123		78.125000
6124		74.218750
6125		78.125000
6126		76.171875
6127		78.125000
6128		74.218750
6129		80.078125
6130		76.171875
6131		80.078125
6132		76.171875
6133		80.078125
6134		76.171875
6135		82.031250
6136		78.125000
6137		80.078125
6138		78.125000
6139		82.031250
6140		78.125000
6141		82.031250
6142		80.078125
6143		82.031250
6144		78.125000
6145		83.984375
6146		78.125000
6147		82.031250
6148		80.078125
6149		82.031250
6150		80.078125
6151		83.984375
6152		80.078125
6153		82.031250
6154		80.078125
6155		83.984375
6156		80.078125
6157		83.984375
6158		80.078125
6159		83.984375
6160		78.125000
6161		83.984375
6162		80.078125
6163		83.984375
6164		80.078125
6165		83.984375
6166		80.078125
6167		82.031250
6168		80.078125
6169		82.031250
6170		80.078125
6171		82.031250
6172		80.078125
6173		83.984375
6174		80.078125
6175		82.031250
6176		78.125000
6177		82.031250
6178		78.125000
6179		82.031250
6180		78.125000
6181		82.031250
6182		78.125000
6183		80.078125
6184		76.171875
6185		80.078125
6186		76.171875
6187		80.078125
6188		76.171875
6189		80.078125
6190		76.171875
6191		78.125000
6192		74.218750
6193		78.125000
6194		74.218750
6195		78.125000
6196		74.218750
6197		78.125000
6198		72.265625
6199		76.171875
6200		72.265625
6201		76.171875
6202		72.265625
6203		74.218750
6204		70.312500
6205		74.218750
6206		70.312500
6207		74.218750
6208		70.312500
6209		72.265625
6210		68.359375
6211		72.265625
6212		66.406250
6213		72.265625
6214		66.406250
6215		70.312500
6216		66.406250
6217		70.312500
6218		64.453125
6219		68.359375
6220		64.453125
6221		66.406250
6222		62.500000
6223		66.406250
6224		60.546875
6225		64.453125
6226		60.546875
6227		64.453125
6228		58.593750
6229		64.453125
6230		58.593750
6231		62.500000
6232		56.640625
6233		60.546875
6234		56.640625
6235		58.593750
6236		54.687500
6237		58.593750
6238		52.734375
6239		56.640625
6240		52.734375
6241		56.640625
6242		50.781250
6243		54.687500
6244		46.875000
6245		54.687500
6246		48.828125
6247		52.734375
6248		46.875000
6249		50.781250
6250		44.921875
6251		48.828125
6252		44.921875
6253		46.875000
6254		42.968750
6255		46.875000
6256		41.015625
6257		44.921875
6258		41.015625
6259		42.968750
6260		39.062500
6261		42.968750
6262		37.109375
6263		41.015625
6264		35.156250
6265		39.062500
6266		35.156250
6267		37.109375
6268		33.203125
6269		37.109375
6270		31.250000
6271		35.156250
6272		29.296875
6273		33.203125
6274		27.343750
6275		31.250000
6276		27.343750
6277		29.296875
6278		25.390625
6279		29.296875
6280		23.437500
6281		27.343750
6282		21.484375
6283		25.390625
6284		19.531250
6285		23.437500
6286		19.531250
6287		21.484375
6288		17.578125
6289		19.531250
6290		15.625000
6291		19.531250
6292		13.671875
6293		17.578125
6294		11.718750
6295		15.625000
6296		9.765625
6297		13.671875
6298		9.765625
6299		11.718750
6300		7.812500
6301		9.765625
6302		5.859375
6303		9.765625
6304		3.906250
6305		7.812500
6306		1.953125
6307		5.859375
6308		1.953125
6309		3.906250
6310		-1.953125
6311		1.953125
6312		-1.953125
6313		1.953125
6314		-3.906250
6315		0.000000
6316		-5.859375
6317		-1.953125
6318		-7.812500
6319		-3.906250
6320		-7.812500
6321		-5.859375
6322		-9.765625
6323		-7.812500
6324		-11.718750
6325		-7.812500
6326		-13.671875
6327		-9.765625
6328		-15.625000
6329		-9.765625
6330		-15.625000
6331		-13.671875
6332		-17.578125
6333		-13.671875
6334		-19.531250
6335		-15.625000
6336		-19.531250
6337		-17.578125
6338		-21.484375
6339		-17.578125
6340		-23.437500
6341		-19.531250
6342		-23.437500
6343		-21.484375
6344		-25.390625
6345		-21.484375
6346		-27.343750
6347		-23.437500
6348		-29.296875
6349		-23.437500
6350		-29.296875
6351		-25.390625
6352		-31.250000
6353		-27.343750
6354		-31.250000
6355		-29.296875
6356		-33.203125
6357		-29.296875
6358		-35.156250
6359		-31.250000
6360		-35.156250
6361		-31.250000
6362		-35.156250
6363		-31.250000
6364		-37.109375
6365		-33.203125
6366		-37.109375
6367		-35.156250
6368		-39.062500
6369		-35.156250
6370		-39.062500
6371		-37.109375
6372		-41.015625
6373		-37.109375
6374		-42.968750
6375		-37.109375
6376		-42.968750
6377		-39.062500
6378		-42.968750
6379		-39.062500
6380		-42.968750
6381		-41.015625
6382		-44.921875
6383		-41.015625
6384		-44.921875
6385		-41.015625
6386		-44.921875
6387		-41.015625
6388		-44.921875
6389		-42.968750
6390		-46.875000
6391		-42.968750
6392		-46.875000
6393		-42.968750
6394		-48.828125
6395		-44.921875
6396		-46.875000
6397		-44.921875
6398		-48.828125
6399		-44.921875
6400		-48.828125
6401		-44.921875
6402		-48.828125
6403		-44.921875
6404		-48.828125
6405		-46.875000
6406		-48.828125
6407		-46.875000
6408		-48.828125
6409		-44.921875
6410		-48.828125
6411		-46.875000
6412		-50.781250
6413		-46.875000
6414		-48.828125
6415		-46.875000
6416		-48.828125
6417		-46.875000
6418		-48.828125
6419		-46.875000
6420		-48.828125
6421		-46.875000
6422		-48.828125
6423		-46.875000
6424		-50.781250
6425		-44.921875
6426		-48.828125
6427		-44.921875
6428		-48.828125
6429		-44.921875
6430		-48.828125
6431		-44.921875
6432		-48.828125
6433		-44.921875
6434		-46.875000
6435		-44.921875
6436		-46.875000
6437		-42.968750
6438		-46.875000
6439		-42.968750
6440		-46.875000
6441		-41.015625
6442		-46.875000
6443		-42.968750
6444		-44.921875
6445		-41.015625
6446		-44.921875
6447		-41.015625
6448		-42.968750
6449		-41.015625
6450		-42.968750
6451		-41.015625
6452		-42.968750
6453		-39.062500
6454		-41.015625
6455		-39.062500
6456		-41.015625
6457		-37.109375
6458		-41.015625
6459		-37.109375
6460		-39.062500
6461		-35.156250
6462		-39.062500
6463		-35.156250
6464		-37.109375
6465		-33.203125
6466		-37.109375
6467		-33.203125
6468		-35.156250
6469		-31.250000
6470		-35.156250
6471		-31.250000
6472		-33.203125
6473		-29.296875
6474		-31.250000
6475		-27.343750
6476		-31.250000
6477		-27.343750
6478		-29.296875
6479		-25.390625
6480		-27.343750
6481		-25.390625
6482		-27.343750
6483		-23.437500
6484		-25.390625
6485		-21.484375
6486		-23.437500
6487		-19.531250
6488		-23.437500
6489		-19.531250
6490		-21.484375
6491		-17.578125
6492		-21.484375
6493		-17.578125
6494		-19.531250
6495		-15.625000
6496		-17.578125
6497		-13.671875
6498		-15.625000
6499		-11.718750
6500		-13.671875
6501		-11.718750
6502		-13.671875
6503		-9.765625
6504		-11.718750
6505		-7.812500
6506		-9.765625
6507		-5.859375
6508		-7.812500
6509		-5.859375
6510		-7.812500
6511		-1.953125
6512		-5.859375
6513		-1.953125
6514		-3.906250
6515		0.000000
6516		-1.953125
6517		1.953125
6518		-1.953125
6519		3.906250
6520		0.000000
6521		3.906250
6522		1.953125
6523		5.859375
6524		3.906250
6525		7.812500
6526		5.859375
6527		9.765625
6528		7.812500
6529		9.765625
6530		7.812500
6531		11.718750
6532		9.765625
6533		13.671875
6534		11.718750
6535		15.625000
6536		13.671875
6537		17.578125
6538		15.625000
6539		19.531250
6540		17.578125
6541		19.531250
6542		17.578125
6543		21.484375
6544		19.531250
6545		23.437500
6546		21.484375
6547		25.390625
6548		23.437500
6549		27.343750
6550		23.437500
6551		29.296875
6552		25.390625
6553		29.296875
6554		27.343750
6555		31.250000
6556		29.296875
6557		33.203125
6558		29.296875
6559		35.156250
6560		31.250000
6561		35.156250
6562		33.203125
6563		39.062500
6564		35.156250
6565		39.062500
6566		37.109375
6567		41.015625
6568		39.062500
6569		41.015625
6570		39.062500
6571		42.968750
6572		41.015625
6573		44.921875
6574		42.968750
6575		46.875000
6576		42.968750
6577		46.875000
6578		44.921875
6579		48.828125
6580		46.875000
6581		50.781250
6582		48.828125
6583		52.734375
6584		48.828125
6585		52.734375
6586		50.781250
6587		54.687500
6588		50.781250
6589		54.687500
6590		52.734375
6591		56.640625
6592		54.687500
6593		58.593750
6594		54.687500
6595		60.546875
6596		56.640625
6597		60.546875
6598		58.593750
6599		62.500000
6600		60.546875
6601		62.500000
6602		60.546875
6603		64.453125
6604		60.546875
6605		64.453125
6606		62.500000
6607		66.406250
6608		64.453125
6609		68.359375
6610		64.453125
6611		68.359375
6612		66.406250
6613		68.359375
6614		66.406250
6615		70.312500
6616		68.359375
6617		70.312500
6618		68.359375
6619		72.265625
6620		70.312500
6621		74.218750
6622		70.312500
6623		72.265625
6624		70.312500
6625		74.218750
6626		70.312500
6627		74.218750
6628		72.265625
6629		76.171875
6630		72.265625
6631		76.171875
6632		74.218750
6633		76.171875
6634		74.218750
6635		78.125000
6636		74.218750
6637		78.125000
6638		76.171875
6639		78.125000
6640		76.171875
6641		78.125000
6642		76.171875
6643		80.078125
6644		78.125000
6645		80.078125
6646		78.125000
6647		80.078125
6648		78.125000
6649		82.031250
6650		78.125000
6651		82.031250
6652		80.078125
6653		82.031250
6654		78.125000
6655		82.031250
6656		80.078125
6657		82.031250
6658		80.078125
6659		82.031250
6660		80.078125
6661		83.984375
6662		80.078125
6663		83.984375
6664		80.078125
6665		83.984375
6666		80.078125
6667		83.984375
6668		80.078125
6669		83.984375
6670		80.078125
6671		83.984375
6672		80.078125
6673		83.984375
6674		80.078125
6675		82.031250
6676		80.078125
6677		83.984375
6678		80.078125
6679		83.984375
6680		80.078125
6681		83.984375
6682		80.078125
6683		83.984375
6684		80.078125
6685		83.984375
6686		80.078125
6687		82.031250
6688		78.125000
6689		82.031250
6690		80.078125
6691		82.031250
6692		78.125000
6693		82.031250
6694		78.125000
6695		80.078125
6696		78.125000
6697		80.078125
6698		78.125000
6699		80.078125
6700		76.171875
6701		80.078125
6702		76.171875
6703		80.078125
6704		76.171875
6705		80.078125
6706		76.171875
6707		78.125000
6708		74.218750
6709		76.171875
6710		72.265625
6711		78.125000
6712		72.265625
6713		76.171875
6714		72.265625
6715		76.171875
6716		72.265625
6717		74.218750
6718		70.312500
6719		74.218750
6720		70.312500
6721		72.265625
6722		68.359375
6723		72.265625
6724		68.359375
6725		70.312500
6726		66.406250
6727		70.312500
6728		66.406250
6729		70.312500
6730		64.453125
6731		68.359375
6732		64.453125
6733		66.406250
6734		62.500000
6735		66.406250
6736		62.500000
6737		66.406250
6738		60.546875
6739		64.453125
6740		60.546875
6741		62.500000
6742		58.593750
6743		62.500000
6744		58.593750
6745		62.500000
6746		56.640625
6747		60.546875
6748		54.687500
6749		58.593750
6750		54.687500
6751		56.640625
6752		52.734375
6753		56.640625
6754		50.781250
6755		54.687500
6756		50.781250
6757		54.687500
6758		48.828125
6759		52.734375
6760		46.875000
6761		50.781250
6762		44.921875
6763		50.781250
6764		44.921875
6765		48.828125
6766		42.968750
6767		46.875000
6768		41.015625
6769		44.921875
6770		41.015625
6771		44.921875
6772		39.062500
6773		42.968750
6774		39.062500
6775		41.015625
6776		35.156250
6777		39.062500
6778		35.156250
6779		39.062500
6780		33.203125
6781		37.109375
6782		31.250000
6783		35.156250
6784		29.296875
6785		33.203125
6786		29.296875
6787		33.203125
6788		27.343750
6789		31.250000
6790		25.390625
6791		29.296875
6792		23.437500
6793		27.343750
6794		21.484375
6795		25.390625
6796		19.531250
6797		25.390625
6798		19.531250
6799		23.437500
6800		17.578125
6801		21.484375
6802		15.625000
6803		19.531250
6804		13.671875
6805		17.578125
6806		11.718750
6807		15.625000
6808		11.718750
6809		13.671875
6810		9.765625
6811		13.671875
6812		7.812500
6813		11.718750
6814		5.859375
6815		9.765625
6816		3.906250
6817		7.812500
6818		3.906250
6819		7.812500
6820		1.953125
6821		5.859375
6822		0.000000
6823		3.906250
6824		-1.953125
6825		1.953125
6826		-3.906250
6827		0.000000
6828		-3.906250
6829		0.000000
6830		-5.859375
6831		-1.953125
6832		-7.812500
6833		-3.906250
6834		-9.765625
6835		-5.859375
6836		-11.718750
6837		-7.812500
6838		-11.718750
6839		-7.812500
6840		-13.671875
6841		-9.765625
6842		-15.625000
6843		-11.718750
6844		-17.578125
6845		-13.671875
6846		-17.578125
6847		-15.625000
6848		-19.531250
6849		-15.625000
6850		-21.484375
6851		-17.578125
6852		-21.484375
6853		-19.531250
6854		-23.437500
6855		-21.484375
6856		-25.390625
6857		-21.484375
6858		-25.390625
6859		-23.437500
6860		-27.343750
6861		-23.437500
6862		-29.296875
6863		-25.390625
6864		-31.250000
6865		-27.343750
6866		-31.250000
6867		-27.343750
6868		-33.203125
6869		-29.296875
6870		-33.203125
6871		-29.296875
6872		-35.156250
6873		-31.250000
6874		-35.156250
6875		-33.203125
6876		-37.109375
6877		-33.203125
6878		-37.109375
6879		-33.203125
6880		-39.062500
6881		-35.156250
6882		-41.015625
6883		-37.109375
6884		-41.015625
6885		-37.109375
6886		-41.015625
6887		-39.062500
6888		-41.015625
6889		-39.062500
6890		-42.968750
6891		-39.062500
6892		-42.968750
6893		-41.015625
6894		-44.921875
6895		-41.015625
6896		-44.921875
6897		-41.015625
6898		-44.921875
6899		-41.015625
6900		-46.875000
6901		-42.968750
6902		-46.875000
6903		-42.968750
6904		-46.875000
6905		-44.921875
6906		-46.875000
6907		-42.968750
6908		-46.875000
6909		-44.921875
6910		-48.828125
6911		-44.921875
6912		-48.828125
6913		-44.921875
6914		-48.828125
6915		-44.921875
6916		-48.828125
6917		-46.875000
6918		-48.828125
6919		-46.875000
6920		-50.781250
6921		-46.875000
6922		-48.828125
6923		-46.875000
6924		-48.828125
6925		-46.875000
6926		-48.828125
6927		-46.875000
6928		-50.781250
6929		-46.875000
6930		-48.828125
6931		-46.875000
6932		-50.781250
6933		-46.875000
6934		-50.781250
6935		-46.875000
6936		-50.781250
6937		-46.875000
6938		-50.781250
6939		-46.875000
6940		-48.828125
6941		-46.875000
6942		-48.828125
6943		-46.875000
6944		-48.828125
6945		-46.875000
6946		-48.828125
6947		-44.921875
6948		-48.828125
6949		-44.921875
6950		-46.875000
6951		-44.921875
6952		-46.875000
6953		-42.968750
6954		-46.875000
6955		-42.968750
6956		-46.875000
6957		-42.968750
6958		-44.921875
6959		-42.968750
6960		-44.921875
6961		-41.015625
6962		-42.968750
6963		-41.015625
6964		-42.968750
6965		-39.062500
6966		-41.015625
6967		-39.062500
6968		-41.015625
6969		-39.062500
6970		-41.015625
6971		-37.109375
6972		-39.062500
6973		-37.109375
6974		-39.062500
6975		-35.156250
6976		-37.109375
6977		-35.156250
6978		-37.109375
6979		-33.203125
6980		-35.156250
6981		-31.250000
6982		-35.156250
6983		-31.250000
6984		-33.203125
6985		-29.296875
6986		-31.250000
6987		-29.296875
6988		-31.250000
6989		-27.343750
6990		-29.296875
6991		-25.390625
6992		-29.296875
6993		-25.390625
6994		-27.343750
6995		-25.390625
6996		-27.343750
6997		-21.484375
6998		-25.390625
6999		-21.484375
7000		-23.437500
7001		-19.531250
7002		-23.437500
7003		-19.531250
7004		-21.484375
7005		-17.578125
7006		-19.531250
7007		-15.625000
7008		-19.531250
7009		-15.625000
7010		-17.578125
7011		-13.671875
7012		-15.625000
7013		-11.718750
7014		-13.671875
7015		-9.765625
7016		-11.718750
7017		-9.765625
7018		-11.718750
7019		-7.812500
7020		-9.765625
7021		-5.859375
7022		-7.812500
7023		-3.906250
7024		-7.812500
7025		-1.953125
7026		-5.859375
7027		-1.953125
7028		-3.906250
7029		0.000000
7030		-1.953125
7031		1.953125
7032		-1.953125
7033		3.906250
7034		1.953125
7035		3.906250
7036		1.953125
7037		5.859375
7038		3.906250
7039		7.812500
7040		5.859375
7041		9.765625
7042		5.859375
7043		11.718750
7044		9.765625
7045		11.718750
7046		9.765625
7047		13.671875
7048		11.718750
7049		15.625000
7050		13.671875
7051		17.578125
7052		15.625000
7053		19.531250
7054		17.578125
7055		19.531250
7056		17.578125
7057		21.484375
7058		19.531250
7059		23.437500
7060		21.484375
7061		25.390625
7062		23.437500
7063		27.343750
7064		23.437500
7065		27.343750
7066		27.343750
7067		29.296875
7068		27.343750
7069		31.250000
7070		29.296875
7071		33.203125
7072		31.250000
7073		35.156250
7074		31.250000
7075		37.109375
7076		35.156250
7077		37.109375
7078		35.156250
7079		39.062500
7080		37.109375
7081		41.015625
7082		39.062500
7083		42.968750
7084		39.062500
7085		42.968750
7086		41.015625
7087		44.921875
7088		42.968750
7089		46.875000
7090		42.968750
7091		46.875000
7092		44.921875
7093		48.828125
7094		46.875000
7095		50.781250
7096		48.828125
7097		50.781250
7098		48.828125
7099		52.734375
7100		50.781250
7101		54.687500
7102		52.734375
7103		54.687500
7104		52.734375
7105		56.640625
7106		54.687500
7107		58.593750
7108		54.687500
7109		58.593750
7110		56.640625
7111		60.546875
7112		58.593750
7113		60.546875
7114		58.593750
7115		62.500000
7116		60.546875
7117		64.453125
7118		60.546875
7119		64.453125
7120		62.500000
7121		66.406250
7122		64.453125
7123		66.406250
7124		64.453125
7125		68.359375
7126		66.406250
7127		68.359375
7128		66.406250
7129		70.312500
7130		66.406250
7131		70.312500
7132		68.359375
7133		72.265625
7134		68.359375
7135		72.265625
7136		70.312500
7137		74.218750
7138		70.312500
7139		74.218750
7140		72.265625
7141		76.171875
7142		72.265625
7143		76.171875
7144		74.218750
7145		76.171875
7146		74.218750
7147		78.125000
7148		74.218750
7149		78.125000
7150		76.171875
7151		78.125000
7152		76.171875
7153		78.125000
7154		76.171875
7155		80.078125
7156		76.171875
7157		80.078125
7158		76.171875
7159		80.078125
7160		78.125000
7161		80.078125
7162		78.125000
7163		80.078125
7164		78.125000
7165		82.031250
7166		78.125000
7167		82.031250
7168		80.078125
7169		82.031250
7170		80.078125
7171		82.031250
7172		80.078125
7173		82.031250
7174		78.125000
7175		82.031250
7176		78.125000
7177		83.984375
7178		80.078125
7179		83.984375
7180		80.078125
7181		83.984375
7182		80.078125
7183		83.984375
7184		80.078125
7185		83.984375
7186		80.078125
7187		83.984375
7188		80.078125
7189		83.984375
7190		80.078125
7191		83.984375
7192		80.078125
7193		83.984375
7194		80.078125
7195		82.031250
7196		80.078125
7197		82.031250
7198		78.125000
7199		82.031250
7200		80.078125
7201		82.031250
7202		78.125000
7203		82.031250
7204		78.125000
7205		82.031250
7206		78.125000
7207		82.031250
7208		78.125000
7209		82.031250
7210		76.171875
7211		82.031250
7212		78.125000
7213		80.078125
7214		76.171875
7215		80.078125
7216		76.171875
7217		80.078125
7218		76.171875
7219		78.125000
7220		74.218750
7221		78.125000
7222		74.218750
7223		78.125000
7224		74.218750
7225		76.171875
7226		72.265625
7227		76.171875
7228		72.265625
7229		76.171875
7230		70.312500
7231		74.218750
7232		70.312500
7233		74.218750
7234		70.312500
7235		72.265625
7236		68.359375
7237		72.265625
7238		68.359375
7239		72.265625
7240		66.406250
7241		70.312500
7242		64.453125
7243		70.312500
7244		64.453125
7245		68.359375
7246		64.453125
7247		66.406250
7248		62.500000
7249		66.406250
7250		62.500000
7251		64.453125
7252		60.546875
7253		64.453125
7254		60.546875
7255		62.500000
7256		58.593750
7257		62.500000
7258		56.640625
7259		60.546875
7260		56.640625
7261		60.546875
7262		54.687500
7263		58.593750
7264		52.734375
7265		56.640625
7266		52.734375
7267		54.687500
7268		50.781250
7269		54.687500
7270		50.781250
7271		52.734375
7272		46.875000
7273		50.781250
7274		46.875000
7275		50.781250
7276		44.921875
7277		48.828125
7278		44.921875
7279		46.875000
7280		42.968750
7281		44.921875
7282		41.015625
7283		44.921875
7284		39.062500
7285		42.968750
7286		39.062500
7287		41.015625
7288		37.109375
7289		41.015625
7290		35.156250
7291		39.062500
7292		33.203125
7293		37.109375
7294		33.203125
7295		37.109375
7296		31.250000
7297		33.203125
7298		29.296875
7299		33.203125
7300		27.343750
7301		31.250000
7302		25.390625
7303		29.296875
7304		23.437500
7305		29.296875
7306		23.437500
7307		25.390625
7308		21.484375
7309		25.390625
7310		19.531250
7311		23.437500
7312		17.578125
7313		21.484375
7314		15.625000
7315		19.531250
7316		13.671875
7317		17.578125
7318		13.671875
7319		15.625000
7320		11.718750
7321		15.625000
7322		9.765625
7323		13.671875
7324		7.812500
7325		11.718750
7326		5.859375
7327		9.765625
7328		5.859375
7329		7.812500
7330		3.906250
7331		5.859375
7332		1.953125
7333		5.859375
7334		0.000000
7335		3.906250
7336		-1.953125
7337		1.953125
7338		-1.953125
7339		0.000000
7340		-3.906250
7341		0.000000
7342		-5.859375
7343		-1.953125
7344		-7.812500
7345		-3.906250
7346		-9.765625
7347		-5.859375
7348		-9.765625
7349		-7.812500
7350		-11.718750
7351		-7.812500
7352		-13.671875
7353		-9.765625
7354		-15.625000
7355		-11.718750
7356		-15.625000
7357		-11.718750
7358		-17.578125
7359		-13.671875
7360		-19.531250
7361		-15.625000
7362		-19.531250
7363		-17.578125
7364		-21.484375
7365		-19.531250
7366		-23.437500
7367		-19.531250
7368		-25.390625
7369		-21.484375
7370		-25.390625
7371		-23.437500
7372		-27.343750
7373		-23.437500
7374		-29.296875
7375		-25.390625
7376		-29.296875
7377		-25.390625
7378		-31.250000
7379		-27.343750
7380		-31.250000
7381		-29.296875
7382		-33.203125
7383		-29.296875
7384		-35.156250
7385		-31.250000
7386		-35.156250
7387		-31.250000
7388		-37.109375
7389		-33.203125
7390		-37.109375
7391		-33.203125
7392		-39.062500
7393		-35.156250
7394		-39.062500
7395		-35.156250
7396		-39.062500
7397		-37.109375
7398		-41.015625
7399		-37.109375
7400		-41.015625
7401		-39.062500
7402		-42.968750
7403		-39.062500
7404		-42.968750
7405		-41.015625
7406		-44.921875
7407		-41.015625
7408		-44.921875
7409		-41.015625
7410		-46.875000
7411		-42.968750
7412		-44.921875
7413		-42.968750
7414		-46.875000
7415		-42.968750
7416		-46.875000
7417		-44.921875
7418		-48.828125
7419		-44.921875
7420		-48.828125
7421		-44.921875
7422		-48.828125
7423		-44.921875
7424		-48.828125
7425		-44.921875
7426		-48.828125
7427		-46.875000
7428		-50.781250
7429		-46.875000
7430		-48.828125
7431		-46.875000
7432		-50.781250
7433		-46.875000
7434		-50.781250
7435		-46.875000
7436		-50.781250
7437		-46.875000
7438		-50.781250
7439		-46.875000
7440		-50.781250
7441		-46.875000
7442		-50.781250
7443		-46.875000
7444		-50.781250
7445		-46.875000
7446		-50.781250
7447		-46.875000
7448		-50.781250
7449		-46.875000
7450		-50.781250
7451		-46.875000
7452		-48.828125
7453		-46.875000
7454		-48.828125
7455		-46.875000
7456		-48.828125
7457		-44.921875
7458		-48.828125
7459		-44.921875
7460		-48.828125
7461		-44.921875
7462		-46.875000
7463		-44.921875
7464		-46.875000
7465		-44.921875
7466		-46.875000
7467		-42.968750
7468		-46.875000
7469		-42.968750
7470		-46.875000
7471		-42.968750
7472		-44.921875
7473		-41.015625
7474		-44.921875
7475		-41.015625
7476		-42.968750
7477		-39.062500
7478		-42.968750
7479		-39.062500
7480		-41.015625
7481		-39.062500
7482		-41.015625
7483		-39.062500
7484		-41.015625
7485		-37.109375
7486		-39.062500
7487		-37.109375
7488		-39.062500
7489		-35.156250
7490		-37.109375
7491		-35.156250
7492		-37.109375
7493		-33.203125
7494		-37.109375
7495		-31.250000
7496		-35.156250
7497		-31.250000
7498		-33.203125
7499		-31.250000
7500		-33.203125
7501		-29.296875
7502		-31.250000
7503		-27.343750
7504		-31.250000
7505		-27.343750
7506		-29.296875
7507		-25.390625
7508		-27.343750
7509		-23.437500
7510		-27.343750
7511		-23.437500
7512		-25.390625
7513		-21.484375
7514		-23.437500
7515		-21.484375
7516		-23.437500
7517		-19.531250
7518		-21.484375
7519		-17.578125
7520		-19.531250
7521		-17.578125
7522		-19.531250
7523		-13.671875
7524		-17.578125
7525		-13.671875
7526		-15.625000
7527		-11.718750
7528		-15.625000
7529		-9.765625
7530		-11.718750
7531		-9.765625
7532		-11.718750
7533		-7.812500
7534		-9.765625
7535		-5.859375
7536		-7.812500
7537		-3.906250
7538		-5.859375
7539		-3.906250
7540		-3.906250
7541		0.000000
7542		-3.906250
7543		0.000000
7544		-1.953125
7545		1.953125
7546		-1.953125
7547		3.906250
7548		1.953125
7549		3.906250
7550		1.953125
7551		7.812500
7552		3.906250
7553		7.812500
7554		5.859375
7555		9.765625
7556		7.812500
7557		11.718750
7558		9.765625
7559		13.671875
7560		9.765625
7561		15.625000
7562		11.718750
7563		15.625000
7564		13.671875
7565		17.578125
7566		15.625000
7567		19.531250
7568		17.578125
7569		21.484375
7570		17.578125
7571		23.437500
7572		21.484375
7573		23.437500
7574		21.484375
7575		25.390625
7576		23.437500
7577		27.343750
7578		25.390625
7579		29.296875
7580		27.343750
7581		29.296875
7582		27.343750
7583		31.250000
7584		29.296875
7585		33.203125
7586		31.250000
7587		35.156250
7588		33.203125
7589		37.109375
7590		33.203125
7591		39.062500
7592		35.156250
7593		39.062500
7594		37.109375
7595		41.015625
7596		39.062500
7597		42.968750
7598		41.015625
7599		42.968750
7600		41.015625
7601		44.921875
7602		42.968750
7603		46.875000
7604		44.921875
7605		48.828125
7606		44.921875
7607		48.828125
7608		46.875000
7609		50.781250
7610		48.828125
7611		52.734375
7612		48.828125
7613		52.734375
7614		50.781250
7615		54.687500
7616		52.734375
7617		54.687500
7618		52.734375
7619		56.640625
7620		54.687500
7621		58.593750
7622		56.640625
7623		58.593750
7624		56.640625
7625		60.546875
7626		58.593750
7627		62.500000
7628		58.593750
7629		64.453125
7630		58.593750
7631		64.453125
7632		62.500000
7633		64.453125
7634		62.500000
7635		66.406250
7636		64.453125
7637		66.406250
7638		64.453125
7639		68.359375
7640		66.406250
7641		68.359375
7642		66.406250
7643		70.312500
7644		68.359375
7645		70.312500
7646		68.359375
7647		72.265625
7648		70.312500
7649		72.265625
7650		70.312500
7651		72.265625
7652		70.312500
7653		74.218750
7654		72.265625
7655		74.218750
7656		72.265625
7657		76.171875
7658		72.265625
7659		76.171875
7660		74.218750
7661		76.171875
7662		74.218750
7663		78.125000
7664		74.218750
7665		78.125000
7666		76.171875
7667		78.125000
7668		74.218750
7669		78.125000
7670		76.171875
7671		80.078125
7672		76.171875
7673		80.078125
7674		76.171875
7675		80.078125
7676		78.125000
7677		82.031250
7678		78.125000
7679		80.078125
7680		78.125000
7681		82.031250
7682		80.078125
7683		82.031250
7684		80.078125
7685		82.031250
7686		80.078125
7687		82.031250
7688		80.078125
7689		82.031250
7690		80.078125
7691		82.031250
7692		80.078125
7693		82.031250
7694		80.078125
7695		82.031250
7696		80.078125
7697		83.984375
7698		80.078125
7699		82.031250
7700		80.078125
7701		82.031250
7702		80.078125
7703		83.984375
7704		80.078125
7705		82.031250
7706		80.078125
7707		82.031250
7708		78.125000
7709		82.031250
7710		80.078125
7711		82.031250
7712		78.125000
7713		82.031250
7714		78.125000
7715		82.031250
7716		78.125000
7717		80.078125
7718		78.125000
7719		82.031250
7720		78.125000
7721		82.031250
7722		76.171875
7723		80.078125
7724		76.171875
7725		80.078125
7726		76.171875
7727		80.078125
7728		76.171875
7729		78.125000
7730		74.218750
7731		78.125000
7732		74.218750
7733		78.125000
7734		74.218750
7735		78.125000
7736		74.218750
7737		76.171875
7738		72.265625
7739		76.171875
7740		72.265625
7741		74.218750
7742		70.312500
7743		74.218750
7744		70.312500
7745		74.218750
7746		70.312500
7747		72.265625
7748		68.359375
7749		72.265625
7750		68.359375
7751		70.312500
7752		66.406250
7753		70.312500
7754		66.406250
7755		70.312500
7756		64.453125
7757		68.359375
7758		64.453125
7759		68.359375
7760		62.500000
7761		66.406250
7762		62.500000
7763		66.406250
7764		60.546875
7765		64.453125
7766		60.546875
7767		62.500000
7768		58.593750
7769		62.500000
7770		56.640625
7771		60.546875
7772		56.640625
7773		60.546875
7774		56.640625
7775		58.593750
7776		54.687500
7777		56.640625
7778		52.734375
7779		56.640625
7780		50.781250
7781		54.687500
7782		50.781250
7783		52.734375
7784		48.828125
7785		52.734375
7786		46.875000
7787		50.781250
7788		46.875000
7789		48.828125
7790		44.921875
7791		48.828125
7792		42.968750
7793		46.875000
7794		42.968750
7795		46.875000
7796		41.015625
7797		44.921875
7798		39.062500
7799		42.968750
7800		37.109375
7801		41.015625
7802		35.156250
7803		39.062500
7804		35.156250
7805		39.062500
7806		33.203125
7807		37.109375
7808		31.250000
7809		35.156250
7810		29.296875
7811		33.203125
7812		27.343750
7813		31.250000
7814		27.343750
7815		31.250000
7816		25.390625
7817		29.296875
7818		23.437500
7819		27.343750
7820		21.484375
7821		27.343750
7822		19.531250
7823		23.437500
7824		19.531250
7825		21.484375
7826		17.578125
7827		21.484375
7828		15.625000
7829		19.531250
7830		13.671875
7831		17.578125
7832		11.718750
7833		15.625000
7834		9.765625
7835		15.625000
7836		9.765625
7837		11.718750
7838		7.812500
7839		11.718750
7840		5.859375
7841		9.765625
7842		3.906250
7843		7.812500
7844		1.953125
7845		5.859375
7846		0.000000
7847		5.859375
7848		0.000000
7849		3.906250
7850		-1.953125
7851		1.953125
7852		-5.859375
7853		0.000000
7854		-5.859375
7855		-1.953125
7856		-5.859375
7857		-3.906250
7858		-7.812500
7859		-3.906250
7860		-9.765625
7861		-5.859375
7862		-11.718750
7863		-7.812500
7864		-13.671875
7865		-9.765625
7866		-15.625000
7867		-11.718750
7868		-15.625000
7869		-11.718750
7870		-17.578125
7871		-13.671875
7872		-19.531250
7873		-15.625000
7874		-21.484375
7875		-17.578125
7876		-21.484375
7877		-17.578125
7878		-23.437500
7879		-19.531250
7880		-23.437500
7881		-21.484375
7882		-25.390625
7883		-21.484375
7884		-27.343750
7885		-23.437500
7886		-29.296875
7887		-25.390625
7888		-29.296875
7889		-25.390625
7890		-31.250000
7891		-27.343750
7892		-31.250000
7893		-27.343750
7894		-33.203125
7895		-29.296875
7896		-35.156250
7897		-31.250000
7898		-35.156250
7899		-31.250000
7900		-37.109375
7901		-33.203125
7902		-37.109375
7903		-35.156250
7904		-39.062500
7905		-35.156250
7906		-39.062500
7907		-35.156250
7908		-41.015625
7909		-37.109375
7910		-41.015625
7911		-37.109375
7912		-42.968750
7913		-39.062500
7914		-42.968750
7915		-39.062500
7916		-42.968750
7917		-39.062500
7918		-44.921875
7919		-41.015625
7920		-44.921875
7921		-41.015625
7922		-46.875000
7923		-41.015625
7924		-48.828125
7925		-41.015625
7926		-46.875000
7927		-42.968750
7928		-46.875000
7929		-42.968750
7930		-46.875000
7931		-44.921875
7932		-48.828125
7933		-44.921875
7934		-48.828125
7935		-46.875000
7936		-50.781250
7937		-46.875000
7938		-50.781250
7939		-44.921875
7940		-50.781250
7941		-44.921875
7942		-50.781250
7943		-44.921875
7944		-50.781250
7945		-46.875000
7946		-50.781250
7947		-46.875000
7948		-50.781250
7949		-46.875000
7950		-50.781250
7951		-48.828125
7952		-50.781250
7953		-48.828125
7954		-50.781250
7955		-46.875000
7956		-52.734375
7957		-44.921875
7958		-50.781250
7959		-44.921875
7960		-52.734375
7961		-44.921875
7962		-50.781250
7963		-46.875000
7964		-50.781250
7965		-46.875000
7966		-50.781250
7967		-46.875000
7968		-48.828125
7969		-46.875000
7970		-48.828125
7971		-44.921875
7972		-50.781250
7973		-44.921875
7974		-50.781250
7975		-44.921875
7976		-50.781250
7977		-42.968750
7978		-48.828125
7979		-42.968750
7980		-48.828125
7981		-42.968750
7982		-46.875000
7983		-41.015625
7984		-44.921875
7985		-42.968750
7986		-44.921875
7987		-42.968750
7988		-44.921875
7989		-39.062500
7990		-44.921875
7991		-39.062500
7992		-44.921875
7993		-37.109375
7994		-42.968750
7995		-37.109375
7996		-42.968750
7997		-37.109375
7998		-41.015625
7999		-35.156250
8000		-41.015625
8001		-35.156250
8002		-39.062500
8003		-35.156250
8004		-39.062500
8005		-33.203125
8006		-39.062500
8007		-31.250000
8008		-37.109375
8009		-31.250000
8010		-35.156250
8011		-29.296875
8012		-35.156250
8013		-29.296875
8014		-35.156250
8015		-27.343750
8016		-33.203125
8017		-25.390625
8018		-29.296875
8019		-25.390625
8020		-27.343750
8021		-25.390625
8022		-29.296875
8023		-23.437500
8024		-29.296875
8025		-19.531250
8026		-27.343750
8027		-19.531250
8028		-25.390625
8029		-19.531250
8030		-23.437500
8031		-17.578125
8032		-23.437500
8033		-15.625000
8034		-19.531250
8035		-15.625000
8036		-17.578125
8037		-13.671875
8038		-17.578125
8039		-11.718750
8040		-17.578125
8041		-9.765625
8042		-15.625000
8043		-7.812500
8044		-13.671875
8045		-5.859375
8046		-11.718750
8047		-5.859375
8048		-9.765625
8049		-3.906250
8050		-9.765625
8051		-3.906250
8052		-5.859375
8053		-1.953125
8054		-3.906250
8055		0.000000
8056		-5.859375
8057		1.953125
8058		-1.953125
8059		3.906250
8060		-1.953125
8061		5.859375
8062		0.000000
8063		5.859375
8064		1.953125
8065		7.812500
8066		3.906250
8067		9.765625
8068		5.859375
8069		9.765625
8070		7.812500
8071		11.718750
8072		7.812500
8073		15.625000
8074		9.765625
8075		17.578125
8076		11.718750
8077		17.578125
8078		11.718750
8079		19.531250
8080		13.671875
8081		21.484375
8082		15.625000
8083		23.437500
8084		17.578125
8085		23.437500
8086		21.484375
8087		23.437500
8088		21.484375
8089		29.296875
8090		21.484375
8091		29.296875
8092		23.437500
8093		31.250000
8094		25.390625
8095		31.250000
8096		27.343750
8097		33.203125
8098		29.296875
8099		35.156250
8100		29.296875
8101		35.156250
8102		33.203125
8103		37.109375
8104		35.156250
8105		37.109375
8106		33.203125
8107		41.015625
8108		35.156250
8109		42.968750
8110		37.109375
8111		44.921875
8112		39.062500
8113		44.921875
8114		41.015625
8115		46.875000
8116		41.015625
8117		48.828125
8118		44.921875
8119		46.875000
8120		46.875000
8121		48.828125
8122		44.921875
8123		52.734375
8124		46.875000
8125		52.734375
8126		48.828125
8127		54.687500
8128		48.828125
8129		56.640625
8130		50.781250
8131		56.640625
8132		52.734375
8133		58.593750
8134		52.734375
8135		58.593750
8136		56.640625
8137		58.593750
8138		56.640625
8139		60.546875
8140		56.640625
8141		64.453125
8142		56.640625
8143		64.453125
8144		58.593750
8145		64.453125
8146		60.546875
8147		66.406250
8148		60.546875
8149		68.359375
8150		62.500000
8151		68.359375
8152		64.453125
8153		68.359375
8154		66.406250
8155		68.359375
8156		66.406250
8157		72.265625
8158		64.453125
8159		72.265625
8160		66.406250
8161		72.265625
8162		68.359375
8163		74.218750
8164		68.359375
8165		74.218750
8166		68.359375
8167		76.171875
8168		70.312500
8169		76.171875
8170		72.265625
8171		74.218750
8172		70.312500
8173		78.125000
8174		72.265625
8175		78.125000
8176		72.265625
8177		78.125000
8178		72.265625
8179		80.078125
8180		74.218750
8181		80.078125
8182		74.218750
8183		80.078125
8184		74.218750
8185		82.031250
8186		76.171875
8187		80.078125
8188		78.125000
8189		80.078125
8190		76.171875
8191		82.031250
8192		76.171875
8193		82.031250
8194		76.171875
8195		83.984375
8196		76.171875
8197		83.984375
8198		78.125000
8199		83.984375
8200		76.171875
8201		83.984375
8202		78.125000
8203		82.031250
8204		80.078125
8205		82.031250
8206		78.125000
8207		83.984375
8208		78.125000
8209		83.984375
8210		78.125000
8211		83.984375
8212		78.125000
8213		83.984375
8214		78.125000
8215		83.984375
8216		78.125000
8217		83.984375
8218		78.125000
8219		83.984375
8220		80.078125
8221		82.031250
8222		78.125000
8223		82.031250
8224		76.171875
8225		83.984375
8226		76.171875
8227		83.984375
8228		76.171875
8229		83.984375
8230		76.171875
8231		82.031250
8232		76.171875
8233		82.031250
8234		76.171875
8235		82.031250
8236		78.125000
8237		80.078125
8238		76.171875
8239		80.078125
8240		74.218750
8241		80.078125
8242		74.218750
8243		80.078125
8244		72.265625
8245		80.078125
8246		72.265625
8247		78.125000
8248		72.265625
8249		78.125000
8250		70.312500
8251		78.125000
8252		70.312500
8253		78.125000
8254		72.265625
8255		74.218750
8256		68.359375
8257		74.218750
8258		68.359375
8259		74.218750
8260		66.406250
8261		74.218750
8262		66.406250
8263		74.218750
8264		66.406250
8265		72.265625
8266		64.453125
8267		70.312500
8268		64.453125
8269		70.312500
8270		64.453125
8271		68.359375
8272		64.453125
8273		66.406250
8274		60.546875
8275		68.359375
8276		58.593750
8277		66.406250
8278		58.593750
8279		66.406250
8280		56.640625
8281		64.453125
8282		56.640625
8283		62.500000
8284		54.687500
8285		62.500000
8286		54.687500
8287		60.546875
8288		54.687500
8289		56.640625
8290		52.734375
8291		58.593750
8292		50.781250
8293		56.640625
8294		48.828125
8295		56.640625
8296		48.828125
8297		54.687500
8298		46.875000
8299		52.734375
8300		44.921875
8301		52.734375
8302		44.921875
8303		50.781250
8304		44.921875
8305		46.875000
8306		41.015625
8307		46.875000
8308		39.062500
8309		46.875000
8310		39.062500
8311		44.921875
8312		37.109375
8313		42.968750
8314		35.156250
8315		42.968750
8316		33.203125
8317		41.015625
8318		33.203125
8319		39.062500
8320		33.203125
8321		35.156250
8322		31.250000
8323		35.156250
8324		27.343750
8325		33.203125
8326		25.390625
8327		33.203125
8328		23.437500
8329		31.250000
8330		23.437500
8331		31.250000
8332		21.484375
8333		29.296875
8334		19.531250
8335		27.343750
8336		19.531250
8337		25.390625
8338		19.531250
8339		21.484375
8340		13.671875
8341		21.484375
8342		13.671875
8343		21.484375
8344		11.718750
8345		19.531250
8346		11.718750
8347		17.578125
8348		9.765625
8349		15.625000
8350		5.859375
8351		13.671875
8352		5.859375
8353		11.718750
8354		5.859375
8355		9.765625
8356		3.906250
8357		7.812500
8358		0.000000
8359		7.812500
8360		0.000000
8361		5.859375
8362		-3.906250
8363		3.906250
8364		-3.906250
8365		1.953125
8366		-5.859375
8367		1.953125
8368		-7.812500
8369		0.000000
8370		-7.812500
8371		-1.953125
8372		-7.812500
8373		-5.859375
8374		-11.718750
8375		-5.859375
8376		-13.671875
8377		-5.859375
8378		-15.625000
8379		-7.812500
8380		-17.578125
8381		-9.765625
8382		-17.578125
8383		-9.765625
8384		-19.531250
8385		-11.718750
8386		-19.531250
8387		-13.671875
8388		-19.531250
8389		-17.578125
8390		-23.437500
8391		-19.531250
8392		-25.390625
8393		-17.578125
8394		-25.390625
8395		-19.531250
8396		-27.343750
8397		-21.484375
8398		-29.296875
8399		-21.484375
8400		-31.250000
8401		-23.437500
8402		-31.250000
8403		-23.437500
8404		-31.250000
8405		-27.343750
8406		-31.250000
8407		-29.296875
8408		-35.156250
8409		-29.296875
8410		-35.156250
8411		-29.296875
8412		-37.109375
8413		-31.250000
8414		-37.109375
8415		-31.250000
8416		-39.062500
8417		-33.203125
8418		-41.015625
8419		-33.203125
8420		-41.015625
8421		-33.203125
8422		-41.015625
8423		-37.109375
8424		-42.968750
8425		-37.109375
8426		-42.968750
8427		-37.109375
8428		-44.921875
8429		-37.109375
8430		-46.875000
8431		-39.062500
8432		-46.875000
8433		-39.062500
8434		-46.875000
8435		-41.015625
8436		-46.875000
8437		-41.015625
8438		-46.875000
8439		-42.968750
8440		-46.875000
8441		-44.921875
8442		-50.781250
8443		-42.968750
8444		-50.781250
8445		-44.921875
8446		-50.781250
8447		-44.921875
8448		-50.781250
8449		-44.921875
8450		-52.734375
8451		-44.921875
8452		-52.734375
8453		-44.921875
8454		-50.781250
8455		-46.875000
8456		-50.781250
8457		-46.875000
8458		-52.734375
8459		-46.875000
8460		-52.734375
8461		-46.875000
8462		-52.734375
8463		-46.875000
8464		-52.734375
8465		-46.875000
8466		-52.734375
8467		-46.875000
8468		-52.734375
8469		-46.875000
8470		-52.734375
8471		-46.875000
8472		-50.781250
8473		-48.828125
8474		-50.781250
8475		-46.875000
8476		-52.734375
8477		-46.875000
8478		-52.734375
8479		-44.921875
8480		-52.734375
8481		-46.875000
8482		-52.734375
8483		-44.921875
8484		-52.734375
8485		-44.921875
8486		-50.781250
8487		-44.921875
8488		-48.828125
8489		-46.875000
8490		-48.828125
8491		-44.921875
8492		-50.781250
8493		-42.968750
8494		-48.828125
8495		-42.968750
8496		-48.828125
8497		-41.015625
8498		-46.875000
8499		-41.015625
8500		-46.875000
8501		-41.015625
8502		-46.875000
8503		-41.015625
8504		-44.921875
8505		-39.062500
8506		-42.968750
8507		-41.015625
8508		-42.968750
8509		-37.109375
8510		-42.968750
8511		-37.109375
8512		-42.968750
8513		-35.156250
8514		-41.015625
8515		-35.156250
8516		-41.015625
8517		-33.203125
8518		-39.062500
8519		-33.203125
8520		-39.062500
8521		-31.250000
8522		-35.156250
8523		-33.203125
8524		-33.203125
8525		-31.250000
8526		-33.203125
8527		-29.296875
8528		-33.203125
8529		-27.343750
8530		-31.250000
8531		-25.390625
8532		-31.250000
8533		-25.390625
8534		-29.296875
8535		-23.437500
8536		-27.343750
8537		-23.437500
8538		-27.343750
8539		-23.437500
8540		-23.437500
8541		-21.484375
8542		-25.390625
8543		-17.578125
8544		-23.437500
8545		-15.625000
8546		-21.484375
8547		-15.625000
8548		-21.484375
8549		-13.671875
8550		-19.531250
8551		-11.718750
8552		-17.578125
8553		-11.718750
8554		-15.625000
8555		-9.765625
8556		-13.671875
8557		-9.765625
8558		-11.718750
8559		-7.812500
8560		-11.718750
8561		-5.859375
8562		-9.765625
8563		-3.906250
8564		-9.765625
8565		-1.953125
8566		-7.812500
8567		0.000000
8568		-5.859375
8569		1.953125
8570		-3.906250
8571		1.953125
8572		0.000000
8573		1.953125
8574		0.000000
8575		3.906250
8576		1.953125
8577		7.812500
8578		1.953125
8579		9.765625
8580		3.906250
8581		9.765625
8582		3.906250
8583		11.718750
8584		5.859375
8585		13.671875
8586		9.765625
8587		15.625000
8588		9.765625
8589		15.625000
8590		13.671875
8591		15.625000
8592		15.625000
8593		19.531250
8594		15.625000
8595		21.484375
8596		15.625000
8597		23.437500
8598		19.531250
8599		25.390625
8600		19.531250
8601		27.343750
8602		21.484375
8603		27.343750
8604		23.437500
8605		29.296875
8606		25.390625
8607		29.296875
8608		27.343750
8609		31.250000
8610		27.343750
8611		33.203125
8612		29.296875
8613		37.109375
8614		29.296875
8615		37.109375
8616		31.250000
8617		39.062500
8618		33.203125
8619		41.015625
8620		35.156250
8621		41.015625
8622		37.109375
8623		41.015625
8624		39.062500
8625		42.968750
8626		39.062500
8627		46.875000
8628		41.015625
8629		46.875000
8630		42.968750
8631		48.828125
8632		42.968750
8633		50.781250
8634		44.921875
8635		52.734375
8636		44.921875
8637		52.734375
8638		46.875000
8639		52.734375
8640		50.781250
8641		52.734375
8642		50.781250
8643		56.640625
8644		50.781250
8645		58.593750
8646		52.734375
8647		58.593750
8648		52.734375
8649		60.546875
8650		54.687500
8651		60.546875
8652		56.640625
8653		62.500000
8654		56.640625
8655		64.453125
8656		60.546875
8657		62.500000
8658		60.546875
8659		64.453125
8660		60.546875
8661		66.406250
8662		60.546875
8663		68.359375
8664		62.500000
8665		68.359375
8666		64.453125
8667		70.312500
8668		64.453125
8669		70.312500
8670		64.453125
8671		72.265625
8672		66.406250
8673		72.265625
8674		68.359375
8675		70.312500
8676		68.359375
8677		72.265625
8678		68.359375
8679		74.218750
8680		68.359375
8681		76.171875
8682		70.312500
8683		76.171875
8684		70.312500
8685		76.171875
8686		70.312500
8687		76.171875
8688		72.265625
8689		78.125000
8690		74.218750
8691		76.171875
8692		74.218750
8693		78.125000
8694		74.218750
8695		80.078125
8696		74.218750
8697		80.078125
8698		74.218750
8699		80.078125
8700		76.171875
8701		82.031250
8702		74.218750
8703		82.031250
8704		76.171875
8705		82.031250
8706		76.171875
8707		82.031250
8708		78.125000
8709		80.078125
8710		76.171875
8711		83.984375
8712		76.171875
8713		83.984375
8714		78.125000
8715		83.984375
8716		78.125000
8717		83.984375
8718		76.171875
8719		83.984375
8720		78.125000
8721		83.984375
8722		78.125000
8723		83.984375
8724		80.078125
8725		82.031250
8726		80.078125
8727		82.031250
8728		78.125000
8729		83.984375
8730		78.125000
8731		83.984375
8732		78.125000
8733		83.984375
8734		78.125000
8735		83.984375
8736		78.125000
8737		83.984375
8738		76.171875
8739		83.984375
8740		80.078125
8741		80.078125
8742		78.125000
8743		80.078125
8744		76.171875
8745		82.031250
8746		76.171875
8747		82.031250
8748		76.171875
8749		82.031250
8750		76.171875
8751		82.031250
8752		74.218750
8753		82.031250
8754		74.218750
8755		80.078125
8756		74.218750
8757		80.078125
8758		74.218750
8759		78.125000
8760		74.218750
8761		76.171875
8762		72.265625
8763		78.125000
8764		70.312500
8765		78.125000
8766		70.312500
8767		78.125000
8768		70.312500
8769		76.171875
8770		68.359375
8771		76.171875
8772		68.359375
8773		74.218750
8774		70.312500
8775		72.265625
8776		68.359375
8777		70.312500
8778		64.453125
8779		72.265625
8780		64.453125
8781		70.312500
8782		62.500000
8783		70.312500
8784		62.500000
8785		68.359375
8786		62.500000
8787		68.359375
8788		60.546875
8789		66.406250
8790		60.546875
8791		66.406250
8792		60.546875
8793		62.500000
8794		58.593750
8795		64.453125
8796		56.640625
8797		62.500000
8798		54.687500
8799		62.500000
8800		52.734375
8801		60.546875
8802		52.734375
8803		60.546875
8804		52.734375
8805		58.593750
8806		50.781250
8807		56.640625
8808		50.781250
8809		54.687500
8810		50.781250
8811		52.734375
8812		46.875000
8813		52.734375
8814		44.921875
8815		52.734375
8816		42.968750
8817		50.781250
8818		42.968750
8819		48.828125
8820		41.015625
8821		46.875000
8822		39.062500
8823		46.875000
8824		41.015625
8825		42.968750
8826		39.062500
8827		41.015625
8828		35.156250
8829		41.015625
8830		33.203125
8831		41.015625
8832		31.250000
8833		39.062500
8834		31.250000
8835		37.109375
8836		29.296875
8837		35.156250
8838		27.343750
8839		35.156250
8840		27.343750
8841		33.203125
8842		25.390625
8843		29.296875
8844		23.437500
8845		27.343750
8846		21.484375
8847		27.343750
8848		19.531250
8849		27.343750
8850		17.578125
8851		25.390625
8852		15.625000
8853		23.437500
8854		13.671875
8855		21.484375
8856		13.671875
8857		19.531250
8858		13.671875
8859		15.625000
8860		11.718750
8861		15.625000
8862		7.812500
8863		13.671875
8864		5.859375
8865		13.671875
8866		5.859375
8867		11.718750
8868		1.953125
8869		9.765625
8870		1.953125
8871		9.765625
8872		0.000000
8873		7.812500
8874		0.000000
8875		5.859375
8876		-1.953125
8877		1.953125
8878		-3.906250
8879		1.953125
8880		-5.859375
8881		0.000000
8882		-7.812500
8883		0.000000
8884		-7.812500
8885		-1.953125
8886		-11.718750
8887		-3.906250
8888		-11.718750
8889		-5.859375
8890		-13.671875
8891		-5.859375
8892		-13.671875
8893		-9.765625
8894		-15.625000
8895		-11.718750
8896		-19.531250
8897		-11.718750
8898		-19.531250
8899		-11.718750
8900		-21.484375
8901		-13.671875
8902		-21.484375
8903		-15.625000
8904		-23.437500
8905		-15.625000
8906		-25.390625
8907		-17.578125
8908		-25.390625
8909		-19.531250
8910		-25.390625
8911		-21.484375
8912		-29.296875
8913		-23.437500
8914		-29.296875
8915		-23.437500
8916		-31.250000
8917		-25.390625
8918		-33.203125
8919		-25.390625
8920		-35.156250
8921		-27.343750
8922		-35.156250
8923		-29.296875
8924		-35.156250
8925		-29.296875
8926		-35.156250
8927		-33.203125
8928		-37.109375
8929		-33.203125
8930		-39.062500
8931		-33.203125
8932		-41.015625
8933		-33.203125
8934		-41.015625
8935		-35.156250
8936		-42.968750
8937		-35.156250
8938		-42.968750
8939		-37.109375
8940		-44.921875
8941		-37.109375
8942		-42.968750
8943		-41.015625
8944		-42.968750
8945		-41.015625
8946		-46.875000
8947		-41.015625
8948		-46.875000
8949		-41.015625
8950		-46.875000
8951		-41.015625
8952		-46.875000
8953		-41.015625
8954		-48.828125
8955		-41.015625
8956		-48.828125
8957		-42.968750
8958		-50.781250
8959		-42.968750
8960		-48.828125
8961		-46.875000
8962		-50.781250
8963		-44.921875
8964		-50.781250
8965		-44.921875
8966		-52.734375
8967		-44.921875
8968		-52.734375
8969		-44.921875
8970		-52.734375
8971		-44.921875
8972		-52.734375
8973		-46.875000
8974		-52.734375
8975		-46.875000
8976		-50.781250
8977		-48.828125
8978		-50.781250
8979		-46.875000
8980		-52.734375
8981		-46.875000
8982		-52.734375
8983		-46.875000
8984		-52.734375
8985		-46.875000
8986		-52.734375
8987		-44.921875
8988		-52.734375
8989		-44.921875
8990		-52.734375
8991		-44.921875
8992		-50.781250
8993		-46.875000
8994		-48.828125
8995		-46.875000
8996		-50.781250
8997		-44.921875
8998		-50.781250
8999		-44.921875
9000		-50.781250
9001		-44.921875
9002		-50.781250
9003		-44.921875
9004		-50.781250
9005		-42.968750
9006		-48.828125
9007		-42.968750
9008		-48.828125
9009		-42.968750
9010		-46.875000
9011		-42.968750
9012		-44.921875
9013		-42.968750
9014		-46.875000
9015		-39.062500
9016		-46.875000
9017		-39.062500
9018		-44.921875
9019		-39.062500
9020		-44.921875
9021		-37.109375
9022		-44.921875
9023		-37.109375
9024		-42.968750
9025		-37.109375
9026		-41.015625
9027		-37.109375
9028		-39.062500
9029		-37.109375
9030		-39.062500
9031		-33.203125
9032		-39.062500
9033		-33.203125
9034		-39.062500
9035		-31.250000
9036		-37.109375
9037		-31.250000
9038		-37.109375
9039		-29.296875
9040		-35.156250
9041		-27.343750
9042		-33.203125
9043		-27.343750
9044		-31.250000
9045		-27.343750
9046		-31.250000
9047		-25.390625
9048		-31.250000
9049		-23.437500
9050		-29.296875
9051		-21.484375
9052		-27.343750
9053		-21.484375
9054		-25.390625
9055		-19.531250
9056		-25.390625
9057		-17.578125
9058		-23.437500
9059		-17.578125
9060		-19.531250
9061		-17.578125
9062		-19.531250
9063		-13.671875
9064		-19.531250
9065		-11.718750
9066		-17.578125
9067		-9.765625
9068		-15.625000
9069		-9.765625
9070		-15.625000
9071		-7.812500
9072		-13.671875
9073		-5.859375
9074		-11.718750
9075		-5.859375
9076		-9.765625
9077		-5.859375
9078		-5.859375
9079		-3.906250
9080		-5.859375
9081		0.000000
9082		-5.859375
9083		1.953125
9084		-3.906250
9085		1.953125
9086		-1.953125
9087		3.906250
9088		-1.953125
9089		5.859375
9090		1.953125
9091		7.812500
9092		1.953125
9093		7.812500
9094		5.859375
9095		9.765625
9096		7.812500
9097		11.718750
9098		7.812500
9099		13.671875
9100		7.812500
9101		15.625000
9102		9.765625
9103		17.578125
9104		11.718750
9105		19.531250
9106		13.671875
9107		21.484375
9108		15.625000
9109		21.484375
9110		19.531250
9111		21.484375
9112		19.531250
9113		23.437500
9114		19.531250
9115		27.343750
9116		21.484375
9117		29.296875
9118		23.437500
9119		29.296875
9120		25.390625
9121		31.250000
9122		25.390625
9123		33.203125
9124		27.343750
9125		35.156250
9126		31.250000
9127		35.156250
9128		33.203125
9129		37.109375
9130		33.203125
9131		39.062500
9132		35.156250
9133		41.015625
9134		35.156250
9135		42.968750
9136		37.109375
9137		44.921875
9138		39.062500
9139		44.921875
9140		39.062500
9141		46.875000
9142		41.015625
9143		46.875000
9144		44.921875
9145		46.875000
9146		44.921875
9147		48.828125
9148		46.875000
9149		52.734375
9150		46.875000
9151		52.734375
9152		46.875000
9153		54.687500
9154		48.828125
9155		56.640625
9156		50.781250
9157		56.640625
9158		50.781250
9159		58.593750
9160		52.734375
9161		58.593750
9162		56.640625
9163		58.593750
9164		56.640625
9165		62.500000
9166		56.640625
9167		62.500000
9168		58.593750
9169		64.453125
9170		58.593750
9171		66.406250
9172		58.593750
9173		66.406250
9174		60.546875
9175		68.359375
9176		62.500000
9177		68.359375
9178		64.453125
9179		68.359375
9180		64.453125
9181		68.359375
9182		66.406250
9183		72.265625
9184		66.406250
9185		72.265625
9186		66.406250
9187		74.218750
9188		66.406250
9189		74.218750
9190		68.359375
9191		76.171875
9192		68.359375
9193		76.171875
9194		72.265625
9195		74.218750
9196		72.265625
9197		74.218750
9198		70.312500
9199		78.125000
9200		72.265625
9201		78.125000
9202		72.265625
9203		80.078125
9204		74.218750
9205		80.078125
9206		74.218750
9207		80.078125
9208		74.218750
9209		80.078125
9210		76.171875
9211		80.078125
9212		78.125000
9213		80.078125
9214		74.218750
9215		82.031250
9216		76.171875
9217		82.031250
9218		76.171875
9219		82.031250
9220		76.171875
9221		82.031250
9222		78.125000
9223		83.984375
9224		78.125000
9225		83.984375
9226		76.171875
9227		83.984375
9228		80.078125
9229		82.031250
9230		80.078125
9231		82.031250
9232		78.125000
9233		83.984375
9234		78.125000
9235		83.984375
9236		78.125000
9237		83.984375
9238		78.125000
9239		83.984375
9240		78.125000
9241		83.984375
9242		78.125000
9243		83.984375
9244		80.078125
9245		82.031250
9246		80.078125
9247		82.031250
9248		78.125000
9249		83.984375
9250		78.125000
9251		83.984375
9252		76.171875
9253		83.984375
9254		76.171875
9255		83.984375
9256		76.171875
9257		83.984375
9258		76.171875
9259		82.031250
9260		76.171875
9261		82.031250
9262		78.125000
9263		80.078125
9264		76.171875
9265		80.078125
9266		74.218750
9267		80.078125
9268		72.265625
9269		80.078125
9270		74.218750
9271		80.078125
9272		72.265625
9273		78.125000
9274		72.265625
9275		78.125000
9276		72.265625
9277		78.125000
9278		72.265625
9279		76.171875
9280		72.265625
9281		74.218750
9282		68.359375
9283		76.171875
9284		68.359375
9285		74.218750
9286		68.359375
9287		74.218750
9288		66.406250
9289		74.218750
9290		66.406250
9291		72.265625
9292		64.453125
9293		72.265625
9294		64.453125
9295		72.265625
9296		66.406250
9297		68.359375
9298		62.500000
9299		68.359375
9300		60.546875
9301		68.359375
9302		60.546875
9303		66.406250
9304		58.593750
9305		66.406250
9306		58.593750
9307		64.453125
9308		56.640625
9309		64.453125
9310		56.640625
9311		62.500000
9312		56.640625
9313		60.546875
9314		56.640625
9315		58.593750
9316		52.734375
9317		58.593750
9318		50.781250
9319		58.593750
9320		50.781250
9321		56.640625
9322		46.875000
9323		54.687500
9324		46.875000
9325		54.687500
9326		44.921875
9327		52.734375
9328		46.875000
9329		50.781250
9330		44.921875
9331		48.828125
9332		41.015625
9333		46.875000
9334		41.015625
9335		46.875000
9336		39.062500
9337		44.921875
9338		37.109375
9339		44.921875
9340		35.156250
9341		42.968750
9342		33.203125
9343		41.015625
9344		35.156250
9345		39.062500
9346		33.203125
9347		37.109375
9348		31.250000
9349		35.156250
9350		27.343750
9351		35.156250
9352		27.343750
9353		33.203125
9354		23.437500
9355		33.203125
9356		23.437500
9357		31.250000
9358		21.484375
9359		29.296875
9360		19.531250
9361		27.343750
9362		21.484375
9363		23.437500
9364		19.531250
9365		21.484375
9366		15.625000
9367		21.484375
9368		13.671875
9369		21.484375
9370		11.718750
9371		19.531250
9372		11.718750
9373		17.578125
9374		9.765625
9375		15.625000
9376		7.812500
9377		13.671875
9378		5.859375
9379		11.718750
9380		5.859375
9381		9.765625
9382		3.906250
9383		7.812500
9384		0.000000
9385		7.812500
9386		0.000000
9387		5.859375
9388		-1.953125
9389		3.906250
9390		-3.906250
9391		3.906250
9392		-3.906250
9393		1.953125
9394		-5.859375
9395		0.000000
9396		-5.859375
9397		-3.906250
9398		-7.812500
9399		-5.859375
9400		-11.718750
9401		-3.906250
9402		-13.671875
9403		-5.859375
9404		-15.625000
9405		-7.812500
9406		-15.625000
9407		-9.765625
9408		-17.578125
9409		-11.718750
9410		-19.531250
9411		-11.718750
9412		-19.531250
9413		-13.671875
9414		-19.531250
9415		-17.578125
9416		-23.437500
9417		-17.578125
9418		-25.390625
9419		-17.578125
9420		-27.343750
9421		-19.531250
9422		-27.343750
9423		-21.484375
9424		-29.296875
9425		-23.437500
9426		-31.250000
9427		-23.437500
9428		-31.250000
9429		-25.390625
9430		-31.250000
9431		-27.343750
9432		-31.250000
9433		-29.296875
9434		-35.156250
9435		-29.296875
9436		-35.156250
9437		-29.296875
9438		-37.109375
9439		-31.250000
9440		-39.062500
9441		-31.250000
9442		-39.062500
9443		-33.203125
9444		-41.015625
9445		-33.203125
9446		-39.062500
9447		-37.109375
9448		-41.015625
9449		-37.109375
9450		-42.968750
9451		-37.109375
9452		-44.921875
9453		-37.109375
9454		-44.921875
9455		-39.062500
9456		-44.921875
9457		-39.062500
9458		-46.875000
9459		-39.062500
9460		-46.875000
9461		-41.015625
9462		-48.828125
9463		-41.015625
9464		-46.875000
9465		-44.921875
9466		-48.828125
9467		-44.921875
9468		-48.828125
9469		-42.968750
9470		-50.781250
9471		-42.968750
9472		-50.781250
9473		-44.921875
9474		-50.781250
9475		-44.921875
9476		-52.734375
9477		-44.921875
9478		-50.781250
9479		-44.921875
9480		-50.781250
9481		-46.875000
9482		-50.781250
9483		-48.828125
9484		-52.734375
9485		-46.875000
9486		-52.734375
9487		-46.875000
9488		-52.734375
9489		-46.875000
9490		-52.734375
9491		-46.875000
9492		-52.734375
9493		-46.875000
9494		-52.734375
9495		-46.875000
9496		-52.734375
9497		-46.875000
9498		-50.781250
9499		-48.828125
9500		-52.734375
9501		-46.875000
9502		-52.734375
9503		-46.875000
9504		-52.734375
9505		-46.875000
9506		-52.734375
9507		-44.921875
9508		-52.734375
9509		-46.875000
9510		-52.734375
9511		-44.921875
9512		-50.781250
9513		-44.921875
9514		-48.828125
9515		-46.875000
9516		-48.828125
9517		-46.875000
9518		-50.781250
9519		-42.968750
9520		-48.828125
9521		-42.968750
9522		-48.828125
9523		-42.968750
9524		-48.828125
9525		-41.015625
9526		-48.828125
9527		-41.015625
9528		-46.875000
9529		-41.015625
9530		-44.921875
9531		-41.015625
9532		-42.968750
9533		-41.015625
9534		-44.921875
9535		-37.109375
9536		-42.968750
9537		-37.109375
9538		-42.968750
9539		-37.109375
9540		-42.968750
9541		-35.156250
9542		-41.015625
9543		-35.156250
9544		-39.062500
9545		-33.203125
9546		-39.062500
9547		-33.203125
9548		-37.109375
9549		-33.203125
9550		-37.109375
9551		-31.250000
9552		-37.109375
9553		-29.296875
9554		-35.156250
9555		-29.296875
9556		-35.156250
9557		-27.343750
9558		-33.203125
9559		-25.390625
9560		-31.250000
9561		-25.390625
9562		-29.296875
9563		-23.437500
9564		-27.343750
9565		-23.437500
9566		-25.390625
9567		-23.437500
9568		-25.390625
9569		-19.531250
9570		-25.390625
9571		-17.578125
9572		-23.437500
9573		-15.625000
9574		-21.484375
9575		-15.625000
9576		-19.531250
9577		-13.671875
9578		-19.531250
9579		-11.718750
9580		-17.578125
9581		-11.718750
9582		-13.671875
9583		-11.718750
9584		-13.671875
9585		-7.812500
9586		-13.671875
9587		-7.812500
9588		-11.718750
9589		-3.906250
9590		-9.765625
9591		-3.906250
9592		-9.765625
9593		-1.953125
9594		-7.812500
9595		0.000000
9596		-5.859375
9597		0.000000
9598		-1.953125
9599		0.000000
9600		0.000000
9601		1.953125
9602		0.000000
9603		5.859375
9604		0.000000
9605		7.812500
9606		1.953125
9607		9.765625
9608		3.906250
9609		9.765625
9610		3.906250
9611		11.718750
9612		7.812500
9613		13.671875
9614		9.765625
9615		13.671875
9616		11.718750
9617		15.625000
9618		13.671875
9619		19.531250
9620		13.671875
9621		19.531250
9622		15.625000
9623		21.484375
9624		17.578125
9625		23.437500
9626		17.578125
9627		25.390625
9628		19.531250
9629		27.343750
9630		21.484375
9631		27.343750
9632		25.390625
9633		27.343750
9634		27.343750
9635		31.250000
9636		25.390625
9637		33.203125
9638		27.343750
9639		33.203125
9640		29.296875
9641		35.156250
9642		31.250000
9643		37.109375
9644		31.250000
9645		39.062500
9646		33.203125
9647		41.015625
9648		37.109375
9649		41.015625
9650		39.062500
9651		41.015625
9652		39.062500
9653		44.921875
9654		39.062500
9655		46.875000
9656		41.015625
9657		48.828125
9658		42.968750
9659		48.828125
9660		42.968750
9661		50.781250
9662		44.921875
9663		52.734375
9664		46.875000
9665		52.734375
9666		48.828125
9667		52.734375
9668		50.781250
9669		56.640625
9670		50.781250
9671		56.640625
9672		50.781250
9673		58.593750
9674		52.734375
9675		58.593750
9676		54.687500
9677		60.546875
9678		54.687500
9679		62.500000
9680		56.640625
9681		62.500000
9682		60.546875
9683		62.500000
9684		60.546875
9685		62.500000
9686		60.546875
9687		66.406250
9688		60.546875
9689		68.359375
9690		62.500000
9691		68.359375
9692		62.500000
9693		70.312500
9694		62.500000
9695		70.312500
9696		64.453125
9697		72.265625
9698		66.406250
9699		70.312500
9700		68.359375
9701		70.312500
9702		66.406250
9703		74.218750
9704		68.359375
9705		76.171875
9706		68.359375
9707		76.171875
9708		68.359375
9709		76.171875
9710		70.312500
9711		78.125000
9712		70.312500
9713		78.125000
9714		72.265625
9715		78.125000
9716		74.218750
9717		76.171875
9718		72.265625
9719		80.078125
9720		72.265625
9721		80.078125
9722		74.218750
9723		80.078125
9724		74.218750
9725		82.031250
9726		74.218750
9727		80.078125
9728		74.218750
9729		82.031250
9730		74.218750
9731		82.031250
9732		78.125000
9733		80.078125
9734		78.125000
9735		80.078125
9736		76.171875
9737		82.031250
9738		76.171875
9739		82.031250
9740		76.171875
9741		83.984375
9742		76.171875
9743		83.984375
9744		78.125000
9745		83.984375
9746		78.125000
9747		83.984375
9748		78.125000
9749		83.984375
9750		80.078125
9751		82.031250
9752		76.171875
9753		83.984375
9754		78.125000
9755		83.984375
9756		78.125000
9757		83.984375
9758		76.171875
9759		83.984375
9760		76.171875
9761		83.984375
9762		76.171875
9763		83.984375
9764		76.171875
9765		82.031250
9766		78.125000
9767		82.031250
9768		78.125000
9769		80.078125
9770		76.171875
9771		82.031250
9772		76.171875
9773		82.031250
9774		74.218750
9775		82.031250
9776		74.218750
9777		82.031250
9778		74.218750
9779		82.031250
9780		72.265625
9781		80.078125
9782		74.218750
9783		78.125000
9784		74.218750
9785		76.171875
9786		72.265625
9787		78.125000
9788		70.312500
9789		78.125000
9790		70.312500
9791		78.125000
9792		70.312500
9793		76.171875
9794		68.359375
9795		76.171875
9796		68.359375
9797		74.218750
9798		68.359375
9799		74.218750
9800		68.359375
9801		70.312500
9802		66.406250
9803		72.265625
9804		64.453125
9805		72.265625
9806		64.453125
9807		70.312500
9808		62.500000
9809		70.312500
9810		62.500000
9811		68.359375
9812		60.546875
9813		68.359375
9814		60.546875
9815		66.406250
9816		60.546875
9817		64.453125
9818		60.546875
9819		62.500000
9820		56.640625
9821		64.453125
9822		56.640625
9823		62.500000
9824		54.687500
9825		60.546875
9826		52.734375
9827		60.546875
9828		52.734375
9829		58.593750
9830		50.781250
9831		58.593750
9832		50.781250
9833		56.640625
9834		50.781250
9835		52.734375
9836		46.875000
9837		52.734375
9838		46.875000
9839		52.734375
9840		44.921875
9841		50.781250
9842		42.968750
9843		48.828125
9844		41.015625
9845		48.828125
9846		41.015625
9847		46.875000
9848		39.062500
9849		44.921875
9850		39.062500
9851		42.968750
9852		37.109375
9853		41.015625
9854		35.156250
9855		41.015625
9856		33.203125
9857		41.015625
9858		31.250000
9859		37.109375
9860		29.296875
9861		37.109375
9862		27.343750
9863		35.156250
9864		27.343750
9865		33.203125
9866		27.343750
9867		31.250000
9868		25.390625
9869		29.296875
9870		21.484375
9871		27.343750
9872		21.484375
9873		27.343750
9874		17.578125
9875		25.390625
9876		15.625000
9877		23.437500
9878		15.625000
9879		21.484375
9880		13.671875
9881		21.484375
9882		13.671875
9883		19.531250
9884		11.718750
9885		15.625000
9886		7.812500
9887		13.671875
9888		7.812500
9889		15.625000
9890		5.859375
9891		11.718750
9892		3.906250
9893		11.718750
9894		1.953125
9895		9.765625
9896		1.953125
9897		7.812500
9898		0.000000
9899		7.812500
9900		0.000000
9901		1.953125
9902		-1.953125
9903		1.953125
9904		-3.906250
9905		0.000000
9906		-7.812500
9907		0.000000
9908		-7.812500
9909		-1.953125
9910		-9.765625
9911		-3.906250
9912		-11.718750
9913		-3.906250
9914		-13.671875
9915		-5.859375
9916		-13.671875
9917		-7.812500
9918		-13.671875
9919		-11.718750
9920		-17.578125
9921		-11.718750
9922		-17.578125
9923		-11.718750
9924		-21.484375
9925		-13.671875
9926		-21.484375
9927		-15.625000
9928		-23.437500
9929		-15.625000
9930		-25.390625
9931		-17.578125
9932		-25.390625
9933		-19.531250
9934		-25.390625
9935		-21.484375
9936		-27.343750
9937		-23.437500
9938		-31.250000
9939		-23.437500
9940		-31.250000
9941		-25.390625
9942		-33.203125
9943		-25.390625
9944		-33.203125
9945		-27.343750
9946		-35.156250
9947		-27.343750
9948		-37.109375
9949		-29.296875
9950		-35.156250
9951		-31.250000
9952		-37.109375
9953		-33.203125
9954		-39.062500
9955		-33.203125
9956		-41.015625
9957		-33.203125
9958		-41.015625
9959		-35.156250
9960		-42.968750
9961		-35.156250
9962		-42.968750
9963		-37.109375
9964		-44.921875
9965		-37.109375
9966		-44.921875
9967		-39.062500
9968		-44.921875
9969		-41.015625
9970		-46.875000
9971		-41.015625
9972		-48.828125
9973		-41.015625
9974		-48.828125
9975		-41.015625
9976		-48.828125
9977		-42.968750
9978		-48.828125
9979		-42.968750
9980		-50.781250
9981		-42.968750
9982		-50.781250
9983		-44.921875
9984		-48.828125
9985		-46.875000
9986		-48.828125
9987		-46.875000
9988		-50.781250
9989		-44.921875
9990		-52.734375
9991		-44.921875
9992		-52.734375
9993		-46.875000
9994		-52.734375
9995		-46.875000
9996		-52.734375
9997		-46.875000
9998		-52.734375
9999		-46.875000
10000		-52.734375
