Channel              :		CH1
Frequency            :		973.6Hz
Period               :		1.027ms
PK-PK                :		179.7mV
Probe attenuation    :		1X
Voltage per ADC value:		0.122070mV
Time interval        :		2.00000us

index		CH1_Voltage(mV)
1		89.843750
2		89.843750
3		91.796875
4		89.843750
5		91.796875
6		89.843750
7		91.796875
8		89.843750
9		91.796875
10		87.890625
11		91.796875
12		87.890625
13		91.796875
14		87.890625
15		91.796875
16		87.890625
17		91.796875
18		85.937500
19		89.843750
20		85.937500
21		89.843750
22		85.937500
23		89.843750
24		85.937500
25		89.843750
26		83.984375
27		87.890625
28		83.984375
29		87.890625
30		83.984375
31		85.937500
32		82.031250
33		85.937500
34		80.078125
35		85.937500
36		80.078125
37		83.984375
38		80.078125
39		83.984375
40		80.078125
41		82.031250
42		78.125000
43		82.031250
44		78.125000
45		82.031250
46		76.171875
47		80.078125
48		74.218750
49		78.125000
50		74.218750
51		78.125000
52		72.265625
53		76.171875
54		72.265625
55		74.218750
56		70.312500
57		74.218750
58		70.312500
59		72.265625
60		68.359375
61		72.265625
62		66.406250
63		70.312500
64		66.406250
65		68.359375
66		62.500000
67		68.359375
68		62.500000
69		66.406250
70		60.546875
71		64.453125
72		60.546875
73		62.500000
74		58.593750
75		60.546875
76		56.640625
77		60.546875
78		54.687500
79		58.593750
80		52.734375
81		56.640625
82		52.734375
83		54.687500
84		48.828125
85		52.734375
86		46.875000
87		52.734375
88		46.875000
89		50.781250
90		44.921875
91		48.828125
92		42.968750
93		46.875000
94		41.015625
95		44.921875
96		39.062500
97		42.968750
98		37.109375
99		41.015625
100		35.156250
101		39.062500
102		33.203125
103		37.109375
104		31.250000
105		35.156250
106		29.296875
107		33.203125
108		27.343750
109		31.250000
110		25.390625
111		29.296875
112		23.437500
113		27.343750
114		21.484375
115		25.390625
116		19.531250
117		23.437500
118		17.578125
119		21.484375
120		15.625000
121		19.531250
122		13.671875
123		17.578125
124		11.718750
125		15.625000
126		9.765625
127		13.671875
128		7.812500
129		11.718750
130		5.859375
131		9.765625
132		1.953125
133		7.812500
134		1.953125
135		3.906250
136		-1.953125
137		1.953125
138		-3.906250
139		0.000000
140		-5.859375
141		-1.953125
142		-7.812500
143		-3.906250
144		-9.765625
145		-3.906250
146		-11.718750
147		-7.812500
148		-13.671875
149		-9.765625
150		-15.625000
151		-11.718750
152		-17.578125
153		-13.671875
154		-19.531250
155		-15.625000
156		-21.484375
157		-17.578125
158		-23.437500
159		-19.531250
160		-25.390625
161		-21.484375
162		-27.343750
163		-23.437500
164		-29.296875
165		-25.390625
166		-31.250000
167		-27.343750
168		-33.203125
169		-29.296875
170		-35.156250
171		-31.250000
172		-37.109375
173		-33.203125
174		-39.062500
175		-35.156250
176		-41.015625
177		-37.109375
178		-42.968750
179		-37.109375
180		-42.968750
181		-41.015625
182		-46.875000
183		-42.968750
184		-46.875000
185		-42.968750
186		-48.828125
187		-44.921875
188		-50.781250
189		-46.875000
190		-52.734375
191		-48.828125
192		-54.687500
193		-48.828125
194		-54.687500
195		-50.781250
196		-56.640625
197		-52.734375
198		-56.640625
199		-54.687500
200		-60.546875
201		-54.687500
202		-60.546875
203		-56.640625
204		-62.500000
205		-56.640625
206		-62.500000
207		-60.546875
208		-64.453125
209		-60.546875
210		-64.453125
211		-62.500000
212		-66.406250
213		-62.500000
214		-66.406250
215		-64.453125
216		-68.359375
217		-64.453125
218		-70.312500
219		-66.406250
220		-70.312500
221		-66.406250
222		-70.312500
223		-68.359375
224		-72.265625
225		-68.359375
226		-72.265625
227		-68.359375
228		-74.218750
229		-68.359375
230		-74.218750
231		-72.265625
232		-74.218750
233		-72.265625
234		-76.171875
235		-72.265625
236		-76.171875
237		-72.265625
238		-76.171875
239		-72.265625
240		-78.125000
241		-72.265625
242		-76.171875
243		-74.218750
244		-78.125000
245		-74.218750
246		-78.125000
247		-74.218750
248		-78.125000
249		-74.218750
250		-78.125000
251		-74.218750
252		-78.125000
253		-74.218750
254		-78.125000
255		-74.218750
256		-78.125000
257		-74.218750
258		-78.125000
259		-74.218750
260		-78.125000
261		-74.218750
262		-78.125000
263		-74.218750
264		-76.171875
265		-74.218750
266		-76.171875
267		-72.265625
268		-76.171875
269		-72.265625
270		-76.171875
271		-72.265625
272		-76.171875
273		-72.265625
274		-74.218750
275		-72.265625
276		-74.218750
277		-70.312500
278		-74.218750
279		-70.312500
280		-72.265625
281		-70.312500
282		-72.265625
283		-68.359375
284		-70.312500
285		-68.359375
286		-70.312500
287		-66.406250
288		-68.359375
289		-66.406250
290		-68.359375
291		-64.453125
292		-66.406250
293		-64.453125
294		-66.406250
295		-62.500000
296		-66.406250
297		-62.500000
298		-64.453125
299		-60.546875
300		-62.500000
301		-58.593750
302		-60.546875
303		-56.640625
304		-60.546875
305		-56.640625
306		-58.593750
307		-54.687500
308		-58.593750
309		-54.687500
310		-56.640625
311		-52.734375
312		-54.687500
313		-48.828125
314		-52.734375
315		-48.828125
316		-50.781250
317		-48.828125
318		-50.781250
319		-46.875000
320		-48.828125
321		-44.921875
322		-46.875000
323		-42.968750
324		-44.921875
325		-41.015625
326		-42.968750
327		-39.062500
328		-41.015625
329		-37.109375
330		-39.062500
331		-35.156250
332		-37.109375
333		-33.203125
334		-35.156250
335		-31.250000
336		-33.203125
337		-29.296875
338		-33.203125
339		-27.343750
340		-29.296875
341		-25.390625
342		-27.343750
343		-23.437500
344		-27.343750
345		-21.484375
346		-23.437500
347		-19.531250
348		-21.484375
349		-17.578125
350		-19.531250
351		-15.625000
352		-17.578125
353		-13.671875
354		-15.625000
355		-11.718750
356		-13.671875
357		-9.765625
358		-11.718750
359		-7.812500
360		-9.765625
361		-5.859375
362		-7.812500
363		-1.953125
364		-5.859375
365		-1.953125
366		-3.906250
367		0.000000
368		-1.953125
369		1.953125
370		0.000000
371		5.859375
372		3.906250
373		7.812500
374		3.906250
375		7.812500
376		5.859375
377		11.718750
378		9.765625
379		13.671875
380		11.718750
381		15.625000
382		13.671875
383		17.578125
384		15.625000
385		19.531250
386		15.625000
387		21.484375
388		19.531250
389		23.437500
390		21.484375
391		25.390625
392		23.437500
393		27.343750
394		25.390625
395		29.296875
396		27.343750
397		31.250000
398		29.296875
399		33.203125
400		31.250000
401		35.156250
402		33.203125
403		37.109375
404		35.156250
405		39.062500
406		37.109375
407		41.015625
408		39.062500
409		42.968750
410		41.015625
411		44.921875
412		42.968750
413		46.875000
414		42.968750
415		48.828125
416		44.921875
417		48.828125
418		48.828125
419		50.781250
420		48.828125
421		52.734375
422		50.781250
423		54.687500
424		52.734375
425		56.640625
426		54.687500
427		58.593750
428		54.687500
429		60.546875
430		56.640625
431		60.546875
432		58.593750
433		62.500000
434		60.546875
435		64.453125
436		62.500000
437		66.406250
438		62.500000
439		66.406250
440		64.453125
441		68.359375
442		66.406250
443		70.312500
444		68.359375
445		72.265625
446		68.359375
447		74.218750
448		70.312500
449		72.265625
450		72.265625
451		74.218750
452		72.265625
453		76.171875
454		74.218750
455		78.125000
456		74.218750
457		78.125000
458		74.218750
459		80.078125
460		76.171875
461		80.078125
462		78.125000
463		82.031250
464		78.125000
465		82.031250
466		80.078125
467		82.031250
468		80.078125
469		83.984375
470		82.031250
471		83.984375
472		82.031250
473		85.937500
474		83.984375
475		85.937500
476		83.984375
477		87.890625
478		83.984375
479		87.890625
480		83.984375
481		89.843750
482		85.937500
483		87.890625
484		85.937500
485		89.843750
486		85.937500
487		89.843750
488		87.890625
489		91.796875
490		87.890625
491		91.796875
492		87.890625
493		91.796875
494		87.890625
495		91.796875
496		87.890625
497		91.796875
498		87.890625
499		91.796875
500		89.843750
501		91.796875
502		89.843750
503		93.750000
504		89.843750
505		93.750000
506		89.843750
507		93.750000
508		89.843750
509		93.750000
510		89.843750
511		93.750000
512		89.843750
513		93.750000
514		89.843750
515		91.796875
516		89.843750
517		91.796875
518		89.843750
519		91.796875
520		89.843750
521		91.796875
522		87.890625
523		91.796875
524		87.890625
525		91.796875
526		87.890625
527		91.796875
528		87.890625
529		91.796875
530		87.890625
531		91.796875
532		87.890625
533		89.843750
534		85.937500
535		89.843750
536		85.937500
537		89.843750
538		83.984375
539		87.890625
540		83.984375
541		87.890625
542		83.984375
543		87.890625
544		83.984375
545		85.937500
546		82.031250
547		85.937500
548		82.031250
549		85.937500
550		80.078125
551		83.984375
552		80.078125
553		83.984375
554		80.078125
555		82.031250
556		78.125000
557		82.031250
558		78.125000
559		80.078125
560		76.171875
561		80.078125
562		74.218750
563		78.125000
564		72.265625
565		76.171875
566		72.265625
567		76.171875
568		72.265625
569		74.218750
570		70.312500
571		74.218750
572		68.359375
573		72.265625
574		68.359375
575		72.265625
576		66.406250
577		70.312500
578		64.453125
579		68.359375
580		64.453125
581		66.406250
582		62.500000
583		66.406250
584		60.546875
585		64.453125
586		58.593750
587		62.500000
588		56.640625
589		60.546875
590		56.640625
591		58.593750
592		54.687500
593		58.593750
594		52.734375
595		56.640625
596		50.781250
597		54.687500
598		48.828125
599		52.734375
600		46.875000
601		50.781250
602		44.921875
603		48.828125
604		42.968750
605		48.828125
606		41.015625
607		46.875000
608		41.015625
609		42.968750
610		39.062500
611		42.968750
612		37.109375
613		41.015625
614		35.156250
615		39.062500
616		33.203125
617		37.109375
618		31.250000
619		35.156250
620		29.296875
621		33.203125
622		25.390625
623		31.250000
624		25.390625
625		29.296875
626		23.437500
627		27.343750
628		21.484375
629		25.390625
630		19.531250
631		23.437500
632		15.625000
633		21.484375
634		15.625000
635		19.531250
636		11.718750
637		15.625000
638		9.765625
639		15.625000
640		7.812500
641		11.718750
642		7.812500
643		11.718750
644		3.906250
645		7.812500
646		1.953125
647		7.812500
648		0.000000
649		3.906250
650		-1.953125
651		1.953125
652		-3.906250
653		0.000000
654		-5.859375
655		-1.953125
656		-7.812500
657		-3.906250
658		-9.765625
659		-5.859375
660		-11.718750
661		-7.812500
662		-13.671875
663		-9.765625
664		-15.625000
665		-11.718750
666		-17.578125
667		-13.671875
668		-19.531250
669		-15.625000
670		-23.437500
671		-17.578125
672		-23.437500
673		-19.531250
674		-25.390625
675		-21.484375
676		-27.343750
677		-23.437500
678		-29.296875
679		-25.390625
680		-31.250000
681		-27.343750
682		-33.203125
683		-29.296875
684		-35.156250
685		-31.250000
686		-37.109375
687		-33.203125
688		-39.062500
689		-35.156250
690		-41.015625
691		-37.109375
692		-42.968750
693		-39.062500
694		-44.921875
695		-41.015625
696		-46.875000
697		-41.015625
698		-48.828125
699		-44.921875
700		-48.828125
701		-44.921875
702		-50.781250
703		-46.875000
704		-52.734375
705		-48.828125
706		-54.687500
707		-50.781250
708		-54.687500
709		-52.734375
710		-56.640625
711		-52.734375
712		-58.593750
713		-54.687500
714		-60.546875
715		-56.640625
716		-60.546875
717		-58.593750
718		-62.500000
719		-58.593750
720		-64.453125
721		-60.546875
722		-64.453125
723		-60.546875
724		-66.406250
725		-62.500000
726		-66.406250
727		-64.453125
728		-68.359375
729		-64.453125
730		-70.312500
731		-64.453125
732		-70.312500
733		-66.406250
734		-70.312500
735		-68.359375
736		-72.265625
737		-68.359375
738		-74.218750
739		-68.359375
740		-74.218750
741		-70.312500
742		-74.218750
743		-70.312500
744		-74.218750
745		-72.265625
746		-76.171875
747		-70.312500
748		-76.171875
749		-72.265625
750		-76.171875
751		-74.218750
752		-76.171875
753		-74.218750
754		-78.125000
755		-74.218750
756		-78.125000
757		-74.218750
758		-78.125000
759		-74.218750
760		-78.125000
761		-76.171875
762		-80.078125
763		-74.218750
764		-78.125000
765		-74.218750
766		-80.078125
767		-74.218750
768		-78.125000
769		-76.171875
770		-78.125000
771		-76.171875
772		-78.125000
773		-74.218750
774		-80.078125
775		-72.265625
776		-78.125000
777		-74.218750
778		-78.125000
779		-74.218750
780		-80.078125
781		-74.218750
782		-78.125000
783		-72.265625
784		-76.171875
785		-72.265625
786		-76.171875
787		-72.265625
788		-76.171875
789		-70.312500
790		-76.171875
791		-70.312500
792		-74.218750
793		-70.312500
794		-74.218750
795		-70.312500
796		-72.265625
797		-68.359375
798		-72.265625
799		-66.406250
800		-70.312500
801		-66.406250
802		-68.359375
803		-66.406250
804		-68.359375
805		-64.453125
806		-68.359375
807		-62.500000
808		-68.359375
809		-60.546875
810		-66.406250
811		-60.546875
812		-66.406250
813		-58.593750
814		-64.453125
815		-58.593750
816		-64.453125
817		-56.640625
818		-60.546875
819		-56.640625
820		-58.593750
821		-54.687500
822		-58.593750
823		-52.734375
824		-56.640625
825		-50.781250
826		-54.687500
827		-48.828125
828		-54.687500
829		-46.875000
830		-52.734375
831		-46.875000
832		-50.781250
833		-42.968750
834		-50.781250
835		-42.968750
836		-46.875000
837		-42.968750
838		-44.921875
839		-39.062500
840		-44.921875
841		-37.109375
842		-42.968750
843		-37.109375
844		-41.015625
845		-33.203125
846		-39.062500
847		-33.203125
848		-37.109375
849		-29.296875
850		-35.156250
851		-27.343750
852		-31.250000
853		-27.343750
854		-29.296875
855		-25.390625
856		-29.296875
857		-21.484375
858		-27.343750
859		-19.531250
860		-25.390625
861		-17.578125
862		-23.437500
863		-15.625000
864		-21.484375
865		-13.671875
866		-19.531250
867		-11.718750
868		-17.578125
869		-11.718750
870		-13.671875
871		-9.765625
872		-11.718750
873		-7.812500
874		-11.718750
875		-3.906250
876		-9.765625
877		-1.953125
878		-7.812500
879		0.000000
880		-3.906250
881		3.906250
882		-1.953125
883		3.906250
884		-1.953125
885		5.859375
886		3.906250
887		7.812500
888		5.859375
889		9.765625
890		5.859375
891		11.718750
892		7.812500
893		13.671875
894		9.765625
895		15.625000
896		11.718750
897		19.531250
898		13.671875
899		21.484375
900		15.625000
901		23.437500
902		19.531250
903		23.437500
904		21.484375
905		25.390625
906		23.437500
907		29.296875
908		23.437500
909		31.250000
910		25.390625
911		33.203125
912		27.343750
913		35.156250
914		29.296875
915		37.109375
916		31.250000
917		39.062500
918		33.203125
919		41.015625
920		37.109375
921		41.015625
922		39.062500
923		42.968750
924		39.062500
925		46.875000
926		41.015625
927		48.828125
928		42.968750
929		50.781250
930		44.921875
931		50.781250
932		44.921875
933		52.734375
934		46.875000
935		54.687500
936		50.781250
937		54.687500
938		52.734375
939		56.640625
940		52.734375
941		60.546875
942		54.687500
943		62.500000
944		56.640625
945		62.500000
946		56.640625
947		64.453125
948		58.593750
949		66.406250
950		60.546875
951		66.406250
952		62.500000
953		68.359375
954		64.453125
955		68.359375
956		64.453125
957		72.265625
958		66.406250
959		72.265625
960		66.406250
961		74.218750
962		68.359375
963		74.218750
964		70.312500
965		76.171875
966		70.312500
967		78.125000
968		72.265625
969		78.125000
970		74.218750
971		78.125000
972		76.171875
973		80.078125
974		74.218750
975		82.031250
976		76.171875
977		82.031250
978		76.171875
979		83.984375
980		78.125000
981		83.984375
982		80.078125
983		85.937500
984		80.078125
985		85.937500
986		82.031250
987		83.984375
988		83.984375
989		85.937500
990		82.031250
991		87.890625
992		82.031250
993		89.843750
994		83.984375
995		89.843750
996		83.984375
997		89.843750
998		83.984375
999		89.843750
1000		85.937500
1001		91.796875
1002		85.937500
1003		91.796875
1004		87.890625
1005		89.843750
1006		87.890625
1007		91.796875
1008		85.937500
1009		93.750000
1010		85.937500
1011		91.796875
1012		85.937500
1013		93.750000
1014		87.890625
1015		93.750000
1016		87.890625
1017		93.750000
1018		85.937500
1019		93.750000
1020		89.843750
1021		91.796875
1022		89.843750
1023		91.796875
1024		87.890625
1025		93.750000
1026		87.890625
1027		93.750000
1028		85.937500
1029		93.750000
1030		87.890625
1031		93.750000
1032		85.937500
1033		93.750000
1034		85.937500
1035		91.796875
1036		85.937500
1037		93.750000
1038		87.890625
1039		89.843750
1040		85.937500
1041		91.796875
1042		85.937500
1043		91.796875
1044		83.984375
1045		91.796875
1046		83.984375
1047		89.843750
1048		83.984375
1049		89.843750
1050		82.031250
1051		89.843750
1052		82.031250
1053		89.843750
1054		83.984375
1055		85.937500
1056		83.984375
1057		85.937500
1058		80.078125
1059		87.890625
1060		80.078125
1061		85.937500
1062		78.125000
1063		85.937500
1064		78.125000
1065		83.984375
1066		78.125000
1067		83.984375
1068		76.171875
1069		82.031250
1070		78.125000
1071		80.078125
1072		76.171875
1073		78.125000
1074		74.218750
1075		78.125000
1076		72.265625
1077		80.078125
1078		70.312500
1079		76.171875
1080		68.359375
1081		76.171875
1082		68.359375
1083		74.218750
1084		66.406250
1085		74.218750
1086		66.406250
1087		72.265625
1088		66.406250
1089		68.359375
1090		64.453125
1091		68.359375
1092		62.500000
1093		68.359375
1094		60.546875
1095		66.406250
1096		58.593750
1097		64.453125
1098		56.640625
1099		64.453125
1100		54.687500
1101		62.500000
1102		54.687500
1103		60.546875
1104		54.687500
1105		56.640625
1106		52.734375
1107		56.640625
1108		48.828125
1109		56.640625
1110		48.828125
1111		54.687500
1112		44.921875
1113		52.734375
1114		44.921875
1115		50.781250
1116		41.015625
1117		50.781250
1118		39.062500
1119		48.828125
1120		41.015625
1121		44.921875
1122		39.062500
1123		42.968750
1124		35.156250
1125		41.015625
1126		33.203125
1127		41.015625
1128		31.250000
1129		39.062500
1130		29.296875
1131		37.109375
1132		27.343750
1133		35.156250
1134		25.390625
1135		33.203125
1136		23.437500
1137		31.250000
1138		23.437500
1139		27.343750
1140		21.484375
1141		25.390625
1142		17.578125
1143		23.437500
1144		15.625000
1145		23.437500
1146		13.671875
1147		21.484375
1148		11.718750
1149		19.531250
1150		9.765625
1151		15.625000
1152		5.859375
1153		13.671875
1154		7.812500
1155		11.718750
1156		5.859375
1157		7.812500
1158		1.953125
1159		7.812500
1160		-1.953125
1161		5.859375
1162		-1.953125
1163		3.906250
1164		-5.859375
1165		1.953125
1166		-7.812500
1167		0.000000
1168		-7.812500
1169		-1.953125
1170		-9.765625
1171		-3.906250
1172		-11.718750
1173		-7.812500
1174		-13.671875
1175		-9.765625
1176		-17.578125
1177		-9.765625
1178		-17.578125
1179		-11.718750
1180		-21.484375
1181		-13.671875
1182		-23.437500
1183		-15.625000
1184		-25.390625
1185		-17.578125
1186		-27.343750
1187		-19.531250
1188		-27.343750
1189		-23.437500
1190		-29.296875
1191		-25.390625
1192		-35.156250
1193		-27.343750
1194		-35.156250
1195		-27.343750
1196		-37.109375
1197		-29.296875
1198		-39.062500
1199		-31.250000
1200		-41.015625
1201		-33.203125
1202		-42.968750
1203		-35.156250
1204		-42.968750
1205		-37.109375
1206		-42.968750
1207		-41.015625
1208		-46.875000
1209		-41.015625
1210		-48.828125
1211		-41.015625
1212		-50.781250
1213		-42.968750
1214		-52.734375
1215		-44.921875
1216		-54.687500
1217		-46.875000
1218		-56.640625
1219		-48.828125
1220		-56.640625
1221		-50.781250
1222		-56.640625
1223		-52.734375
1224		-58.593750
1225		-54.687500
1226		-60.546875
1227		-54.687500
1228		-62.500000
1229		-56.640625
1230		-64.453125
1231		-56.640625
1232		-66.406250
1233		-58.593750
1234		-66.406250
1235		-60.546875
1236		-68.359375
1237		-60.546875
1238		-66.406250
1239		-62.500000
1240		-68.359375
1241		-64.453125
1242		-70.312500
1243		-64.453125
1244		-72.265625
1245		-64.453125
1246		-72.265625
1247		-66.406250
1248		-74.218750
1249		-66.406250
1250		-74.218750
1251		-68.359375
1252		-76.171875
1253		-68.359375
1254		-76.171875
1255		-68.359375
1256		-74.218750
1257		-72.265625
1258		-76.171875
1259		-72.265625
1260		-78.125000
1261		-72.265625
1262		-78.125000
1263		-72.265625
1264		-78.125000
1265		-72.265625
1266		-80.078125
1267		-72.265625
1268		-80.078125
1269		-74.218750
1270		-80.078125
1271		-72.265625
1272		-78.125000
1273		-76.171875
1274		-78.125000
1275		-76.171875
1276		-80.078125
1277		-74.218750
1278		-82.031250
1279		-74.218750
1280		-82.031250
1281		-74.218750
1282		-82.031250
1283		-74.218750
1284		-80.078125
1285		-74.218750
1286		-80.078125
1287		-74.218750
1288		-80.078125
1289		-74.218750
1290		-78.125000
1291		-76.171875
1292		-78.125000
1293		-74.218750
1294		-80.078125
1295		-72.265625
1296		-78.125000
1297		-72.265625
1298		-78.125000
1299		-72.265625
1300		-78.125000
1301		-72.265625
1302		-78.125000
1303		-70.312500
1304		-76.171875
1305		-70.312500
1306		-74.218750
1307		-72.265625
1308		-72.265625
1309		-70.312500
1310		-74.218750
1311		-68.359375
1312		-74.218750
1313		-66.406250
1314		-72.265625
1315		-66.406250
1316		-72.265625
1317		-64.453125
1318		-70.312500
1319		-64.453125
1320		-70.312500
1321		-62.500000
1322		-68.359375
1323		-62.500000
1324		-64.453125
1325		-62.500000
1326		-66.406250
1327		-58.593750
1328		-64.453125
1329		-56.640625
1330		-64.453125
1331		-56.640625
1332		-62.500000
1333		-54.687500
1334		-60.546875
1335		-54.687500
1336		-58.593750
1337		-52.734375
1338		-58.593750
1339		-50.781250
1340		-54.687500
1341		-50.781250
1342		-52.734375
1343		-48.828125
1344		-54.687500
1345		-46.875000
1346		-50.781250
1347		-44.921875
1348		-48.828125
1349		-42.968750
1350		-48.828125
1351		-41.015625
1352		-46.875000
1353		-39.062500
1354		-44.921875
1355		-37.109375
1356		-41.015625
1357		-37.109375
1358		-39.062500
1359		-35.156250
1360		-39.062500
1361		-31.250000
1362		-37.109375
1363		-31.250000
1364		-35.156250
1365		-27.343750
1366		-33.203125
1367		-25.390625
1368		-31.250000
1369		-23.437500
1370		-29.296875
1371		-21.484375
1372		-27.343750
1373		-21.484375
1374		-23.437500
1375		-19.531250
1376		-21.484375
1377		-15.625000
1378		-21.484375
1379		-13.671875
1380		-19.531250
1381		-11.718750
1382		-17.578125
1383		-9.765625
1384		-15.625000
1385		-7.812500
1386		-13.671875
1387		-5.859375
1388		-11.718750
1389		-3.906250
1390		-7.812500
1391		-3.906250
1392		-3.906250
1393		-1.953125
1394		-3.906250
1395		1.953125
1396		-1.953125
1397		5.859375
1398		0.000000
1399		7.812500
1400		1.953125
1401		9.765625
1402		3.906250
1403		11.718750
1404		5.859375
1405		13.671875
1406		7.812500
1407		13.671875
1408		11.718750
1409		15.625000
1410		13.671875
1411		19.531250
1412		13.671875
1413		21.484375
1414		15.625000
1415		23.437500
1416		17.578125
1417		25.390625
1418		19.531250
1419		27.343750
1420		21.484375
1421		29.296875
1422		23.437500
1423		31.250000
1424		27.343750
1425		31.250000
1426		29.296875
1427		35.156250
1428		29.296875
1429		37.109375
1430		33.203125
1431		39.062500
1432		33.203125
1433		41.015625
1434		35.156250
1435		42.968750
1436		37.109375
1437		44.921875
1438		39.062500
1439		46.875000
1440		42.968750
1441		46.875000
1442		44.921875
1443		48.828125
1444		44.921875
1445		52.734375
1446		46.875000
1447		52.734375
1448		46.875000
1449		54.687500
1450		48.828125
1451		56.640625
1452		50.781250
1453		58.593750
1454		52.734375
1455		60.546875
1456		54.687500
1457		60.546875
1458		58.593750
1459		62.500000
1460		58.593750
1461		64.453125
1462		60.546875
1463		66.406250
1464		60.546875
1465		68.359375
1466		62.500000
1467		68.359375
1468		64.453125
1469		70.312500
1470		64.453125
1471		72.265625
1472		66.406250
1473		72.265625
1474		70.312500
1475		72.265625
1476		70.312500
1477		74.218750
1478		70.312500
1479		76.171875
1480		70.312500
1481		78.125000
1482		70.312500
1483		80.078125
1484		74.218750
1485		80.078125
1486		74.218750
1487		82.031250
1488		74.218750
1489		82.031250
1490		76.171875
1491		82.031250
1492		80.078125
1493		82.031250
1494		78.125000
1495		83.984375
1496		78.125000
1497		85.937500
1498		80.078125
1499		85.937500
1500		80.078125
1501		85.937500
1502		82.031250
1503		87.890625
1504		82.031250
1505		87.890625
1506		82.031250
1507		89.843750
1508		85.937500
1509		87.890625
1510		85.937500
1511		89.843750
1512		85.937500
1513		89.843750
1514		85.937500
1515		89.843750
1516		85.937500
1517		91.796875
1518		85.937500
1519		91.796875
1520		85.937500
1521		91.796875
1522		87.890625
1523		91.796875
1524		87.890625
1525		91.796875
1526		89.843750
1527		91.796875
1528		87.890625
1529		93.750000
1530		85.937500
1531		93.750000
1532		87.890625
1533		93.750000
1534		85.937500
1535		93.750000
1536		87.890625
1537		93.750000
1538		87.890625
1539		93.750000
1540		87.890625
1541		93.750000
1542		87.890625
1543		91.796875
1544		87.890625
1545		93.750000
1546		85.937500
1547		93.750000
1548		85.937500
1549		91.796875
1550		85.937500
1551		91.796875
1552		85.937500
1553		91.796875
1554		85.937500
1555		93.750000
1556		85.937500
1557		91.796875
1558		85.937500
1559		89.843750
1560		85.937500
1561		87.890625
1562		83.984375
1563		89.843750
1564		83.984375
1565		89.843750
1566		82.031250
1567		89.843750
1568		82.031250
1569		87.890625
1570		80.078125
1571		87.890625
1572		80.078125
1573		85.937500
1574		80.078125
1575		85.937500
1576		80.078125
1577		83.984375
1578		78.125000
1579		83.984375
1580		76.171875
1581		82.031250
1582		76.171875
1583		82.031250
1584		74.218750
1585		80.078125
1586		74.218750
1587		80.078125
1588		72.265625
1589		80.078125
1590		72.265625
1591		78.125000
1592		72.265625
1593		74.218750
1594		70.312500
1595		74.218750
1596		68.359375
1597		74.218750
1598		66.406250
1599		74.218750
1600		66.406250
1601		72.265625
1602		62.500000
1603		70.312500
1604		62.500000
1605		68.359375
1606		60.546875
1607		68.359375
1608		62.500000
1609		64.453125
1610		60.546875
1611		62.500000
1612		56.640625
1613		62.500000
1614		54.687500
1615		62.500000
1616		54.687500
1617		60.546875
1618		52.734375
1619		58.593750
1620		50.781250
1621		56.640625
1622		48.828125
1623		56.640625
1624		48.828125
1625		54.687500
1626		46.875000
1627		50.781250
1628		42.968750
1629		48.828125
1630		41.015625
1631		48.828125
1632		41.015625
1633		46.875000
1634		37.109375
1635		44.921875
1636		37.109375
1637		42.968750
1638		33.203125
1639		41.015625
1640		33.203125
1641		39.062500
1642		33.203125
1643		35.156250
1644		31.250000
1645		33.203125
1646		25.390625
1647		33.203125
1648		25.390625
1649		31.250000
1650		23.437500
1651		31.250000
1652		21.484375
1653		29.296875
1654		19.531250
1655		25.390625
1656		17.578125
1657		23.437500
1658		15.625000
1659		21.484375
1660		13.671875
1661		17.578125
1662		11.718750
1663		15.625000
1664		7.812500
1665		15.625000
1666		7.812500
1667		13.671875
1668		3.906250
1669		11.718750
1670		1.953125
1671		9.765625
1672		1.953125
1673		5.859375
1674		0.000000
1675		5.859375
1676		-1.953125
1677		1.953125
1678		-3.906250
1679		0.000000
1680		-5.859375
1681		0.000000
1682		-9.765625
1683		-1.953125
1684		-11.718750
1685		-3.906250
1686		-13.671875
1687		-5.859375
1688		-15.625000
1689		-7.812500
1690		-17.578125
1691		-9.765625
1692		-17.578125
1693		-15.625000
1694		-19.531250
1695		-15.625000
1696		-23.437500
1697		-17.578125
1698		-25.390625
1699		-17.578125
1700		-27.343750
1701		-21.484375
1702		-29.296875
1703		-21.484375
1704		-31.250000
1705		-25.390625
1706		-33.203125
1707		-25.390625
1708		-33.203125
1709		-29.296875
1710		-35.156250
1711		-31.250000
1712		-39.062500
1713		-33.203125
1714		-41.015625
1715		-33.203125
1716		-41.015625
1717		-35.156250
1718		-44.921875
1719		-37.109375
1720		-44.921875
1721		-39.062500
1722		-48.828125
1723		-41.015625
1724		-48.828125
1725		-42.968750
1726		-48.828125
1727		-44.921875
1728		-50.781250
1729		-46.875000
1730		-54.687500
1731		-48.828125
1732		-56.640625
1733		-48.828125
1734		-56.640625
1735		-50.781250
1736		-58.593750
1737		-52.734375
1738		-60.546875
1739		-52.734375
1740		-60.546875
1741		-54.687500
1742		-62.500000
1743		-56.640625
1744		-62.500000
1745		-58.593750
1746		-66.406250
1747		-58.593750
1748		-64.453125
1749		-60.546875
1750		-68.359375
1751		-60.546875
1752		-68.359375
1753		-62.500000
1754		-70.312500
1755		-62.500000
1756		-70.312500
1757		-64.453125
1758		-70.312500
1759		-66.406250
1760		-70.312500
1761		-68.359375
1762		-70.312500
1763		-68.359375
1764		-74.218750
1765		-68.359375
1766		-74.218750
1767		-68.359375
1768		-76.171875
1769		-70.312500
1770		-76.171875
1771		-70.312500
1772		-76.171875
1773		-70.312500
1774		-78.125000
1775		-70.312500
1776		-76.171875
1777		-72.265625
1778		-76.171875
1779		-74.218750
1780		-78.125000
1781		-72.265625
1782		-80.078125
1783		-72.265625
1784		-80.078125
1785		-74.218750
1786		-80.078125
1787		-74.218750
1788		-80.078125
1789		-72.265625
1790		-80.078125
1791		-74.218750
1792		-80.078125
1793		-74.218750
1794		-78.125000
1795		-76.171875
1796		-78.125000
1797		-74.218750
1798		-80.078125
1799		-72.265625
1800		-80.078125
1801		-74.218750
1802		-78.125000
1803		-72.265625
1804		-80.078125
1805		-72.265625
1806		-80.078125
1807		-72.265625
1808		-78.125000
1809		-72.265625
1810		-76.171875
1811		-74.218750
1812		-76.171875
1813		-72.265625
1814		-76.171875
1815		-70.312500
1816		-76.171875
1817		-70.312500
1818		-76.171875
1819		-68.359375
1820		-74.218750
1821		-68.359375
1822		-74.218750
1823		-66.406250
1824		-74.218750
1825		-66.406250
1826		-70.312500
1827		-66.406250
1828		-70.312500
1829		-66.406250
1830		-70.312500
1831		-62.500000
1832		-70.312500
1833		-62.500000
1834		-68.359375
1835		-60.546875
1836		-66.406250
1837		-60.546875
1838		-66.406250
1839		-58.593750
1840		-64.453125
1841		-58.593750
1842		-64.453125
1843		-56.640625
1844		-60.546875
1845		-56.640625
1846		-60.546875
1847		-52.734375
1848		-58.593750
1849		-52.734375
1850		-58.593750
1851		-50.781250
1852		-56.640625
1853		-48.828125
1854		-54.687500
1855		-48.828125
1856		-52.734375
1857		-44.921875
1858		-52.734375
1859		-44.921875
1860		-48.828125
1861		-44.921875
1862		-46.875000
1863		-42.968750
1864		-46.875000
1865		-39.062500
1866		-44.921875
1867		-37.109375
1868		-44.921875
1869		-37.109375
1870		-41.015625
1871		-35.156250
1872		-39.062500
1873		-33.203125
1874		-37.109375
1875		-29.296875
1876		-35.156250
1877		-29.296875
1878		-31.250000
1879		-29.296875
1880		-29.296875
1881		-25.390625
1882		-29.296875
1883		-23.437500
1884		-29.296875
1885		-21.484375
1886		-27.343750
1887		-19.531250
1888		-23.437500
1889		-17.578125
1890		-23.437500
1891		-15.625000
1892		-19.531250
1893		-13.671875
1894		-15.625000
1895		-11.718750
1896		-13.671875
1897		-9.765625
1898		-13.671875
1899		-5.859375
1900		-11.718750
1901		-5.859375
1902		-9.765625
1903		-1.953125
1904		-7.812500
1905		0.000000
1906		-5.859375
1907		1.953125
1908		-3.906250
1909		3.906250
1910		0.000000
1911		3.906250
1912		1.953125
1913		5.859375
1914		3.906250
1915		9.765625
1916		3.906250
1917		11.718750
1918		5.859375
1919		15.625000
1920		9.765625
1921		15.625000
1922		11.718750
1923		17.578125
1924		11.718750
1925		19.531250
1926		13.671875
1927		21.484375
1928		19.531250
1929		23.437500
1930		21.484375
1931		25.390625
1932		21.484375
1933		29.296875
1934		23.437500
1935		29.296875
1936		25.390625
1937		33.203125
1938		27.343750
1939		33.203125
1940		29.296875
1941		37.109375
1942		31.250000
1943		39.062500
1944		33.203125
1945		39.062500
1946		35.156250
1947		41.015625
1948		39.062500
1949		42.968750
1950		39.062500
1951		44.921875
1952		41.015625
1953		46.875000
1954		42.968750
1955		48.828125
1956		42.968750
1957		52.734375
1958		44.921875
1959		52.734375
1960		46.875000
1961		52.734375
1962		50.781250
1963		54.687500
1964		52.734375
1965		56.640625
1966		52.734375
1967		58.593750
1968		54.687500
1969		62.500000
1970		54.687500
1971		62.500000
1972		56.640625
1973		64.453125
1974		58.593750
1975		66.406250
1976		60.546875
1977		66.406250
1978		64.453125
1979		66.406250
1980		64.453125
1981		68.359375
1982		64.453125
1983		70.312500
1984		66.406250
1985		72.265625
1986		66.406250
1987		74.218750
1988		68.359375
1989		74.218750
1990		70.312500
1991		76.171875
1992		70.312500
1993		78.125000
1994		72.265625
1995		78.125000
1996		74.218750
1997		78.125000
1998		74.218750
1999		80.078125
2000		74.218750
2001		82.031250
2002		76.171875
2003		82.031250
2004		76.171875
2005		83.984375
2006		78.125000
2007		83.984375
2008		78.125000
2009		85.937500
2010		80.078125
2011		85.937500
2012		82.031250
2013		83.984375
2014		83.984375
2015		85.937500
2016		82.031250
2017		87.890625
2018		82.031250
2019		89.843750
2020		83.984375
2021		89.843750
2022		83.984375
2023		89.843750
2024		83.984375
2025		91.796875
2026		83.984375
2027		91.796875
2028		85.937500
2029		89.843750
2030		87.890625
2031		89.843750
2032		85.937500
2033		91.796875
2034		85.937500
2035		93.750000
2036		85.937500
2037		93.750000
2038		85.937500
2039		93.750000
2040		87.890625
2041		93.750000
2042		87.890625
2043		93.750000
2044		87.890625
2045		93.750000
2046		89.843750
2047		91.796875
2048		87.890625
2049		93.750000
2050		87.890625
2051		93.750000
2052		87.890625
2053		93.750000
2054		87.890625
2055		93.750000
2056		87.890625
2057		93.750000
2058		87.890625
2059		93.750000
2060		87.890625
2061		93.750000
2062		89.843750
2063		91.796875
2064		87.890625
2065		89.843750
2066		85.937500
2067		91.796875
2068		85.937500
2069		91.796875
2070		85.937500
2071		91.796875
2072		85.937500
2073		91.796875
2074		83.984375
2075		89.843750
2076		83.984375
2077		89.843750
2078		83.984375
2079		89.843750
2080		83.984375
2081		85.937500
2082		83.984375
2083		87.890625
2084		80.078125
2085		87.890625
2086		80.078125
2087		87.890625
2088		80.078125
2089		85.937500
2090		78.125000
2091		85.937500
2092		76.171875
2093		83.984375
2094		76.171875
2095		83.984375
2096		78.125000
2097		80.078125
2098		76.171875
2099		80.078125
2100		74.218750
2101		80.078125
2102		72.265625
2103		80.078125
2104		72.265625
2105		78.125000
2106		70.312500
2107		76.171875
2108		68.359375
2109		76.171875
2110		68.359375
2111		74.218750
2112		68.359375
2113		72.265625
2114		66.406250
2115		70.312500
2116		62.500000
2117		70.312500
2118		62.500000
2119		70.312500
2120		60.546875
2121		68.359375
2122		58.593750
2123		66.406250
2124		58.593750
2125		64.453125
2126		56.640625
2127		64.453125
2128		56.640625
2129		62.500000
2130		54.687500
2131		58.593750
2132		52.734375
2133		56.640625
2134		48.828125
2135		56.640625
2136		48.828125
2137		54.687500
2138		46.875000
2139		54.687500
2140		44.921875
2141		52.734375
2142		42.968750
2143		50.781250
2144		41.015625
2145		48.828125
2146		41.015625
2147		44.921875
2148		39.062500
2149		42.968750
2150		35.156250
2151		42.968750
2152		33.203125
2153		41.015625
2154		33.203125
2155		39.062500
2156		29.296875
2157		37.109375
2158		27.343750
2159		35.156250
2160		25.390625
2161		33.203125
2162		25.390625
2163		31.250000
2164		25.390625
2165		27.343750
2166		21.484375
2167		25.390625
2168		19.531250
2169		25.390625
2170		15.625000
2171		23.437500
2172		13.671875
2173		21.484375
2174		11.718750
2175		19.531250
2176		9.765625
2177		17.578125
2178		9.765625
2179		15.625000
2180		7.812500
2181		11.718750
2182		5.859375
2183		9.765625
2184		1.953125
2185		9.765625
2186		0.000000
2187		5.859375
2188		-1.953125
2189		5.859375
2190		-3.906250
2191		1.953125
2192		-5.859375
2193		1.953125
2194		-7.812500
2195		-1.953125
2196		-7.812500
2197		-3.906250
2198		-9.765625
2199		-5.859375
2200		-15.625000
2201		-7.812500
2202		-15.625000
2203		-9.765625
2204		-19.531250
2205		-11.718750
2206		-21.484375
2207		-13.671875
2208		-23.437500
2209		-15.625000
2210		-25.390625
2211		-17.578125
2212		-25.390625
2213		-19.531250
2214		-27.343750
2215		-23.437500
2216		-29.296875
2217		-25.390625
2218		-33.203125
2219		-25.390625
2220		-35.156250
2221		-27.343750
2222		-37.109375
2223		-29.296875
2224		-37.109375
2225		-31.250000
2226		-39.062500
2227		-33.203125
2228		-41.015625
2229		-35.156250
2230		-41.015625
2231		-39.062500
2232		-42.968750
2233		-39.062500
2234		-46.875000
2235		-39.062500
2236		-48.828125
2237		-41.015625
2238		-50.781250
2239		-42.968750
2240		-50.781250
2241		-44.921875
2242		-52.734375
2243		-46.875000
2244		-54.687500
2245		-46.875000
2246		-54.687500
2247		-48.828125
2248		-56.640625
2249		-52.734375
2250		-60.546875
2251		-52.734375
2252		-60.546875
2253		-52.734375
2254		-62.500000
2255		-54.687500
2256		-64.453125
2257		-56.640625
2258		-64.453125
2259		-58.593750
2260		-66.406250
2261		-58.593750
2262		-66.406250
2263		-60.546875
2264		-66.406250
2265		-62.500000
2266		-66.406250
2267		-64.453125
2268		-70.312500
2269		-64.453125
2270		-70.312500
2271		-64.453125
2272		-72.265625
2273		-66.406250
2274		-72.265625
2275		-66.406250
2276		-74.218750
2277		-66.406250
2278		-74.218750
2279		-68.359375
2280		-74.218750
2281		-68.359375
2282		-74.218750
2283		-72.265625
2284		-76.171875
2285		-70.312500
2286		-78.125000
2287		-70.312500
2288		-78.125000
2289		-70.312500
2290		-78.125000
2291		-72.265625
2292		-78.125000
2293		-72.265625
2294		-80.078125
2295		-72.265625
2296		-80.078125
2297		-72.265625
2298		-78.125000
2299		-74.218750
2300		-78.125000
2301		-74.218750
2302		-80.078125
2303		-74.218750
2304		-80.078125
2305		-74.218750
2306		-80.078125
2307		-74.218750
2308		-80.078125
2309		-74.218750
2310		-80.078125
2311		-74.218750
2312		-80.078125
2313		-74.218750
2314		-78.125000
2315		-76.171875
2316		-78.125000
2317		-74.218750
2318		-78.125000
2319		-72.265625
2320		-78.125000
2321		-72.265625
2322		-78.125000
2323		-72.265625
2324		-78.125000
2325		-72.265625
2326		-78.125000
2327		-72.265625
2328		-76.171875
2329		-70.312500
2330		-76.171875
2331		-70.312500
2332		-74.218750
2333		-70.312500
2334		-74.218750
2335		-68.359375
2336		-74.218750
2337		-68.359375
2338		-72.265625
2339		-66.406250
2340		-72.265625
2341		-66.406250
2342		-70.312500
2343		-64.453125
2344		-70.312500
2345		-64.453125
2346		-68.359375
2347		-62.500000
2348		-66.406250
2349		-64.453125
2350		-64.453125
2351		-62.500000
2352		-64.453125
2353		-58.593750
2354		-64.453125
2355		-58.593750
2356		-62.500000
2357		-56.640625
2358		-62.500000
2359		-54.687500
2360		-60.546875
2361		-54.687500
2362		-58.593750
2363		-52.734375
2364		-58.593750
2365		-50.781250
2366		-54.687500
2367		-50.781250
2368		-52.734375
2369		-48.828125
2370		-54.687500
2371		-46.875000
2372		-52.734375
2373		-44.921875
2374		-48.828125
2375		-42.968750
2376		-48.828125
2377		-41.015625
2378		-46.875000
2379		-39.062500
2380		-44.921875
2381		-37.109375
2382		-41.015625
2383		-37.109375
2384		-39.062500
2385		-35.156250
2386		-39.062500
2387		-31.250000
2388		-37.109375
2389		-29.296875
2390		-35.156250
2391		-27.343750
2392		-33.203125
2393		-25.390625
2394		-31.250000
2395		-23.437500
2396		-29.296875
2397		-21.484375
2398		-25.390625
2399		-21.484375
2400		-23.437500
2401		-19.531250
2402		-23.437500
2403		-17.578125
2404		-21.484375
2405		-13.671875
2406		-19.531250
2407		-11.718750
2408		-17.578125
2409		-9.765625
2410		-15.625000
2411		-7.812500
2412		-13.671875
2413		-5.859375
2414		-11.718750
2415		-5.859375
2416		-7.812500
2417		-3.906250
2418		-5.859375
2419		0.000000
2420		-5.859375
2421		1.953125
2422		-1.953125
2423		5.859375
2424		0.000000
2425		5.859375
2426		1.953125
2427		7.812500
2428		3.906250
2429		9.765625
2430		5.859375
2431		11.718750
2432		9.765625
2433		13.671875
2434		11.718750
2435		15.625000
2436		11.718750
2437		19.531250
2438		13.671875
2439		21.484375
2440		15.625000
2441		23.437500
2442		17.578125
2443		25.390625
2444		19.531250
2445		27.343750
2446		21.484375
2447		29.296875
2448		23.437500
2449		29.296875
2450		27.343750
2451		31.250000
2452		29.296875
2453		35.156250
2454		29.296875
2455		37.109375
2456		31.250000
2457		39.062500
2458		33.203125
2459		41.015625
2460		35.156250
2461		42.968750
2462		37.109375
2463		44.921875
2464		39.062500
2465		44.921875
2466		42.968750
2467		46.875000
2468		44.921875
2469		46.875000
2470		44.921875
2471		50.781250
2472		44.921875
2473		52.734375
2474		46.875000
2475		54.687500
2476		48.828125
2477		56.640625
2478		50.781250
2479		58.593750
2480		52.734375
2481		60.546875
2482		54.687500
2483		60.546875
2484		58.593750
2485		60.546875
2486		58.593750
2487		64.453125
2488		58.593750
2489		64.453125
2490		60.546875
2491		68.359375
2492		60.546875
2493		68.359375
2494		64.453125
2495		70.312500
2496		64.453125
2497		72.265625
2498		66.406250
2499		72.265625
2500		68.359375
2501		72.265625
2502		70.312500
2503		74.218750
2504		70.312500
2505		76.171875
2506		70.312500
2507		78.125000
2508		72.265625
2509		78.125000
2510		72.265625
2511		80.078125
2512		74.218750
2513		80.078125
2514		74.218750
2515		82.031250
2516		78.125000
2517		80.078125
2518		80.078125
2519		82.031250
2520		78.125000
2521		83.984375
2522		78.125000
2523		85.937500
2524		80.078125
2525		85.937500
2526		80.078125
2527		87.890625
2528		82.031250
2529		87.890625
2530		82.031250
2531		89.843750
2532		82.031250
2533		87.890625
2534		85.937500
2535		87.890625
2536		83.984375
2537		89.843750
2538		85.937500
2539		91.796875
2540		85.937500
2541		91.796875
2542		85.937500
2543		91.796875
2544		85.937500
2545		91.796875
2546		85.937500
2547		93.750000
2548		87.890625
2549		91.796875
2550		89.843750
2551		91.796875
2552		89.843750
2553		91.796875
2554		87.890625
2555		93.750000
2556		87.890625
2557		93.750000
2558		87.890625
2559		93.750000
2560		87.890625
2561		93.750000
2562		87.890625
2563		93.750000
2564		87.890625
2565		93.750000
2566		87.890625
2567		93.750000
2568		89.843750
2569		91.796875
2570		87.890625
2571		93.750000
2572		87.890625
2573		93.750000
2574		87.890625
2575		93.750000
2576		85.937500
2577		93.750000
2578		85.937500
2579		91.796875
2580		85.937500
2581		93.750000
2582		85.937500
2583		91.796875
2584		87.890625
2585		89.843750
2586		83.984375
2587		89.843750
2588		83.984375
2589		89.843750
2590		83.984375
2591		89.843750
2592		83.984375
2593		89.843750
2594		82.031250
2595		87.890625
2596		82.031250
2597		87.890625
2598		82.031250
2599		87.890625
2600		82.031250
2601		83.984375
2602		80.078125
2603		83.984375
2604		78.125000
2605		83.984375
2606		78.125000
2607		83.984375
2608		76.171875
2609		83.984375
2610		76.171875
2611		82.031250
2612		74.218750
2613		82.031250
2614		74.218750
2615		80.078125
2616		74.218750
2617		78.125000
2618		72.265625
2619		76.171875
2620		70.312500
2621		76.171875
2622		68.359375
2623		76.171875
2624		66.406250
2625		74.218750
2626		66.406250
2627		74.218750
2628		64.453125
2629		72.265625
2630		64.453125
2631		70.312500
2632		62.500000
2633		68.359375
2634		62.500000
2635		66.406250
2636		60.546875
2637		64.453125
2638		56.640625
2639		64.453125
2640		56.640625
2641		62.500000
2642		54.687500
2643		62.500000
2644		52.734375
2645		60.546875
2646		50.781250
2647		58.593750
2648		48.828125
2649		56.640625
2650		50.781250
2651		54.687500
2652		48.828125
2653		50.781250
2654		44.921875
2655		50.781250
2656		42.968750
2657		50.781250
2658		41.015625
2659		48.828125
2660		39.062500
2661		46.875000
2662		37.109375
2663		44.921875
2664		35.156250
2665		42.968750
2666		35.156250
2667		41.015625
2668		33.203125
2669		37.109375
2670		29.296875
2671		35.156250
2672		27.343750
2673		35.156250
2674		25.390625
2675		33.203125
2676		25.390625
2677		31.250000
2678		21.484375
2679		29.296875
2680		19.531250
2681		27.343750
2682		17.578125
2683		25.390625
2684		17.578125
2685		21.484375
2686		15.625000
2687		19.531250
2688		11.718750
2689		17.578125
2690		9.765625
2691		17.578125
2692		7.812500
2693		15.625000
2694		5.859375
2695		11.718750
2696		3.906250
2697		9.765625
2698		1.953125
2699		9.765625
2700		0.000000
2701		5.859375
2702		0.000000
2703		1.953125
2704		-5.859375
2705		0.000000
2706		-7.812500
2707		0.000000
2708		-9.765625
2709		-1.953125
2710		-11.718750
2711		-3.906250
2712		-11.718750
2713		-5.859375
2714		-15.625000
2715		-7.812500
2716		-17.578125
2717		-9.765625
2718		-17.578125
2719		-13.671875
2720		-19.531250
2721		-15.625000
2722		-23.437500
2723		-15.625000
2724		-25.390625
2725		-17.578125
2726		-25.390625
2727		-19.531250
2728		-29.296875
2729		-21.484375
2730		-31.250000
2731		-23.437500
2732		-33.203125
2733		-25.390625
2734		-33.203125
2735		-29.296875
2736		-35.156250
2737		-31.250000
2738		-39.062500
2739		-33.203125
2740		-41.015625
2741		-33.203125
2742		-42.968750
2743		-35.156250
2744		-42.968750
2745		-37.109375
2746		-46.875000
2747		-39.062500
2748		-46.875000
2749		-41.015625
2750		-48.828125
2751		-41.015625
2752		-48.828125
2753		-44.921875
2754		-50.781250
2755		-46.875000
2756		-52.734375
2757		-46.875000
2758		-54.687500
2759		-48.828125
2760		-56.640625
2761		-48.828125
2762		-58.593750
2763		-52.734375
2764		-60.546875
2765		-52.734375
2766		-60.546875
2767		-54.687500
2768		-60.546875
2769		-56.640625
2770		-62.500000
2771		-58.593750
2772		-66.406250
2773		-58.593750
2774		-66.406250
2775		-58.593750
2776		-68.359375
2777		-60.546875
2778		-68.359375
2779		-60.546875
2780		-70.312500
2781		-62.500000
2782		-70.312500
2783		-64.453125
2784		-70.312500
2785		-64.453125
2786		-70.312500
2787		-68.359375
2788		-74.218750
2789		-68.359375
2790		-74.218750
2791		-68.359375
2792		-74.218750
2793		-68.359375
2794		-76.171875
2795		-70.312500
2796		-76.171875
2797		-70.312500
2798		-76.171875
2799		-70.312500
2800		-78.125000
2801		-70.312500
2802		-76.171875
2803		-74.218750
2804		-76.171875
2805		-74.218750
2806		-78.125000
2807		-72.265625
2808		-80.078125
2809		-72.265625
2810		-80.078125
2811		-72.265625
2812		-80.078125
2813		-74.218750
2814		-80.078125
2815		-74.218750
2816		-80.078125
2817		-74.218750
2818		-78.125000
2819		-76.171875
2820		-78.125000
2821		-76.171875
2822		-80.078125
2823		-74.218750
2824		-80.078125
2825		-74.218750
2826		-80.078125
2827		-72.265625
2828		-80.078125
2829		-74.218750
2830		-80.078125
2831		-72.265625
2832		-78.125000
2833		-72.265625
2834		-78.125000
2835		-72.265625
2836		-76.171875
2837		-74.218750
2838		-76.171875
2839		-72.265625
2840		-78.125000
2841		-70.312500
2842		-76.171875
2843		-70.312500
2844		-76.171875
2845		-70.312500
2846		-76.171875
2847		-68.359375
2848		-74.218750
2849		-68.359375
2850		-74.218750
2851		-68.359375
2852		-70.312500
2853		-68.359375
2854		-70.312500
2855		-66.406250
2856		-70.312500
2857		-64.453125
2858		-70.312500
2859		-62.500000
2860		-68.359375
2861		-62.500000
2862		-68.359375
2863		-60.546875
2864		-66.406250
2865		-58.593750
2866		-66.406250
2867		-58.593750
2868		-64.453125
2869		-58.593750
2870		-60.546875
2871		-56.640625
2872		-60.546875
2873		-54.687500
2874		-60.546875
2875		-52.734375
2876		-58.593750
2877		-50.781250
2878		-56.640625
2879		-48.828125
2880		-56.640625
2881		-48.828125
2882		-54.687500
2883		-46.875000
2884		-52.734375
2885		-44.921875
2886		-48.828125
2887		-44.921875
2888		-46.875000
2889		-42.968750
2890		-46.875000
2891		-41.015625
2892		-44.921875
2893		-37.109375
2894		-42.968750
2895		-37.109375
2896		-41.015625
2897		-33.203125
2898		-39.062500
2899		-33.203125
2900		-39.062500
2901		-31.250000
2902		-35.156250
2903		-31.250000
2904		-33.203125
2905		-29.296875
2906		-31.250000
2907		-25.390625
2908		-31.250000
2909		-23.437500
2910		-27.343750
2911		-21.484375
2912		-27.343750
2913		-19.531250
2914		-23.437500
2915		-17.578125
2916		-23.437500
2917		-15.625000
2918		-21.484375
2919		-13.671875
2920		-17.578125
2921		-13.671875
2922		-15.625000
2923		-9.765625
2924		-13.671875
2925		-5.859375
2926		-11.718750
2927		-3.906250
2928		-9.765625
2929		-1.953125
2930		-7.812500
2931		0.000000
2932		-5.859375
2933		1.953125
2934		-3.906250
2935		3.906250
2936		0.000000
2937		3.906250
2938		1.953125
2939		5.859375
2940		3.906250
2941		9.765625
2942		3.906250
2943		11.718750
2944		5.859375
2945		13.671875
2946		9.765625
2947		15.625000
2948		9.765625
2949		17.578125
2950		13.671875
2951		19.531250
2952		15.625000
2953		21.484375
2954		19.531250
2955		21.484375
2956		19.531250
2957		25.390625
2958		21.484375
2959		27.343750
2960		23.437500
2961		31.250000
2962		25.390625
2963		31.250000
2964		27.343750
2965		33.203125
2966		29.296875
2967		35.156250
2968		29.296875
2969		37.109375
2970		35.156250
2971		37.109375
2972		37.109375
2973		39.062500
2974		37.109375
2975		42.968750
2976		37.109375
2977		44.921875
2978		39.062500
2979		46.875000
2980		41.015625
2981		48.828125
2982		42.968750
2983		50.781250
2984		44.921875
2985		52.734375
2986		48.828125
2987		52.734375
2988		50.781250
2989		54.687500
2990		50.781250
2991		56.640625
2992		52.734375
2993		58.593750
2994		52.734375
2995		60.546875
2996		54.687500
2997		62.500000
2998		56.640625
2999		64.453125
3000		58.593750
3001		64.453125
3002		58.593750
3003		66.406250
3004		62.500000
3005		66.406250
3006		64.453125
3007		70.312500
3008		64.453125
3009		70.312500
3010		66.406250
3011		72.265625
3012		66.406250
3013		74.218750
3014		68.359375
3015		74.218750
3016		68.359375
3017		76.171875
3018		70.312500
3019		76.171875
3020		72.265625
3021		76.171875
3022		74.218750
3023		78.125000
3024		74.218750
3025		80.078125
3026		74.218750
3027		80.078125
3028		76.171875
3029		82.031250
3030		76.171875
3031		83.984375
3032		78.125000
3033		83.984375
3034		78.125000
3035		83.984375
3036		80.078125
3037		85.937500
3038		82.031250
3039		83.984375
3040		82.031250
3041		85.937500
3042		82.031250
3043		87.890625
3044		82.031250
3045		87.890625
3046		82.031250
3047		89.843750
3048		83.984375
3049		89.843750
3050		83.984375
3051		89.843750
3052		83.984375
3053		91.796875
3054		87.890625
3055		89.843750
3056		87.890625
3057		89.843750
3058		85.937500
3059		91.796875
3060		85.937500
3061		91.796875
3062		85.937500
3063		93.750000
3064		85.937500
3065		93.750000
3066		85.937500
3067		93.750000
3068		87.890625
3069		93.750000
3070		87.890625
3071		93.750000
3072		89.843750
3073		91.796875
3074		87.890625
3075		93.750000
3076		87.890625
3077		93.750000
3078		87.890625
3079		93.750000
3080		87.890625
3081		93.750000
3082		87.890625
3083		93.750000
3084		87.890625
3085		93.750000
3086		85.937500
3087		93.750000
3088		87.890625
3089		91.796875
3090		87.890625
3091		89.843750
3092		85.937500
3093		91.796875
3094		85.937500
3095		91.796875
3096		85.937500
3097		91.796875
3098		83.984375
3099		91.796875
3100		83.984375
3101		91.796875
3102		83.984375
3103		89.843750
3104		83.984375
3105		87.890625
3106		83.984375
3107		87.890625
3108		82.031250
3109		87.890625
3110		80.078125
3111		87.890625
3112		80.078125
3113		87.890625
3114		80.078125
3115		85.937500
3116		78.125000
3117		85.937500
3118		78.125000
3119		83.984375
3120		78.125000
3121		83.984375
3122		78.125000
3123		80.078125
3124		76.171875
3125		80.078125
3126		74.218750
3127		80.078125
3128		72.265625
3129		80.078125
3130		72.265625
3131		78.125000
3132		70.312500
3133		78.125000
3134		70.312500
3135		76.171875
3136		68.359375
3137		76.171875
3138		68.359375
3139		72.265625
3140		68.359375
3141		70.312500
3142		64.453125
3143		70.312500
3144		62.500000
3145		70.312500
3146		62.500000
3147		68.359375
3148		60.546875
3149		68.359375
3150		58.593750
3151		66.406250
3152		56.640625
3153		64.453125
3154		56.640625
3155		62.500000
3156		56.640625
3157		58.593750
3158		52.734375
3159		58.593750
3160		50.781250
3161		58.593750
3162		48.828125
3163		56.640625
3164		46.875000
3165		54.687500
3166		44.921875
3167		52.734375
3168		42.968750
3169		50.781250
3170		41.015625
3171		48.828125
3172		42.968750
3173		44.921875
3174		41.015625
3175		42.968750
3176		35.156250
3177		42.968750
3178		35.156250
3179		41.015625
3180		33.203125
3181		39.062500
3182		31.250000
3183		39.062500
3184		29.296875
3185		37.109375
3186		27.343750
3187		35.156250
3188		27.343750
3189		31.250000
3190		25.390625
3191		29.296875
3192		21.484375
3193		27.343750
3194		19.531250
3195		25.390625
3196		17.578125
3197		23.437500
3198		15.625000
3199		21.484375
3200		13.671875
3201		19.531250
3202		11.718750
3203		17.578125
3204		9.765625
3205		15.625000
3206		7.812500
3207		11.718750
3208		3.906250
3209		9.765625
3210		1.953125
3211		9.765625
3212		0.000000
3213		7.812500
3214		-1.953125
3215		5.859375
3216		-3.906250
3217		3.906250
3218		-5.859375
3219		1.953125
3220		-7.812500
3221		0.000000
3222		-7.812500
3223		-3.906250
3224		-9.765625
3225		-5.859375
3226		-13.671875
3227		-7.812500
3228		-15.625000
3229		-7.812500
3230		-17.578125
3231		-9.765625
3232		-19.531250
3233		-11.718750
3234		-21.484375
3235		-13.671875
3236		-23.437500
3237		-15.625000
3238		-23.437500
3239		-17.578125
3240		-25.390625
3241		-21.484375
3242		-29.296875
3243		-23.437500
3244		-33.203125
3245		-23.437500
3246		-33.203125
3247		-25.390625
3248		-35.156250
3249		-29.296875
3250		-37.109375
3251		-31.250000
3252		-39.062500
3253		-31.250000
3254		-39.062500
3255		-33.203125
3256		-41.015625
3257		-37.109375
3258		-42.968750
3259		-39.062500
3260		-44.921875
3261		-39.062500
3262		-48.828125
3263		-41.015625
3264		-48.828125
3265		-42.968750
3266		-50.781250
3267		-44.921875
3268		-52.734375
3269		-44.921875
3270		-54.687500
3271		-46.875000
3272		-54.687500
3273		-48.828125
3274		-56.640625
3275		-52.734375
3276		-58.593750
3277		-52.734375
3278		-58.593750
3279		-52.734375
3280		-62.500000
3281		-54.687500
3282		-62.500000
3283		-56.640625
3284		-64.453125
3285		-56.640625
3286		-66.406250
3287		-58.593750
3288		-66.406250
3289		-60.546875
3290		-66.406250
3291		-62.500000
3292		-70.312500
3293		-62.500000
3294		-70.312500
3295		-62.500000
3296		-70.312500
3297		-64.453125
3298		-72.265625
3299		-66.406250
3300		-72.265625
3301		-66.406250
3302		-74.218750
3303		-66.406250
3304		-74.218750
3305		-68.359375
3306		-72.265625
3307		-70.312500
3308		-74.218750
3309		-72.265625
3310		-76.171875
3311		-70.312500
3312		-78.125000
3313		-70.312500
3314		-78.125000
3315		-72.265625
3316		-78.125000
3317		-72.265625
3318		-78.125000
3319		-72.265625
3320		-78.125000
3321		-72.265625
3322		-78.125000
3323		-74.218750
3324		-78.125000
3325		-74.218750
3326		-80.078125
3327		-74.218750
3328		-80.078125
3329		-74.218750
3330		-80.078125
3331		-74.218750
3332		-80.078125
3333		-74.218750
3334		-80.078125
3335		-74.218750
3336		-80.078125
3337		-74.218750
3338		-78.125000
3339		-74.218750
3340		-78.125000
3341		-76.171875
3342		-78.125000
3343		-74.218750
3344		-80.078125
3345		-72.265625
3346		-78.125000
3347		-72.265625
3348		-78.125000
3349		-72.265625
3350		-78.125000
3351		-70.312500
3352		-78.125000
3353		-70.312500
3354		-76.171875
3355		-70.312500
3356		-74.218750
3357		-70.312500
3358		-74.218750
3359		-70.312500
3360		-74.218750
3361		-68.359375
3362		-74.218750
3363		-66.406250
3364		-72.265625
3365		-66.406250
3366		-72.265625
3367		-66.406250
3368		-70.312500
3369		-64.453125
3370		-70.312500
3371		-64.453125
3372		-68.359375
3373		-62.500000
3374		-66.406250
3375		-62.500000
3376		-64.453125
3377		-60.546875
3378		-64.453125
3379		-58.593750
3380		-64.453125
3381		-58.593750
3382		-64.453125
3383		-56.640625
3384		-62.500000
3385		-54.687500
3386		-60.546875
3387		-54.687500
3388		-58.593750
3389		-52.734375
3390		-54.687500
3391		-52.734375
3392		-54.687500
3393		-50.781250
3394		-54.687500
3395		-46.875000
3396		-52.734375
3397		-46.875000
3398		-52.734375
3399		-42.968750
3400		-48.828125
3401		-42.968750
3402		-48.828125
3403		-41.015625
3404		-46.875000
3405		-39.062500
3406		-44.921875
3407		-39.062500
3408		-41.015625
3409		-37.109375
3410		-39.062500
3411		-33.203125
3412		-39.062500
3413		-33.203125
3414		-37.109375
3415		-29.296875
3416		-35.156250
3417		-27.343750
3418		-33.203125
3419		-25.390625
3420		-31.250000
3421		-25.390625
3422		-29.296875
3423		-23.437500
3424		-25.390625
3425		-21.484375
3426		-23.437500
3427		-19.531250
3428		-23.437500
3429		-17.578125
3430		-21.484375
3431		-13.671875
3432		-19.531250
3433		-11.718750
3434		-19.531250
3435		-9.765625
3436		-15.625000
3437		-7.812500
3438		-13.671875
3439		-5.859375
3440		-9.765625
3441		-5.859375
3442		-7.812500
3443		-3.906250
3444		-5.859375
3445		0.000000
3446		-5.859375
3447		1.953125
3448		-3.906250
3449		3.906250
3450		0.000000
3451		5.859375
3452		1.953125
3453		7.812500
3454		3.906250
3455		11.718750
3456		5.859375
3457		11.718750
3458		9.765625
3459		13.671875
3460		11.718750
3461		15.625000
3462		11.718750
3463		19.531250
3464		13.671875
3465		21.484375
3466		15.625000
3467		23.437500
3468		17.578125
3469		25.390625
3470		19.531250
3471		27.343750
3472		23.437500
3473		29.296875
3474		25.390625
3475		29.296875
3476		27.343750
3477		31.250000
3478		27.343750
3479		35.156250
3480		31.250000
3481		37.109375
3482		31.250000
3483		39.062500
3484		33.203125
3485		41.015625
3486		35.156250
3487		42.968750
3488		37.109375
3489		42.968750
3490		39.062500
3491		44.921875
3492		42.968750
3493		46.875000
3494		44.921875
3495		48.828125
3496		44.921875
3497		50.781250
3498		44.921875
3499		52.734375
3500		48.828125
3501		54.687500
3502		48.828125
3503		56.640625
3504		50.781250
3505		58.593750
3506		52.734375
3507		58.593750
3508		56.640625
3509		58.593750
3510		58.593750
3511		60.546875
3512		58.593750
3513		64.453125
3514		58.593750
3515		66.406250
3516		60.546875
3517		66.406250
3518		62.500000
3519		68.359375
3520		62.500000
3521		70.312500
3522		64.453125
3523		70.312500
3524		66.406250
3525		70.312500
3526		68.359375
3527		72.265625
3528		70.312500
3529		74.218750
3530		70.312500
3531		76.171875
3532		70.312500
3533		78.125000
3534		70.312500
3535		80.078125
3536		72.265625
3537		80.078125
3538		74.218750
3539		80.078125
3540		74.218750
3541		82.031250
3542		78.125000
3543		82.031250
3544		78.125000
3545		82.031250
3546		78.125000
3547		85.937500
3548		78.125000
3549		85.937500
3550		78.125000
3551		85.937500
3552		80.078125
3553		87.890625
3554		80.078125
3555		87.890625
3556		82.031250
3557		87.890625
3558		83.984375
3559		87.890625
3560		85.937500
3561		87.890625
3562		83.984375
3563		89.843750
3564		83.984375
3565		91.796875
3566		83.984375
3567		91.796875
3568		85.937500
3569		91.796875
3570		85.937500
3571		91.796875
3572		85.937500
3573		91.796875
3574		85.937500
3575		91.796875
3576		87.890625
3577		91.796875
3578		87.890625
3579		93.750000
3580		85.937500
3581		93.750000
3582		87.890625
3583		93.750000
3584		87.890625
3585		93.750000
3586		87.890625
3587		93.750000
3588		87.890625
3589		93.750000
3590		87.890625
3591		93.750000
3592		89.843750
3593		91.796875
3594		89.843750
3595		91.796875
3596		87.890625
3597		91.796875
3598		87.890625
3599		93.750000
3600		85.937500
3601		91.796875
3602		85.937500
3603		93.750000
3604		85.937500
3605		91.796875
3606		85.937500
3607		91.796875
3608		85.937500
3609		89.843750
3610		85.937500
3611		89.843750
3612		83.984375
3613		89.843750
3614		83.984375
3615		89.843750
3616		83.984375
3617		89.843750
3618		82.031250
3619		89.843750
3620		82.031250
3621		87.890625
3622		82.031250
3623		87.890625
3624		80.078125
3625		85.937500
3626		82.031250
3627		83.984375
3628		80.078125
3629		83.984375
3630		78.125000
3631		85.937500
3632		76.171875
3633		83.984375
3634		76.171875
3635		83.984375
3636		74.218750
3637		82.031250
3638		74.218750
3639		80.078125
3640		72.265625
3641		80.078125
3642		74.218750
3643		78.125000
3644		72.265625
3645		76.171875
3646		68.359375
3647		76.171875
3648		68.359375
3649		74.218750
3650		66.406250
3651		74.218750
3652		66.406250
3653		72.265625
3654		64.453125
3655		70.312500
3656		62.500000
3657		70.312500
3658		62.500000
3659		68.359375
3660		62.500000
3661		66.406250
3662		58.593750
3663		64.453125
3664		58.593750
3665		64.453125
3666		56.640625
3667		62.500000
3668		52.734375
3669		60.546875
3670		52.734375
3671		60.546875
3672		50.781250
3673		58.593750
3674		50.781250
3675		56.640625
3676		50.781250
3677		52.734375
3678		48.828125
3679		50.781250
3680		44.921875
3681		50.781250
3682		42.968750
3683		48.828125
3684		41.015625
3685		48.828125
3686		39.062500
3687		44.921875
3688		39.062500
3689		44.921875
3690		35.156250
3691		42.968750
3692		35.156250
3693		39.062500
3694		33.203125
3695		37.109375
3696		31.250000
3697		35.156250
3698		27.343750
3699		35.156250
3700		25.390625
3701		33.203125
3702		23.437500
3703		29.296875
3704		21.484375
3705		29.296875
3706		19.531250
3707		27.343750
3708		19.531250
3709		25.390625
3710		17.578125
3711		21.484375
3712		15.625000
3713		19.531250
3714		11.718750
3715		19.531250
3716		9.765625
3717		15.625000
3718		9.765625
3719		15.625000
3720		7.812500
3721		11.718750
3722		5.859375
3723		9.765625
3724		3.906250
3725		9.765625
3726		1.953125
3727		5.859375
3728		-1.953125
3729		3.906250
3730		-5.859375
3731		1.953125
3732		-5.859375
3733		0.000000
3734		-7.812500
3735		-1.953125
3736		-9.765625
3737		-3.906250
3738		-11.718750
3739		-7.812500
3740		-15.625000
3741		-7.812500
3742		-15.625000
3743		-11.718750
3744		-17.578125
3745		-13.671875
3746		-19.531250
3747		-15.625000
3748		-21.484375
3749		-17.578125
3750		-23.437500
3751		-19.531250
3752		-25.390625
3753		-21.484375
3754		-27.343750
3755		-23.437500
3756		-29.296875
3757		-25.390625
3758		-31.250000
3759		-27.343750
3760		-33.203125
3761		-29.296875
3762		-35.156250
3763		-31.250000
3764		-37.109375
3765		-33.203125
3766		-39.062500
3767		-35.156250
3768		-41.015625
3769		-37.109375
3770		-41.015625
3771		-39.062500
3772		-42.968750
3773		-39.062500
3774		-44.921875
3775		-41.015625
3776		-46.875000
3777		-42.968750
3778		-48.828125
3779		-44.921875
3780		-50.781250
3781		-46.875000
3782		-52.734375
3783		-48.828125
3784		-54.687500
3785		-48.828125
3786		-54.687500
3787		-50.781250
3788		-56.640625
3789		-52.734375
3790		-58.593750
3791		-54.687500
3792		-58.593750
3793		-56.640625
3794		-60.546875
3795		-56.640625
3796		-62.500000
3797		-58.593750
3798		-64.453125
3799		-58.593750
3800		-64.453125
3801		-60.546875
3802		-66.406250
3803		-62.500000
3804		-66.406250
3805		-64.453125
3806		-68.359375
3807		-64.453125
3808		-68.359375
3809		-64.453125
3810		-70.312500
3811		-66.406250
3812		-70.312500
3813		-68.359375
3814		-70.312500
3815		-68.359375
3816		-72.265625
3817		-68.359375
3818		-74.218750
3819		-70.312500
3820		-74.218750
3821		-70.312500
3822		-74.218750
3823		-72.265625
3824		-76.171875
3825		-72.265625
3826		-76.171875
3827		-72.265625
3828		-76.171875
3829		-74.218750
3830		-78.125000
3831		-74.218750
3832		-78.125000
3833		-74.218750
3834		-78.125000
3835		-74.218750
3836		-78.125000
3837		-74.218750
3838		-78.125000
3839		-74.218750
3840		-78.125000
3841		-74.218750
3842		-78.125000
3843		-74.218750
3844		-78.125000
3845		-76.171875
3846		-78.125000
3847		-76.171875
3848		-80.078125
3849		-76.171875
3850		-78.125000
3851		-74.218750
3852		-78.125000
3853		-74.218750
3854		-78.125000
3855		-76.171875
3856		-78.125000
3857		-74.218750
3858		-78.125000
3859		-74.218750
3860		-78.125000
3861		-74.218750
3862		-76.171875
3863		-74.218750
3864		-76.171875
3865		-72.265625
3866		-76.171875
3867		-72.265625
3868		-76.171875
3869		-72.265625
3870		-74.218750
3871		-70.312500
3872		-74.218750
3873		-70.312500
3874		-72.265625
3875		-70.312500
3876		-72.265625
3877		-68.359375
3878		-72.265625
3879		-68.359375
3880		-70.312500
3881		-68.359375
3882		-68.359375
3883		-66.406250
3884		-68.359375
3885		-64.453125
3886		-68.359375
3887		-64.453125
3888		-66.406250
3889		-62.500000
3890		-64.453125
3891		-62.500000
3892		-64.453125
3893		-60.546875
3894		-64.453125
3895		-58.593750
3896		-60.546875
3897		-58.593750
3898		-60.546875
3899		-56.640625
3900		-58.593750
3901		-54.687500
3902		-56.640625
3903		-52.734375
3904		-56.640625
3905		-52.734375
3906		-54.687500
3907		-50.781250
3908		-52.734375
3909		-48.828125
3910		-50.781250
3911		-46.875000
3912		-48.828125
3913		-44.921875
3914		-46.875000
3915		-42.968750
3916		-46.875000
3917		-41.015625
3918		-44.921875
3919		-41.015625
3920		-42.968750
3921		-39.062500
3922		-41.015625
3923		-37.109375
3924		-39.062500
3925		-35.156250
3926		-37.109375
3927		-33.203125
3928		-35.156250
3929		-31.250000
3930		-33.203125
3931		-29.296875
3932		-31.250000
3933		-27.343750
3934		-29.296875
3935		-25.390625
3936		-27.343750
3937		-23.437500
3938		-25.390625
3939		-21.484375
3940		-23.437500
3941		-19.531250
3942		-21.484375
3943		-17.578125
3944		-19.531250
3945		-15.625000
3946		-17.578125
3947		-13.671875
3948		-15.625000
3949		-11.718750
3950		-13.671875
3951		-9.765625
3952		-9.765625
3953		-7.812500
3954		-9.765625
3955		-5.859375
3956		-7.812500
3957		-3.906250
3958		-3.906250
3959		-1.953125
3960		-1.953125
3961		1.953125
3962		0.000000
3963		3.906250
3964		1.953125
3965		5.859375
3966		1.953125
3967		7.812500
3968		5.859375
3969		9.765625
3970		7.812500
3971		11.718750
3972		9.765625
3973		13.671875
3974		11.718750
3975		15.625000
3976		13.671875
3977		17.578125
3978		15.625000
3979		19.531250
3980		17.578125
3981		21.484375
3982		19.531250
3983		23.437500
3984		21.484375
3985		27.343750
3986		23.437500
3987		27.343750
3988		25.390625
3989		29.296875
3990		27.343750
3991		31.250000
3992		29.296875
3993		33.203125
3994		31.250000
3995		35.156250
3996		33.203125
3997		37.109375
3998		35.156250
3999		41.015625
4000		37.109375
4001		41.015625
4002		39.062500
4003		42.968750
4004		41.015625
4005		44.921875
4006		42.968750
4007		46.875000
4008		44.921875
4009		48.828125
4010		46.875000
4011		50.781250
4012		48.828125
4013		52.734375
4014		50.781250
4015		52.734375
4016		52.734375
4017		54.687500
4018		52.734375
4019		56.640625
4020		54.687500
4021		58.593750
4022		56.640625
4023		60.546875
4024		58.593750
4025		62.500000
4026		58.593750
4027		62.500000
4028		60.546875
4029		64.453125
4030		62.500000
4031		66.406250
4032		64.453125
4033		66.406250
4034		66.406250
4035		68.359375
4036		66.406250
4037		70.312500
4038		68.359375
4039		70.312500
4040		70.312500
4041		72.265625
4042		70.312500
4043		74.218750
4044		72.265625
4045		74.218750
4046		74.218750
4047		76.171875
4048		74.218750
4049		78.125000
4050		74.218750
4051		78.125000
4052		76.171875
4053		80.078125
4054		78.125000
4055		80.078125
4056		78.125000
4057		82.031250
4058		80.078125
4059		82.031250
4060		80.078125
4061		83.984375
4062		80.078125
4063		83.984375
4064		82.031250
4065		83.984375
4066		82.031250
4067		87.890625
4068		82.031250
4069		85.937500
4070		83.984375
4071		87.890625
4072		83.984375
4073		87.890625
4074		85.937500
4075		87.890625
4076		85.937500
4077		89.843750
4078		85.937500
4079		89.843750
4080		87.890625
4081		89.843750
4082		87.890625
4083		89.843750
4084		87.890625
4085		91.796875
4086		87.890625
4087		91.796875
4088		87.890625
4089		91.796875
4090		89.843750
4091		91.796875
4092		89.843750
4093		91.796875
4094		87.890625
4095		93.750000
4096		89.843750
4097		91.796875
4098		89.843750
4099		91.796875
4100		89.843750
4101		93.750000
4102		89.843750
4103		93.750000
4104		89.843750
4105		91.796875
4106		89.843750
4107		91.796875
4108		89.843750
4109		93.750000
4110		89.843750
4111		91.796875
4112		89.843750
4113		91.796875
4114		89.843750
4115		91.796875
4116		87.890625
4117		91.796875
4118		87.890625
4119		91.796875
4120		87.890625
4121		91.796875
4122		87.890625
4123		89.843750
4124		85.937500
4125		89.843750
4126		85.937500
4127		89.843750
4128		85.937500
4129		89.843750
4130		85.937500
4131		87.890625
4132		83.984375
4133		87.890625
4134		83.984375
4135		87.890625
4136		83.984375
4137		85.937500
4138		82.031250
4139		85.937500
4140		82.031250
4141		85.937500
4142		80.078125
4143		83.984375
4144		80.078125
4145		83.984375
4146		78.125000
4147		82.031250
4148		78.125000
4149		82.031250
4150		78.125000
4151		80.078125
4152		76.171875
4153		80.078125
4154		74.218750
4155		78.125000
4156		74.218750
4157		78.125000
4158		72.265625
4159		76.171875
4160		72.265625
4161		76.171875
4162		70.312500
4163		74.218750
4164		68.359375
4165		72.265625
4166		68.359375
4167		70.312500
4168		66.406250
4169		70.312500
4170		64.453125
4171		68.359375
4172		64.453125
4173		68.359375
4174		62.500000
4175		64.453125
4176		60.546875
4177		64.453125
4178		58.593750
4179		62.500000
4180		58.593750
4181		60.546875
4182		56.640625
4183		58.593750
4184		54.687500
4185		58.593750
4186		52.734375
4187		56.640625
4188		50.781250
4189		54.687500
4190		48.828125
4191		54.687500
4192		48.828125
4193		52.734375
4194		44.921875
4195		48.828125
4196		44.921875
4197		48.828125
4198		42.968750
4199		46.875000
4200		41.015625
4201		44.921875
4202		39.062500
4203		42.968750
4204		37.109375
4205		41.015625
4206		35.156250
4207		39.062500
4208		33.203125
4209		37.109375
4210		31.250000
4211		35.156250
4212		29.296875
4213		33.203125
4214		27.343750
4215		31.250000
4216		25.390625
4217		29.296875
4218		23.437500
4219		27.343750
4220		21.484375
4221		25.390625
4222		19.531250
4223		23.437500
4224		17.578125
4225		21.484375
4226		15.625000
4227		19.531250
4228		11.718750
4229		17.578125
4230		11.718750
4231		15.625000
4232		7.812500
4233		11.718750
4234		7.812500
4235		9.765625
4236		5.859375
4237		7.812500
4238		1.953125
4239		7.812500
4240		1.953125
4241		3.906250
4242		-1.953125
4243		1.953125
4244		-3.906250
4245		1.953125
4246		-5.859375
4247		-1.953125
4248		-7.812500
4249		-3.906250
4250		-9.765625
4251		-5.859375
4252		-11.718750
4253		-7.812500
4254		-13.671875
4255		-9.765625
4256		-15.625000
4257		-11.718750
4258		-17.578125
4259		-13.671875
4260		-19.531250
4261		-15.625000
4262		-21.484375
4263		-17.578125
4264		-23.437500
4265		-19.531250
4266		-25.390625
4267		-21.484375
4268		-27.343750
4269		-23.437500
4270		-29.296875
4271		-25.390625
4272		-31.250000
4273		-27.343750
4274		-33.203125
4275		-29.296875
4276		-35.156250
4277		-31.250000
4278		-37.109375
4279		-33.203125
4280		-39.062500
4281		-35.156250
4282		-39.062500
4283		-37.109375
4284		-42.968750
4285		-39.062500
4286		-42.968750
4287		-39.062500
4288		-44.921875
4289		-42.968750
4290		-46.875000
4291		-42.968750
4292		-48.828125
4293		-44.921875
4294		-50.781250
4295		-46.875000
4296		-52.734375
4297		-48.828125
4298		-52.734375
4299		-50.781250
4300		-54.687500
4301		-50.781250
4302		-56.640625
4303		-52.734375
4304		-56.640625
4305		-54.687500
4306		-58.593750
4307		-54.687500
4308		-60.546875
4309		-56.640625
4310		-60.546875
4311		-58.593750
4312		-62.500000
4313		-58.593750
4314		-64.453125
4315		-60.546875
4316		-64.453125
4317		-62.500000
4318		-66.406250
4319		-62.500000
4320		-66.406250
4321		-64.453125
4322		-68.359375
4323		-64.453125
4324		-70.312500
4325		-66.406250
4326		-70.312500
4327		-66.406250
4328		-72.265625
4329		-68.359375
4330		-72.265625
4331		-68.359375
4332		-72.265625
4333		-70.312500
4334		-72.265625
4335		-70.312500
4336		-74.218750
4337		-70.312500
4338		-76.171875
4339		-72.265625
4340		-76.171875
4341		-72.265625
4342		-76.171875
4343		-72.265625
4344		-76.171875
4345		-72.265625
4346		-76.171875
4347		-74.218750
4348		-78.125000
4349		-74.218750
4350		-76.171875
4351		-74.218750
4352		-78.125000
4353		-74.218750
4354		-78.125000
4355		-74.218750
4356		-78.125000
4357		-74.218750
4358		-78.125000
4359		-74.218750
4360		-78.125000
4361		-74.218750
4362		-78.125000
4363		-74.218750
4364		-78.125000
4365		-74.218750
4366		-78.125000
4367		-74.218750
4368		-78.125000
4369		-74.218750
4370		-78.125000
4371		-74.218750
4372		-76.171875
4373		-74.218750
4374		-78.125000
4375		-72.265625
4376		-76.171875
4377		-72.265625
4378		-76.171875
4379		-72.265625
4380		-76.171875
4381		-70.312500
4382		-74.218750
4383		-70.312500
4384		-74.218750
4385		-70.312500
4386		-72.265625
4387		-70.312500
4388		-72.265625
4389		-68.359375
4390		-70.312500
4391		-68.359375
4392		-70.312500
4393		-66.406250
4394		-70.312500
4395		-66.406250
4396		-68.359375
4397		-64.453125
4398		-68.359375
4399		-64.453125
4400		-66.406250
4401		-62.500000
4402		-66.406250
4403		-60.546875
4404		-64.453125
4405		-60.546875
4406		-62.500000
4407		-58.593750
4408		-62.500000
4409		-58.593750
4410		-60.546875
4411		-56.640625
4412		-58.593750
4413		-54.687500
4414		-58.593750
4415		-54.687500
4416		-56.640625
4417		-52.734375
4418		-54.687500
4419		-50.781250
4420		-54.687500
4421		-48.828125
4422		-50.781250
4423		-46.875000
4424		-48.828125
4425		-46.875000
4426		-46.875000
4427		-44.921875
4428		-46.875000
4429		-42.968750
4430		-44.921875
4431		-41.015625
4432		-42.968750
4433		-39.062500
4434		-41.015625
4435		-37.109375
4436		-39.062500
4437		-35.156250
4438		-37.109375
4439		-33.203125
4440		-35.156250
4441		-31.250000
4442		-35.156250
4443		-29.296875
4444		-31.250000
4445		-27.343750
4446		-31.250000
4447		-25.390625
4448		-29.296875
4449		-23.437500
4450		-25.390625
4451		-23.437500
4452		-23.437500
4453		-19.531250
4454		-21.484375
4455		-17.578125
4456		-19.531250
4457		-15.625000
4458		-17.578125
4459		-13.671875
4460		-15.625000
4461		-11.718750
4462		-13.671875
4463		-9.765625
4464		-11.718750
4465		-7.812500
4466		-9.765625
4467		-5.859375
4468		-7.812500
4469		-3.906250
4470		-5.859375
4471		-1.953125
4472		-3.906250
4473		0.000000
4474		-1.953125
4475		3.906250
4476		0.000000
4477		5.859375
4478		1.953125
4479		5.859375
4480		5.859375
4481		7.812500
4482		5.859375
4483		11.718750
4484		9.765625
4485		13.671875
4486		11.718750
4487		15.625000
4488		13.671875
4489		17.578125
4490		15.625000
4491		19.531250
4492		17.578125
4493		21.484375
4494		19.531250
4495		23.437500
4496		21.484375
4497		25.390625
4498		23.437500
4499		27.343750
4500		25.390625
4501		29.296875
4502		27.343750
4503		31.250000
4504		29.296875
4505		33.203125
4506		31.250000
4507		35.156250
4508		33.203125
4509		37.109375
4510		35.156250
4511		39.062500
4512		37.109375
4513		41.015625
4514		39.062500
4515		42.968750
4516		39.062500
4517		44.921875
4518		42.968750
4519		46.875000
4520		42.968750
4521		48.828125
4522		44.921875
4523		50.781250
4524		48.828125
4525		50.781250
4526		48.828125
4527		52.734375
4528		50.781250
4529		54.687500
4530		52.734375
4531		56.640625
4532		54.687500
4533		58.593750
4534		56.640625
4535		58.593750
4536		56.640625
4537		62.500000
4538		58.593750
4539		64.453125
4540		60.546875
4541		64.453125
4542		62.500000
4543		66.406250
4544		62.500000
4545		66.406250
4546		64.453125
4547		68.359375
4548		66.406250
4549		70.312500
4550		68.359375
4551		70.312500
4552		68.359375
4553		72.265625
4554		70.312500
4555		74.218750
4556		72.265625
4557		74.218750
4558		72.265625
4559		76.171875
4560		74.218750
4561		78.125000
4562		76.171875
4563		78.125000
4564		76.171875
4565		80.078125
4566		76.171875
4567		80.078125
4568		78.125000
4569		80.078125
4570		80.078125
4571		82.031250
4572		80.078125
4573		83.984375
4574		82.031250
4575		83.984375
4576		82.031250
4577		83.984375
4578		82.031250
4579		85.937500
4580		83.984375
4581		85.937500
4582		83.984375
4583		87.890625
4584		85.937500
4585		87.890625
4586		85.937500
4587		87.890625
4588		85.937500
4589		89.843750
4590		85.937500
4591		89.843750
4592		87.890625
4593		89.843750
4594		87.890625
4595		91.796875
4596		87.890625
4597		91.796875
4598		87.890625
4599		91.796875
4600		87.890625
4601		91.796875
4602		89.843750
4603		91.796875
4604		87.890625
4605		93.750000
4606		89.843750
4607		93.750000
4608		89.843750
4609		91.796875
4610		89.843750
4611		93.750000
4612		89.843750
4613		93.750000
4614		89.843750
4615		93.750000
4616		89.843750
4617		93.750000
4618		89.843750
4619		91.796875
4620		89.843750
4621		93.750000
4622		89.843750
4623		93.750000
4624		89.843750
4625		93.750000
4626		89.843750
4627		91.796875
4628		87.890625
4629		91.796875
4630		87.890625
4631		91.796875
4632		87.890625
4633		91.796875
4634		87.890625
4635		89.843750
4636		87.890625
4637		89.843750
4638		87.890625
4639		91.796875
4640		87.890625
4641		89.843750
4642		85.937500
4643		89.843750
4644		85.937500
4645		87.890625
4646		83.984375
4647		87.890625
4648		83.984375
4649		87.890625
4650		83.984375
4651		87.890625
4652		82.031250
4653		85.937500
4654		80.078125
4655		85.937500
4656		80.078125
4657		83.984375
4658		80.078125
4659		83.984375
4660		80.078125
4661		82.031250
4662		78.125000
4663		82.031250
4664		78.125000
4665		80.078125
4666		76.171875
4667		80.078125
4668		74.218750
4669		78.125000
4670		74.218750
4671		76.171875
4672		72.265625
4673		76.171875
4674		72.265625
4675		74.218750
4676		70.312500
4677		74.218750
4678		68.359375
4679		72.265625
4680		68.359375
4681		70.312500
4682		66.406250
4683		70.312500
4684		64.453125
4685		68.359375
4686		64.453125
4687		66.406250
4688		60.546875
4689		66.406250
4690		60.546875
4691		64.453125
4692		58.593750
4693		62.500000
4694		56.640625
4695		60.546875
4696		56.640625
4697		58.593750
4698		54.687500
4699		58.593750
4700		52.734375
4701		56.640625
4702		50.781250
4703		54.687500
4704		48.828125
4705		52.734375
4706		46.875000
4707		52.734375
4708		44.921875
4709		48.828125
4710		42.968750
4711		46.875000
4712		42.968750
4713		44.921875
4714		41.015625
4715		44.921875
4716		37.109375
4717		41.015625
4718		37.109375
4719		41.015625
4720		35.156250
4721		37.109375
4722		33.203125
4723		37.109375
4724		31.250000
4725		35.156250
4726		29.296875
4727		33.203125
4728		27.343750
4729		31.250000
4730		25.390625
4731		29.296875
4732		23.437500
4733		27.343750
4734		21.484375
4735		25.390625
4736		19.531250
4737		23.437500
4738		15.625000
4739		21.484375
4740		15.625000
4741		19.531250
4742		13.671875
4743		17.578125
4744		11.718750
4745		15.625000
4746		7.812500
4747		13.671875
4748		7.812500
4749		11.718750
4750		3.906250
4751		7.812500
4752		1.953125
4753		5.859375
4754		0.000000
4755		3.906250
4756		-1.953125
4757		1.953125
4758		-5.859375
4759		0.000000
4760		-5.859375
4761		-1.953125
4762		-7.812500
4763		-3.906250
4764		-9.765625
4765		-5.859375
4766		-13.671875
4767		-7.812500
4768		-13.671875
4769		-9.765625
4770		-15.625000
4771		-11.718750
4772		-17.578125
4773		-13.671875
4774		-19.531250
4775		-15.625000
4776		-23.437500
4777		-17.578125
4778		-23.437500
4779		-19.531250
4780		-27.343750
4781		-21.484375
4782		-27.343750
4783		-23.437500
4784		-31.250000
4785		-25.390625
4786		-31.250000
4787		-29.296875
4788		-33.203125
4789		-29.296875
4790		-35.156250
4791		-31.250000
4792		-37.109375
4793		-33.203125
4794		-39.062500
4795		-35.156250
4796		-41.015625
4797		-37.109375
4798		-42.968750
4799		-39.062500
4800		-44.921875
4801		-41.015625
4802		-46.875000
4803		-42.968750
4804		-48.828125
4805		-44.921875
4806		-50.781250
4807		-44.921875
4808		-50.781250
4809		-46.875000
4810		-52.734375
4811		-48.828125
4812		-54.687500
4813		-50.781250
4814		-54.687500
4815		-52.734375
4816		-56.640625
4817		-52.734375
4818		-58.593750
4819		-54.687500
4820		-60.546875
4821		-56.640625
4822		-62.500000
4823		-58.593750
4824		-62.500000
4825		-58.593750
4826		-64.453125
4827		-60.546875
4828		-64.453125
4829		-60.546875
4830		-66.406250
4831		-62.500000
4832		-66.406250
4833		-62.500000
4834		-68.359375
4835		-64.453125
4836		-68.359375
4837		-66.406250
4838		-70.312500
4839		-66.406250
4840		-72.265625
4841		-66.406250
4842		-72.265625
4843		-68.359375
4844		-72.265625
4845		-68.359375
4846		-74.218750
4847		-70.312500
4848		-74.218750
4849		-70.312500
4850		-74.218750
4851		-70.312500
4852		-76.171875
4853		-72.265625
4854		-76.171875
4855		-72.265625
4856		-76.171875
4857		-72.265625
4858		-76.171875
4859		-74.218750
4860		-76.171875
4861		-74.218750
4862		-78.125000
4863		-74.218750
4864		-78.125000
4865		-74.218750
4866		-78.125000
4867		-74.218750
4868		-78.125000
4869		-74.218750
4870		-76.171875
4871		-74.218750
4872		-78.125000
4873		-74.218750
4874		-78.125000
4875		-74.218750
4876		-76.171875
4877		-74.218750
4878		-78.125000
4879		-74.218750
4880		-76.171875
4881		-74.218750
4882		-76.171875
4883		-74.218750
4884		-76.171875
4885		-74.218750
4886		-76.171875
4887		-74.218750
4888		-76.171875
4889		-74.218750
4890		-76.171875
4891		-72.265625
4892		-74.218750
4893		-72.265625
4894		-74.218750
4895		-70.312500
4896		-74.218750
4897		-70.312500
4898		-72.265625
4899		-70.312500
4900		-72.265625
4901		-68.359375
4902		-72.265625
4903		-68.359375
4904		-70.312500
4905		-68.359375
4906		-68.359375
4907		-66.406250
4908		-68.359375
4909		-64.453125
4910		-66.406250
4911		-64.453125
4912		-66.406250
4913		-64.453125
4914		-66.406250
4915		-62.500000
4916		-64.453125
4917		-60.546875
4918		-64.453125
4919		-58.593750
4920		-62.500000
4921		-58.593750
4922		-60.546875
4923		-58.593750
4924		-58.593750
4925		-56.640625
4926		-58.593750
4927		-54.687500
4928		-56.640625
4929		-52.734375
4930		-54.687500
4931		-50.781250
4932		-54.687500
4933		-50.781250
4934		-52.734375
4935		-48.828125
4936		-50.781250
4937		-46.875000
4938		-48.828125
4939		-44.921875
4940		-46.875000
4941		-42.968750
4942		-44.921875
4943		-41.015625
4944		-44.921875
4945		-39.062500
4946		-42.968750
4947		-39.062500
4948		-41.015625
4949		-37.109375
4950		-39.062500
4951		-35.156250
4952		-37.109375
4953		-33.203125
4954		-35.156250
4955		-31.250000
4956		-33.203125
4957		-29.296875
4958		-31.250000
4959		-27.343750
4960		-29.296875
4961		-25.390625
4962		-27.343750
4963		-23.437500
4964		-25.390625
4965		-21.484375
4966		-23.437500
4967		-19.531250
4968		-21.484375
4969		-17.578125
4970		-19.531250
4971		-15.625000
4972		-17.578125
4973		-13.671875
4974		-15.625000
4975		-11.718750
4976		-13.671875
4977		-7.812500
4978		-11.718750
4979		-5.859375
4980		-7.812500
4981		-3.906250
4982		-5.859375
4983		-1.953125
4984		-5.859375
4985		0.000000
4986		-3.906250
4987		1.953125
4988		0.000000
4989		3.906250
4990		1.953125
4991		5.859375
4992		3.906250
4993		7.812500
4994		5.859375
4995		9.765625
4996		7.812500
4997		11.718750
4998		9.765625
4999		13.671875
5000		11.718750
5001		15.625000
5002		13.671875
5003		19.531250
5004		17.578125
5005		19.531250
5006		17.578125
5007		21.484375
5008		19.531250
5009		23.437500
5010		23.437500
5011		27.343750
5012		25.390625
5013		29.296875
5014		25.390625
5015		29.296875
5016		27.343750
5017		33.203125
5018		29.296875
5019		33.203125
5020		31.250000
5021		35.156250
5022		33.203125
5023		37.109375
5024		35.156250
5025		41.015625
5026		37.109375
5027		42.968750
5028		39.062500
5029		42.968750
5030		41.015625
5031		44.921875
5032		42.968750
5033		46.875000
5034		44.921875
5035		48.828125
5036		46.875000
5037		50.781250
5038		48.828125
5039		52.734375
5040		50.781250
5041		52.734375
5042		50.781250
5043		54.687500
5044		52.734375
5045		58.593750
5046		54.687500
5047		58.593750
5048		56.640625
5049		60.546875
5050		58.593750
5051		62.500000
5052		60.546875
5053		64.453125
5054		60.546875
5055		64.453125
5056		62.500000
5057		66.406250
5058		64.453125
5059		68.359375
5060		66.406250
5061		70.312500
5062		66.406250
5063		70.312500
5064		68.359375
5065		72.265625
5066		70.312500
5067		74.218750
5068		70.312500
5069		74.218750
5070		72.265625
5071		76.171875
5072		74.218750
5073		76.171875
5074		74.218750
5075		80.078125
5076		76.171875
5077		80.078125
5078		76.171875
5079		80.078125
5080		78.125000
5081		82.031250
5082		78.125000
5083		82.031250
5084		80.078125
5085		83.984375
5086		80.078125
5087		83.984375
5088		82.031250
5089		83.984375
5090		82.031250
5091		85.937500
5092		82.031250
5093		87.890625
5094		83.984375
5095		87.890625
5096		83.984375
5097		87.890625
5098		85.937500
5099		87.890625
5100		85.937500
5101		89.843750
5102		87.890625
5103		89.843750
5104		85.937500
5105		89.843750
5106		87.890625
5107		89.843750
5108		87.890625
5109		91.796875
5110		87.890625
5111		91.796875
5112		87.890625
5113		91.796875
5114		89.843750
5115		91.796875
5116		89.843750
5117		91.796875
5118		89.843750
5119		93.750000
5120		89.843750
5121		93.750000
5122		89.843750
5123		93.750000
5124		89.843750
5125		93.750000
5126		89.843750
5127		93.750000
5128		89.843750
5129		93.750000
5130		89.843750
5131		93.750000
5132		89.843750
5133		93.750000
5134		89.843750
5135		93.750000
5136		89.843750
5137		93.750000
5138		89.843750
5139		93.750000
5140		89.843750
5141		93.750000
5142		89.843750
5143		91.796875
5144		89.843750
5145		91.796875
5146		87.890625
5147		91.796875
5148		87.890625
5149		91.796875
5150		87.890625
5151		91.796875
5152		87.890625
5153		91.796875
5154		87.890625
5155		91.796875
5156		85.937500
5157		89.843750
5158		83.984375
5159		89.843750
5160		85.937500
5161		87.890625
5162		83.984375
5163		87.890625
5164		83.984375
5165		87.890625
5166		82.031250
5167		85.937500
5168		82.031250
5169		85.937500
5170		80.078125
5171		83.984375
5172		80.078125
5173		83.984375
5174		80.078125
5175		82.031250
5176		78.125000
5177		82.031250
5178		76.171875
5179		80.078125
5180		76.171875
5181		80.078125
5182		76.171875
5183		78.125000
5184		74.218750
5185		78.125000
5186		72.265625
5187		76.171875
5188		70.312500
5189		76.171875
5190		70.312500
5191		74.218750
5192		70.312500
5193		72.265625
5194		68.359375
5195		72.265625
5196		66.406250
5197		70.312500
5198		64.453125
5199		68.359375
5200		62.500000
5201		68.359375
5202		62.500000
5203		66.406250
5204		58.593750
5205		64.453125
5206		58.593750
5207		62.500000
5208		58.593750
5209		60.546875
5210		56.640625
5211		60.546875
5212		54.687500
5213		58.593750
5214		52.734375
5215		56.640625
5216		50.781250
5217		54.687500
5218		48.828125
5219		52.734375
5220		48.828125
5221		50.781250
5222		46.875000
5223		50.781250
5224		44.921875
5225		48.828125
5226		41.015625
5227		44.921875
5228		39.062500
5229		44.921875
5230		39.062500
5231		42.968750
5232		37.109375
5233		41.015625
5234		35.156250
5235		39.062500
5236		33.203125
5237		37.109375
5238		31.250000
5239		35.156250
5240		29.296875
5241		33.203125
5242		25.390625
5243		31.250000
5244		25.390625
5245		29.296875
5246		23.437500
5247		27.343750
5248		21.484375
5249		25.390625
5250		19.531250
5251		23.437500
5252		17.578125
5253		21.484375
5254		13.671875
5255		19.531250
5256		11.718750
5257		17.578125
5258		9.765625
5259		13.671875
5260		9.765625
5261		13.671875
5262		5.859375
5263		11.718750
5264		3.906250
5265		7.812500
5266		1.953125
5267		5.859375
5268		0.000000
5269		5.859375
5270		-1.953125
5271		1.953125
5272		-3.906250
5273		0.000000
5274		-5.859375
5275		-1.953125
5276		-7.812500
5277		-3.906250
5278		-9.765625
5279		-5.859375
5280		-11.718750
5281		-7.812500
5282		-13.671875
5283		-9.765625
5284		-15.625000
5285		-11.718750
5286		-17.578125
5287		-13.671875
5288		-19.531250
5289		-15.625000
5290		-21.484375
5291		-17.578125
5292		-23.437500
5293		-19.531250
5294		-25.390625
5295		-21.484375
5296		-27.343750
5297		-23.437500
5298		-29.296875
5299		-25.390625
5300		-31.250000
5301		-27.343750
5302		-33.203125
5303		-29.296875
5304		-35.156250
5305		-31.250000
5306		-37.109375
5307		-33.203125
5308		-39.062500
5309		-35.156250
5310		-41.015625
5311		-37.109375
5312		-42.968750
5313		-39.062500
5314		-44.921875
5315		-41.015625
5316		-46.875000
5317		-41.015625
5318		-48.828125
5319		-42.968750
5320		-48.828125
5321		-44.921875
5322		-50.781250
5323		-46.875000
5324		-52.734375
5325		-48.828125
5326		-52.734375
5327		-50.781250
5328		-54.687500
5329		-50.781250
5330		-56.640625
5331		-52.734375
5332		-56.640625
5333		-54.687500
5334		-58.593750
5335		-54.687500
5336		-60.546875
5337		-56.640625
5338		-62.500000
5339		-58.593750
5340		-62.500000
5341		-60.546875
5342		-64.453125
5343		-60.546875
5344		-66.406250
5345		-60.546875
5346		-66.406250
5347		-62.500000
5348		-66.406250
5349		-64.453125
5350		-68.359375
5351		-64.453125
5352		-70.312500
5353		-66.406250
5354		-70.312500
5355		-66.406250
5356		-72.265625
5357		-68.359375
5358		-72.265625
5359		-68.359375
5360		-74.218750
5361		-68.359375
5362		-72.265625
5363		-70.312500
5364		-74.218750
5365		-70.312500
5366		-74.218750
5367		-70.312500
5368		-74.218750
5369		-72.265625
5370		-76.171875
5371		-72.265625
5372		-76.171875
5373		-72.265625
5374		-76.171875
5375		-74.218750
5376		-76.171875
5377		-72.265625
5378		-76.171875
5379		-72.265625
5380		-76.171875
5381		-74.218750
5382		-76.171875
5383		-74.218750
5384		-78.125000
5385		-74.218750
5386		-78.125000
5387		-74.218750
5388		-78.125000
5389		-74.218750
5390		-78.125000
5391		-74.218750
5392		-76.171875
5393		-74.218750
5394		-76.171875
5395		-72.265625
5396		-76.171875
5397		-72.265625
5398		-76.171875
5399		-72.265625
5400		-76.171875
5401		-72.265625
5402		-76.171875
5403		-72.265625
5404		-74.218750
5405		-70.312500
5406		-74.218750
5407		-70.312500
5408		-72.265625
5409		-70.312500
5410		-72.265625
5411		-70.312500
5412		-72.265625
5413		-68.359375
5414		-70.312500
5415		-68.359375
5416		-70.312500
5417		-68.359375
5418		-70.312500
5419		-66.406250
5420		-68.359375
5421		-64.453125
5422		-68.359375
5423		-64.453125
5424		-66.406250
5425		-64.453125
5426		-64.453125
5427		-62.500000
5428		-64.453125
5429		-60.546875
5430		-62.500000
5431		-60.546875
5432		-62.500000
5433		-58.593750
5434		-60.546875
5435		-56.640625
5436		-60.546875
5437		-56.640625
5438		-58.593750
5439		-54.687500
5440		-56.640625
5441		-52.734375
5442		-54.687500
5443		-52.734375
5444		-54.687500
5445		-48.828125
5446		-52.734375
5447		-48.828125
5448		-50.781250
5449		-46.875000
5450		-48.828125
5451		-44.921875
5452		-46.875000
5453		-42.968750
5454		-46.875000
5455		-42.968750
5456		-44.921875
5457		-41.015625
5458		-42.968750
5459		-39.062500
5460		-41.015625
5461		-37.109375
5462		-39.062500
5463		-35.156250
5464		-37.109375
5465		-33.203125
5466		-35.156250
5467		-31.250000
5468		-33.203125
5469		-29.296875
5470		-31.250000
5471		-27.343750
5472		-29.296875
5473		-25.390625
5474		-27.343750
5475		-23.437500
5476		-25.390625
5477		-21.484375
5478		-23.437500
5479		-19.531250
5480		-21.484375
5481		-17.578125
5482		-19.531250
5483		-15.625000
5484		-17.578125
5485		-13.671875
5486		-15.625000
5487		-11.718750
5488		-13.671875
5489		-9.765625
5490		-11.718750
5491		-7.812500
5492		-9.765625
5493		-5.859375
5494		-7.812500
5495		-3.906250
5496		-5.859375
5497		-1.953125
5498		-3.906250
5499		1.953125
5500		0.000000
5501		1.953125
5502		1.953125
5503		5.859375
5504		3.906250
5505		7.812500
5506		5.859375
5507		9.765625
5508		7.812500
5509		11.718750
5510		9.765625
5511		13.671875
5512		11.718750
5513		15.625000
5514		13.671875
5515		17.578125
5516		15.625000
5517		19.531250
5518		17.578125
5519		21.484375
5520		19.531250
5521		23.437500
5522		21.484375
5523		25.390625
5524		23.437500
5525		27.343750
5526		25.390625
5527		29.296875
5528		27.343750
5529		33.203125
5530		29.296875
5531		33.203125
5532		31.250000
5533		35.156250
5534		33.203125
5535		37.109375
5536		35.156250
5537		39.062500
5538		37.109375
5539		41.015625
5540		39.062500
5541		42.968750
5542		41.015625
5543		44.921875
5544		42.968750
5545		46.875000
5546		44.921875
5547		48.828125
5548		46.875000
5549		50.781250
5550		48.828125
5551		52.734375
5552		50.781250
5553		52.734375
5554		50.781250
5555		54.687500
5556		52.734375
5557		56.640625
5558		54.687500
5559		58.593750
5560		56.640625
5561		60.546875
5562		58.593750
5563		62.500000
5564		60.546875
5565		62.500000
5566		60.546875
5567		64.453125
5568		62.500000
5569		66.406250
5570		64.453125
5571		68.359375
5572		66.406250
5573		68.359375
5574		66.406250
5575		70.312500
5576		68.359375
5577		70.312500
5578		70.312500
5579		72.265625
5580		70.312500
5581		74.218750
5582		72.265625
5583		76.171875
5584		74.218750
5585		76.171875
5586		74.218750
5587		78.125000
5588		76.171875
5589		78.125000
5590		76.171875
5591		80.078125
5592		76.171875
5593		80.078125
5594		78.125000
5595		82.031250
5596		80.078125
5597		83.984375
5598		80.078125
5599		83.984375
5600		80.078125
5601		83.984375
5602		82.031250
5603		85.937500
5604		82.031250
5605		85.937500
5606		83.984375
5607		87.890625
5608		83.984375
5609		87.890625
5610		85.937500
5611		87.890625
5612		85.937500
5613		89.843750
5614		85.937500
5615		89.843750
5616		87.890625
5617		89.843750
5618		87.890625
5619		91.796875
5620		85.937500
5621		91.796875
5622		87.890625
5623		91.796875
5624		87.890625
5625		91.796875
5626		89.843750
5627		91.796875
5628		89.843750
5629		91.796875
5630		89.843750
5631		93.750000
5632		89.843750
5633		93.750000
5634		89.843750
5635		93.750000
5636		89.843750
5637		93.750000
5638		89.843750
5639		93.750000
5640		89.843750
5641		93.750000
5642		89.843750
5643		93.750000
5644		91.796875
5645		93.750000
5646		89.843750
5647		93.750000
5648		89.843750
5649		93.750000
5650		87.890625
5651		93.750000
5652		89.843750
5653		93.750000
5654		87.890625
5655		93.750000
5656		87.890625
5657		93.750000
5658		87.890625
5659		93.750000
5660		87.890625
5661		91.796875
5662		87.890625
5663		91.796875
5664		85.937500
5665		91.796875
5666		85.937500
5667		91.796875
5668		85.937500
5669		91.796875
5670		85.937500
5671		89.843750
5672		83.984375
5673		89.843750
5674		83.984375
5675		89.843750
5676		83.984375
5677		87.890625
5678		83.984375
5679		85.937500
5680		82.031250
5681		85.937500
5682		82.031250
5683		85.937500
5684		80.078125
5685		85.937500
5686		78.125000
5687		83.984375
5688		78.125000
5689		83.984375
5690		78.125000
5691		82.031250
5692		76.171875
5693		82.031250
5694		76.171875
5695		78.125000
5696		74.218750
5697		78.125000
5698		72.265625
5699		78.125000
5700		72.265625
5701		76.171875
5702		70.312500
5703		76.171875
5704		68.359375
5705		74.218750
5706		66.406250
5707		72.265625
5708		66.406250
5709		72.265625
5710		66.406250
5711		68.359375
5712		64.453125
5713		68.359375
5714		62.500000
5715		66.406250
5716		62.500000
5717		64.453125
5718		60.546875
5719		62.500000
5720		58.593750
5721		62.500000
5722		56.640625
5723		60.546875
5724		54.687500
5725		58.593750
5726		54.687500
5727		56.640625
5728		52.734375
5729		54.687500
5730		48.828125
5731		54.687500
5732		48.828125
5733		52.734375
5734		46.875000
5735		50.781250
5736		44.921875
5737		48.828125
5738		42.968750
5739		46.875000
5740		41.015625
5741		44.921875
5742		39.062500
5743		42.968750
5744		37.109375
5745		41.015625
5746		37.109375
5747		39.062500
5748		33.203125
5749		37.109375
5750		33.203125
5751		35.156250
5752		31.250000
5753		33.203125
5754		27.343750
5755		31.250000
5756		25.390625
5757		29.296875
5758		23.437500
5759		27.343750
5760		21.484375
5761		25.390625
5762		19.531250
5763		23.437500
5764		17.578125
5765		21.484375
5766		15.625000
5767		19.531250
5768		13.671875
5769		17.578125
5770		11.718750
5771		15.625000
5772		9.765625
5773		13.671875
5774		7.812500
5775		11.718750
5776		5.859375
5777		9.765625
5778		3.906250
5779		7.812500
5780		1.953125
5781		5.859375
5782		0.000000
5783		3.906250
5784		-1.953125
5785		1.953125
5786		-3.906250
5787		0.000000
5788		-7.812500
5789		-3.906250
5790		-7.812500
5791		-3.906250
5792		-9.765625
5793		-5.859375
5794		-11.718750
5795		-9.765625
5796		-13.671875
5797		-11.718750
5798		-15.625000
5799		-13.671875
5800		-17.578125
5801		-13.671875
5802		-19.531250
5803		-17.578125
5804		-23.437500
5805		-19.531250
5806		-23.437500
5807		-21.484375
5808		-25.390625
5809		-23.437500
5810		-27.343750
5811		-25.390625
5812		-29.296875
5813		-27.343750
5814		-35.156250
5815		-27.343750
5816		-37.109375
5817		-27.343750
5818		-39.062500
5819		-29.296875
5820		-39.062500
5821		-29.296875
5822		-39.062500
5823		-35.156250
5824		-41.015625
5825		-37.109375
5826		-42.968750
5827		-39.062500
5828		-44.921875
5829		-41.015625
5830		-44.921875
5831		-42.968750
5832		-50.781250
5833		-41.015625
5834		-50.781250
5835		-42.968750
5836		-54.687500
5837		-44.921875
5838		-52.734375
5839		-48.828125
5840		-54.687500
5841		-50.781250
5842		-54.687500
5843		-52.734375
5844		-56.640625
5845		-52.734375
5846		-58.593750
5847		-54.687500
5848		-62.500000
5849		-54.687500
5850		-62.500000
5851		-54.687500
5852		-66.406250
5853		-56.640625
5854		-62.500000
5855		-60.546875
5856		-64.453125
5857		-60.546875
5858		-64.453125
5859		-62.500000
5860		-66.406250
5861		-62.500000
5862		-66.406250
5863		-64.453125
5864		-70.312500
5865		-64.453125
5866		-72.265625
5867		-62.500000
5868		-72.265625
5869		-64.453125
5870		-74.218750
5871		-64.453125
5872		-72.265625
5873		-68.359375
5874		-72.265625
5875		-70.312500
5876		-72.265625
5877		-70.312500
5878		-74.218750
5879		-70.312500
5880		-74.218750
5881		-72.265625
5882		-78.125000
5883		-68.359375
5884		-78.125000
5885		-68.359375
5886		-80.078125
5887		-70.312500
5888		-76.171875
5889		-74.218750
5890		-76.171875
5891		-74.218750
5892		-76.171875
5893		-74.218750
5894		-76.171875
5895		-74.218750
5896		-76.171875
5897		-74.218750
5898		-78.125000
5899		-70.312500
5900		-80.078125
5901		-70.312500
5902		-80.078125
5903		-70.312500
5904		-80.078125
5905		-70.312500
5906		-76.171875
5907		-74.218750
5908		-76.171875
5909		-74.218750
5910		-76.171875
5911		-74.218750
5912		-76.171875
5913		-72.265625
5914		-74.218750
5915		-72.265625
5916		-78.125000
5917		-68.359375
5918		-76.171875
5919		-68.359375
5920		-76.171875
5921		-68.359375
5922		-72.265625
5923		-70.312500
5924		-72.265625
5925		-70.312500
5926		-70.312500
5927		-68.359375
5928		-70.312500
5929		-68.359375
5930		-70.312500
5931		-68.359375
5932		-72.265625
5933		-62.500000
5934		-70.312500
5935		-62.500000
5936		-70.312500
5937		-60.546875
5938		-68.359375
5939		-60.546875
5940		-64.453125
5941		-62.500000
5942		-64.453125
5943		-60.546875
5944		-62.500000
5945		-60.546875
5946		-60.546875
5947		-58.593750
5948		-60.546875
5949		-56.640625
5950		-64.453125
5951		-52.734375
5952		-60.546875
5953		-50.781250
5954		-60.546875
5955		-50.781250
5956		-54.687500
5957		-52.734375
5958		-52.734375
5959		-50.781250
5960		-52.734375
5961		-48.828125
5962		-50.781250
5963		-46.875000
5964		-48.828125
5965		-44.921875
5966		-50.781250
5967		-41.015625
5968		-46.875000
5969		-39.062500
5970		-46.875000
5971		-37.109375
5972		-41.015625
5973		-39.062500
5974		-41.015625
5975		-37.109375
5976		-39.062500
5977		-35.156250
5978		-37.109375
5979		-33.203125
5980		-35.156250
5981		-31.250000
5982		-35.156250
5983		-25.390625
5984		-33.203125
5985		-25.390625
5986		-33.203125
5987		-23.437500
5988		-29.296875
5989		-21.484375
5990		-25.390625
5991		-21.484375
5992		-23.437500
5993		-19.531250
5994		-21.484375
5995		-17.578125
5996		-19.531250
5997		-15.625000
5998		-17.578125
5999		-13.671875
6000		-15.625000
6001		-9.765625
6002		-13.671875
6003		-5.859375
6004		-11.718750
6005		-5.859375
6006		-7.812500
6007		-5.859375
6008		-5.859375
6009		-1.953125
6010		-3.906250
6011		0.000000
6012		-1.953125
6013		1.953125
6014		0.000000
6015		3.906250
6016		1.953125
6017		5.859375
6018		1.953125
6019		9.765625
6020		3.906250
6021		11.718750
6022		7.812500
6023		11.718750
6024		9.765625
6025		13.671875
6026		11.718750
6027		15.625000
6028		13.671875
6029		17.578125
6030		15.625000
6031		19.531250
6032		19.531250
6033		23.437500
6034		19.531250
6035		23.437500
6036		21.484375
6037		27.343750
6038		23.437500
6039		27.343750
6040		27.343750
6041		29.296875
6042		29.296875
6043		33.203125
6044		31.250000
6045		35.156250
6046		33.203125
6047		35.156250
6048		35.156250
6049		37.109375
6050		37.109375
6051		39.062500
6052		39.062500
6053		41.015625
6054		41.015625
6055		42.968750
6056		42.968750
6057		44.921875
6058		42.968750
6059		46.875000
6060		44.921875
6061		48.828125
6062		46.875000
6063		50.781250
6064		48.828125
6065		52.734375
6066		50.781250
6067		54.687500
6068		52.734375
6069		56.640625
6070		54.687500
6071		56.640625
6072		56.640625
6073		58.593750
6074		56.640625
6075		60.546875
6076		58.593750
6077		62.500000
6078		60.546875
6079		62.500000
6080		62.500000
6081		64.453125
6082		62.500000
6083		66.406250
6084		64.453125
6085		68.359375
6086		66.406250
6087		70.312500
6088		68.359375
6089		70.312500
6090		68.359375
6091		72.265625
6092		70.312500
6093		72.265625
6094		72.265625
6095		74.218750
6096		72.265625
6097		76.171875
6098		74.218750
6099		76.171875
6100		74.218750
6101		78.125000
6102		76.171875
6103		80.078125
6104		76.171875
6105		80.078125
6106		78.125000
6107		82.031250
6108		78.125000
6109		82.031250
6110		80.078125
6111		82.031250
6112		80.078125
6113		83.984375
6114		82.031250
6115		83.984375
6116		82.031250
6117		85.937500
6118		82.031250
6119		87.890625
6120		83.984375
6121		87.890625
6122		85.937500
6123		87.890625
6124		83.984375
6125		89.843750
6126		85.937500
6127		89.843750
6128		87.890625
6129		89.843750
6130		87.890625
6131		89.843750
6132		87.890625
6133		89.843750
6134		87.890625
6135		91.796875
6136		87.890625
6137		91.796875
6138		89.843750
6139		91.796875
6140		89.843750
6141		93.750000
6142		89.843750
6143		93.750000
6144		89.843750
6145		93.750000
6146		89.843750
6147		93.750000
6148		91.796875
6149		93.750000
6150		89.843750
6151		95.703125
6152		89.843750
6153		93.750000
6154		89.843750
6155		93.750000
6156		91.796875
6157		93.750000
6158		89.843750
6159		93.750000
6160		89.843750
6161		93.750000
6162		91.796875
6163		93.750000
6164		89.843750
6165		93.750000
6166		89.843750
6167		91.796875
6168		87.890625
6169		93.750000
6170		89.843750
6171		93.750000
6172		89.843750
6173		91.796875
6174		87.890625
6175		91.796875
6176		87.890625
6177		91.796875
6178		87.890625
6179		89.843750
6180		87.890625
6181		89.843750
6182		85.937500
6183		89.843750
6184		85.937500
6185		89.843750
6186		85.937500
6187		89.843750
6188		85.937500
6189		87.890625
6190		83.984375
6191		87.890625
6192		82.031250
6193		87.890625
6194		82.031250
6195		85.937500
6196		82.031250
6197		83.984375
6198		82.031250
6199		83.984375
6200		80.078125
6201		82.031250
6202		78.125000
6203		83.984375
6204		78.125000
6205		82.031250
6206		76.171875
6207		80.078125
6208		76.171875
6209		80.078125
6210		74.218750
6211		78.125000
6212		74.218750
6213		76.171875
6214		72.265625
6215		76.171875
6216		72.265625
6217		74.218750
6218		68.359375
6219		74.218750
6220		68.359375
6221		72.265625
6222		66.406250
6223		70.312500
6224		64.453125
6225		68.359375
6226		64.453125
6227		68.359375
6228		62.500000
6229		66.406250
6230		60.546875
6231		64.453125
6232		60.546875
6233		62.500000
6234		56.640625
6235		60.546875
6236		56.640625
6237		60.546875
6238		54.687500
6239		58.593750
6240		52.734375
6241		56.640625
6242		50.781250
6243		56.640625
6244		50.781250
6245		54.687500
6246		48.828125
6247		52.734375
6248		46.875000
6249		50.781250
6250		44.921875
6251		48.828125
6252		42.968750
6253		48.828125
6254		41.015625
6255		44.921875
6256		39.062500
6257		42.968750
6258		37.109375
6259		41.015625
6260		35.156250
6261		39.062500
6262		33.203125
6263		37.109375
6264		31.250000
6265		35.156250
6266		29.296875
6267		33.203125
6268		25.390625
6269		31.250000
6270		25.390625
6271		29.296875
6272		23.437500
6273		27.343750
6274		21.484375
6275		25.390625
6276		19.531250
6277		23.437500
6278		17.578125
6279		21.484375
6280		15.625000
6281		19.531250
6282		13.671875
6283		17.578125
6284		11.718750
6285		15.625000
6286		9.765625
6287		13.671875
6288		7.812500
6289		11.718750
6290		5.859375
6291		9.765625
6292		3.906250
6293		7.812500
6294		1.953125
6295		3.906250
6296		0.000000
6297		1.953125
6298		-3.906250
6299		1.953125
6300		-5.859375
6301		-1.953125
6302		-7.812500
6303		-3.906250
6304		-9.765625
6305		-5.859375
6306		-11.718750
6307		-7.812500
6308		-13.671875
6309		-9.765625
6310		-15.625000
6311		-11.718750
6312		-17.578125
6313		-13.671875
6314		-19.531250
6315		-15.625000
6316		-21.484375
6317		-17.578125
6318		-23.437500
6319		-19.531250
6320		-25.390625
6321		-21.484375
6322		-27.343750
6323		-23.437500
6324		-29.296875
6325		-25.390625
6326		-31.250000
6327		-27.343750
6328		-33.203125
6329		-29.296875
6330		-33.203125
6331		-31.250000
6332		-37.109375
6333		-33.203125
6334		-37.109375
6335		-35.156250
6336		-39.062500
6337		-37.109375
6338		-41.015625
6339		-37.109375
6340		-42.968750
6341		-39.062500
6342		-44.921875
6343		-41.015625
6344		-46.875000
6345		-42.968750
6346		-46.875000
6347		-44.921875
6348		-48.828125
6349		-46.875000
6350		-50.781250
6351		-48.828125
6352		-52.734375
6353		-48.828125
6354		-54.687500
6355		-50.781250
6356		-54.687500
6357		-52.734375
6358		-56.640625
6359		-52.734375
6360		-58.593750
6361		-54.687500
6362		-58.593750
6363		-56.640625
6364		-60.546875
6365		-58.593750
6366		-62.500000
6367		-58.593750
6368		-62.500000
6369		-60.546875
6370		-64.453125
6371		-60.546875
6372		-64.453125
6373		-62.500000
6374		-66.406250
6375		-62.500000
6376		-66.406250
6377		-64.453125
6378		-68.359375
6379		-64.453125
6380		-68.359375
6381		-66.406250
6382		-70.312500
6383		-68.359375
6384		-70.312500
6385		-68.359375
6386		-72.265625
6387		-68.359375
6388		-72.265625
6389		-68.359375
6390		-72.265625
6391		-70.312500
6392		-74.218750
6393		-70.312500
6394		-74.218750
6395		-72.265625
6396		-74.218750
6397		-72.265625
6398		-74.218750
6399		-72.265625
6400		-74.218750
6401		-72.265625
6402		-76.171875
6403		-72.265625
6404		-76.171875
6405		-74.218750
6406		-76.171875
6407		-74.218750
6408		-76.171875
6409		-74.218750
6410		-76.171875
6411		-74.218750
6412		-76.171875
6413		-74.218750
6414		-76.171875
6415		-74.218750
6416		-76.171875
6417		-74.218750
6418		-76.171875
6419		-74.218750
6420		-76.171875
6421		-72.265625
6422		-76.171875
6423		-74.218750
6424		-74.218750
6425		-74.218750
6426		-74.218750
6427		-72.265625
6428		-74.218750
6429		-72.265625
6430		-74.218750
6431		-70.312500
6432		-74.218750
6433		-70.312500
6434		-72.265625
6435		-70.312500
6436		-72.265625
6437		-68.359375
6438		-74.218750
6439		-68.359375
6440		-70.312500
6441		-68.359375
6442		-70.312500
6443		-66.406250
6444		-68.359375
6445		-66.406250
6446		-68.359375
6447		-66.406250
6448		-66.406250
6449		-64.453125
6450		-66.406250
6451		-64.453125
6452		-66.406250
6453		-62.500000
6454		-66.406250
6455		-60.546875
6456		-64.453125
6457		-58.593750
6458		-62.500000
6459		-58.593750
6460		-60.546875
6461		-58.593750
6462		-58.593750
6463		-56.640625
6464		-58.593750
6465		-54.687500
6466		-56.640625
6467		-52.734375
6468		-54.687500
6469		-52.734375
6470		-54.687500
6471		-48.828125
6472		-52.734375
6473		-48.828125
6474		-50.781250
6475		-46.875000
6476		-48.828125
6477		-46.875000
6478		-46.875000
6479		-44.921875
6480		-44.921875
6481		-42.968750
6482		-44.921875
6483		-41.015625
6484		-42.968750
6485		-39.062500
6486		-41.015625
6487		-35.156250
6488		-41.015625
6489		-33.203125
6490		-39.062500
6491		-33.203125
6492		-35.156250
6493		-31.250000
6494		-33.203125
6495		-29.296875
6496		-31.250000
6497		-27.343750
6498		-29.296875
6499		-25.390625
6500		-27.343750
6501		-23.437500
6502		-25.390625
6503		-23.437500
6504		-25.390625
6505		-19.531250
6506		-23.437500
6507		-17.578125
6508		-19.531250
6509		-15.625000
6510		-17.578125
6511		-13.671875
6512		-15.625000
6513		-11.718750
6514		-13.671875
6515		-9.765625
6516		-11.718750
6517		-7.812500
6518		-9.765625
6519		-5.859375
6520		-7.812500
6521		-1.953125
6522		-7.812500
6523		0.000000
6524		-3.906250
6525		0.000000
6526		-1.953125
6527		1.953125
6528		0.000000
6529		3.906250
6530		1.953125
6531		5.859375
6532		5.859375
6533		7.812500
6534		7.812500
6535		9.765625
6536		9.765625
6537		13.671875
6538		9.765625
6539		15.625000
6540		11.718750
6541		17.578125
6542		15.625000
6543		19.531250
6544		17.578125
6545		21.484375
6546		19.531250
6547		23.437500
6548		21.484375
6549		25.390625
6550		23.437500
6551		27.343750
6552		25.390625
6553		29.296875
6554		25.390625
6555		33.203125
6556		29.296875
6557		33.203125
6558		31.250000
6559		35.156250
6560		33.203125
6561		37.109375
6562		35.156250
6563		39.062500
6564		37.109375
6565		41.015625
6566		39.062500
6567		42.968750
6568		41.015625
6569		44.921875
6570		41.015625
6571		48.828125
6572		42.968750
6573		48.828125
6574		44.921875
6575		48.828125
6576		48.828125
6577		50.781250
6578		48.828125
6579		52.734375
6580		50.781250
6581		54.687500
6582		52.734375
6583		56.640625
6584		54.687500
6585		58.593750
6586		56.640625
6587		58.593750
6588		56.640625
6589		62.500000
6590		58.593750
6591		62.500000
6592		60.546875
6593		64.453125
6594		62.500000
6595		66.406250
6596		64.453125
6597		66.406250
6598		64.453125
6599		68.359375
6600		66.406250
6601		70.312500
6602		68.359375
6603		70.312500
6604		68.359375
6605		74.218750
6606		70.312500
6607		76.171875
6608		72.265625
6609		74.218750
6610		72.265625
6611		76.171875
6612		74.218750
6613		78.125000
6614		76.171875
6615		78.125000
6616		76.171875
6617		80.078125
6618		78.125000
6619		80.078125
6620		78.125000
6621		82.031250
6622		78.125000
6623		83.984375
6624		80.078125
6625		83.984375
6626		82.031250
6627		83.984375
6628		82.031250
6629		85.937500
6630		83.984375
6631		85.937500
6632		83.984375
6633		85.937500
6634		83.984375
6635		87.890625
6636		85.937500
6637		87.890625
6638		85.937500
6639		89.843750
6640		85.937500
6641		89.843750
6642		87.890625
6643		89.843750
6644		87.890625
6645		89.843750
6646		87.890625
6647		91.796875
6648		89.843750
6649		91.796875
6650		89.843750
6651		91.796875
6652		89.843750
6653		91.796875
6654		89.843750
6655		91.796875
6656		89.843750
6657		93.750000
6658		89.843750
6659		91.796875
6660		89.843750
6661		93.750000
6662		91.796875
6663		93.750000
6664		91.796875
6665		93.750000
6666		91.796875
6667		93.750000
6668		91.796875
6669		93.750000
6670		91.796875
6671		93.750000
6672		89.843750
6673		93.750000
6674		89.843750
6675		93.750000
6676		91.796875
6677		93.750000
6678		89.843750
6679		91.796875
6680		89.843750
6681		91.796875
6682		89.843750
6683		91.796875
6684		89.843750
6685		91.796875
6686		89.843750
6687		91.796875
6688		89.843750
6689		91.796875
6690		87.890625
6691		89.843750
6692		87.890625
6693		89.843750
6694		87.890625
6695		89.843750
6696		85.937500
6697		89.843750
6698		85.937500
6699		87.890625
6700		85.937500
6701		87.890625
6702		83.984375
6703		87.890625
6704		83.984375
6705		85.937500
6706		82.031250
6707		85.937500
6708		82.031250
6709		83.984375
6710		82.031250
6711		83.984375
6712		80.078125
6713		82.031250
6714		80.078125
6715		82.031250
6716		78.125000
6717		80.078125
6718		78.125000
6719		80.078125
6720		76.171875
6721		78.125000
6722		74.218750
6723		78.125000
6724		74.218750
6725		76.171875
6726		72.265625
6727		76.171875
6728		72.265625
6729		74.218750
6730		70.312500
6731		74.218750
6732		68.359375
6733		72.265625
6734		68.359375
6735		70.312500
6736		66.406250
6737		68.359375
6738		64.453125
6739		68.359375
6740		62.500000
6741		66.406250
6742		62.500000
6743		64.453125
6744		60.546875
6745		64.453125
6746		58.593750
6747		62.500000
6748		58.593750
6749		60.546875
6750		56.640625
6751		58.593750
6752		54.687500
6753		56.640625
6754		52.734375
6755		56.640625
6756		50.781250
6757		54.687500
6758		48.828125
6759		52.734375
6760		46.875000
6761		50.781250
6762		44.921875
6763		48.828125
6764		42.968750
6765		46.875000
6766		42.968750
6767		44.921875
6768		41.015625
6769		42.968750
6770		39.062500
6771		41.015625
6772		37.109375
6773		39.062500
6774		35.156250
6775		37.109375
6776		33.203125
6777		35.156250
6778		31.250000
6779		35.156250
6780		29.296875
6781		31.250000
6782		27.343750
6783		29.296875
6784		25.390625
6785		29.296875
6786		21.484375
6787		25.390625
6788		21.484375
6789		23.437500
6790		19.531250
6791		21.484375
6792		17.578125
6793		19.531250
6794		13.671875
6795		17.578125
6796		11.718750
6797		15.625000
6798		9.765625
6799		13.671875
6800		7.812500
6801		11.718750
6802		5.859375
6803		9.765625
6804		3.906250
6805		7.812500
6806		1.953125
6807		5.859375
6808		0.000000
6809		3.906250
6810		-1.953125
6811		1.953125
6812		-3.906250
6813		0.000000
6814		-5.859375
6815		-1.953125
6816		-7.812500
6817		-3.906250
6818		-9.765625
6819		-5.859375
6820		-11.718750
6821		-7.812500
6822		-13.671875
6823		-9.765625
6824		-15.625000
6825		-11.718750
6826		-17.578125
6827		-13.671875
6828		-19.531250
6829		-17.578125
6830		-21.484375
6831		-17.578125
6832		-23.437500
6833		-19.531250
6834		-25.390625
6835		-23.437500
6836		-27.343750
6837		-25.390625
6838		-29.296875
6839		-27.343750
6840		-31.250000
6841		-27.343750
6842		-33.203125
6843		-29.296875
6844		-35.156250
6845		-31.250000
6846		-37.109375
6847		-33.203125
6848		-39.062500
6849		-35.156250
6850		-41.015625
6851		-37.109375
6852		-42.968750
6853		-39.062500
6854		-44.921875
6855		-41.015625
6856		-44.921875
6857		-42.968750
6858		-46.875000
6859		-44.921875
6860		-48.828125
6861		-44.921875
6862		-50.781250
6863		-46.875000
6864		-52.734375
6865		-48.828125
6866		-52.734375
6867		-50.781250
6868		-54.687500
6869		-52.734375
6870		-56.640625
6871		-52.734375
6872		-56.640625
6873		-54.687500
6874		-58.593750
6875		-56.640625
6876		-60.546875
6877		-56.640625
6878		-60.546875
6879		-58.593750
6880		-62.500000
6881		-60.546875
6882		-64.453125
6883		-60.546875
6884		-64.453125
6885		-62.500000
6886		-66.406250
6887		-62.500000
6888		-66.406250
6889		-64.453125
6890		-68.359375
6891		-64.453125
6892		-68.359375
6893		-66.406250
6894		-70.312500
6895		-66.406250
6896		-70.312500
6897		-68.359375
6898		-70.312500
6899		-68.359375
6900		-72.265625
6901		-68.359375
6902		-72.265625
6903		-70.312500
6904		-72.265625
6905		-70.312500
6906		-74.218750
6907		-70.312500
6908		-74.218750
6909		-72.265625
6910		-74.218750
6911		-72.265625
6912		-74.218750
6913		-72.265625
6914		-76.171875
6915		-72.265625
6916		-76.171875
6917		-72.265625
6918		-76.171875
6919		-74.218750
6920		-76.171875
6921		-72.265625
6922		-76.171875
6923		-74.218750
6924		-76.171875
6925		-74.218750
6926		-76.171875
6927		-74.218750
6928		-76.171875
6929		-74.218750
6930		-76.171875
6931		-74.218750
6932		-76.171875
6933		-74.218750
6934		-76.171875
6935		-72.265625
6936		-76.171875
6937		-72.265625
6938		-74.218750
6939		-72.265625
6940		-74.218750
6941		-72.265625
6942		-74.218750
6943		-72.265625
6944		-74.218750
6945		-70.312500
6946		-72.265625
6947		-70.312500
6948		-72.265625
6949		-70.312500
6950		-72.265625
6951		-70.312500
6952		-70.312500
6953		-68.359375
6954		-70.312500
6955		-68.359375
6956		-70.312500
6957		-66.406250
6958		-68.359375
6959		-66.406250
6960		-68.359375
6961		-64.453125
6962		-66.406250
6963		-64.453125
6964		-66.406250
6965		-62.500000
6966		-64.453125
6967		-62.500000
6968		-62.500000
6969		-60.546875
6970		-62.500000
6971		-58.593750
6972		-60.546875
6973		-58.593750
6974		-60.546875
6975		-56.640625
6976		-58.593750
6977		-54.687500
6978		-56.640625
6979		-54.687500
6980		-56.640625
6981		-52.734375
6982		-54.687500
6983		-50.781250
6984		-52.734375
6985		-50.781250
6986		-50.781250
6987		-48.828125
6988		-50.781250
6989		-46.875000
6990		-48.828125
6991		-44.921875
6992		-46.875000
6993		-42.968750
6994		-44.921875
6995		-41.015625
6996		-42.968750
6997		-41.015625
6998		-41.015625
6999		-39.062500
7000		-41.015625
7001		-37.109375
7002		-39.062500
7003		-35.156250
7004		-37.109375
7005		-33.203125
7006		-35.156250
7007		-31.250000
7008		-33.203125
7009		-29.296875
7010		-31.250000
7011		-27.343750
7012		-29.296875
7013		-25.390625
7014		-27.343750
7015		-23.437500
7016		-25.390625
7017		-21.484375
7018		-23.437500
7019		-19.531250
7020		-21.484375
7021		-17.578125
7022		-19.531250
7023		-15.625000
7024		-17.578125
7025		-13.671875
7026		-15.625000
7027		-11.718750
7028		-13.671875
7029		-9.765625
7030		-11.718750
7031		-7.812500
7032		-9.765625
7033		-5.859375
7034		-7.812500
7035		-3.906250
7036		-3.906250
7037		-1.953125
7038		-1.953125
7039		0.000000
7040		0.000000
7041		1.953125
7042		0.000000
7043		5.859375
7044		3.906250
7045		7.812500
7046		5.859375
7047		9.765625
7048		7.812500
7049		11.718750
7050		9.765625
7051		13.671875
7052		11.718750
7053		15.625000
7054		13.671875
7055		17.578125
7056		15.625000
7057		19.531250
7058		17.578125
7059		21.484375
7060		19.531250
7061		23.437500
7062		21.484375
7063		25.390625
7064		23.437500
7065		27.343750
7066		25.390625
7067		29.296875
7068		27.343750
7069		31.250000
7070		29.296875
7071		33.203125
7072		31.250000
7073		35.156250
7074		33.203125
7075		37.109375
7076		35.156250
7077		39.062500
7078		37.109375
7079		41.015625
7080		39.062500
7081		42.968750
7082		41.015625
7083		44.921875
7084		42.968750
7085		46.875000
7086		44.921875
7087		48.828125
7088		46.875000
7089		50.781250
7090		48.828125
7091		50.781250
7092		48.828125
7093		52.734375
7094		52.734375
7095		54.687500
7096		52.734375
7097		56.640625
7098		54.687500
7099		58.593750
7100		56.640625
7101		60.546875
7102		58.593750
7103		60.546875
7104		60.546875
7105		62.500000
7106		62.500000
7107		64.453125
7108		62.500000
7109		66.406250
7110		64.453125
7111		68.359375
7112		66.406250
7113		68.359375
7114		66.406250
7115		70.312500
7116		68.359375
7117		72.265625
7118		70.312500
7119		72.265625
7120		70.312500
7121		74.218750
7122		72.265625
7123		76.171875
7124		74.218750
7125		76.171875
7126		74.218750
7127		78.125000
7128		76.171875
7129		78.125000
7130		76.171875
7131		80.078125
7132		78.125000
7133		80.078125
7134		78.125000
7135		82.031250
7136		80.078125
7137		82.031250
7138		80.078125
7139		83.984375
7140		82.031250
7141		83.984375
7142		82.031250
7143		85.937500
7144		83.984375
7145		85.937500
7146		83.984375
7147		85.937500
7148		85.937500
7149		87.890625
7150		85.937500
7151		87.890625
7152		85.937500
7153		87.890625
7154		87.890625
7155		89.843750
7156		87.890625
7157		89.843750
7158		87.890625
7159		89.843750
7160		87.890625
7161		89.843750
7162		87.890625
7163		91.796875
7164		89.843750
7165		91.796875
7166		89.843750
7167		91.796875
7168		89.843750
7169		91.796875
7170		89.843750
7171		91.796875
7172		89.843750
7173		91.796875
7174		89.843750
7175		93.750000
7176		91.796875
7177		93.750000
7178		89.843750
7179		93.750000
7180		91.796875
7181		93.750000
7182		91.796875
7183		93.750000
7184		91.796875
7185		93.750000
7186		89.843750
7187		93.750000
7188		91.796875
7189		93.750000
7190		91.796875
7191		93.750000
7192		91.796875
7193		93.750000
7194		89.843750
7195		93.750000
7196		89.843750
7197		91.796875
7198		89.843750
7199		91.796875
7200		89.843750
7201		91.796875
7202		89.843750
7203		91.796875
7204		87.890625
7205		91.796875
7206		87.890625
7207		89.843750
7208		85.937500
7209		89.843750
7210		85.937500
7211		89.843750
7212		85.937500
7213		87.890625
7214		85.937500
7215		87.890625
7216		83.984375
7217		87.890625
7218		83.984375
7219		85.937500
7220		82.031250
7221		85.937500
7222		82.031250
7223		85.937500
7224		82.031250
7225		83.984375
7226		80.078125
7227		83.984375
7228		80.078125
7229		82.031250
7230		78.125000
7231		82.031250
7232		78.125000
7233		80.078125
7234		76.171875
7235		80.078125
7236		76.171875
7237		78.125000
7238		74.218750
7239		76.171875
7240		72.265625
7241		76.171875
7242		72.265625
7243		74.218750
7244		70.312500
7245		74.218750
7246		68.359375
7247		72.265625
7248		68.359375
7249		70.312500
7250		66.406250
7251		68.359375
7252		64.453125
7253		68.359375
7254		64.453125
7255		66.406250
7256		62.500000
7257		66.406250
7258		60.546875
7259		62.500000
7260		58.593750
7261		62.500000
7262		56.640625
7263		60.546875
7264		56.640625
7265		58.593750
7266		54.687500
7267		56.640625
7268		52.734375
7269		56.640625
7270		50.781250
7271		54.687500
7272		48.828125
7273		52.734375
7274		46.875000
7275		50.781250
7276		44.921875
7277		48.828125
7278		42.968750
7279		46.875000
7280		41.015625
7281		44.921875
7282		39.062500
7283		42.968750
7284		37.109375
7285		41.015625
7286		35.156250
7287		39.062500
7288		35.156250
7289		37.109375
7290		31.250000
7291		35.156250
7292		31.250000
7293		33.203125
7294		29.296875
7295		31.250000
7296		27.343750
7297		29.296875
7298		23.437500
7299		27.343750
7300		21.484375
7301		25.390625
7302		19.531250
7303		23.437500
7304		17.578125
7305		21.484375
7306		15.625000
7307		19.531250
7308		13.671875
7309		17.578125
7310		11.718750
7311		15.625000
7312		9.765625
7313		13.671875
7314		7.812500
7315		11.718750
7316		5.859375
7317		9.765625
7318		3.906250
7319		7.812500
7320		1.953125
7321		5.859375
7322		0.000000
7323		3.906250
7324		-1.953125
7325		1.953125
7326		-3.906250
7327		0.000000
7328		-5.859375
7329		-1.953125
7330		-7.812500
7331		-3.906250
7332		-9.765625
7333		-5.859375
7334		-11.718750
7335		-7.812500
7336		-13.671875
7337		-9.765625
7338		-15.625000
7339		-11.718750
7340		-17.578125
7341		-15.625000
7342		-21.484375
7343		-17.578125
7344		-21.484375
7345		-19.531250
7346		-23.437500
7347		-21.484375
7348		-25.390625
7349		-23.437500
7350		-27.343750
7351		-25.390625
7352		-29.296875
7353		-25.390625
7354		-31.250000
7355		-29.296875
7356		-33.203125
7357		-29.296875
7358		-35.156250
7359		-31.250000
7360		-37.109375
7361		-35.156250
7362		-39.062500
7363		-35.156250
7364		-41.015625
7365		-37.109375
7366		-42.968750
7367		-39.062500
7368		-44.921875
7369		-41.015625
7370		-46.875000
7371		-42.968750
7372		-46.875000
7373		-44.921875
7374		-48.828125
7375		-44.921875
7376		-50.781250
7377		-46.875000
7378		-52.734375
7379		-48.828125
7380		-54.687500
7381		-50.781250
7382		-54.687500
7383		-52.734375
7384		-56.640625
7385		-52.734375
7386		-58.593750
7387		-54.687500
7388		-58.593750
7389		-56.640625
7390		-60.546875
7391		-56.640625
7392		-60.546875
7393		-58.593750
7394		-62.500000
7395		-60.546875
7396		-64.453125
7397		-60.546875
7398		-64.453125
7399		-62.500000
7400		-66.406250
7401		-62.500000
7402		-66.406250
7403		-64.453125
7404		-68.359375
7405		-64.453125
7406		-68.359375
7407		-66.406250
7408		-70.312500
7409		-66.406250
7410		-70.312500
7411		-66.406250
7412		-70.312500
7413		-68.359375
7414		-72.265625
7415		-70.312500
7416		-72.265625
7417		-70.312500
7418		-72.265625
7419		-70.312500
7420		-74.218750
7421		-70.312500
7422		-74.218750
7423		-70.312500
7424		-74.218750
7425		-72.265625
7426		-74.218750
7427		-72.265625
7428		-74.218750
7429		-72.265625
7430		-76.171875
7431		-72.265625
7432		-76.171875
7433		-74.218750
7434		-76.171875
7435		-74.218750
7436		-76.171875
7437		-74.218750
7438		-76.171875
7439		-74.218750
7440		-76.171875
7441		-74.218750
7442		-76.171875
7443		-74.218750
7444		-76.171875
7445		-74.218750
7446		-76.171875
7447		-74.218750
7448		-76.171875
7449		-72.265625
7450		-74.218750
7451		-72.265625
7452		-74.218750
7453		-72.265625
7454		-74.218750
7455		-72.265625
7456		-74.218750
7457		-72.265625
7458		-74.218750
7459		-70.312500
7460		-72.265625
7461		-70.312500
7462		-74.218750
7463		-70.312500
7464		-72.265625
7465		-68.359375
7466		-72.265625
7467		-68.359375
7468		-70.312500
7469		-68.359375
7470		-72.265625
7471		-64.453125
7472		-68.359375
7473		-66.406250
7474		-68.359375
7475		-64.453125
7476		-66.406250
7477		-64.453125
7478		-66.406250
7479		-62.500000
7480		-64.453125
7481		-60.546875
7482		-64.453125
7483		-58.593750
7484		-64.453125
7485		-58.593750
7486		-60.546875
7487		-56.640625
7488		-60.546875
7489		-56.640625
7490		-60.546875
7491		-52.734375
7492		-56.640625
7493		-54.687500
7494		-56.640625
7495		-52.734375
7496		-54.687500
7497		-50.781250
7498		-52.734375
7499		-48.828125
7500		-52.734375
7501		-46.875000
7502		-50.781250
7503		-44.921875
7504		-48.828125
7505		-44.921875
7506		-46.875000
7507		-42.968750
7508		-46.875000
7509		-39.062500
7510		-42.968750
7511		-39.062500
7512		-41.015625
7513		-37.109375
7514		-39.062500
7515		-35.156250
7516		-39.062500
7517		-33.203125
7518		-35.156250
7519		-31.250000
7520		-35.156250
7521		-29.296875
7522		-31.250000
7523		-29.296875
7524		-31.250000
7525		-25.390625
7526		-27.343750
7527		-25.390625
7528		-25.390625
7529		-23.437500
7530		-25.390625
7531		-19.531250
7532		-25.390625
7533		-15.625000
7534		-21.484375
7535		-17.578125
7536		-19.531250
7537		-13.671875
7538		-19.531250
7539		-11.718750
7540		-15.625000
7541		-7.812500
7542		-11.718750
7543		-9.765625
7544		-9.765625
7545		-5.859375
7546		-7.812500
7547		-3.906250
7548		-7.812500
7549		0.000000
7550		-5.859375
7551		0.000000
7552		-1.953125
7553		1.953125
7554		-1.953125
7555		5.859375
7556		0.000000
7557		5.859375
7558		1.953125
7559		9.765625
7560		5.859375
7561		9.765625
7562		7.812500
7563		11.718750
7564		9.765625
7565		15.625000
7566		11.718750
7567		17.578125
7568		13.671875
7569		19.531250
7570		15.625000
7571		19.531250
7572		15.625000
7573		23.437500
7574		17.578125
7575		27.343750
7576		21.484375
7577		25.390625
7578		25.390625
7579		27.343750
7580		25.390625
7581		31.250000
7582		25.390625
7583		35.156250
7584		27.343750
7585		33.203125
7586		33.203125
7587		35.156250
7588		31.250000
7589		41.015625
7590		37.109375
7591		39.062500
7592		33.203125
7593		42.968750
7594		39.062500
7595		42.968750
7596		41.015625
7597		46.875000
7598		41.015625
7599		50.781250
7600		44.921875
7601		48.828125
7602		46.875000
7603		50.781250
7604		46.875000
7605		54.687500
7606		46.875000
7607		56.640625
7608		48.828125
7609		58.593750
7610		52.734375
7611		56.640625
7612		54.687500
7613		58.593750
7614		56.640625
7615		60.546875
7616		56.640625
7617		64.453125
7618		60.546875
7619		62.500000
7620		62.500000
7621		64.453125
7622		60.546875
7623		70.312500
7624		62.500000
7625		70.312500
7626		64.453125
7627		68.359375
7628		68.359375
7629		70.312500
7630		68.359375
7631		72.265625
7632		68.359375
7633		76.171875
7634		70.312500
7635		76.171875
7636		72.265625
7637		76.171875
7638		72.265625
7639		80.078125
7640		72.265625
7641		80.078125
7642		74.218750
7643		82.031250
7644		76.171875
7645		80.078125
7646		78.125000
7647		82.031250
7648		78.125000
7649		85.937500
7650		78.125000
7651		85.937500
7652		80.078125
7653		83.984375
7654		82.031250
7655		85.937500
7656		80.078125
7657		87.890625
7658		82.031250
7659		89.843750
7660		83.984375
7661		87.890625
7662		85.937500
7663		87.890625
7664		85.937500
7665		89.843750
7666		83.984375
7667		91.796875
7668		85.937500
7669		91.796875
7670		87.890625
7671		89.843750
7672		83.984375
7673		93.750000
7674		85.937500
7675		93.750000
7676		85.937500
7677		93.750000
7678		89.843750
7679		91.796875
7680		89.843750
7681		91.796875
7682		87.890625
7683		95.703125
7684		87.890625
7685		95.703125
7686		89.843750
7687		93.750000
7688		89.843750
7689		95.703125
7690		87.890625
7691		97.656250
7692		87.890625
7693		95.703125
7694		91.796875
7695		93.750000
7696		91.796875
7697		93.750000
7698		89.843750
7699		95.703125
7700		87.890625
7701		95.703125
7702		89.843750
7703		93.750000
7704		89.843750
7705		93.750000
7706		87.890625
7707		95.703125
7708		87.890625
7709		95.703125
7710		89.843750
7711		93.750000
7712		89.843750
7713		91.796875
7714		87.890625
7715		91.796875
7716		85.937500
7717		93.750000
7718		87.890625
7719		91.796875
7720		87.890625
7721		89.843750
7722		83.984375
7723		91.796875
7724		83.984375
7725		91.796875
7726		83.984375
7727		89.843750
7728		85.937500
7729		87.890625
7730		83.984375
7731		87.890625
7732		82.031250
7733		87.890625
7734		80.078125
7735		87.890625
7736		82.031250
7737		85.937500
7738		80.078125
7739		83.984375
7740		78.125000
7741		83.984375
7742		76.171875
7743		83.984375
7744		78.125000
7745		80.078125
7746		76.171875
7747		80.078125
7748		76.171875
7749		78.125000
7750		72.265625
7751		80.078125
7752		72.265625
7753		78.125000
7754		72.265625
7755		76.171875
7756		70.312500
7757		76.171875
7758		70.312500
7759		72.265625
7760		68.359375
7761		72.265625
7762		66.406250
7763		70.312500
7764		66.406250
7765		68.359375
7766		64.453125
7767		68.359375
7768		62.500000
7769		68.359375
7770		60.546875
7771		64.453125
7772		58.593750
7773		64.453125
7774		58.593750
7775		62.500000
7776		56.640625
7777		60.546875
7778		54.687500
7779		58.593750
7780		52.734375
7781		56.640625
7782		52.734375
7783		54.687500
7784		50.781250
7785		52.734375
7786		48.828125
7787		52.734375
7788		46.875000
7789		50.781250
7790		44.921875
7791		48.828125
7792		42.968750
7793		46.875000
7794		41.015625
7795		44.921875
7796		39.062500
7797		42.968750
7798		37.109375
7799		41.015625
7800		35.156250
7801		39.062500
7802		33.203125
7803		37.109375
7804		31.250000
7805		35.156250
7806		29.296875
7807		33.203125
7808		27.343750
7809		31.250000
7810		25.390625
7811		29.296875
7812		23.437500
7813		27.343750
7814		21.484375
7815		25.390625
7816		19.531250
7817		25.390625
7818		17.578125
7819		23.437500
7820		13.671875
7821		19.531250
7822		13.671875
7823		19.531250
7824		9.765625
7825		17.578125
7826		7.812500
7827		13.671875
7828		7.812500
7829		11.718750
7830		5.859375
7831		9.765625
7832		1.953125
7833		7.812500
7834		0.000000
7835		5.859375
7836		-1.953125
7837		3.906250
7838		-3.906250
7839		1.953125
7840		-5.859375
7841		0.000000
7842		-7.812500
7843		-1.953125
7844		-9.765625
7845		-3.906250
7846		-11.718750
7847		-7.812500
7848		-15.625000
7849		-9.765625
7850		-15.625000
7851		-9.765625
7852		-17.578125
7853		-11.718750
7854		-21.484375
7855		-13.671875
7856		-23.437500
7857		-15.625000
7858		-23.437500
7859		-17.578125
7860		-25.390625
7861		-19.531250
7862		-27.343750
7863		-23.437500
7864		-29.296875
7865		-25.390625
7866		-31.250000
7867		-27.343750
7868		-33.203125
7869		-27.343750
7870		-35.156250
7871		-29.296875
7872		-37.109375
7873		-31.250000
7874		-39.062500
7875		-33.203125
7876		-41.015625
7877		-35.156250
7878		-41.015625
7879		-37.109375
7880		-42.968750
7881		-41.015625
7882		-46.875000
7883		-41.015625
7884		-46.875000
7885		-42.968750
7886		-48.828125
7887		-44.921875
7888		-52.734375
7889		-44.921875
7890		-52.734375
7891		-46.875000
7892		-54.687500
7893		-48.828125
7894		-54.687500
7895		-50.781250
7896		-54.687500
7897		-52.734375
7898		-56.640625
7899		-54.687500
7900		-58.593750
7901		-54.687500
7902		-60.546875
7903		-56.640625
7904		-62.500000
7905		-56.640625
7906		-64.453125
7907		-56.640625
7908		-64.453125
7909		-60.546875
7910		-64.453125
7911		-60.546875
7912		-66.406250
7913		-60.546875
7914		-66.406250
7915		-64.453125
7916		-68.359375
7917		-64.453125
7918		-70.312500
7919		-64.453125
7920		-70.312500
7921		-66.406250
7922		-72.265625
7923		-64.453125
7924		-70.312500
7925		-66.406250
7926		-72.265625
7927		-68.359375
7928		-72.265625
7929		-68.359375
7930		-72.265625
7931		-70.312500
7932		-74.218750
7933		-70.312500
7934		-74.218750
7935		-70.312500
7936		-74.218750
7937		-72.265625
7938		-76.171875
7939		-70.312500
7940		-76.171875
7941		-72.265625
7942		-76.171875
7943		-72.265625
7944		-76.171875
7945		-72.265625
7946		-76.171875
7947		-74.218750
7948		-76.171875
7949		-74.218750
7950		-76.171875
7951		-72.265625
7952		-76.171875
7953		-74.218750
7954		-78.125000
7955		-72.265625
7956		-78.125000
7957		-72.265625
7958		-76.171875
7959		-74.218750
7960		-76.171875
7961		-72.265625
7962		-76.171875
7963		-72.265625
7964		-76.171875
7965		-72.265625
7966		-74.218750
7967		-72.265625
7968		-74.218750
7969		-72.265625
7970		-74.218750
7971		-70.312500
7972		-76.171875
7973		-68.359375
7974		-74.218750
7975		-70.312500
7976		-72.265625
7977		-70.312500
7978		-72.265625
7979		-68.359375
7980		-70.312500
7981		-68.359375
7982		-70.312500
7983		-68.359375
7984		-70.312500
7985		-66.406250
7986		-68.359375
7987		-64.453125
7988		-68.359375
7989		-64.453125
7990		-68.359375
7991		-62.500000
7992		-66.406250
7993		-62.500000
7994		-64.453125
7995		-60.546875
7996		-64.453125
7997		-60.546875
7998		-62.500000
7999		-58.593750
8000		-62.500000
8001		-56.640625
8002		-58.593750
8003		-56.640625
8004		-58.593750
8005		-54.687500
8006		-56.640625
8007		-52.734375
8008		-54.687500
8009		-52.734375
8010		-54.687500
8011		-50.781250
8012		-52.734375
8013		-48.828125
8014		-50.781250
8015		-46.875000
8016		-48.828125
8017		-44.921875
8018		-48.828125
8019		-42.968750
8020		-46.875000
8021		-42.968750
8022		-44.921875
8023		-39.062500
8024		-42.968750
8025		-39.062500
8026		-41.015625
8027		-37.109375
8028		-39.062500
8029		-35.156250
8030		-37.109375
8031		-33.203125
8032		-35.156250
8033		-31.250000
8034		-33.203125
8035		-29.296875
8036		-31.250000
8037		-27.343750
8038		-29.296875
8039		-25.390625
8040		-27.343750
8041		-23.437500
8042		-25.390625
8043		-21.484375
8044		-23.437500
8045		-19.531250
8046		-23.437500
8047		-17.578125
8048		-19.531250
8049		-15.625000
8050		-17.578125
8051		-13.671875
8052		-15.625000
8053		-11.718750
8054		-13.671875
8055		-9.765625
8056		-11.718750
8057		-5.859375
8058		-9.765625
8059		-5.859375
8060		-7.812500
8061		-3.906250
8062		-5.859375
8063		-1.953125
8064		-3.906250
8065		0.000000
8066		-1.953125
8067		1.953125
8068		0.000000
8069		3.906250
8070		1.953125
8071		7.812500
8072		3.906250
8073		7.812500
8074		7.812500
8075		11.718750
8076		9.765625
8077		11.718750
8078		11.718750
8079		15.625000
8080		13.671875
8081		17.578125
8082		15.625000
8083		19.531250
8084		17.578125
8085		21.484375
8086		19.531250
8087		23.437500
8088		21.484375
8089		25.390625
8090		23.437500
8091		27.343750
8092		25.390625
8093		29.296875
8094		27.343750
8095		31.250000
8096		29.296875
8097		33.203125
8098		31.250000
8099		35.156250
8100		33.203125
8101		37.109375
8102		35.156250
8103		39.062500
8104		37.109375
8105		41.015625
8106		39.062500
8107		42.968750
8108		41.015625
8109		44.921875
8110		42.968750
8111		46.875000
8112		44.921875
8113		48.828125
8114		44.921875
8115		48.828125
8116		48.828125
8117		50.781250
8118		50.781250
8119		52.734375
8120		50.781250
8121		54.687500
8122		52.734375
8123		56.640625
8124		54.687500
8125		58.593750
8126		56.640625
8127		60.546875
8128		58.593750
8129		62.500000
8130		58.593750
8131		62.500000
8132		60.546875
8133		64.453125
8134		62.500000
8135		66.406250
8136		64.453125
8137		68.359375
8138		64.453125
8139		68.359375
8140		66.406250
8141		70.312500
8142		68.359375
8143		72.265625
8144		70.312500
8145		72.265625
8146		70.312500
8147		74.218750
8148		72.265625
8149		74.218750
8150		72.265625
8151		76.171875
8152		74.218750
8153		78.125000
8154		76.171875
8155		78.125000
8156		76.171875
8157		80.078125
8158		76.171875
8159		82.031250
8160		78.125000
8161		82.031250
8162		80.078125
8163		82.031250
8164		80.078125
8165		83.984375
8166		82.031250
8167		83.984375
8168		82.031250
8169		85.937500
8170		82.031250
8171		85.937500
8172		83.984375
8173		85.937500
8174		83.984375
8175		87.890625
8176		85.937500
8177		87.890625
8178		85.937500
8179		89.843750
8180		85.937500
8181		89.843750
8182		87.890625
8183		89.843750
8184		87.890625
8185		89.843750
8186		87.890625
8187		91.796875
8188		87.890625
8189		91.796875
8190		87.890625
8191		91.796875
8192		87.890625
8193		91.796875
8194		89.843750
8195		91.796875
8196		89.843750
8197		93.750000
8198		89.843750
8199		91.796875
8200		89.843750
8201		91.796875
8202		89.843750
8203		93.750000
8204		89.843750
8205		93.750000
8206		89.843750
8207		93.750000
8208		89.843750
8209		93.750000
8210		89.843750
8211		93.750000
8212		89.843750
8213		93.750000
8214		89.843750
8215		93.750000
8216		89.843750
8217		91.796875
8218		87.890625
8219		93.750000
8220		89.843750
8221		91.796875
8222		89.843750
8223		91.796875
8224		89.843750
8225		91.796875
8226		87.890625
8227		91.796875
8228		87.890625
8229		91.796875
8230		85.937500
8231		91.796875
8232		87.890625
8233		89.843750
8234		87.890625
8235		89.843750
8236		85.937500
8237		89.843750
8238		85.937500
8239		87.890625
8240		85.937500
8241		87.890625
8242		83.984375
8243		87.890625
8244		82.031250
8245		87.890625
8246		82.031250
8247		85.937500
8248		82.031250
8249		85.937500
8250		82.031250
8251		83.984375
8252		80.078125
8253		83.984375
8254		78.125000
8255		82.031250
8256		78.125000
8257		82.031250
8258		76.171875
8259		80.078125
8260		76.171875
8261		80.078125
8262		74.218750
8263		78.125000
8264		74.218750
8265		78.125000
8266		72.265625
8267		76.171875
8268		70.312500
8269		74.218750
8270		70.312500
8271		74.218750
8272		68.359375
8273		72.265625
8274		68.359375
8275		70.312500
8276		66.406250
8277		70.312500
8278		64.453125
8279		68.359375
8280		62.500000
8281		66.406250
8282		62.500000
8283		64.453125
8284		60.546875
8285		64.453125
8286		58.593750
8287		62.500000
8288		56.640625
8289		60.546875
8290		54.687500
8291		58.593750
8292		54.687500
8293		56.640625
8294		52.734375
8295		56.640625
8296		50.781250
8297		54.687500
8298		48.828125
8299		52.734375
8300		46.875000
8301		50.781250
8302		44.921875
8303		48.828125
8304		42.968750
8305		46.875000
8306		41.015625
8307		44.921875
8308		41.015625
8309		42.968750
8310		37.109375
8311		41.015625
8312		37.109375
8313		39.062500
8314		33.203125
8315		39.062500
8316		31.250000
8317		35.156250
8318		31.250000
8319		33.203125
8320		27.343750
8321		33.203125
8322		27.343750
8323		31.250000
8324		23.437500
8325		29.296875
8326		21.484375
8327		27.343750
8328		19.531250
8329		23.437500
8330		17.578125
8331		23.437500
8332		17.578125
8333		19.531250
8334		13.671875
8335		17.578125
8336		11.718750
8337		15.625000
8338		9.765625
8339		13.671875
8340		7.812500
8341		11.718750
8342		5.859375
8343		9.765625
8344		3.906250
8345		7.812500
8346		1.953125
8347		5.859375
8348		0.000000
8349		3.906250
8350		-1.953125
8351		1.953125
8352		-3.906250
8353		0.000000
8354		-5.859375
8355		0.000000
8356		-7.812500
8357		-3.906250
8358		-9.765625
8359		-5.859375
8360		-11.718750
8361		-7.812500
8362		-13.671875
8363		-9.765625
8364		-17.578125
8365		-11.718750
8366		-17.578125
8367		-15.625000
8368		-19.531250
8369		-15.625000
8370		-21.484375
8371		-17.578125
8372		-23.437500
8373		-19.531250
8374		-27.343750
8375		-21.484375
8376		-27.343750
8377		-23.437500
8378		-31.250000
8379		-25.390625
8380		-31.250000
8381		-27.343750
8382		-33.203125
8383		-29.296875
8384		-35.156250
8385		-31.250000
8386		-37.109375
8387		-33.203125
8388		-39.062500
8389		-35.156250
8390		-41.015625
8391		-37.109375
8392		-42.968750
8393		-39.062500
8394		-44.921875
8395		-41.015625
8396		-46.875000
8397		-41.015625
8398		-46.875000
8399		-44.921875
8400		-48.828125
8401		-44.921875
8402		-50.781250
8403		-46.875000
8404		-52.734375
8405		-48.828125
8406		-54.687500
8407		-50.781250
8408		-54.687500
8409		-50.781250
8410		-58.593750
8411		-52.734375
8412		-58.593750
8413		-54.687500
8414		-58.593750
8415		-56.640625
8416		-60.546875
8417		-56.640625
8418		-62.500000
8419		-58.593750
8420		-64.453125
8421		-58.593750
8422		-64.453125
8423		-60.546875
8424		-66.406250
8425		-62.500000
8426		-66.406250
8427		-62.500000
8428		-68.359375
8429		-64.453125
8430		-68.359375
8431		-64.453125
8432		-70.312500
8433		-66.406250
8434		-70.312500
8435		-68.359375
8436		-70.312500
8437		-68.359375
8438		-72.265625
8439		-68.359375
8440		-72.265625
8441		-68.359375
8442		-74.218750
8443		-70.312500
8444		-74.218750
8445		-70.312500
8446		-74.218750
8447		-72.265625
8448		-76.171875
8449		-72.265625
8450		-74.218750
8451		-72.265625
8452		-76.171875
8453		-72.265625
8454		-76.171875
8455		-74.218750
8456		-76.171875
8457		-74.218750
8458		-76.171875
8459		-74.218750
8460		-76.171875
8461		-74.218750
8462		-76.171875
8463		-74.218750
8464		-78.125000
8465		-74.218750
8466		-76.171875
8467		-74.218750
8468		-76.171875
8469		-74.218750
8470		-78.125000
8471		-74.218750
8472		-76.171875
8473		-74.218750
8474		-76.171875
8475		-74.218750
8476		-76.171875
8477		-72.265625
8478		-76.171875
8479		-72.265625
8480		-76.171875
8481		-72.265625
8482		-74.218750
8483		-70.312500
8484		-74.218750
8485		-72.265625
8486		-74.218750
8487		-72.265625
8488		-74.218750
8489		-70.312500
8490		-72.265625
8491		-70.312500
8492		-72.265625
8493		-68.359375
8494		-72.265625
8495		-68.359375
8496		-70.312500
8497		-68.359375
8498		-70.312500
8499		-66.406250
8500		-68.359375
8501		-64.453125
8502		-66.406250
8503		-64.453125
8504		-66.406250
8505		-62.500000
8506		-64.453125
8507		-62.500000
8508		-64.453125
8509		-60.546875
8510		-62.500000
8511		-60.546875
8512		-62.500000
8513		-58.593750
8514		-60.546875
8515		-56.640625
8516		-60.546875
8517		-54.687500
8518		-58.593750
8519		-54.687500
8520		-56.640625
8521		-52.734375
8522		-54.687500
8523		-50.781250
8524		-52.734375
8525		-50.781250
8526		-52.734375
8527		-48.828125
8528		-50.781250
8529		-46.875000
8530		-48.828125
8531		-44.921875
8532		-46.875000
8533		-42.968750
8534		-46.875000
8535		-42.968750
8536		-44.921875
8537		-41.015625
8538		-41.015625
8539		-39.062500
8540		-41.015625
8541		-37.109375
8542		-39.062500
8543		-35.156250
8544		-37.109375
8545		-33.203125
8546		-35.156250
8547		-31.250000
8548		-33.203125
8549		-29.296875
8550		-31.250000
8551		-27.343750
8552		-29.296875
8553		-25.390625
8554		-27.343750
8555		-23.437500
8556		-25.390625
8557		-21.484375
8558		-23.437500
8559		-19.531250
8560		-21.484375
8561		-17.578125
8562		-19.531250
8563		-15.625000
8564		-17.578125
8565		-13.671875
8566		-15.625000
8567		-11.718750
8568		-13.671875
8569		-9.765625
8570		-11.718750
8571		-7.812500
8572		-9.765625
8573		-5.859375
8574		-7.812500
8575		-3.906250
8576		-5.859375
8577		-1.953125
8578		-3.906250
8579		0.000000
8580		-1.953125
8581		3.906250
8582		1.953125
8583		5.859375
8584		1.953125
8585		7.812500
8586		5.859375
8587		9.765625
8588		7.812500
8589		11.718750
8590		9.765625
8591		13.671875
8592		11.718750
8593		15.625000
8594		13.671875
8595		17.578125
8596		15.625000
8597		19.531250
8598		17.578125
8599		21.484375
8600		19.531250
8601		25.390625
8602		21.484375
8603		25.390625
8604		23.437500
8605		27.343750
8606		25.390625
8607		31.250000
8608		27.343750
8609		31.250000
8610		29.296875
8611		33.203125
8612		31.250000
8613		35.156250
8614		33.203125
8615		37.109375
8616		35.156250
8617		39.062500
8618		37.109375
8619		41.015625
8620		39.062500
8621		42.968750
8622		41.015625
8623		44.921875
8624		42.968750
8625		46.875000
8626		44.921875
8627		48.828125
8628		46.875000
8629		50.781250
8630		48.828125
8631		52.734375
8632		48.828125
8633		54.687500
8634		50.781250
8635		56.640625
8636		52.734375
8637		56.640625
8638		54.687500
8639		60.546875
8640		56.640625
8641		60.546875
8642		58.593750
8643		62.500000
8644		58.593750
8645		62.500000
8646		60.546875
8647		64.453125
8648		62.500000
8649		66.406250
8650		64.453125
8651		68.359375
8652		66.406250
8653		68.359375
8654		66.406250
8655		70.312500
8656		68.359375
8657		72.265625
8658		70.312500
8659		72.265625
8660		70.312500
8661		74.218750
8662		72.265625
8663		76.171875
8664		74.218750
8665		76.171875
8666		74.218750
8667		78.125000
8668		76.171875
8669		78.125000
8670		76.171875
8671		80.078125
8672		78.125000
8673		80.078125
8674		78.125000
8675		82.031250
8676		80.078125
8677		82.031250
8678		80.078125
8679		83.984375
8680		82.031250
8681		83.984375
8682		82.031250
8683		85.937500
8684		82.031250
8685		87.890625
8686		83.984375
8687		85.937500
8688		83.984375
8689		87.890625
8690		83.984375
8691		87.890625
8692		85.937500
8693		89.843750
8694		85.937500
8695		89.843750
8696		87.890625
8697		89.843750
8698		87.890625
8699		89.843750
8700		87.890625
8701		91.796875
8702		87.890625
8703		91.796875
8704		89.843750
8705		91.796875
8706		87.890625
8707		91.796875
8708		89.843750
8709		91.796875
8710		89.843750
8711		93.750000
8712		89.843750
8713		93.750000
8714		89.843750
8715		93.750000
8716		89.843750
8717		93.750000
8718		89.843750
8719		93.750000
8720		89.843750
8721		93.750000
8722		89.843750
8723		93.750000
8724		89.843750
8725		93.750000
8726		89.843750
8727		93.750000
8728		89.843750
8729		93.750000
8730		89.843750
8731		93.750000
8732		89.843750
8733		91.796875
8734		89.843750
8735		93.750000
8736		89.843750
8737		91.796875
8738		89.843750
8739		91.796875
8740		87.890625
8741		91.796875
8742		87.890625
8743		91.796875
8744		87.890625
8745		89.843750
8746		85.937500
8747		89.843750
8748		85.937500
8749		89.843750
8750		85.937500
8751		87.890625
8752		85.937500
8753		87.890625
8754		83.984375
8755		87.890625
8756		83.984375
8757		85.937500
8758		83.984375
8759		85.937500
8760		82.031250
8761		85.937500
8762		80.078125
8763		85.937500
8764		80.078125
8765		83.984375
8766		80.078125
8767		82.031250
8768		78.125000
8769		82.031250
8770		78.125000
8771		80.078125
8772		76.171875
8773		80.078125
8774		74.218750
8775		80.078125
8776		74.218750
8777		78.125000
8778		72.265625
8779		76.171875
8780		72.265625
8781		74.218750
8782		70.312500
8783		74.218750
8784		68.359375
8785		72.265625
8786		68.359375
8787		72.265625
8788		66.406250
8789		70.312500
8790		64.453125
8791		68.359375
8792		64.453125
8793		68.359375
8794		62.500000
8795		66.406250
8796		60.546875
8797		64.453125
8798		60.546875
8799		62.500000
8800		58.593750
8801		62.500000
8802		56.640625
8803		60.546875
8804		54.687500
8805		58.593750
8806		52.734375
8807		56.640625
8808		50.781250
8809		54.687500
8810		50.781250
8811		52.734375
8812		48.828125
8813		52.734375
8814		44.921875
8815		48.828125
8816		44.921875
8817		48.828125
8818		42.968750
8819		46.875000
8820		41.015625
8821		44.921875
8822		39.062500
8823		42.968750
8824		37.109375
8825		41.015625
8826		35.156250
8827		39.062500
8828		33.203125
8829		37.109375
8830		31.250000
8831		35.156250
8832		29.296875
8833		33.203125
8834		27.343750
8835		31.250000
8836		25.390625
8837		31.250000
8838		23.437500
8839		27.343750
8840		19.531250
8841		25.390625
8842		19.531250
8843		23.437500
8844		17.578125
8845		21.484375
8846		15.625000
8847		19.531250
8848		13.671875
8849		17.578125
8850		11.718750
8851		15.625000
8852		7.812500
8853		13.671875
8854		7.812500
8855		11.718750
8856		5.859375
8857		9.765625
8858		1.953125
8859		7.812500
8860		0.000000
8861		3.906250
8862		0.000000
8863		1.953125
8864		-1.953125
8865		0.000000
8866		-5.859375
8867		-1.953125
8868		-7.812500
8869		-3.906250
8870		-9.765625
8871		-3.906250
8872		-11.718750
8873		-7.812500
8874		-13.671875
8875		-9.765625
8876		-15.625000
8877		-11.718750
8878		-17.578125
8879		-13.671875
8880		-19.531250
8881		-15.625000
8882		-21.484375
8883		-17.578125
8884		-23.437500
8885		-19.531250
8886		-25.390625
8887		-21.484375
8888		-27.343750
8889		-23.437500
8890		-31.250000
8891		-25.390625
8892		-31.250000
8893		-27.343750
8894		-33.203125
8895		-29.296875
8896		-35.156250
8897		-31.250000
8898		-37.109375
8899		-33.203125
8900		-39.062500
8901		-35.156250
8902		-41.015625
8903		-37.109375
8904		-41.015625
8905		-39.062500
8906		-42.968750
8907		-41.015625
8908		-44.921875
8909		-41.015625
8910		-46.875000
8911		-42.968750
8912		-48.828125
8913		-44.921875
8914		-50.781250
8915		-46.875000
8916		-50.781250
8917		-46.875000
8918		-52.734375
8919		-48.828125
8920		-54.687500
8921		-50.781250
8922		-56.640625
8923		-52.734375
8924		-58.593750
8925		-54.687500
8926		-58.593750
8927		-54.687500
8928		-60.546875
8929		-56.640625
8930		-62.500000
8931		-58.593750
8932		-62.500000
8933		-58.593750
8934		-64.453125
8935		-60.546875
8936		-66.406250
8937		-60.546875
8938		-66.406250
8939		-62.500000
8940		-66.406250
8941		-64.453125
8942		-68.359375
8943		-64.453125
8944		-68.359375
8945		-66.406250
8946		-70.312500
8947		-66.406250
8948		-70.312500
8949		-66.406250
8950		-72.265625
8951		-68.359375
8952		-72.265625
8953		-68.359375
8954		-74.218750
8955		-68.359375
8956		-72.265625
8957		-70.312500
8958		-74.218750
8959		-70.312500
8960		-74.218750
8961		-72.265625
8962		-74.218750
8963		-72.265625
8964		-76.171875
8965		-72.265625
8966		-76.171875
8967		-72.265625
8968		-76.171875
8969		-74.218750
8970		-76.171875
8971		-74.218750
8972		-76.171875
8973		-74.218750
8974		-76.171875
8975		-74.218750
8976		-78.125000
8977		-74.218750
8978		-78.125000
8979		-74.218750
8980		-76.171875
8981		-74.218750
8982		-76.171875
8983		-74.218750
8984		-78.125000
8985		-74.218750
8986		-76.171875
8987		-74.218750
8988		-76.171875
8989		-74.218750
8990		-76.171875
8991		-74.218750
8992		-76.171875
8993		-72.265625
8994		-76.171875
8995		-72.265625
8996		-76.171875
8997		-72.265625
8998		-76.171875
8999		-70.312500
9000		-74.218750
9001		-70.312500
9002		-72.265625
9003		-70.312500
9004		-74.218750
9005		-70.312500
9006		-72.265625
9007		-70.312500
9008		-70.312500
9009		-68.359375
9010		-70.312500
9011		-68.359375
9012		-70.312500
9013		-66.406250
9014		-68.359375
9015		-64.453125
9016		-68.359375
9017		-64.453125
9018		-66.406250
9019		-62.500000
9020		-66.406250
9021		-60.546875
9022		-64.453125
9023		-60.546875
9024		-62.500000
9025		-60.546875
9026		-62.500000
9027		-58.593750
9028		-60.546875
9029		-56.640625
9030		-60.546875
9031		-56.640625
9032		-58.593750
9033		-54.687500
9034		-56.640625
9035		-52.734375
9036		-54.687500
9037		-50.781250
9038		-54.687500
9039		-50.781250
9040		-52.734375
9041		-48.828125
9042		-50.781250
9043		-46.875000
9044		-48.828125
9045		-44.921875
9046		-48.828125
9047		-42.968750
9048		-46.875000
9049		-42.968750
9050		-44.921875
9051		-39.062500
9052		-42.968750
9053		-37.109375
9054		-41.015625
9055		-37.109375
9056		-39.062500
9057		-35.156250
9058		-37.109375
9059		-33.203125
9060		-37.109375
9061		-31.250000
9062		-33.203125
9063		-29.296875
9064		-31.250000
9065		-27.343750
9066		-29.296875
9067		-25.390625
9068		-27.343750
9069		-23.437500
9070		-25.390625
9071		-21.484375
9072		-25.390625
9073		-19.531250
9074		-21.484375
9075		-17.578125
9076		-19.531250
9077		-15.625000
9078		-17.578125
9079		-13.671875
9080		-15.625000
9081		-11.718750
9082		-13.671875
9083		-9.765625
9084		-11.718750
9085		-5.859375
9086		-9.765625
9087		-3.906250
9088		-7.812500
9089		-3.906250
9090		-3.906250
9091		-1.953125
9092		-1.953125
9093		1.953125
9094		-1.953125
9095		3.906250
9096		1.953125
9097		5.859375
9098		3.906250
9099		7.812500
9100		5.859375
9101		9.765625
9102		7.812500
9103		11.718750
9104		9.765625
9105		13.671875
9106		11.718750
9107		15.625000
9108		13.671875
9109		17.578125
9110		15.625000
9111		19.531250
9112		17.578125
9113		21.484375
9114		19.531250
9115		23.437500
9116		21.484375
9117		25.390625
9118		23.437500
9119		27.343750
9120		25.390625
9121		29.296875
9122		27.343750
9123		31.250000
9124		29.296875
9125		33.203125
9126		31.250000
9127		37.109375
9128		33.203125
9129		37.109375
9130		35.156250
9131		39.062500
9132		37.109375
9133		41.015625
9134		39.062500
9135		42.968750
9136		41.015625
9137		44.921875
9138		42.968750
9139		46.875000
9140		44.921875
9141		48.828125
9142		46.875000
9143		50.781250
9144		46.875000
9145		52.734375
9146		48.828125
9147		52.734375
9148		50.781250
9149		54.687500
9150		52.734375
9151		56.640625
9152		54.687500
9153		58.593750
9154		56.640625
9155		60.546875
9156		56.640625
9157		60.546875
9158		60.546875
9159		62.500000
9160		60.546875
9161		64.453125
9162		62.500000
9163		66.406250
9164		64.453125
9165		66.406250
9166		64.453125
9167		68.359375
9168		66.406250
9169		70.312500
9170		68.359375
9171		72.265625
9172		68.359375
9173		72.265625
9174		70.312500
9175		74.218750
9176		72.265625
9177		76.171875
9178		72.265625
9179		76.171875
9180		74.218750
9181		78.125000
9182		74.218750
9183		78.125000
9184		76.171875
9185		80.078125
9186		76.171875
9187		80.078125
9188		78.125000
9189		82.031250
9190		80.078125
9191		82.031250
9192		80.078125
9193		82.031250
9194		80.078125
9195		83.984375
9196		82.031250
9197		85.937500
9198		82.031250
9199		85.937500
9200		83.984375
9201		87.890625
9202		83.984375
9203		87.890625
9204		83.984375
9205		87.890625
9206		83.984375
9207		87.890625
9208		85.937500
9209		87.890625
9210		87.890625
9211		89.843750
9212		87.890625
9213		89.843750
9214		87.890625
9215		91.796875
9216		87.890625
9217		91.796875
9218		87.890625
9219		91.796875
9220		87.890625
9221		91.796875
9222		87.890625
9223		91.796875
9224		89.843750
9225		91.796875
9226		89.843750
9227		91.796875
9228		89.843750
9229		91.796875
9230		89.843750
9231		93.750000
9232		89.843750
9233		93.750000
9234		89.843750
9235		93.750000
9236		89.843750
9237		93.750000
9238		89.843750
9239		93.750000
9240		89.843750
9241		93.750000
9242		89.843750
9243		91.796875
9244		87.890625
9245		93.750000
9246		87.890625
9247		91.796875
9248		89.843750
9249		91.796875
9250		87.890625
9251		91.796875
9252		87.890625
9253		91.796875
9254		87.890625
9255		91.796875
9256		85.937500
9257		89.843750
9258		87.890625
9259		89.843750
9260		85.937500
9261		89.843750
9262		85.937500
9263		89.843750
9264		83.984375
9265		87.890625
9266		83.984375
9267		87.890625
9268		83.984375
9269		85.937500
9270		82.031250
9271		85.937500
9272		80.078125
9273		85.937500
9274		82.031250
9275		83.984375
9276		80.078125
9277		83.984375
9278		80.078125
9279		83.984375
9280		78.125000
9281		82.031250
9282		78.125000
9283		82.031250
9284		76.171875
9285		80.078125
9286		76.171875
9287		80.078125
9288		74.218750
9289		78.125000
9290		72.265625
9291		78.125000
9292		72.265625
9293		74.218750
9294		70.312500
9295		74.218750
9296		70.312500
9297		72.265625
9298		68.359375
9299		72.265625
9300		68.359375
9301		70.312500
9302		64.453125
9303		70.312500
9304		64.453125
9305		68.359375
9306		62.500000
9307		66.406250
9308		62.500000
9309		64.453125
9310		60.546875
9311		62.500000
9312		58.593750
9313		62.500000
9314		56.640625
9315		60.546875
9316		54.687500
9317		58.593750
9318		52.734375
9319		56.640625
9320		52.734375
9321		54.687500
9322		50.781250
9323		54.687500
9324		48.828125
9325		52.734375
9326		46.875000
9327		50.781250
9328		44.921875
9329		48.828125
9330		42.968750
9331		46.875000
9332		41.015625
9333		44.921875
9334		39.062500
9335		42.968750
9336		37.109375
9337		41.015625
9338		35.156250
9339		39.062500
9340		33.203125
9341		39.062500
9342		33.203125
9343		35.156250
9344		29.296875
9345		33.203125
9346		27.343750
9347		31.250000
9348		25.390625
9349		29.296875
9350		23.437500
9351		29.296875
9352		21.484375
9353		25.390625
9354		19.531250
9355		23.437500
9356		17.578125
9357		21.484375
9358		15.625000
9359		19.531250
9360		13.671875
9361		17.578125
9362		11.718750
9363		15.625000
9364		9.765625
9365		13.671875
9366		7.812500
9367		11.718750
9368		5.859375
9369		9.765625
9370		3.906250
9371		7.812500
9372		1.953125
9373		5.859375
9374		0.000000
9375		3.906250
9376		-1.953125
9377		1.953125
9378		-5.859375
9379		0.000000
9380		-7.812500
9381		-1.953125
9382		-9.765625
9383		-3.906250
9384		-9.765625
9385		-5.859375
9386		-13.671875
9387		-7.812500
9388		-15.625000
9389		-11.718750
9390		-17.578125
9391		-11.718750
9392		-19.531250
9393		-15.625000
9394		-19.531250
9395		-17.578125
9396		-21.484375
9397		-17.578125
9398		-25.390625
9399		-21.484375
9400		-27.343750
9401		-23.437500
9402		-29.296875
9403		-25.390625
9404		-31.250000
9405		-25.390625
9406		-33.203125
9407		-27.343750
9408		-33.203125
9409		-29.296875
9410		-35.156250
9411		-33.203125
9412		-39.062500
9413		-33.203125
9414		-39.062500
9415		-35.156250
9416		-41.015625
9417		-37.109375
9418		-42.968750
9419		-39.062500
9420		-44.921875
9421		-41.015625
9422		-46.875000
9423		-42.968750
9424		-48.828125
9425		-44.921875
9426		-48.828125
9427		-46.875000
9428		-50.781250
9429		-46.875000
9430		-52.734375
9431		-48.828125
9432		-54.687500
9433		-50.781250
9434		-54.687500
9435		-52.734375
9436		-56.640625
9437		-54.687500
9438		-58.593750
9439		-54.687500
9440		-60.546875
9441		-56.640625
9442		-60.546875
9443		-58.593750
9444		-62.500000
9445		-58.593750
9446		-64.453125
9447		-60.546875
9448		-64.453125
9449		-60.546875
9450		-66.406250
9451		-62.500000
9452		-66.406250
9453		-64.453125
9454		-68.359375
9455		-64.453125
9456		-68.359375
9457		-66.406250
9458		-70.312500
9459		-66.406250
9460		-70.312500
9461		-68.359375
9462		-72.265625
9463		-68.359375
9464		-72.265625
9465		-68.359375
9466		-72.265625
9467		-70.312500
9468		-74.218750
9469		-70.312500
9470		-74.218750
9471		-72.265625
9472		-76.171875
9473		-72.265625
9474		-76.171875
9475		-72.265625
9476		-76.171875
9477		-72.265625
9478		-76.171875
9479		-74.218750
9480		-78.125000
9481		-74.218750
9482		-78.125000
9483		-74.218750
9484		-78.125000
9485		-74.218750
9486		-78.125000
9487		-74.218750
9488		-78.125000
9489		-74.218750
9490		-78.125000
9491		-74.218750
9492		-78.125000
9493		-74.218750
9494		-78.125000
9495		-76.171875
9496		-78.125000
9497		-74.218750
9498		-78.125000
9499		-74.218750
9500		-76.171875
9501		-74.218750
9502		-78.125000
9503		-74.218750
9504		-76.171875
9505		-74.218750
9506		-76.171875
9507		-74.218750
9508		-76.171875
9509		-74.218750
9510		-74.218750
9511		-72.265625
9512		-76.171875
9513		-70.312500
9514		-74.218750
9515		-72.265625
9516		-74.218750
9517		-70.312500
9518		-72.265625
9519		-70.312500
9520		-72.265625
9521		-68.359375
9522		-72.265625
9523		-68.359375
9524		-70.312500
9525		-66.406250
9526		-68.359375
9527		-66.406250
9528		-68.359375
9529		-66.406250
9530		-68.359375
9531		-64.453125
9532		-66.406250
9533		-62.500000
9534		-66.406250
9535		-62.500000
9536		-64.453125
9537		-60.546875
9538		-64.453125
9539		-58.593750
9540		-62.500000
9541		-58.593750
9542		-60.546875
9543		-56.640625
9544		-58.593750
9545		-56.640625
9546		-58.593750
9547		-54.687500
9548		-56.640625
9549		-52.734375
9550		-54.687500
9551		-50.781250
9552		-52.734375
9553		-50.781250
9554		-52.734375
9555		-48.828125
9556		-50.781250
9557		-46.875000
9558		-48.828125
9559		-44.921875
9560		-46.875000
9561		-42.968750
9562		-44.921875
9563		-41.015625
9564		-42.968750
9565		-39.062500
9566		-42.968750
9567		-39.062500
9568		-41.015625
9569		-37.109375
9570		-37.109375
9571		-33.203125
9572		-39.062500
9573		-31.250000
9574		-35.156250
9575		-29.296875
9576		-35.156250
9577		-29.296875
9578		-31.250000
9579		-27.343750
9580		-29.296875
9581		-25.390625
9582		-27.343750
9583		-23.437500
9584		-25.390625
9585		-21.484375
9586		-23.437500
9587		-19.531250
9588		-21.484375
9589		-15.625000
9590		-19.531250
9591		-15.625000
9592		-17.578125
9593		-11.718750
9594		-15.625000
9595		-9.765625
9596		-11.718750
9597		-9.765625
9598		-11.718750
9599		-5.859375
9600		-9.765625
9601		-3.906250
9602		-5.859375
9603		-1.953125
9604		-3.906250
9605		0.000000
9606		-1.953125
9607		1.953125
9608		-1.953125
9609		3.906250
9610		1.953125
9611		5.859375
9612		3.906250
9613		7.812500
9614		5.859375
9615		9.765625
9616		5.859375
9617		13.671875
9618		9.765625
9619		13.671875
9620		11.718750
9621		15.625000
9622		11.718750
9623		19.531250
9624		15.625000
9625		21.484375
9626		17.578125
9627		21.484375
9628		21.484375
9629		23.437500
9630		23.437500
9631		27.343750
9632		23.437500
9633		31.250000
9634		25.390625
9635		31.250000
9636		27.343750
9637		35.156250
9638		27.343750
9639		35.156250
9640		31.250000
9641		39.062500
9642		33.203125
9643		39.062500
9644		35.156250
9645		39.062500
9646		39.062500
9647		41.015625
9648		39.062500
9649		44.921875
9650		41.015625
9651		46.875000
9652		41.015625
9653		48.828125
9654		44.921875
9655		50.781250
9656		44.921875
9657		52.734375
9658		46.875000
9659		54.687500
9660		50.781250
9661		54.687500
9662		52.734375
9663		54.687500
9664		52.734375
9665		58.593750
9666		54.687500
9667		60.546875
9668		54.687500
9669		62.500000
9670		56.640625
9671		62.500000
9672		58.593750
9673		66.406250
9674		60.546875
9675		66.406250
9676		60.546875
9677		68.359375
9678		64.453125
9679		68.359375
9680		66.406250
9681		68.359375
9682		64.453125
9683		72.265625
9684		66.406250
9685		74.218750
9686		68.359375
9687		74.218750
9688		68.359375
9689		76.171875
9690		70.312500
9691		78.125000
9692		72.265625
9693		78.125000
9694		74.218750
9695		78.125000
9696		76.171875
9697		78.125000
9698		76.171875
9699		82.031250
9700		76.171875
9701		82.031250
9702		76.171875
9703		82.031250
9704		78.125000
9705		83.984375
9706		78.125000
9707		83.984375
9708		80.078125
9709		85.937500
9710		80.078125
9711		85.937500
9712		83.984375
9713		85.937500
9714		83.984375
9715		85.937500
9716		82.031250
9717		89.843750
9718		83.984375
9719		89.843750
9720		83.984375
9721		89.843750
9722		83.984375
9723		91.796875
9724		83.984375
9725		91.796875
9726		85.937500
9727		91.796875
9728		87.890625
9729		89.843750
9730		87.890625
9731		89.843750
9732		87.890625
9733		91.796875
9734		85.937500
9735		93.750000
9736		85.937500
9737		93.750000
9738		87.890625
9739		93.750000
9740		87.890625
9741		93.750000
9742		87.890625
9743		93.750000
9744		87.890625
9745		93.750000
9746		89.843750
9747		93.750000
9748		87.890625
9749		95.703125
9750		87.890625
9751		93.750000
9752		87.890625
9753		95.703125
9754		87.890625
9755		93.750000
9756		87.890625
9757		93.750000
9758		87.890625
9759		93.750000
9760		87.890625
9761		93.750000
9762		89.843750
9763		91.796875
9764		87.890625
9765		91.796875
9766		85.937500
9767		93.750000
9768		85.937500
9769		93.750000
9770		85.937500
9771		91.796875
9772		85.937500
9773		91.796875
9774		83.984375
9775		91.796875
9776		83.984375
9777		89.843750
9778		83.984375
9779		89.843750
9780		83.984375
9781		87.890625
9782		82.031250
9783		87.890625
9784		80.078125
9785		87.890625
9786		82.031250
9787		85.937500
9788		78.125000
9789		85.937500
9790		78.125000
9791		83.984375
9792		78.125000
9793		83.984375
9794		76.171875
9795		83.984375
9796		78.125000
9797		80.078125
9798		76.171875
9799		80.078125
9800		72.265625
9801		80.078125
9802		72.265625
9803		78.125000
9804		72.265625
9805		78.125000
9806		70.312500
9807		76.171875
9808		68.359375
9809		76.171875
9810		66.406250
9811		74.218750
9812		68.359375
9813		70.312500
9814		66.406250
9815		70.312500
9816		62.500000
9817		70.312500
9818		62.500000
9819		68.359375
9820		60.546875
9821		68.359375
9822		60.546875
9823		66.406250
9824		58.593750
9825		64.453125
9826		56.640625
9827		62.500000
9828		56.640625
9829		60.546875
9830		54.687500
9831		58.593750
9832		50.781250
9833		56.640625
9834		50.781250
9835		56.640625
9836		46.875000
9837		54.687500
9838		46.875000
9839		52.734375
9840		44.921875
9841		50.781250
9842		42.968750
9843		50.781250
9844		41.015625
9845		48.828125
9846		41.015625
9847		44.921875
9848		39.062500
9849		42.968750
9850		35.156250
9851		42.968750
9852		35.156250
9853		41.015625
9854		31.250000
9855		39.062500
9856		29.296875
9857		37.109375
9858		27.343750
9859		35.156250
9860		25.390625
9861		33.203125
9862		23.437500
9863		31.250000
9864		23.437500
9865		27.343750
9866		21.484375
9867		25.390625
9868		17.578125
9869		25.390625
9870		15.625000
9871		23.437500
9872		13.671875
9873		21.484375
9874		11.718750
9875		19.531250
9876		9.765625
9877		15.625000
9878		7.812500
9879		15.625000
9880		7.812500
9881		11.718750
9882		3.906250
9883		9.765625
9884		1.953125
9885		7.812500
9886		-1.953125
9887		7.812500
9888		-3.906250
9889		3.906250
9890		-5.859375
9891		1.953125
9892		-7.812500
9893		0.000000
9894		-7.812500
9895		-1.953125
9896		-9.765625
9897		-5.859375
9898		-11.718750
9899		-7.812500
9900		-15.625000
9901		-9.765625
9902		-15.625000
9903		-9.765625
9904		-19.531250
9905		-11.718750
9906		-21.484375
9907		-13.671875
9908		-23.437500
9909		-15.625000
9910		-25.390625
9911		-19.531250
9912		-25.390625
9913		-19.531250
9914		-27.343750
9915		-23.437500
9916		-31.250000
9917		-25.390625
9918		-33.203125
9919		-25.390625
9920		-35.156250
9921		-27.343750
9922		-37.109375
9923		-29.296875
9924		-37.109375
9925		-31.250000
9926		-41.015625
9927		-33.203125
9928		-41.015625
9929		-35.156250
9930		-42.968750
9931		-39.062500
9932		-44.921875
9933		-41.015625
9934		-48.828125
9935		-41.015625
9936		-48.828125
9937		-41.015625
9938		-50.781250
9939		-42.968750
9940		-52.734375
9941		-44.921875
9942		-52.734375
9943		-46.875000
9944		-54.687500
9945		-48.828125
9946		-56.640625
9947		-48.828125
9948		-56.640625
9949		-52.734375
9950		-58.593750
9951		-54.687500
9952		-60.546875
9953		-54.687500
9954		-62.500000
9955		-56.640625
9956		-64.453125
9957		-56.640625
9958		-64.453125
9959		-58.593750
9960		-66.406250
9961		-60.546875
9962		-66.406250
9963		-60.546875
9964		-66.406250
9965		-64.453125
9966		-68.359375
9967		-64.453125
9968		-70.312500
9969		-64.453125
9970		-72.265625
9971		-64.453125
9972		-72.265625
9973		-66.406250
9974		-74.218750
9975		-66.406250
9976		-74.218750
9977		-66.406250
9978		-74.218750
9979		-68.359375
9980		-74.218750
9981		-70.312500
9982		-74.218750
9983		-72.265625
9984		-76.171875
9985		-70.312500
9986		-78.125000
9987		-70.312500
9988		-78.125000
9989		-72.265625
9990		-78.125000
9991		-72.265625
9992		-78.125000
9993		-72.265625
9994		-80.078125
9995		-72.265625
9996		-80.078125
9997		-74.218750
9998		-78.125000
9999		-76.171875
10000		-78.125000
