Channel              :		CH1
Frequency            :		1.982kHz
Period               :		0.505ms
PK-PK                :		117.2mV
Probe attenuation    :		1X
Voltage per ADC value:		0.122070mV
Time interval        :		2.00000us

index		CH1_Voltage(mV)
1		64.453125
2		64.453125
3		62.500000
4		64.453125
5		62.500000
6		66.406250
7		64.453125
8		66.406250
9		62.500000
10		66.406250
11		64.453125
12		66.406250
13		64.453125
14		66.406250
15		62.500000
16		66.406250
17		62.500000
18		66.406250
19		62.500000
20		64.453125
21		62.500000
22		64.453125
23		60.546875
24		64.453125
25		60.546875
26		64.453125
27		58.593750
28		62.500000
29		58.593750
30		62.500000
31		56.640625
32		60.546875
33		56.640625
34		60.546875
35		54.687500
36		58.593750
37		52.734375
38		56.640625
39		52.734375
40		54.687500
41		50.781250
42		54.687500
43		48.828125
44		52.734375
45		46.875000
46		50.781250
47		42.968750
48		48.828125
49		41.015625
50		46.875000
51		41.015625
52		44.921875
53		37.109375
54		42.968750
55		35.156250
56		39.062500
57		33.203125
58		37.109375
59		31.250000
60		35.156250
61		29.296875
62		33.203125
63		27.343750
64		29.296875
65		23.437500
66		27.343750
67		21.484375
68		25.390625
69		17.578125
70		23.437500
71		15.625000
72		19.531250
73		13.671875
74		17.578125
75		9.765625
76		15.625000
77		7.812500
78		11.718750
79		5.859375
80		9.765625
81		1.953125
82		5.859375
83		0.000000
84		3.906250
85		-3.906250
86		1.953125
87		-5.859375
88		-1.953125
89		-7.812500
90		-3.906250
91		-9.765625
92		-5.859375
93		-13.671875
94		-9.765625
95		-15.625000
96		-11.718750
97		-17.578125
98		-13.671875
99		-21.484375
100		-15.625000
101		-23.437500
102		-19.531250
103		-25.390625
104		-21.484375
105		-27.343750
106		-21.484375
107		-29.296875
108		-25.390625
109		-31.250000
110		-27.343750
111		-33.203125
112		-29.296875
113		-35.156250
114		-31.250000
115		-35.156250
116		-33.203125
117		-37.109375
118		-33.203125
119		-39.062500
120		-35.156250
121		-41.015625
122		-37.109375
123		-41.015625
124		-37.109375
125		-42.968750
126		-39.062500
127		-42.968750
128		-39.062500
129		-42.968750
130		-41.015625
131		-44.921875
132		-41.015625
133		-44.921875
134		-41.015625
135		-44.921875
136		-41.015625
137		-44.921875
138		-41.015625
139		-44.921875
140		-41.015625
141		-44.921875
142		-41.015625
143		-42.968750
144		-41.015625
145		-42.968750
146		-41.015625
147		-42.968750
148		-39.062500
149		-42.968750
150		-39.062500
151		-41.015625
152		-37.109375
153		-41.015625
154		-37.109375
155		-39.062500
156		-35.156250
157		-39.062500
158		-33.203125
159		-37.109375
160		-33.203125
161		-35.156250
162		-31.250000
163		-33.203125
164		-29.296875
165		-31.250000
166		-27.343750
167		-29.296875
168		-25.390625
169		-27.343750
170		-23.437500
171		-25.390625
172		-21.484375
173		-23.437500
174		-19.531250
175		-21.484375
176		-17.578125
177		-19.531250
178		-13.671875
179		-15.625000
180		-11.718750
181		-13.671875
182		-9.765625
183		-11.718750
184		-7.812500
185		-9.765625
186		-3.906250
187		-5.859375
188		-1.953125
189		-3.906250
190		0.000000
191		-1.953125
192		3.906250
193		0.000000
194		5.859375
195		3.906250
196		7.812500
197		7.812500
198		11.718750
199		9.765625
200		13.671875
201		11.718750
202		17.578125
203		15.625000
204		19.531250
205		17.578125
206		23.437500
207		19.531250
208		23.437500
209		23.437500
210		27.343750
211		25.390625
212		29.296875
213		27.343750
214		31.250000
215		29.296875
216		35.156250
217		33.203125
218		37.109375
219		35.156250
220		39.062500
221		37.109375
222		41.015625
223		39.062500
224		44.921875
225		41.015625
226		44.921875
227		42.968750
228		46.875000
229		46.875000
230		48.828125
231		46.875000
232		50.781250
233		48.828125
234		52.734375
235		50.781250
236		54.687500
237		52.734375
238		56.640625
239		54.687500
240		56.640625
241		54.687500
242		58.593750
243		56.640625
244		60.546875
245		56.640625
246		60.546875
247		58.593750
248		62.500000
249		60.546875
250		62.500000
251		60.546875
252		64.453125
253		60.546875
254		64.453125
255		62.500000
256		64.453125
257		62.500000
258		64.453125
259		62.500000
260		66.406250
261		62.500000
262		66.406250
263		64.453125
264		66.406250
265		64.453125
266		66.406250
267		62.500000
268		66.406250
269		62.500000
270		66.406250
271		62.500000
272		66.406250
273		62.500000
274		64.453125
275		60.546875
276		64.453125
277		60.546875
278		64.453125
279		60.546875
280		62.500000
281		58.593750
282		62.500000
283		56.640625
284		60.546875
285		56.640625
286		60.546875
287		54.687500
288		58.593750
289		54.687500
290		58.593750
291		50.781250
292		54.687500
293		48.828125
294		54.687500
295		48.828125
296		52.734375
297		46.875000
298		50.781250
299		44.921875
300		48.828125
301		42.968750
302		48.828125
303		41.015625
304		44.921875
305		39.062500
306		42.968750
307		37.109375
308		41.015625
309		33.203125
310		39.062500
311		31.250000
312		35.156250
313		29.296875
314		33.203125
315		27.343750
316		31.250000
317		25.390625
318		29.296875
319		21.484375
320		27.343750
321		19.531250
322		23.437500
323		15.625000
324		21.484375
325		13.671875
326		17.578125
327		11.718750
328		15.625000
329		7.812500
330		13.671875
331		5.859375
332		9.765625
333		1.953125
334		7.812500
335		0.000000
336		5.859375
337		-1.953125
338		1.953125
339		-5.859375
340		0.000000
341		-7.812500
342		-3.906250
343		-9.765625
344		-5.859375
345		-13.671875
346		-7.812500
347		-15.625000
348		-11.718750
349		-17.578125
350		-13.671875
351		-19.531250
352		-15.625000
353		-23.437500
354		-17.578125
355		-25.390625
356		-19.531250
357		-27.343750
358		-23.437500
359		-29.296875
360		-25.390625
361		-31.250000
362		-25.390625
363		-33.203125
364		-29.296875
365		-35.156250
366		-31.250000
367		-37.109375
368		-31.250000
369		-37.109375
370		-33.203125
371		-39.062500
372		-35.156250
373		-39.062500
374		-37.109375
375		-41.015625
376		-37.109375
377		-42.968750
378		-37.109375
379		-42.968750
380		-39.062500
381		-42.968750
382		-41.015625
383		-42.968750
384		-41.015625
385		-44.921875
386		-41.015625
387		-44.921875
388		-41.015625
389		-44.921875
390		-41.015625
391		-44.921875
392		-41.015625
393		-44.921875
394		-41.015625
395		-44.921875
396		-41.015625
397		-42.968750
398		-41.015625
399		-42.968750
400		-41.015625
401		-42.968750
402		-39.062500
403		-41.015625
404		-39.062500
405		-41.015625
406		-37.109375
407		-41.015625
408		-37.109375
409		-39.062500
410		-35.156250
411		-37.109375
412		-33.203125
413		-35.156250
414		-31.250000
415		-33.203125
416		-29.296875
417		-33.203125
418		-29.296875
419		-31.250000
420		-25.390625
421		-27.343750
422		-23.437500
423		-27.343750
424		-23.437500
425		-23.437500
426		-19.531250
427		-23.437500
428		-17.578125
429		-21.484375
430		-15.625000
431		-17.578125
432		-13.671875
433		-15.625000
434		-11.718750
435		-13.671875
436		-7.812500
437		-9.765625
438		-5.859375
439		-7.812500
440		-3.906250
441		-5.859375
442		0.000000
443		-1.953125
444		1.953125
445		0.000000
446		5.859375
447		1.953125
448		7.812500
449		5.859375
450		9.765625
451		7.812500
452		13.671875
453		11.718750
454		15.625000
455		13.671875
456		17.578125
457		15.625000
458		19.531250
459		17.578125
460		23.437500
461		21.484375
462		25.390625
463		23.437500
464		29.296875
465		27.343750
466		31.250000
467		29.296875
468		33.203125
469		31.250000
470		35.156250
471		33.203125
472		37.109375
473		35.156250
474		39.062500
475		39.062500
476		42.968750
477		41.015625
478		44.921875
479		42.968750
480		46.875000
481		42.968750
482		48.828125
483		46.875000
484		50.781250
485		48.828125
486		50.781250
487		50.781250
488		52.734375
489		52.734375
490		54.687500
491		52.734375
492		56.640625
493		54.687500
494		58.593750
495		56.640625
496		60.546875
497		56.640625
498		60.546875
499		58.593750
500		60.546875
501		58.593750
502		62.500000
503		60.546875
504		62.500000
505		60.546875
506		64.453125
507		60.546875
508		64.453125
509		62.500000
510		64.453125
511		62.500000
512		64.453125
513		62.500000
514		66.406250
515		62.500000
516		64.453125
517		62.500000
518		66.406250
519		62.500000
520		66.406250
521		62.500000
522		66.406250
523		62.500000
524		66.406250
525		60.546875
526		64.453125
527		60.546875
528		64.453125
529		60.546875
530		64.453125
531		58.593750
532		62.500000
533		58.593750
534		62.500000
535		56.640625
536		60.546875
537		56.640625
538		58.593750
539		54.687500
540		58.593750
541		54.687500
542		56.640625
543		52.734375
544		56.640625
545		50.781250
546		54.687500
547		48.828125
548		52.734375
549		46.875000
550		50.781250
551		44.921875
552		48.828125
553		42.968750
554		46.875000
555		41.015625
556		44.921875
557		39.062500
558		42.968750
559		37.109375
560		41.015625
561		35.156250
562		39.062500
563		31.250000
564		37.109375
565		29.296875
566		35.156250
567		27.343750
568		31.250000
569		23.437500
570		29.296875
571		21.484375
572		25.390625
573		19.531250
574		23.437500
575		17.578125
576		21.484375
577		13.671875
578		17.578125
579		11.718750
580		15.625000
581		7.812500
582		13.671875
583		5.859375
584		9.765625
585		3.906250
586		7.812500
587		0.000000
588		5.859375
589		-1.953125
590		1.953125
591		-3.906250
592		0.000000
593		-7.812500
594		-1.953125
595		-9.765625
596		-5.859375
597		-13.671875
598		-7.812500
599		-15.625000
600		-11.718750
601		-17.578125
602		-13.671875
603		-19.531250
604		-15.625000
605		-21.484375
606		-17.578125
607		-25.390625
608		-19.531250
609		-25.390625
610		-21.484375
611		-29.296875
612		-23.437500
613		-31.250000
614		-27.343750
615		-33.203125
616		-29.296875
617		-33.203125
618		-31.250000
619		-37.109375
620		-33.203125
621		-37.109375
622		-33.203125
623		-39.062500
624		-35.156250
625		-39.062500
626		-37.109375
627		-41.015625
628		-37.109375
629		-42.968750
630		-39.062500
631		-42.968750
632		-39.062500
633		-42.968750
634		-41.015625
635		-42.968750
636		-41.015625
637		-44.921875
638		-41.015625
639		-44.921875
640		-41.015625
641		-44.921875
642		-42.968750
643		-44.921875
644		-41.015625
645		-44.921875
646		-41.015625
647		-44.921875
648		-41.015625
649		-44.921875
650		-41.015625
651		-42.968750
652		-41.015625
653		-42.968750
654		-39.062500
655		-42.968750
656		-39.062500
657		-41.015625
658		-39.062500
659		-41.015625
660		-37.109375
661		-39.062500
662		-35.156250
663		-37.109375
664		-35.156250
665		-37.109375
666		-33.203125
667		-35.156250
668		-31.250000
669		-33.203125
670		-29.296875
671		-31.250000
672		-27.343750
673		-29.296875
674		-25.390625
675		-27.343750
676		-23.437500
677		-25.390625
678		-21.484375
679		-23.437500
680		-19.531250
681		-21.484375
682		-15.625000
683		-17.578125
684		-13.671875
685		-15.625000
686		-11.718750
687		-13.671875
688		-7.812500
689		-11.718750
690		-5.859375
691		-7.812500
692		-3.906250
693		-5.859375
694		-1.953125
695		-3.906250
696		1.953125
697		0.000000
698		3.906250
699		1.953125
700		5.859375
701		5.859375
702		9.765625
703		7.812500
704		13.671875
705		9.765625
706		15.625000
707		11.718750
708		17.578125
709		15.625000
710		19.531250
711		17.578125
712		23.437500
713		21.484375
714		25.390625
715		23.437500
716		27.343750
717		25.390625
718		29.296875
719		29.296875
720		33.203125
721		29.296875
722		35.156250
723		33.203125
724		37.109375
725		35.156250
726		39.062500
727		39.062500
728		42.968750
729		39.062500
730		44.921875
731		41.015625
732		46.875000
733		42.968750
734		46.875000
735		46.875000
736		48.828125
737		48.828125
738		50.781250
739		48.828125
740		52.734375
741		50.781250
742		54.687500
743		52.734375
744		56.640625
745		54.687500
746		58.593750
747		54.687500
748		58.593750
749		56.640625
750		60.546875
751		58.593750
752		60.546875
753		58.593750
754		62.500000
755		60.546875
756		62.500000
757		60.546875
758		64.453125
759		60.546875
760		64.453125
761		62.500000
762		64.453125
763		62.500000
764		66.406250
765		62.500000
766		66.406250
767		62.500000
768		64.453125
769		62.500000
770		66.406250
771		62.500000
772		66.406250
773		62.500000
774		64.453125
775		62.500000
776		64.453125
777		62.500000
778		64.453125
779		62.500000
780		64.453125
781		60.546875
782		62.500000
783		58.593750
784		62.500000
785		58.593750
786		62.500000
787		56.640625
788		60.546875
789		56.640625
790		60.546875
791		56.640625
792		58.593750
793		54.687500
794		56.640625
795		52.734375
796		56.640625
797		50.781250
798		54.687500
799		48.828125
800		52.734375
801		48.828125
802		50.781250
803		46.875000
804		48.828125
805		42.968750
806		48.828125
807		42.968750
808		46.875000
809		41.015625
810		44.921875
811		37.109375
812		41.015625
813		35.156250
814		39.062500
815		33.203125
816		37.109375
817		31.250000
818		35.156250
819		27.343750
820		31.250000
821		25.390625
822		29.296875
823		21.484375
824		27.343750
825		19.531250
826		25.390625
827		17.578125
828		21.484375
829		15.625000
830		19.531250
831		11.718750
832		17.578125
833		9.765625
834		13.671875
835		7.812500
836		11.718750
837		3.906250
838		7.812500
839		1.953125
840		5.859375
841		-1.953125
842		3.906250
843		-3.906250
844		0.000000
845		-5.859375
846		-1.953125
847		-9.765625
848		-3.906250
849		-11.718750
850		-7.812500
851		-13.671875
852		-9.765625
853		-15.625000
854		-11.718750
855		-19.531250
856		-15.625000
857		-21.484375
858		-15.625000
859		-23.437500
860		-19.531250
861		-25.390625
862		-21.484375
863		-27.343750
864		-23.437500
865		-29.296875
866		-27.343750
867		-31.250000
868		-27.343750
869		-33.203125
870		-29.296875
871		-35.156250
872		-31.250000
873		-37.109375
874		-33.203125
875		-39.062500
876		-35.156250
877		-39.062500
878		-37.109375
879		-41.015625
880		-37.109375
881		-41.015625
882		-37.109375
883		-42.968750
884		-39.062500
885		-42.968750
886		-41.015625
887		-42.968750
888		-41.015625
889		-44.921875
890		-41.015625
891		-44.921875
892		-41.015625
893		-44.921875
894		-41.015625
895		-44.921875
896		-41.015625
897		-44.921875
898		-42.968750
899		-44.921875
900		-41.015625
901		-44.921875
902		-41.015625
903		-42.968750
904		-41.015625
905		-44.921875
906		-39.062500
907		-42.968750
908		-39.062500
909		-42.968750
910		-39.062500
911		-41.015625
912		-37.109375
913		-39.062500
914		-35.156250
915		-39.062500
916		-33.203125
917		-37.109375
918		-33.203125
919		-35.156250
920		-31.250000
921		-33.203125
922		-29.296875
923		-33.203125
924		-27.343750
925		-29.296875
926		-25.390625
927		-27.343750
928		-23.437500
929		-25.390625
930		-21.484375
931		-23.437500
932		-19.531250
933		-21.484375
934		-15.625000
935		-19.531250
936		-15.625000
937		-15.625000
938		-13.671875
939		-13.671875
940		-9.765625
941		-11.718750
942		-7.812500
943		-9.765625
944		-5.859375
945		-7.812500
946		-1.953125
947		-3.906250
948		1.953125
949		-1.953125
950		1.953125
951		0.000000
952		5.859375
953		3.906250
954		7.812500
955		5.859375
956		11.718750
957		9.765625
958		13.671875
959		11.718750
960		15.625000
961		13.671875
962		19.531250
963		17.578125
964		21.484375
965		19.531250
966		23.437500
967		21.484375
968		27.343750
969		25.390625
970		29.296875
971		27.343750
972		31.250000
973		29.296875
974		35.156250
975		33.203125
976		37.109375
977		33.203125
978		39.062500
979		37.109375
980		41.015625
981		39.062500
982		42.968750
983		41.015625
984		44.921875
985		42.968750
986		46.875000
987		44.921875
988		48.828125
989		46.875000
990		50.781250
991		48.828125
992		52.734375
993		50.781250
994		54.687500
995		52.734375
996		54.687500
997		52.734375
998		56.640625
999		54.687500
1000		58.593750
1001		56.640625
1002		60.546875
1003		56.640625
1004		60.546875
1005		58.593750
1006		60.546875
1007		58.593750
1008		62.500000
1009		60.546875
1010		64.453125
1011		60.546875
1012		64.453125
1013		60.546875
1014		64.453125
1015		62.500000
1016		64.453125
1017		62.500000
1018		66.406250
1019		62.500000
1020		66.406250
1021		62.500000
1022		64.453125
1023		62.500000
1024		66.406250
1025		62.500000
1026		66.406250
1027		62.500000
1028		66.406250
1029		62.500000
1030		64.453125
1031		60.546875
1032		64.453125
1033		60.546875
1034		64.453125
1035		60.546875
1036		62.500000
1037		58.593750
1038		62.500000
1039		56.640625
1040		60.546875
1041		56.640625
1042		60.546875
1043		54.687500
1044		58.593750
1045		54.687500
1046		58.593750
1047		52.734375
1048		56.640625
1049		50.781250
1050		54.687500
1051		50.781250
1052		54.687500
1053		48.828125
1054		50.781250
1055		46.875000
1056		48.828125
1057		42.968750
1058		48.828125
1059		42.968750
1060		46.875000
1061		41.015625
1062		44.921875
1063		37.109375
1064		41.015625
1065		35.156250
1066		39.062500
1067		33.203125
1068		37.109375
1069		31.250000
1070		35.156250
1071		27.343750
1072		33.203125
1073		25.390625
1074		29.296875
1075		23.437500
1076		27.343750
1077		19.531250
1078		25.390625
1079		17.578125
1080		23.437500
1081		15.625000
1082		21.484375
1083		11.718750
1084		17.578125
1085		9.765625
1086		15.625000
1087		7.812500
1088		11.718750
1089		3.906250
1090		7.812500
1091		1.953125
1092		5.859375
1093		0.000000
1094		3.906250
1095		-3.906250
1096		0.000000
1097		-5.859375
1098		-1.953125
1099		-7.812500
1100		-3.906250
1101		-11.718750
1102		-5.859375
1103		-13.671875
1104		-9.765625
1105		-15.625000
1106		-11.718750
1107		-19.531250
1108		-15.625000
1109		-21.484375
1110		-17.578125
1111		-23.437500
1112		-19.531250
1113		-25.390625
1114		-21.484375
1115		-27.343750
1116		-23.437500
1117		-29.296875
1118		-25.390625
1119		-31.250000
1120		-27.343750
1121		-33.203125
1122		-29.296875
1123		-37.109375
1124		-31.250000
1125		-37.109375
1126		-33.203125
1127		-39.062500
1128		-35.156250
1129		-39.062500
1130		-35.156250
1131		-41.015625
1132		-37.109375
1133		-41.015625
1134		-37.109375
1135		-42.968750
1136		-39.062500
1137		-42.968750
1138		-41.015625
1139		-44.921875
1140		-41.015625
1141		-44.921875
1142		-41.015625
1143		-44.921875
1144		-42.968750
1145		-44.921875
1146		-42.968750
1147		-46.875000
1148		-42.968750
1149		-44.921875
1150		-42.968750
1151		-44.921875
1152		-41.015625
1153		-46.875000
1154		-41.015625
1155		-44.921875
1156		-42.968750
1157		-44.921875
1158		-41.015625
1159		-42.968750
1160		-39.062500
1161		-42.968750
1162		-39.062500
1163		-41.015625
1164		-39.062500
1165		-41.015625
1166		-37.109375
1167		-39.062500
1168		-35.156250
1169		-37.109375
1170		-33.203125
1171		-35.156250
1172		-33.203125
1173		-35.156250
1174		-31.250000
1175		-33.203125
1176		-29.296875
1177		-31.250000
1178		-27.343750
1179		-29.296875
1180		-25.390625
1181		-27.343750
1182		-21.484375
1183		-25.390625
1184		-21.484375
1185		-23.437500
1186		-17.578125
1187		-21.484375
1188		-15.625000
1189		-17.578125
1190		-13.671875
1191		-15.625000
1192		-11.718750
1193		-13.671875
1194		-7.812500
1195		-9.765625
1196		-5.859375
1197		-7.812500
1198		-3.906250
1199		-5.859375
1200		0.000000
1201		-3.906250
1202		1.953125
1203		0.000000
1204		3.906250
1205		1.953125
1206		7.812500
1207		5.859375
1208		9.765625
1209		7.812500
1210		11.718750
1211		11.718750
1212		15.625000
1213		13.671875
1214		17.578125
1215		15.625000
1216		21.484375
1217		19.531250
1218		23.437500
1219		21.484375
1220		27.343750
1221		23.437500
1222		27.343750
1223		27.343750
1224		31.250000
1225		29.296875
1226		33.203125
1227		31.250000
1228		35.156250
1229		33.203125
1230		37.109375
1231		35.156250
1232		41.015625
1233		37.109375
1234		42.968750
1235		41.015625
1236		44.921875
1237		42.968750
1238		46.875000
1239		44.921875
1240		48.828125
1241		46.875000
1242		50.781250
1243		48.828125
1244		52.734375
1245		48.828125
1246		54.687500
1247		50.781250
1248		54.687500
1249		52.734375
1250		56.640625
1251		54.687500
1252		58.593750
1253		54.687500
1254		58.593750
1255		56.640625
1256		60.546875
1257		58.593750
1258		60.546875
1259		58.593750
1260		62.500000
1261		60.546875
1262		62.500000
1263		60.546875
1264		64.453125
1265		60.546875
1266		66.406250
1267		60.546875
1268		64.453125
1269		62.500000
1270		64.453125
1271		62.500000
1272		64.453125
1273		62.500000
1274		64.453125
1275		62.500000
1276		66.406250
1277		62.500000
1278		66.406250
1279		62.500000
1280		66.406250
1281		62.500000
1282		66.406250
1283		60.546875
1284		66.406250
1285		60.546875
1286		64.453125
1287		60.546875
1288		64.453125
1289		60.546875
1290		62.500000
1291		58.593750
1292		62.500000
1293		56.640625
1294		60.546875
1295		56.640625
1296		60.546875
1297		54.687500
1298		58.593750
1299		52.734375
1300		58.593750
1301		50.781250
1302		56.640625
1303		50.781250
1304		56.640625
1305		48.828125
1306		52.734375
1307		46.875000
1308		50.781250
1309		44.921875
1310		48.828125
1311		42.968750
1312		46.875000
1313		41.015625
1314		44.921875
1315		39.062500
1316		42.968750
1317		37.109375
1318		42.968750
1319		33.203125
1320		39.062500
1321		31.250000
1322		37.109375
1323		29.296875
1324		35.156250
1325		25.390625
1326		31.250000
1327		21.484375
1328		31.250000
1329		19.531250
1330		27.343750
1331		17.578125
1332		25.390625
1333		13.671875
1334		21.484375
1335		13.671875
1336		19.531250
1337		9.765625
1338		17.578125
1339		7.812500
1340		11.718750
1341		5.859375
1342		9.765625
1343		1.953125
1344		7.812500
1345		-1.953125
1346		5.859375
1347		-3.906250
1348		3.906250
1349		-7.812500
1350		0.000000
1351		-7.812500
1352		-1.953125
1353		-11.718750
1354		-3.906250
1355		-13.671875
1356		-7.812500
1357		-15.625000
1358		-11.718750
1359		-19.531250
1360		-13.671875
1361		-21.484375
1362		-13.671875
1363		-25.390625
1364		-15.625000
1365		-27.343750
1366		-19.531250
1367		-29.296875
1368		-21.484375
1369		-31.250000
1370		-23.437500
1371		-33.203125
1372		-25.390625
1373		-33.203125
1374		-29.296875
1375		-35.156250
1376		-31.250000
1377		-37.109375
1378		-29.296875
1379		-39.062500
1380		-31.250000
1381		-41.015625
1382		-33.203125
1383		-42.968750
1384		-35.156250
1385		-42.968750
1386		-35.156250
1387		-42.968750
1388		-37.109375
1389		-42.968750
1390		-41.015625
1391		-42.968750
1392		-41.015625
1393		-46.875000
1394		-39.062500
1395		-46.875000
1396		-41.015625
1397		-46.875000
1398		-39.062500
1399		-46.875000
1400		-41.015625
1401		-46.875000
1402		-41.015625
1403		-46.875000
1404		-41.015625
1405		-46.875000
1406		-41.015625
1407		-44.921875
1408		-41.015625
1409		-44.921875
1410		-39.062500
1411		-44.921875
1412		-37.109375
1413		-44.921875
1414		-37.109375
1415		-42.968750
1416		-35.156250
1417		-42.968750
1418		-35.156250
1419		-41.015625
1420		-33.203125
1421		-41.015625
1422		-33.203125
1423		-37.109375
1424		-33.203125
1425		-35.156250
1426		-31.250000
1427		-35.156250
1428		-27.343750
1429		-33.203125
1430		-25.390625
1431		-31.250000
1432		-23.437500
1433		-31.250000
1434		-19.531250
1435		-27.343750
1436		-19.531250
1437		-25.390625
1438		-17.578125
1439		-21.484375
1440		-15.625000
1441		-17.578125
1442		-15.625000
1443		-15.625000
1444		-9.765625
1445		-15.625000
1446		-7.812500
1447		-13.671875
1448		-3.906250
1449		-11.718750
1450		-1.953125
1451		-7.812500
1452		0.000000
1453		-5.859375
1454		1.953125
1455		-1.953125
1456		3.906250
1457		1.953125
1458		5.859375
1459		5.859375
1460		9.765625
1461		3.906250
1462		13.671875
1463		7.812500
1464		15.625000
1465		9.765625
1466		19.531250
1467		11.718750
1468		21.484375
1469		15.625000
1470		25.390625
1471		17.578125
1472		25.390625
1473		23.437500
1474		27.343750
1475		25.390625
1476		29.296875
1477		27.343750
1478		35.156250
1479		27.343750
1480		37.109375
1481		31.250000
1482		39.062500
1483		33.203125
1484		41.015625
1485		35.156250
1486		42.968750
1487		37.109375
1488		44.921875
1489		39.062500
1490		46.875000
1491		44.921875
1492		46.875000
1493		44.921875
1494		52.734375
1495		44.921875
1496		54.687500
1497		46.875000
1498		54.687500
1499		48.828125
1500		56.640625
1501		50.781250
1502		58.593750
1503		50.781250
1504		58.593750
1505		52.734375
1506		60.546875
1507		56.640625
1508		58.593750
1509		58.593750
1510		60.546875
1511		56.640625
1512		64.453125
1513		58.593750
1514		64.453125
1515		58.593750
1516		64.453125
1517		58.593750
1518		66.406250
1519		58.593750
1520		66.406250
1521		58.593750
1522		66.406250
1523		60.546875
1524		66.406250
1525		62.500000
1526		64.453125
1527		60.546875
1528		66.406250
1529		60.546875
1530		66.406250
1531		60.546875
1532		68.359375
1533		58.593750
1534		66.406250
1535		58.593750
1536		66.406250
1537		58.593750
1538		66.406250
1539		58.593750
1540		64.453125
1541		58.593750
1542		62.500000
1543		58.593750
1544		62.500000
1545		54.687500
1546		62.500000
1547		54.687500
1548		60.546875
1549		52.734375
1550		60.546875
1551		50.781250
1552		58.593750
1553		48.828125
1554		58.593750
1555		48.828125
1556		56.640625
1557		48.828125
1558		52.734375
1559		46.875000
1560		50.781250
1561		42.968750
1562		50.781250
1563		41.015625
1564		48.828125
1565		39.062500
1566		46.875000
1567		37.109375
1568		46.875000
1569		35.156250
1570		42.968750
1571		33.203125
1572		41.015625
1573		31.250000
1574		39.062500
1575		29.296875
1576		33.203125
1577		25.390625
1578		31.250000
1579		23.437500
1580		31.250000
1581		21.484375
1582		29.296875
1583		17.578125
1584		25.390625
1585		15.625000
1586		23.437500
1587		11.718750
1588		19.531250
1589		9.765625
1590		17.578125
1591		9.765625
1592		13.671875
1593		5.859375
1594		9.765625
1595		1.953125
1596		9.765625
1597		-1.953125
1598		7.812500
1599		-3.906250
1600		3.906250
1601		-5.859375
1602		1.953125
1603		-9.765625
1604		-1.953125
1605		-11.718750
1606		-1.953125
1607		-11.718750
1608		-5.859375
1609		-15.625000
1610		-11.718750
1611		-17.578125
1612		-13.671875
1613		-21.484375
1614		-13.671875
1615		-23.437500
1616		-17.578125
1617		-25.390625
1618		-19.531250
1619		-27.343750
1620		-21.484375
1621		-29.296875
1622		-23.437500
1623		-31.250000
1624		-25.390625
1625		-31.250000
1626		-29.296875
1627		-33.203125
1628		-31.250000
1629		-39.062500
1630		-31.250000
1631		-39.062500
1632		-31.250000
1633		-41.015625
1634		-33.203125
1635		-41.015625
1636		-35.156250
1637		-42.968750
1638		-35.156250
1639		-44.921875
1640		-37.109375
1641		-42.968750
1642		-39.062500
1643		-42.968750
1644		-41.015625
1645		-46.875000
1646		-39.062500
1647		-46.875000
1648		-39.062500
1649		-46.875000
1650		-39.062500
1651		-48.828125
1652		-41.015625
1653		-46.875000
1654		-41.015625
1655		-46.875000
1656		-39.062500
1657		-46.875000
1658		-41.015625
1659		-44.921875
1660		-42.968750
1661		-44.921875
1662		-39.062500
1663		-44.921875
1664		-39.062500
1665		-44.921875
1666		-37.109375
1667		-44.921875
1668		-37.109375
1669		-42.968750
1670		-35.156250
1671		-42.968750
1672		-33.203125
1673		-41.015625
1674		-33.203125
1675		-37.109375
1676		-33.203125
1677		-35.156250
1678		-31.250000
1679		-35.156250
1680		-27.343750
1681		-33.203125
1682		-25.390625
1683		-31.250000
1684		-23.437500
1685		-29.296875
1686		-21.484375
1687		-27.343750
1688		-19.531250
1689		-25.390625
1690		-17.578125
1691		-23.437500
1692		-17.578125
1693		-19.531250
1694		-13.671875
1695		-17.578125
1696		-9.765625
1697		-15.625000
1698		-7.812500
1699		-13.671875
1700		-5.859375
1701		-11.718750
1702		-1.953125
1703		-9.765625
1704		0.000000
1705		-5.859375
1706		1.953125
1707		-3.906250
1708		3.906250
1709		1.953125
1710		5.859375
1711		3.906250
1712		7.812500
1713		3.906250
1714		13.671875
1715		7.812500
1716		15.625000
1717		9.765625
1718		19.531250
1719		13.671875
1720		21.484375
1721		15.625000
1722		23.437500
1723		17.578125
1724		25.390625
1725		21.484375
1726		27.343750
1727		25.390625
1728		29.296875
1729		27.343750
1730		33.203125
1731		29.296875
1732		37.109375
1733		31.250000
1734		39.062500
1735		33.203125
1736		41.015625
1737		35.156250
1738		42.968750
1739		37.109375
1740		44.921875
1741		39.062500
1742		44.921875
1743		42.968750
1744		46.875000
1745		44.921875
1746		50.781250
1747		44.921875
1748		52.734375
1749		46.875000
1750		54.687500
1751		48.828125
1752		56.640625
1753		50.781250
1754		56.640625
1755		50.781250
1756		58.593750
1757		52.734375
1758		60.546875
1759		56.640625
1760		58.593750
1761		56.640625
1762		60.546875
1763		56.640625
1764		64.453125
1765		58.593750
1766		64.453125
1767		58.593750
1768		64.453125
1769		58.593750
1770		66.406250
1771		58.593750
1772		66.406250
1773		60.546875
1774		66.406250
1775		60.546875
1776		66.406250
1777		62.500000
1778		64.453125
1779		60.546875
1780		66.406250
1781		60.546875
1782		66.406250
1783		60.546875
1784		68.359375
1785		60.546875
1786		66.406250
1787		60.546875
1788		66.406250
1789		58.593750
1790		66.406250
1791		58.593750
1792		66.406250
1793		60.546875
1794		62.500000
1795		58.593750
1796		62.500000
1797		54.687500
1798		64.453125
1799		54.687500
1800		62.500000
1801		54.687500
1802		60.546875
1803		52.734375
1804		60.546875
1805		50.781250
1806		58.593750
1807		48.828125
1808		56.640625
1809		50.781250
1810		54.687500
1811		48.828125
1812		50.781250
1813		44.921875
1814		50.781250
1815		41.015625
1816		50.781250
1817		39.062500
1818		46.875000
1819		37.109375
1820		44.921875
1821		35.156250
1822		42.968750
1823		33.203125
1824		41.015625
1825		31.250000
1826		39.062500
1827		31.250000
1828		35.156250
1829		25.390625
1830		33.203125
1831		23.437500
1832		31.250000
1833		21.484375
1834		29.296875
1835		17.578125
1836		27.343750
1837		15.625000
1838		23.437500
1839		13.671875
1840		21.484375
1841		11.718750
1842		17.578125
1843		9.765625
1844		13.671875
1845		7.812500
1846		11.718750
1847		1.953125
1848		9.765625
1849		0.000000
1850		7.812500
1851		-3.906250
1852		5.859375
1853		-5.859375
1854		1.953125
1855		-7.812500
1856		0.000000
1857		-11.718750
1858		-1.953125
1859		-11.718750
1860		-5.859375
1861		-13.671875
1862		-9.765625
1863		-19.531250
1864		-11.718750
1865		-21.484375
1866		-11.718750
1867		-23.437500
1868		-15.625000
1869		-25.390625
1870		-17.578125
1871		-27.343750
1872		-19.531250
1873		-29.296875
1874		-21.484375
1875		-31.250000
1876		-23.437500
1877		-31.250000
1878		-27.343750
1879		-33.203125
1880		-29.296875
1881		-37.109375
1882		-29.296875
1883		-39.062500
1884		-31.250000
1885		-41.015625
1886		-33.203125
1887		-41.015625
1888		-33.203125
1889		-42.968750
1890		-35.156250
1891		-44.921875
1892		-37.109375
1893		-42.968750
1894		-39.062500
1895		-42.968750
1896		-41.015625
1897		-46.875000
1898		-39.062500
1899		-46.875000
1900		-39.062500
1901		-46.875000
1902		-39.062500
1903		-46.875000
1904		-41.015625
1905		-48.828125
1906		-41.015625
1907		-48.828125
1908		-41.015625
1909		-46.875000
1910		-41.015625
1911		-44.921875
1912		-42.968750
1913		-44.921875
1914		-39.062500
1915		-44.921875
1916		-39.062500
1917		-44.921875
1918		-39.062500
1919		-44.921875
1920		-37.109375
1921		-42.968750
1922		-35.156250
1923		-41.015625
1924		-35.156250
1925		-41.015625
1926		-33.203125
1927		-37.109375
1928		-35.156250
1929		-35.156250
1930		-31.250000
1931		-35.156250
1932		-29.296875
1933		-35.156250
1934		-27.343750
1935		-33.203125
1936		-25.390625
1937		-31.250000
1938		-23.437500
1939		-29.296875
1940		-21.484375
1941		-27.343750
1942		-17.578125
1943		-23.437500
1944		-17.578125
1945		-19.531250
1946		-15.625000
1947		-17.578125
1948		-11.718750
1949		-17.578125
1950		-9.765625
1951		-15.625000
1952		-5.859375
1953		-11.718750
1954		-3.906250
1955		-9.765625
1956		-1.953125
1957		-7.812500
1958		1.953125
1959		-3.906250
1960		3.906250
1961		0.000000
1962		3.906250
1963		3.906250
1964		7.812500
1965		3.906250
1966		11.718750
1967		5.859375
1968		15.625000
1969		9.765625
1970		17.578125
1971		11.718750
1972		19.531250
1973		13.671875
1974		23.437500
1975		17.578125
1976		25.390625
1977		21.484375
1978		25.390625
1979		25.390625
1980		29.296875
1981		25.390625
1982		33.203125
1983		27.343750
1984		35.156250
1985		29.296875
1986		37.109375
1987		31.250000
1988		39.062500
1989		33.203125
1990		41.015625
1991		35.156250
1992		44.921875
1993		39.062500
1994		44.921875
1995		42.968750
1996		46.875000
1997		44.921875
1998		50.781250
1999		44.921875
2000		52.734375
2001		46.875000
2002		54.687500
2003		48.828125
2004		56.640625
2005		48.828125
2006		56.640625
2007		50.781250
2008		58.593750
2009		52.734375
2010		60.546875
2011		54.687500
2012		58.593750
2013		56.640625
2014		60.546875
2015		56.640625
2016		62.500000
2017		56.640625
2018		64.453125
2019		58.593750
2020		64.453125
2021		58.593750
2022		64.453125
2023		58.593750
2024		66.406250
2025		58.593750
2026		66.406250
2027		60.546875
2028		66.406250
2029		62.500000
2030		64.453125
2031		60.546875
2032		66.406250
2033		60.546875
2034		66.406250
2035		60.546875
2036		66.406250
2037		60.546875
2038		66.406250
2039		58.593750
2040		66.406250
2041		58.593750
2042		66.406250
2043		58.593750
2044		66.406250
2045		60.546875
2046		62.500000
2047		58.593750
2048		60.546875
2049		54.687500
2050		62.500000
2051		54.687500
2052		62.500000
2053		52.734375
2054		60.546875
2055		52.734375
2056		60.546875
2057		50.781250
2058		58.593750
2059		48.828125
2060		56.640625
2061		48.828125
2062		54.687500
2063		48.828125
2064		50.781250
2065		44.921875
2066		50.781250
2067		42.968750
2068		48.828125
2069		39.062500
2070		46.875000
2071		37.109375
2072		44.921875
2073		35.156250
2074		44.921875
2075		33.203125
2076		41.015625
2077		33.203125
2078		39.062500
2079		31.250000
2080		35.156250
2081		27.343750
2082		33.203125
2083		23.437500
2084		31.250000
2085		21.484375
2086		29.296875
2087		17.578125
2088		27.343750
2089		15.625000
2090		25.390625
2091		13.671875
2092		21.484375
2093		11.718750
2094		19.531250
2095		9.765625
2096		15.625000
2097		7.812500
2098		11.718750
2099		1.953125
2100		9.765625
2101		0.000000
2102		7.812500
2103		-1.953125
2104		5.859375
2105		-5.859375
2106		1.953125
2107		-9.765625
2108		0.000000
2109		-11.718750
2110		-3.906250
2111		-11.718750
2112		-5.859375
2113		-13.671875
2114		-9.765625
2115		-17.578125
2116		-11.718750
2117		-19.531250
2118		-13.671875
2119		-23.437500
2120		-15.625000
2121		-27.343750
2122		-17.578125
2123		-27.343750
2124		-19.531250
2125		-31.250000
2126		-21.484375
2127		-31.250000
2128		-25.390625
2129		-31.250000
2130		-27.343750
2131		-33.203125
2132		-29.296875
2133		-37.109375
2134		-29.296875
2135		-39.062500
2136		-31.250000
2137		-41.015625
2138		-33.203125
2139		-41.015625
2140		-33.203125
2141		-42.968750
2142		-35.156250
2143		-44.921875
2144		-37.109375
2145		-44.921875
2146		-37.109375
2147		-42.968750
2148		-41.015625
2149		-46.875000
2150		-39.062500
2151		-46.875000
2152		-41.015625
2153		-46.875000
2154		-41.015625
2155		-48.828125
2156		-41.015625
2157		-48.828125
2158		-41.015625
2159		-48.828125
2160		-41.015625
2161		-46.875000
2162		-41.015625
2163		-44.921875
2164		-42.968750
2165		-44.921875
2166		-42.968750
2167		-46.875000
2168		-39.062500
2169		-44.921875
2170		-39.062500
2171		-44.921875
2172		-37.109375
2173		-44.921875
2174		-37.109375
2175		-42.968750
2176		-35.156250
2177		-41.015625
2178		-35.156250
2179		-39.062500
2180		-35.156250
2181		-37.109375
2182		-33.203125
2183		-37.109375
2184		-29.296875
2185		-35.156250
2186		-27.343750
2187		-33.203125
2188		-25.390625
2189		-31.250000
2190		-23.437500
2191		-31.250000
2192		-21.484375
2193		-27.343750
2194		-19.531250
2195		-25.390625
2196		-19.531250
2197		-21.484375
2198		-17.578125
2199		-19.531250
2200		-11.718750
2201		-19.531250
2202		-9.765625
2203		-15.625000
2204		-7.812500
2205		-13.671875
2206		-5.859375
2207		-11.718750
2208		-3.906250
2209		-7.812500
2210		0.000000
2211		-5.859375
2212		1.953125
2213		0.000000
2214		3.906250
2215		1.953125
2216		5.859375
2217		3.906250
2218		11.718750
2219		3.906250
2220		13.671875
2221		7.812500
2222		15.625000
2223		9.765625
2224		19.531250
2225		13.671875
2226		21.484375
2227		15.625000
2228		25.390625
2229		17.578125
2230		25.390625
2231		23.437500
2232		27.343750
2233		25.390625
2234		31.250000
2235		25.390625
2236		33.203125
2237		27.343750
2238		37.109375
2239		31.250000
2240		39.062500
2241		33.203125
2242		41.015625
2243		35.156250
2244		42.968750
2245		37.109375
2246		44.921875
2247		41.015625
2248		44.921875
2249		42.968750
2250		46.875000
2251		42.968750
2252		50.781250
2253		44.921875
2254		52.734375
2255		46.875000
2256		54.687500
2257		48.828125
2258		56.640625
2259		48.828125
2260		58.593750
2261		50.781250
2262		60.546875
2263		52.734375
2264		58.593750
2265		56.640625
2266		58.593750
2267		54.687500
2268		62.500000
2269		56.640625
2270		62.500000
2271		56.640625
2272		64.453125
2273		56.640625
2274		64.453125
2275		58.593750
2276		66.406250
2277		58.593750
2278		66.406250
2279		58.593750
2280		66.406250
2281		62.500000
2282		64.453125
2283		60.546875
2284		66.406250
2285		58.593750
2286		66.406250
2287		60.546875
2288		66.406250
2289		58.593750
2290		66.406250
2291		58.593750
2292		66.406250
2293		58.593750
2294		66.406250
2295		58.593750
2296		64.453125
2297		58.593750
2298		62.500000
2299		58.593750
2300		60.546875
2301		56.640625
2302		62.500000
2303		54.687500
2304		62.500000
2305		52.734375
2306		60.546875
2307		52.734375
2308		60.546875
2309		50.781250
2310		58.593750
2311		48.828125
2312		56.640625
2313		48.828125
2314		56.640625
2315		48.828125
2316		50.781250
2317		42.968750
2318		50.781250
2319		41.015625
2320		48.828125
2321		41.015625
2322		46.875000
2323		37.109375
2324		44.921875
2325		37.109375
2326		44.921875
2327		35.156250
2328		41.015625
2329		31.250000
2330		39.062500
2331		31.250000
2332		35.156250
2333		29.296875
2334		33.203125
2335		23.437500
2336		31.250000
2337		21.484375
2338		29.296875
2339		19.531250
2340		25.390625
2341		15.625000
2342		23.437500
2343		13.671875
2344		21.484375
2345		11.718750
2346		19.531250
2347		9.765625
2348		17.578125
2349		7.812500
2350		11.718750
2351		1.953125
2352		9.765625
2353		0.000000
2354		7.812500
2355		-1.953125
2356		5.859375
2357		-5.859375
2358		1.953125
2359		-7.812500
2360		0.000000
2361		-11.718750
2362		-1.953125
2363		-11.718750
2364		-3.906250
2365		-13.671875
2366		-9.765625
2367		-17.578125
2368		-11.718750
2369		-21.484375
2370		-13.671875
2371		-23.437500
2372		-15.625000
2373		-27.343750
2374		-17.578125
2375		-27.343750
2376		-19.531250
2377		-29.296875
2378		-21.484375
2379		-33.203125
2380		-23.437500
2381		-31.250000
2382		-27.343750
2383		-33.203125
2384		-29.296875
2385		-37.109375
2386		-29.296875
2387		-39.062500
2388		-31.250000
2389		-41.015625
2390		-33.203125
2391		-42.968750
2392		-35.156250
2393		-42.968750
2394		-35.156250
2395		-44.921875
2396		-37.109375
2397		-44.921875
2398		-39.062500
2399		-42.968750
2400		-41.015625
2401		-46.875000
2402		-41.015625
2403		-48.828125
2404		-41.015625
2405		-48.828125
2406		-41.015625
2407		-48.828125
2408		-41.015625
2409		-48.828125
2410		-41.015625
2411		-48.828125
2412		-42.968750
2413		-48.828125
2414		-41.015625
2415		-46.875000
2416		-44.921875
2417		-44.921875
2418		-42.968750
2419		-48.828125
2420		-41.015625
2421		-46.875000
2422		-39.062500
2423		-46.875000
2424		-39.062500
2425		-44.921875
2426		-37.109375
2427		-44.921875
2428		-37.109375
2429		-42.968750
2430		-35.156250
2431		-41.015625
2432		-35.156250
2433		-37.109375
2434		-35.156250
2435		-37.109375
2436		-31.250000
2437		-37.109375
2438		-29.296875
2439		-35.156250
2440		-27.343750
2441		-33.203125
2442		-25.390625
2443		-31.250000
2444		-23.437500
2445		-29.296875
2446		-21.484375
2447		-27.343750
2448		-19.531250
2449		-21.484375
2450		-17.578125
2451		-19.531250
2452		-13.671875
2453		-19.531250
2454		-11.718750
2455		-17.578125
2456		-9.765625
2457		-15.625000
2458		-5.859375
2459		-11.718750
2460		-3.906250
2461		-9.765625
2462		0.000000
2463		-7.812500
2464		1.953125
2465		-1.953125
2466		1.953125
2467		0.000000
2468		3.906250
2469		1.953125
2470		9.765625
2471		1.953125
2472		11.718750
2473		5.859375
2474		13.671875
2475		7.812500
2476		17.578125
2477		11.718750
2478		19.531250
2479		13.671875
2480		23.437500
2481		17.578125
2482		23.437500
2483		21.484375
2484		27.343750
2485		25.390625
2486		31.250000
2487		25.390625
2488		33.203125
2489		27.343750
2490		35.156250
2491		29.296875
2492		37.109375
2493		31.250000
2494		39.062500
2495		33.203125
2496		42.968750
2497		35.156250
2498		42.968750
2499		41.015625
2500		44.921875
2501		42.968750
2502		46.875000
2503		42.968750
2504		50.781250
2505		42.968750
2506		52.734375
2507		44.921875
2508		52.734375
2509		46.875000
2510		54.687500
2511		48.828125
2512		56.640625
2513		50.781250
2514		58.593750
2515		52.734375
2516		58.593750
2517		56.640625
2518		58.593750
2519		54.687500
2520		62.500000
2521		56.640625
2522		62.500000
2523		56.640625
2524		64.453125
2525		56.640625
2526		64.453125
2527		58.593750
2528		64.453125
2529		58.593750
2530		66.406250
2531		58.593750
2532		66.406250
2533		62.500000
2534		64.453125
2535		60.546875
2536		64.453125
2537		58.593750
2538		66.406250
2539		58.593750
2540		66.406250
2541		58.593750
2542		66.406250
2543		58.593750
2544		66.406250
2545		58.593750
2546		66.406250
2547		58.593750
2548		64.453125
2549		60.546875
2550		62.500000
2551		58.593750
2552		60.546875
2553		54.687500
2554		62.500000
2555		54.687500
2556		62.500000
2557		52.734375
2558		60.546875
2559		52.734375
2560		60.546875
2561		50.781250
2562		58.593750
2563		48.828125
2564		56.640625
2565		48.828125
2566		54.687500
2567		48.828125
2568		50.781250
2569		44.921875
2570		50.781250
2571		41.015625
2572		50.781250
2573		41.015625
2574		48.828125
2575		39.062500
2576		44.921875
2577		37.109375
2578		42.968750
2579		33.203125
2580		42.968750
2581		33.203125
2582		39.062500
2583		31.250000
2584		35.156250
2585		29.296875
2586		33.203125
2587		23.437500
2588		31.250000
2589		21.484375
2590		31.250000
2591		19.531250
2592		27.343750
2593		17.578125
2594		25.390625
2595		13.671875
2596		21.484375
2597		11.718750
2598		19.531250
2599		11.718750
2600		17.578125
2601		7.812500
2602		13.671875
2603		3.906250
2604		9.765625
2605		0.000000
2606		9.765625
2607		-1.953125
2608		5.859375
2609		-3.906250
2610		3.906250
2611		-7.812500
2612		0.000000
2613		-9.765625
2614		-1.953125
2615		-11.718750
2616		-3.906250
2617		-13.671875
2618		-9.765625
2619		-15.625000
2620		-11.718750
2621		-21.484375
2622		-11.718750
2623		-23.437500
2624		-15.625000
2625		-25.390625
2626		-17.578125
2627		-27.343750
2628		-19.531250
2629		-29.296875
2630		-21.484375
2631		-31.250000
2632		-23.437500
2633		-31.250000
2634		-27.343750
2635		-33.203125
2636		-29.296875
2637		-37.109375
2638		-29.296875
2639		-39.062500
2640		-31.250000
2641		-41.015625
2642		-33.203125
2643		-41.015625
2644		-35.156250
2645		-42.968750
2646		-35.156250
2647		-44.921875
2648		-37.109375
2649		-44.921875
2650		-39.062500
2651		-42.968750
2652		-41.015625
2653		-46.875000
2654		-41.015625
2655		-48.828125
2656		-41.015625
2657		-48.828125
2658		-41.015625
2659		-48.828125
2660		-41.015625
2661		-48.828125
2662		-41.015625
2663		-48.828125
2664		-41.015625
2665		-48.828125
2666		-42.968750
2667		-46.875000
2668		-42.968750
2669		-46.875000
2670		-42.968750
2671		-46.875000
2672		-41.015625
2673		-46.875000
2674		-39.062500
2675		-46.875000
2676		-39.062500
2677		-44.921875
2678		-39.062500
2679		-44.921875
2680		-37.109375
2681		-42.968750
2682		-35.156250
2683		-42.968750
2684		-35.156250
2685		-39.062500
2686		-35.156250
2687		-37.109375
2688		-31.250000
2689		-37.109375
2690		-29.296875
2691		-35.156250
2692		-27.343750
2693		-33.203125
2694		-25.390625
2695		-31.250000
2696		-23.437500
2697		-29.296875
2698		-21.484375
2699		-27.343750
2700		-19.531250
2701		-23.437500
2702		-19.531250
2703		-19.531250
2704		-15.625000
2705		-19.531250
2706		-11.718750
2707		-17.578125
2708		-9.765625
2709		-15.625000
2710		-7.812500
2711		-13.671875
2712		-3.906250
2713		-11.718750
2714		-1.953125
2715		-7.812500
2716		0.000000
2717		-1.953125
2718		1.953125
2719		0.000000
2720		3.906250
2721		1.953125
2722		9.765625
2723		3.906250
2724		11.718750
2725		5.859375
2726		13.671875
2727		9.765625
2728		17.578125
2729		11.718750
2730		19.531250
2731		13.671875
2732		21.484375
2733		17.578125
2734		23.437500
2735		21.484375
2736		25.390625
2737		23.437500
2738		29.296875
2739		23.437500
2740		31.250000
2741		27.343750
2742		35.156250
2743		29.296875
2744		37.109375
2745		31.250000
2746		39.062500
2747		33.203125
2748		42.968750
2749		35.156250
2750		42.968750
2751		41.015625
2752		42.968750
2753		42.968750
2754		44.921875
2755		42.968750
2756		48.828125
2757		44.921875
2758		50.781250
2759		46.875000
2760		52.734375
2761		46.875000
2762		54.687500
2763		48.828125
2764		56.640625
2765		50.781250
2766		58.593750
2767		50.781250
2768		58.593750
2769		54.687500
2770		58.593750
2771		54.687500
2772		62.500000
2773		54.687500
2774		62.500000
2775		56.640625
2776		62.500000
2777		56.640625
2778		64.453125
2779		58.593750
2780		64.453125
2781		58.593750
2782		64.453125
2783		58.593750
2784		66.406250
2785		60.546875
2786		64.453125
2787		62.500000
2788		64.453125
2789		58.593750
2790		66.406250
2791		58.593750
2792		66.406250
2793		58.593750
2794		66.406250
2795		58.593750
2796		66.406250
2797		58.593750
2798		66.406250
2799		56.640625
2800		64.453125
2801		60.546875
2802		62.500000
2803		58.593750
2804		60.546875
2805		54.687500
2806		62.500000
2807		54.687500
2808		62.500000
2809		52.734375
2810		60.546875
2811		50.781250
2812		60.546875
2813		50.781250
2814		58.593750
2815		48.828125
2816		56.640625
2817		48.828125
2818		54.687500
2819		48.828125
2820		52.734375
2821		44.921875
2822		50.781250
2823		42.968750
2824		50.781250
2825		41.015625
2826		48.828125
2827		37.109375
2828		46.875000
2829		35.156250
2830		44.921875
2831		35.156250
2832		42.968750
2833		31.250000
2834		39.062500
2835		31.250000
2836		35.156250
2837		29.296875
2838		33.203125
2839		23.437500
2840		33.203125
2841		21.484375
2842		31.250000
2843		19.531250
2844		27.343750
2845		15.625000
2846		25.390625
2847		13.671875
2848		21.484375
2849		11.718750
2850		19.531250
2851		11.718750
2852		17.578125
2853		7.812500
2854		13.671875
2855		3.906250
2856		9.765625
2857		0.000000
2858		9.765625
2859		-1.953125
2860		5.859375
2861		-3.906250
2862		3.906250
2863		-7.812500
2864		0.000000
2865		-9.765625
2866		-1.953125
2867		-11.718750
2868		-3.906250
2869		-13.671875
2870		-9.765625
2871		-15.625000
2872		-11.718750
2873		-19.531250
2874		-11.718750
2875		-21.484375
2876		-13.671875
2877		-25.390625
2878		-17.578125
2879		-27.343750
2880		-19.531250
2881		-29.296875
2882		-21.484375
2883		-31.250000
2884		-23.437500
2885		-31.250000
2886		-27.343750
2887		-33.203125
2888		-29.296875
2889		-37.109375
2890		-31.250000
2891		-39.062500
2892		-31.250000
2893		-41.015625
2894		-33.203125
2895		-42.968750
2896		-33.203125
2897		-42.968750
2898		-35.156250
2899		-44.921875
2900		-37.109375
2901		-44.921875
2902		-37.109375
2903		-44.921875
2904		-41.015625
2905		-46.875000
2906		-42.968750
2907		-48.828125
2908		-41.015625
2909		-48.828125
2910		-41.015625
2911		-48.828125
2912		-42.968750
2913		-48.828125
2914		-42.968750
2915		-48.828125
2916		-42.968750
2917		-48.828125
2918		-42.968750
2919		-46.875000
2920		-44.921875
2921		-46.875000
2922		-44.921875
2923		-48.828125
2924		-41.015625
2925		-46.875000
2926		-41.015625
2927		-46.875000
2928		-39.062500
2929		-46.875000
2930		-39.062500
2931		-44.921875
2932		-37.109375
2933		-44.921875
2934		-37.109375
2935		-42.968750
2936		-37.109375
2937		-39.062500
2938		-37.109375
2939		-39.062500
2940		-33.203125
2941		-39.062500
2942		-31.250000
2943		-37.109375
2944		-29.296875
2945		-35.156250
2946		-27.343750
2947		-33.203125
2948		-25.390625
2949		-31.250000
2950		-23.437500
2951		-29.296875
2952		-21.484375
2953		-23.437500
2954		-19.531250
2955		-21.484375
2956		-17.578125
2957		-21.484375
2958		-13.671875
2959		-19.531250
2960		-11.718750
2961		-17.578125
2962		-7.812500
2963		-13.671875
2964		-5.859375
2965		-11.718750
2966		-3.906250
2967		-9.765625
2968		0.000000
2969		-5.859375
2970		0.000000
2971		-1.953125
2972		1.953125
2973		0.000000
2974		7.812500
2975		1.953125
2976		9.765625
2977		3.906250
2978		13.671875
2979		5.859375
2980		15.625000
2981		9.765625
2982		17.578125
2983		11.718750
2984		21.484375
2985		15.625000
2986		21.484375
2987		19.531250
2988		23.437500
2989		21.484375
2990		27.343750
2991		21.484375
2992		31.250000
2993		25.390625
2994		33.203125
2995		27.343750
2996		35.156250
2997		29.296875
2998		37.109375
2999		31.250000
3000		41.015625
3001		33.203125
3002		41.015625
3003		39.062500
3004		42.968750
3005		41.015625
3006		44.921875
3007		41.015625
3008		48.828125
3009		42.968750
3010		48.828125
3011		44.921875
3012		52.734375
3013		44.921875
3014		54.687500
3015		46.875000
3016		54.687500
3017		48.828125
3018		56.640625
3019		50.781250
3020		56.640625
3021		54.687500
3022		56.640625
3023		52.734375
3024		60.546875
3025		52.734375
3026		62.500000
3027		54.687500
3028		62.500000
3029		54.687500
3030		62.500000
3031		56.640625
3032		64.453125
3033		56.640625
3034		64.453125
3035		56.640625
3036		64.453125
3037		60.546875
3038		62.500000
3039		60.546875
3040		64.453125
3041		58.593750
3042		66.406250
3043		58.593750
3044		66.406250
3045		58.593750
3046		64.453125
3047		58.593750
3048		66.406250
3049		58.593750
3050		64.453125
3051		58.593750
3052		64.453125
3053		56.640625
3054		64.453125
3055		58.593750
3056		62.500000
3057		54.687500
3058		62.500000
3059		54.687500
3060		62.500000
3061		52.734375
3062		60.546875
3063		50.781250
3064		60.546875
3065		50.781250
3066		58.593750
3067		48.828125
3068		56.640625
3069		48.828125
3070		54.687500
3071		48.828125
3072		52.734375
3073		44.921875
3074		50.781250
3075		42.968750
3076		50.781250
3077		41.015625
3078		48.828125
3079		39.062500
3080		46.875000
3081		37.109375
3082		44.921875
3083		35.156250
3084		42.968750
3085		31.250000
3086		41.015625
3087		31.250000
3088		35.156250
3089		29.296875
3090		35.156250
3091		25.390625
3092		33.203125
3093		21.484375
3094		31.250000
3095		19.531250
3096		29.296875
3097		17.578125
3098		27.343750
3099		15.625000
3100		25.390625
3101		11.718750
3102		21.484375
3103		11.718750
3104		17.578125
3105		9.765625
3106		13.671875
3107		3.906250
3108		11.718750
3109		1.953125
3110		9.765625
3111		0.000000
3112		7.812500
3113		-3.906250
3114		3.906250
3115		-5.859375
3116		1.953125
3117		-7.812500
3118		0.000000
3119		-11.718750
3120		-3.906250
3121		-11.718750
3122		-7.812500
3123		-15.625000
3124		-11.718750
3125		-19.531250
3126		-11.718750
3127		-21.484375
3128		-13.671875
3129		-25.390625
3130		-15.625000
3131		-27.343750
3132		-19.531250
3133		-29.296875
3134		-21.484375
3135		-31.250000
3136		-23.437500
3137		-31.250000
3138		-25.390625
3139		-33.203125
3140		-29.296875
3141		-39.062500
3142		-29.296875
3143		-39.062500
3144		-31.250000
3145		-41.015625
3146		-33.203125
3147		-41.015625
3148		-35.156250
3149		-42.968750
3150		-35.156250
3151		-44.921875
3152		-37.109375
3153		-44.921875
3154		-37.109375
3155		-44.921875
3156		-41.015625
3157		-44.921875
3158		-42.968750
3159		-46.875000
3160		-41.015625
3161		-48.828125
3162		-41.015625
3163		-48.828125
3164		-41.015625
3165		-48.828125
3166		-42.968750
3167		-48.828125
3168		-42.968750
3169		-48.828125
3170		-42.968750
3171		-46.875000
3172		-44.921875
3173		-46.875000
3174		-44.921875
3175		-46.875000
3176		-42.968750
3177		-48.828125
3178		-41.015625
3179		-46.875000
3180		-39.062500
3181		-46.875000
3182		-39.062500
3183		-44.921875
3184		-39.062500
3185		-44.921875
3186		-37.109375
3187		-42.968750
3188		-37.109375
3189		-39.062500
3190		-37.109375
3191		-39.062500
3192		-33.203125
3193		-39.062500
3194		-31.250000
3195		-37.109375
3196		-29.296875
3197		-35.156250
3198		-27.343750
3199		-33.203125
3200		-25.390625
3201		-31.250000
3202		-23.437500
3203		-29.296875
3204		-21.484375
3205		-25.390625
3206		-21.484375
3207		-21.484375
3208		-19.531250
3209		-21.484375
3210		-13.671875
3211		-19.531250
3212		-11.718750
3213		-17.578125
3214		-9.765625
3215		-11.718750
3216		-7.812500
3217		-11.718750
3218		-5.859375
3219		-9.765625
3220		-1.953125
3221		-7.812500
3222		0.000000
3223		-1.953125
3224		1.953125
3225		0.000000
3226		5.859375
3227		1.953125
3228		9.765625
3229		3.906250
3230		11.718750
3231		5.859375
3232		13.671875
3233		11.718750
3234		17.578125
3235		11.718750
3236		19.531250
3237		15.625000
3238		21.484375
3239		19.531250
3240		23.437500
3241		21.484375
3242		27.343750
3243		21.484375
3244		31.250000
3245		25.390625
3246		31.250000
3247		29.296875
3248		33.203125
3249		31.250000
3250		35.156250
3251		33.203125
3252		39.062500
3253		33.203125
3254		41.015625
3255		37.109375
3256		41.015625
3257		41.015625
3258		42.968750
3259		41.015625
3260		48.828125
3261		41.015625
3262		50.781250
3263		44.921875
3264		50.781250
3265		46.875000
3266		50.781250
3267		48.828125
3268		52.734375
3269		50.781250
3270		54.687500
3271		50.781250
3272		56.640625
3273		54.687500
3274		56.640625
3275		54.687500
3276		58.593750
3277		56.640625
3278		58.593750
3279		56.640625
3280		60.546875
3281		58.593750
3282		60.546875
3283		58.593750
3284		62.500000
3285		58.593750
3286		62.500000
3287		58.593750
3288		64.453125
3289		60.546875
3290		62.500000
3291		60.546875
3292		62.500000
3293		60.546875
3294		64.453125
3295		62.500000
3296		64.453125
3297		60.546875
3298		64.453125
3299		60.546875
3300		62.500000
3301		60.546875
3302		62.500000
3303		60.546875
3304		62.500000
3305		58.593750
3306		62.500000
3307		58.593750
3308		60.546875
3309		56.640625
3310		60.546875
3311		56.640625
3312		60.546875
3313		56.640625
3314		60.546875
3315		54.687500
3316		58.593750
3317		52.734375
3318		56.640625
3319		50.781250
3320		56.640625
3321		50.781250
3322		54.687500
3323		48.828125
3324		52.734375
3325		46.875000
3326		50.781250
3327		46.875000
3328		48.828125
3329		42.968750
3330		46.875000
3331		41.015625
3332		46.875000
3333		39.062500
3334		42.968750
3335		37.109375
3336		42.968750
3337		35.156250
3338		39.062500
3339		33.203125
3340		37.109375
3341		31.250000
3342		35.156250
3343		27.343750
3344		33.203125
3345		25.390625
3346		31.250000
3347		23.437500
3348		27.343750
3349		21.484375
3350		25.390625
3351		17.578125
3352		21.484375
3353		15.625000
3354		19.531250
3355		11.718750
3356		17.578125
3357		9.765625
3358		13.671875
3359		7.812500
3360		11.718750
3361		3.906250
3362		9.765625
3363		1.953125
3364		5.859375
3365		-1.953125
3366		3.906250
3367		-3.906250
3368		0.000000
3369		-5.859375
3370		-1.953125
3371		-9.765625
3372		-3.906250
3373		-11.718750
3374		-7.812500
3375		-13.671875
3376		-9.765625
3377		-17.578125
3378		-11.718750
3379		-19.531250
3380		-15.625000
3381		-21.484375
3382		-17.578125
3383		-25.390625
3384		-19.531250
3385		-25.390625
3386		-21.484375
3387		-29.296875
3388		-23.437500
3389		-31.250000
3390		-25.390625
3391		-31.250000
3392		-29.296875
3393		-35.156250
3394		-31.250000
3395		-35.156250
3396		-33.203125
3397		-37.109375
3398		-33.203125
3399		-39.062500
3400		-35.156250
3401		-41.015625
3402		-37.109375
3403		-42.968750
3404		-39.062500
3405		-42.968750
3406		-39.062500
3407		-44.921875
3408		-41.015625
3409		-44.921875
3410		-42.968750
3411		-46.875000
3412		-42.968750
3413		-46.875000
3414		-42.968750
3415		-46.875000
3416		-42.968750
3417		-46.875000
3418		-44.921875
3419		-46.875000
3420		-44.921875
3421		-48.828125
3422		-44.921875
3423		-46.875000
3424		-44.921875
3425		-46.875000
3426		-44.921875
3427		-46.875000
3428		-42.968750
3429		-46.875000
3430		-42.968750
3431		-44.921875
3432		-42.968750
3433		-44.921875
3434		-41.015625
3435		-44.921875
3436		-41.015625
3437		-42.968750
3438		-39.062500
3439		-42.968750
3440		-37.109375
3441		-41.015625
3442		-37.109375
3443		-39.062500
3444		-35.156250
3445		-37.109375
3446		-33.203125
3447		-35.156250
3448		-31.250000
3449		-35.156250
3450		-31.250000
3451		-31.250000
3452		-27.343750
3453		-29.296875
3454		-25.390625
3455		-27.343750
3456		-23.437500
3457		-25.390625
3458		-21.484375
3459		-23.437500
3460		-19.531250
3461		-21.484375
3462		-17.578125
3463		-19.531250
3464		-15.625000
3465		-17.578125
3466		-11.718750
3467		-13.671875
3468		-9.765625
3469		-11.718750
3470		-7.812500
3471		-7.812500
3472		-3.906250
3473		-5.859375
3474		-1.953125
3475		-3.906250
3476		0.000000
3477		0.000000
3478		3.906250
3479		1.953125
3480		5.859375
3481		3.906250
3482		9.765625
3483		7.812500
3484		11.718750
3485		9.765625
3486		13.671875
3487		11.718750
3488		17.578125
3489		15.625000
3490		19.531250
3491		17.578125
3492		21.484375
3493		21.484375
3494		25.390625
3495		23.437500
3496		27.343750
3497		25.390625
3498		29.296875
3499		27.343750
3500		31.250000
3501		31.250000
3502		35.156250
3503		33.203125
3504		37.109375
3505		35.156250
3506		39.062500
3507		35.156250
3508		41.015625
3509		39.062500
3510		42.968750
3511		41.015625
3512		44.921875
3513		42.968750
3514		46.875000
3515		44.921875
3516		48.828125
3517		46.875000
3518		50.781250
3519		48.828125
3520		52.734375
3521		50.781250
3522		54.687500
3523		52.734375
3524		54.687500
3525		52.734375
3526		56.640625
3527		54.687500
3528		58.593750
3529		54.687500
3530		58.593750
3531		56.640625
3532		60.546875
3533		56.640625
3534		60.546875
3535		58.593750
3536		62.500000
3537		58.593750
3538		62.500000
3539		58.593750
3540		62.500000
3541		60.546875
3542		62.500000
3543		60.546875
3544		62.500000
3545		60.546875
3546		64.453125
3547		60.546875
3548		64.453125
3549		60.546875
3550		64.453125
3551		60.546875
3552		64.453125
3553		60.546875
3554		64.453125
3555		60.546875
3556		62.500000
3557		58.593750
3558		62.500000
3559		58.593750
3560		62.500000
3561		58.593750
3562		62.500000
3563		56.640625
3564		60.546875
3565		56.640625
3566		58.593750
3567		54.687500
3568		58.593750
3569		52.734375
3570		56.640625
3571		52.734375
3572		56.640625
3573		50.781250
3574		54.687500
3575		48.828125
3576		52.734375
3577		48.828125
3578		50.781250
3579		46.875000
3580		50.781250
3581		44.921875
3582		48.828125
3583		42.968750
3584		46.875000
3585		41.015625
3586		42.968750
3587		39.062500
3588		42.968750
3589		35.156250
3590		41.015625
3591		33.203125
3592		39.062500
3593		31.250000
3594		35.156250
3595		29.296875
3596		33.203125
3597		25.390625
3598		31.250000
3599		23.437500
3600		27.343750
3601		21.484375
3602		25.390625
3603		19.531250
3604		23.437500
3605		15.625000
3606		21.484375
3607		13.671875
3608		17.578125
3609		11.718750
3610		15.625000
3611		7.812500
3612		11.718750
3613		3.906250
3614		9.765625
3615		1.953125
3616		5.859375
3617		0.000000
3618		3.906250
3619		-1.953125
3620		1.953125
3621		-5.859375
3622		0.000000
3623		-9.765625
3624		-3.906250
3625		-9.765625
3626		-5.859375
3627		-13.671875
3628		-9.765625
3629		-15.625000
3630		-11.718750
3631		-17.578125
3632		-13.671875
3633		-21.484375
3634		-15.625000
3635		-23.437500
3636		-17.578125
3637		-25.390625
3638		-21.484375
3639		-27.343750
3640		-23.437500
3641		-29.296875
3642		-25.390625
3643		-31.250000
3644		-27.343750
3645		-33.203125
3646		-29.296875
3647		-35.156250
3648		-31.250000
3649		-37.109375
3650		-33.203125
3651		-39.062500
3652		-35.156250
3653		-41.015625
3654		-37.109375
3655		-41.015625
3656		-37.109375
3657		-42.968750
3658		-39.062500
3659		-42.968750
3660		-41.015625
3661		-44.921875
3662		-41.015625
3663		-44.921875
3664		-41.015625
3665		-46.875000
3666		-42.968750
3667		-46.875000
3668		-42.968750
3669		-46.875000
3670		-44.921875
3671		-46.875000
3672		-44.921875
3673		-46.875000
3674		-44.921875
3675		-46.875000
3676		-44.921875
3677		-46.875000
3678		-44.921875
3679		-46.875000
3680		-42.968750
3681		-46.875000
3682		-42.968750
3683		-44.921875
3684		-41.015625
3685		-44.921875
3686		-41.015625
3687		-42.968750
3688		-41.015625
3689		-42.968750
3690		-39.062500
3691		-42.968750
3692		-39.062500
3693		-39.062500
3694		-37.109375
3695		-39.062500
3696		-35.156250
3697		-37.109375
3698		-33.203125
3699		-35.156250
3700		-31.250000
3701		-33.203125
3702		-31.250000
3703		-33.203125
3704		-27.343750
3705		-31.250000
3706		-25.390625
3707		-27.343750
3708		-23.437500
3709		-25.390625
3710		-21.484375
3711		-23.437500
3712		-19.531250
3713		-21.484375
3714		-15.625000
3715		-19.531250
3716		-15.625000
3717		-17.578125
3718		-11.718750
3719		-13.671875
3720		-9.765625
3721		-11.718750
3722		-7.812500
3723		-9.765625
3724		-3.906250
3725		-7.812500
3726		-1.953125
3727		-3.906250
3728		0.000000
3729		0.000000
3730		3.906250
3731		1.953125
3732		5.859375
3733		3.906250
3734		9.765625
3735		5.859375
3736		11.718750
3737		9.765625
3738		13.671875
3739		11.718750
3740		17.578125
3741		13.671875
3742		19.531250
3743		17.578125
3744		21.484375
3745		19.531250
3746		25.390625
3747		21.484375
3748		27.343750
3749		25.390625
3750		29.296875
3751		27.343750
3752		33.203125
3753		31.250000
3754		35.156250
3755		33.203125
3756		37.109375
3757		35.156250
3758		39.062500
3759		35.156250
3760		41.015625
3761		39.062500
3762		42.968750
3763		41.015625
3764		44.921875
3765		42.968750
3766		46.875000
3767		44.921875
3768		48.828125
3769		46.875000
3770		50.781250
3771		48.828125
3772		52.734375
3773		50.781250
3774		54.687500
3775		50.781250
3776		54.687500
3777		52.734375
3778		56.640625
3779		54.687500
3780		58.593750
3781		54.687500
3782		60.546875
3783		56.640625
3784		60.546875
3785		56.640625
3786		60.546875
3787		58.593750
3788		62.500000
3789		58.593750
3790		62.500000
3791		60.546875
3792		64.453125
3793		60.546875
3794		64.453125
3795		60.546875
3796		64.453125
3797		60.546875
3798		64.453125
3799		60.546875
3800		64.453125
3801		60.546875
3802		64.453125
3803		60.546875
3804		64.453125
3805		60.546875
3806		64.453125
3807		60.546875
3808		64.453125
3809		60.546875
3810		64.453125
3811		60.546875
3812		62.500000
3813		58.593750
3814		62.500000
3815		58.593750
3816		62.500000
3817		56.640625
3818		60.546875
3819		56.640625
3820		58.593750
3821		54.687500
3822		58.593750
3823		52.734375
3824		56.640625
3825		50.781250
3826		56.640625
3827		50.781250
3828		52.734375
3829		48.828125
3830		52.734375
3831		46.875000
3832		50.781250
3833		44.921875
3834		48.828125
3835		42.968750
3836		46.875000
3837		41.015625
3838		44.921875
3839		39.062500
3840		42.968750
3841		37.109375
3842		41.015625
3843		35.156250
3844		39.062500
3845		31.250000
3846		37.109375
3847		29.296875
3848		35.156250
3849		27.343750
3850		31.250000
3851		25.390625
3852		29.296875
3853		21.484375
3854		27.343750
3855		19.531250
3856		23.437500
3857		17.578125
3858		21.484375
3859		13.671875
3860		19.531250
3861		11.718750
3862		15.625000
3863		7.812500
3864		13.671875
3865		5.859375
3866		9.765625
3867		3.906250
3868		7.812500
3869		1.953125
3870		5.859375
3871		-1.953125
3872		1.953125
3873		-5.859375
3874		0.000000
3875		-7.812500
3876		-1.953125
3877		-9.765625
3878		-5.859375
3879		-11.718750
3880		-7.812500
3881		-15.625000
3882		-9.765625
3883		-17.578125
3884		-11.718750
3885		-19.531250
3886		-15.625000
3887		-21.484375
3888		-17.578125
3889		-25.390625
3890		-19.531250
3891		-27.343750
3892		-23.437500
3893		-29.296875
3894		-25.390625
3895		-31.250000
3896		-27.343750
3897		-33.203125
3898		-29.296875
3899		-35.156250
3900		-31.250000
3901		-37.109375
3902		-31.250000
3903		-37.109375
3904		-35.156250
3905		-41.015625
3906		-35.156250
3907		-41.015625
3908		-37.109375
3909		-42.968750
3910		-39.062500
3911		-42.968750
3912		-39.062500
3913		-44.921875
3914		-41.015625
3915		-44.921875
3916		-41.015625
3917		-44.921875
3918		-42.968750
3919		-46.875000
3920		-42.968750
3921		-46.875000
3922		-42.968750
3923		-46.875000
3924		-44.921875
3925		-46.875000
3926		-44.921875
3927		-48.828125
3928		-42.968750
3929		-46.875000
3930		-44.921875
3931		-46.875000
3932		-42.968750
3933		-46.875000
3934		-42.968750
3935		-46.875000
3936		-42.968750
3937		-44.921875
3938		-41.015625
3939		-44.921875
3940		-41.015625
3941		-42.968750
3942		-39.062500
3943		-42.968750
3944		-39.062500
3945		-41.015625
3946		-37.109375
3947		-39.062500
3948		-35.156250
3949		-39.062500
3950		-33.203125
3951		-37.109375
3952		-31.250000
3953		-35.156250
3954		-31.250000
3955		-33.203125
3956		-29.296875
3957		-31.250000
3958		-27.343750
3959		-29.296875
3960		-23.437500
3961		-25.390625
3962		-23.437500
3963		-23.437500
3964		-19.531250
3965		-21.484375
3966		-17.578125
3967		-19.531250
3968		-15.625000
3969		-17.578125
3970		-11.718750
3971		-15.625000
3972		-9.765625
3973		-11.718750
3974		-7.812500
3975		-9.765625
3976		-5.859375
3977		-7.812500
3978		-1.953125
3979		-3.906250
3980		0.000000
3981		-1.953125
3982		3.906250
3983		0.000000
3984		5.859375
3985		3.906250
3986		7.812500
3987		5.859375
3988		11.718750
3989		7.812500
3990		13.671875
3991		11.718750
3992		15.625000
3993		13.671875
3994		19.531250
3995		17.578125
3996		21.484375
3997		19.531250
3998		23.437500
3999		21.484375
4000		27.343750
4001		25.390625
4002		29.296875
4003		27.343750
4004		31.250000
4005		29.296875
4006		35.156250
4007		31.250000
4008		37.109375
4009		35.156250
4010		39.062500
4011		35.156250
4012		41.015625
4013		39.062500
4014		42.968750
4015		41.015625
4016		44.921875
4017		42.968750
4018		46.875000
4019		44.921875
4020		48.828125
4021		46.875000
4022		50.781250
4023		48.828125
4024		52.734375
4025		48.828125
4026		54.687500
4027		50.781250
4028		54.687500
4029		52.734375
4030		56.640625
4031		54.687500
4032		56.640625
4033		54.687500
4034		58.593750
4035		56.640625
4036		60.546875
4037		56.640625
4038		60.546875
4039		58.593750
4040		62.500000
4041		58.593750
4042		62.500000
4043		60.546875
4044		62.500000
4045		60.546875
4046		62.500000
4047		60.546875
4048		62.500000
4049		60.546875
4050		64.453125
4051		60.546875
4052		64.453125
4053		60.546875
4054		64.453125
4055		60.546875
4056		64.453125
4057		60.546875
4058		64.453125
4059		60.546875
4060		64.453125
4061		60.546875
4062		64.453125
4063		60.546875
4064		62.500000
4065		58.593750
4066		62.500000
4067		58.593750
4068		60.546875
4069		56.640625
4070		60.546875
4071		56.640625
4072		60.546875
4073		54.687500
4074		58.593750
4075		54.687500
4076		56.640625
4077		50.781250
4078		56.640625
4079		50.781250
4080		54.687500
4081		48.828125
4082		52.734375
4083		46.875000
4084		50.781250
4085		44.921875
4086		48.828125
4087		42.968750
4088		46.875000
4089		41.015625
4090		44.921875
4091		39.062500
4092		44.921875
4093		37.109375
4094		42.968750
4095		35.156250
4096		39.062500
4097		33.203125
4098		37.109375
4099		29.296875
4100		35.156250
4101		27.343750
4102		31.250000
4103		25.390625
4104		29.296875
4105		23.437500
4106		27.343750
4107		19.531250
4108		25.390625
4109		17.578125
4110		21.484375
4111		15.625000
4112		19.531250
4113		11.718750
4114		15.625000
4115		9.765625
4116		13.671875
4117		5.859375
4118		11.718750
4119		3.906250
4120		9.765625
4121		1.953125
4122		5.859375
4123		-1.953125
4124		3.906250
4125		-3.906250
4126		0.000000
4127		-5.859375
4128		-1.953125
4129		-9.765625
4130		-3.906250
4131		-11.718750
4132		-7.812500
4133		-13.671875
4134		-9.765625
4135		-15.625000
4136		-13.671875
4137		-19.531250
4138		-15.625000
4139		-21.484375
4140		-17.578125
4141		-23.437500
4142		-19.531250
4143		-25.390625
4144		-21.484375
4145		-29.296875
4146		-23.437500
4147		-29.296875
4148		-25.390625
4149		-33.203125
4150		-29.296875
4151		-33.203125
4152		-29.296875
4153		-35.156250
4154		-31.250000
4155		-37.109375
4156		-33.203125
4157		-39.062500
4158		-35.156250
4159		-41.015625
4160		-37.109375
4161		-42.968750
4162		-37.109375
4163		-42.968750
4164		-39.062500
4165		-44.921875
4166		-41.015625
4167		-44.921875
4168		-41.015625
4169		-46.875000
4170		-42.968750
4171		-44.921875
4172		-42.968750
4173		-46.875000
4174		-42.968750
4175		-46.875000
4176		-42.968750
4177		-46.875000
4178		-42.968750
4179		-46.875000
4180		-42.968750
4181		-46.875000
4182		-44.921875
4183		-46.875000
4184		-42.968750
4185		-46.875000
4186		-42.968750
4187		-46.875000
4188		-42.968750
4189		-44.921875
4190		-41.015625
4191		-44.921875
4192		-41.015625
4193		-42.968750
4194		-41.015625
4195		-42.968750
4196		-37.109375
4197		-41.015625
4198		-37.109375
4199		-39.062500
4200		-37.109375
4201		-39.062500
4202		-35.156250
4203		-37.109375
4204		-33.203125
4205		-35.156250
4206		-31.250000
4207		-33.203125
4208		-29.296875
4209		-31.250000
4210		-27.343750
4211		-29.296875
4212		-25.390625
4213		-27.343750
4214		-23.437500
4215		-25.390625
4216		-21.484375
4217		-23.437500
4218		-17.578125
4219		-19.531250
4220		-15.625000
4221		-17.578125
4222		-13.671875
4223		-15.625000
4224		-11.718750
4225		-13.671875
4226		-9.765625
4227		-9.765625
4228		-5.859375
4229		-7.812500
4230		-3.906250
4231		-3.906250
4232		0.000000
4233		-1.953125
4234		1.953125
4235		0.000000
4236		5.859375
4237		3.906250
4238		7.812500
4239		5.859375
4240		9.765625
4241		7.812500
4242		11.718750
4243		9.765625
4244		15.625000
4245		13.671875
4246		17.578125
4247		15.625000
4248		21.484375
4249		19.531250
4250		23.437500
4251		21.484375
4252		27.343750
4253		23.437500
4254		27.343750
4255		25.390625
4256		31.250000
4257		29.296875
4258		33.203125
4259		31.250000
4260		35.156250
4261		33.203125
4262		37.109375
4263		35.156250
4264		41.015625
4265		39.062500
4266		42.968750
4267		41.015625
4268		44.921875
4269		42.968750
4270		44.921875
4271		44.921875
4272		48.828125
4273		46.875000
4274		48.828125
4275		46.875000
4276		50.781250
4277		48.828125
4278		52.734375
4279		50.781250
4280		54.687500
4281		52.734375
4282		56.640625
4283		54.687500
4284		56.640625
4285		54.687500
4286		58.593750
4287		56.640625
4288		60.546875
4289		58.593750
4290		60.546875
4291		58.593750
4292		62.500000
4293		58.593750
4294		62.500000
4295		58.593750
4296		62.500000
4297		60.546875
4298		62.500000
4299		60.546875
4300		62.500000
4301		60.546875
4302		64.453125
4303		62.500000
4304		64.453125
4305		62.500000
4306		64.453125
4307		60.546875
4308		64.453125
4309		60.546875
4310		64.453125
4311		60.546875
4312		64.453125
4313		60.546875
4314		64.453125
4315		60.546875
4316		62.500000
4317		58.593750
4318		62.500000
4319		58.593750
4320		60.546875
4321		58.593750
4322		60.546875
4323		56.640625
4324		60.546875
4325		54.687500
4326		58.593750
4327		52.734375
4328		56.640625
4329		50.781250
4330		56.640625
4331		50.781250
4332		54.687500
4333		50.781250
4334		52.734375
4335		48.828125
4336		50.781250
4337		46.875000
4338		50.781250
4339		42.968750
4340		48.828125
4341		42.968750
4342		46.875000
4343		41.015625
4344		44.921875
4345		39.062500
4346		42.968750
4347		37.109375
4348		41.015625
4349		33.203125
4350		37.109375
4351		31.250000
4352		35.156250
4353		29.296875
4354		33.203125
4355		27.343750
4356		31.250000
4357		23.437500
4358		27.343750
4359		21.484375
4360		25.390625
4361		19.531250
4362		23.437500
4363		15.625000
4364		21.484375
4365		13.671875
4366		17.578125
4367		11.718750
4368		15.625000
4369		7.812500
4370		13.671875
4371		3.906250
4372		9.765625
4373		1.953125
4374		5.859375
4375		0.000000
4376		3.906250
4377		-1.953125
4378		1.953125
4379		-5.859375
4380		-1.953125
4381		-7.812500
4382		-3.906250
4383		-9.765625
4384		-5.859375
4385		-13.671875
4386		-9.765625
4387		-15.625000
4388		-11.718750
4389		-17.578125
4390		-13.671875
4391		-21.484375
4392		-17.578125
4393		-23.437500
4394		-19.531250
4395		-25.390625
4396		-21.484375
4397		-27.343750
4398		-23.437500
4399		-29.296875
4400		-25.390625
4401		-31.250000
4402		-27.343750
4403		-35.156250
4404		-29.296875
4405		-35.156250
4406		-31.250000
4407		-37.109375
4408		-33.203125
4409		-39.062500
4410		-35.156250
4411		-41.015625
4412		-37.109375
4413		-42.968750
4414		-37.109375
4415		-42.968750
4416		-39.062500
4417		-42.968750
4418		-41.015625
4419		-44.921875
4420		-41.015625
4421		-44.921875
4422		-41.015625
4423		-46.875000
4424		-42.968750
4425		-46.875000
4426		-42.968750
4427		-46.875000
4428		-42.968750
4429		-46.875000
4430		-42.968750
4431		-46.875000
4432		-44.921875
4433		-46.875000
4434		-44.921875
4435		-46.875000
4436		-42.968750
4437		-46.875000
4438		-42.968750
4439		-46.875000
4440		-42.968750
4441		-44.921875
4442		-42.968750
4443		-44.921875
4444		-41.015625
4445		-42.968750
4446		-41.015625
4447		-42.968750
4448		-39.062500
4449		-41.015625
4450		-39.062500
4451		-39.062500
4452		-37.109375
4453		-39.062500
4454		-35.156250
4455		-37.109375
4456		-33.203125
4457		-35.156250
4458		-31.250000
4459		-33.203125
4460		-29.296875
4461		-31.250000
4462		-27.343750
4463		-31.250000
4464		-25.390625
4465		-29.296875
4466		-23.437500
4467		-25.390625
4468		-21.484375
4469		-23.437500
4470		-19.531250
4471		-21.484375
4472		-17.578125
4473		-19.531250
4474		-13.671875
4475		-15.625000
4476		-11.718750
4477		-13.671875
4478		-9.765625
4479		-11.718750
4480		-5.859375
4481		-9.765625
4482		-3.906250
4483		-5.859375
4484		-1.953125
4485		-3.906250
4486		1.953125
4487		0.000000
4488		3.906250
4489		0.000000
4490		5.859375
4491		3.906250
4492		7.812500
4493		7.812500
4494		11.718750
4495		9.765625
4496		13.671875
4497		11.718750
4498		17.578125
4499		15.625000
4500		19.531250
4501		17.578125
4502		21.484375
4503		19.531250
4504		25.390625
4505		23.437500
4506		27.343750
4507		25.390625
4508		31.250000
4509		27.343750
4510		31.250000
4511		31.250000
4512		35.156250
4513		33.203125
4514		37.109375
4515		35.156250
4516		39.062500
4517		37.109375
4518		41.015625
4519		39.062500
4520		42.968750
4521		41.015625
4522		44.921875
4523		42.968750
4524		46.875000
4525		44.921875
4526		48.828125
4527		46.875000
4528		50.781250
4529		48.828125
4530		52.734375
4531		50.781250
4532		54.687500
4533		52.734375
4534		54.687500
4535		52.734375
4536		56.640625
4537		54.687500
4538		58.593750
4539		54.687500
4540		58.593750
4541		56.640625
4542		60.546875
4543		58.593750
4544		60.546875
4545		58.593750
4546		62.500000
4547		58.593750
4548		62.500000
4549		58.593750
4550		64.453125
4551		60.546875
4552		62.500000
4553		60.546875
4554		64.453125
4555		60.546875
4556		64.453125
4557		60.546875
4558		64.453125
4559		60.546875
4560		64.453125
4561		60.546875
4562		64.453125
4563		60.546875
4564		64.453125
4565		60.546875
4566		64.453125
4567		60.546875
4568		62.500000
4569		60.546875
4570		62.500000
4571		58.593750
4572		62.500000
4573		56.640625
4574		60.546875
4575		56.640625
4576		60.546875
4577		54.687500
4578		58.593750
4579		54.687500
4580		58.593750
4581		52.734375
4582		56.640625
4583		50.781250
4584		54.687500
4585		50.781250
4586		52.734375
4587		48.828125
4588		52.734375
4589		46.875000
4590		50.781250
4591		44.921875
4592		48.828125
4593		42.968750
4594		46.875000
4595		41.015625
4596		44.921875
4597		39.062500
4598		42.968750
4599		37.109375
4600		41.015625
4601		35.156250
4602		39.062500
4603		31.250000
4604		37.109375
4605		29.296875
4606		33.203125
4607		27.343750
4608		31.250000
4609		25.390625
4610		29.296875
4611		21.484375
4612		27.343750
4613		19.531250
4614		23.437500
4615		15.625000
4616		21.484375
4617		13.671875
4618		17.578125
4619		11.718750
4620		15.625000
4621		7.812500
4622		13.671875
4623		5.859375
4624		9.765625
4625		3.906250
4626		7.812500
4627		0.000000
4628		5.859375
4629		-1.953125
4630		1.953125
4631		-3.906250
4632		0.000000
4633		-7.812500
4634		-1.953125
4635		-9.765625
4636		-5.859375
4637		-13.671875
4638		-7.812500
4639		-15.625000
4640		-11.718750
4641		-17.578125
4642		-13.671875
4643		-19.531250
4644		-15.625000
4645		-23.437500
4646		-17.578125
4647		-25.390625
4648		-21.484375
4649		-27.343750
4650		-23.437500
4651		-29.296875
4652		-25.390625
4653		-31.250000
4654		-27.343750
4655		-33.203125
4656		-29.296875
4657		-35.156250
4658		-31.250000
4659		-37.109375
4660		-33.203125
4661		-37.109375
4662		-35.156250
4663		-41.015625
4664		-35.156250
4665		-42.968750
4666		-37.109375
4667		-42.968750
4668		-39.062500
4669		-42.968750
4670		-41.015625
4671		-44.921875
4672		-41.015625
4673		-44.921875
4674		-41.015625
4675		-44.921875
4676		-42.968750
4677		-46.875000
4678		-42.968750
4679		-46.875000
4680		-42.968750
4681		-46.875000
4682		-42.968750
4683		-46.875000
4684		-42.968750
4685		-46.875000
4686		-44.921875
4687		-46.875000
4688		-42.968750
4689		-46.875000
4690		-42.968750
4691		-46.875000
4692		-42.968750
4693		-44.921875
4694		-42.968750
4695		-44.921875
4696		-41.015625
4697		-42.968750
4698		-41.015625
4699		-42.968750
4700		-39.062500
4701		-41.015625
4702		-39.062500
4703		-39.062500
4704		-37.109375
4705		-39.062500
4706		-35.156250
4707		-37.109375
4708		-33.203125
4709		-37.109375
4710		-31.250000
4711		-33.203125
4712		-31.250000
4713		-33.203125
4714		-27.343750
4715		-29.296875
4716		-25.390625
4717		-29.296875
4718		-25.390625
4719		-25.390625
4720		-21.484375
4721		-23.437500
4722		-19.531250
4723		-21.484375
4724		-17.578125
4725		-19.531250
4726		-15.625000
4727		-17.578125
4728		-13.671875
4729		-15.625000
4730		-9.765625
4731		-11.718750
4732		-5.859375
4733		-9.765625
4734		-3.906250
4735		-5.859375
4736		-1.953125
4737		-3.906250
4738		0.000000
4739		-1.953125
4740		3.906250
4741		0.000000
4742		5.859375
4743		3.906250
4744		9.765625
4745		5.859375
4746		11.718750
4747		9.765625
4748		13.671875
4749		11.718750
4750		15.625000
4751		13.671875
4752		19.531250
4753		17.578125
4754		21.484375
4755		19.531250
4756		23.437500
4757		21.484375
4758		27.343750
4759		25.390625
4760		29.296875
4761		27.343750
4762		33.203125
4763		29.296875
4764		33.203125
4765		33.203125
4766		37.109375
4767		35.156250
4768		39.062500
4769		37.109375
4770		41.015625
4771		39.062500
4772		42.968750
4773		41.015625
4774		44.921875
4775		42.968750
4776		46.875000
4777		44.921875
4778		48.828125
4779		46.875000
4780		50.781250
4781		46.875000
4782		52.734375
4783		48.828125
4784		54.687500
4785		50.781250
4786		54.687500
4787		52.734375
4788		56.640625
4789		52.734375
4790		58.593750
4791		54.687500
4792		60.546875
4793		56.640625
4794		60.546875
4795		58.593750
4796		60.546875
4797		58.593750
4798		62.500000
4799		58.593750
4800		62.500000
4801		58.593750
4802		62.500000
4803		60.546875
4804		62.500000
4805		60.546875
4806		64.453125
4807		60.546875
4808		64.453125
4809		60.546875
4810		64.453125
4811		60.546875
4812		64.453125
4813		60.546875
4814		64.453125
4815		60.546875
4816		64.453125
4817		60.546875
4818		64.453125
4819		60.546875
4820		62.500000
4821		58.593750
4822		62.500000
4823		58.593750
4824		62.500000
4825		58.593750
4826		60.546875
4827		56.640625
4828		60.546875
4829		54.687500
4830		58.593750
4831		54.687500
4832		58.593750
4833		52.734375
4834		56.640625
4835		52.734375
4836		56.640625
4837		50.781250
4838		54.687500
4839		48.828125
4840		52.734375
4841		46.875000
4842		50.781250
4843		44.921875
4844		48.828125
4845		42.968750
4846		46.875000
4847		41.015625
4848		44.921875
4849		39.062500
4850		44.921875
4851		37.109375
4852		41.015625
4853		35.156250
4854		39.062500
4855		31.250000
4856		37.109375
4857		29.296875
4858		35.156250
4859		27.343750
4860		31.250000
4861		25.390625
4862		29.296875
4863		23.437500
4864		27.343750
4865		19.531250
4866		25.390625
4867		15.625000
4868		21.484375
4869		15.625000
4870		19.531250
4871		11.718750
4872		15.625000
4873		7.812500
4874		13.671875
4875		5.859375
4876		11.718750
4877		3.906250
4878		7.812500
4879		1.953125
4880		5.859375
4881		-1.953125
4882		3.906250
4883		-3.906250
4884		0.000000
4885		-5.859375
4886		-1.953125
4887		-9.765625
4888		-5.859375
4889		-11.718750
4890		-7.812500
4891		-15.625000
4892		-9.765625
4893		-17.578125
4894		-11.718750
4895		-19.531250
4896		-15.625000
4897		-21.484375
4898		-17.578125
4899		-23.437500
4900		-19.531250
4901		-27.343750
4902		-21.484375
4903		-29.296875
4904		-25.390625
4905		-31.250000
4906		-27.343750
4907		-33.203125
4908		-29.296875
4909		-35.156250
4910		-31.250000
4911		-37.109375
4912		-33.203125
4913		-39.062500
4914		-35.156250
4915		-39.062500
4916		-35.156250
4917		-41.015625
4918		-37.109375
4919		-41.015625
4920		-37.109375
4921		-42.968750
4922		-39.062500
4923		-44.921875
4924		-41.015625
4925		-44.921875
4926		-41.015625
4927		-44.921875
4928		-42.968750
4929		-46.875000
4930		-42.968750
4931		-46.875000
4932		-42.968750
4933		-46.875000
4934		-42.968750
4935		-46.875000
4936		-42.968750
4937		-46.875000
4938		-44.921875
4939		-46.875000
4940		-42.968750
4941		-46.875000
4942		-42.968750
4943		-46.875000
4944		-42.968750
4945		-44.921875
4946		-42.968750
4947		-44.921875
4948		-41.015625
4949		-44.921875
4950		-41.015625
4951		-42.968750
4952		-39.062500
4953		-41.015625
4954		-39.062500
4955		-41.015625
4956		-37.109375
4957		-39.062500
4958		-35.156250
4959		-37.109375
4960		-35.156250
4961		-37.109375
4962		-31.250000
4963		-35.156250
4964		-31.250000
4965		-33.203125
4966		-29.296875
4967		-31.250000
4968		-27.343750
4969		-29.296875
4970		-25.390625
4971		-27.343750
4972		-23.437500
4973		-25.390625
4974		-19.531250
4975		-21.484375
4976		-17.578125
4977		-19.531250
4978		-15.625000
4979		-17.578125
4980		-13.671875
4981		-15.625000
4982		-11.718750
4983		-11.718750
4984		-7.812500
4985		-9.765625
4986		-5.859375
4987		-7.812500
4988		-3.906250
4989		-3.906250
4990		0.000000
4991		-3.906250
4992		1.953125
4993		0.000000
4994		5.859375
4995		3.906250
4996		7.812500
4997		5.859375
4998		9.765625
4999		7.812500
5000		13.671875
5001		11.718750
5002		15.625000
5003		13.671875
5004		17.578125
5005		17.578125
5006		21.484375
5007		19.531250
5008		23.437500
5009		21.484375
5010		25.390625
5011		23.437500
5012		29.296875
5013		27.343750
5014		31.250000
5015		29.296875
5016		33.203125
5017		31.250000
5018		35.156250
5019		35.156250
5020		39.062500
5021		37.109375
5022		41.015625
5023		39.062500
5024		42.968750
5025		41.015625
5026		44.921875
5027		42.968750
5028		46.875000
5029		44.921875
5030		48.828125
5031		46.875000
5032		50.781250
5033		48.828125
5034		52.734375
5035		48.828125
5036		54.687500
5037		50.781250
5038		54.687500
5039		52.734375
5040		56.640625
5041		52.734375
5042		56.640625
5043		54.687500
5044		58.593750
5045		56.640625
5046		60.546875
5047		58.593750
5048		60.546875
5049		58.593750
5050		62.500000
5051		58.593750
5052		62.500000
5053		60.546875
5054		62.500000
5055		60.546875
5056		62.500000
5057		60.546875
5058		64.453125
5059		60.546875
5060		64.453125
5061		60.546875
5062		64.453125
5063		62.500000
5064		64.453125
5065		60.546875
5066		64.453125
5067		60.546875
5068		64.453125
5069		60.546875
5070		64.453125
5071		60.546875
5072		62.500000
5073		60.546875
5074		62.500000
5075		58.593750
5076		62.500000
5077		58.593750
5078		62.500000
5079		56.640625
5080		60.546875
5081		56.640625
5082		60.546875
5083		54.687500
5084		58.593750
5085		54.687500
5086		56.640625
5087		52.734375
5088		56.640625
5089		50.781250
5090		54.687500
5091		48.828125
5092		52.734375
5093		46.875000
5094		52.734375
5095		46.875000
5096		50.781250
5097		42.968750
5098		48.828125
5099		42.968750
5100		46.875000
5101		39.062500
5102		44.921875
5103		39.062500
5104		42.968750
5105		35.156250
5106		39.062500
5107		33.203125
5108		37.109375
5109		31.250000
5110		35.156250
5111		29.296875
5112		33.203125
5113		27.343750
5114		31.250000
5115		23.437500
5116		27.343750
5117		21.484375
5118		25.390625
5119		17.578125
5120		23.437500
5121		15.625000
5122		19.531250
5123		13.671875
5124		17.578125
5125		11.718750
5126		15.625000
5127		7.812500
5128		11.718750
5129		5.859375
5130		9.765625
5131		1.953125
5132		7.812500
5133		0.000000
5134		3.906250
5135		-3.906250
5136		1.953125
5137		-5.859375
5138		0.000000
5139		-7.812500
5140		-3.906250
5141		-11.718750
5142		-5.859375
5143		-13.671875
5144		-7.812500
5145		-15.625000
5146		-11.718750
5147		-17.578125
5148		-13.671875
5149		-21.484375
5150		-15.625000
5151		-23.437500
5152		-19.531250
5153		-25.390625
5154		-21.484375
5155		-27.343750
5156		-23.437500
5157		-29.296875
5158		-25.390625
5159		-31.250000
5160		-27.343750
5161		-33.203125
5162		-29.296875
5163		-35.156250
5164		-31.250000
5165		-37.109375
5166		-33.203125
5167		-39.062500
5168		-35.156250
5169		-39.062500
5170		-35.156250
5171		-41.015625
5172		-37.109375
5173		-41.015625
5174		-39.062500
5175		-44.921875
5176		-39.062500
5177		-44.921875
5178		-41.015625
5179		-44.921875
5180		-41.015625
5181		-44.921875
5182		-42.968750
5183		-46.875000
5184		-42.968750
5185		-46.875000
5186		-42.968750
5187		-46.875000
5188		-42.968750
5189		-46.875000
5190		-42.968750
5191		-46.875000
5192		-42.968750
5193		-46.875000
5194		-42.968750
5195		-46.875000
5196		-42.968750
5197		-44.921875
5198		-42.968750
5199		-44.921875
5200		-41.015625
5201		-42.968750
5202		-41.015625
5203		-42.968750
5204		-39.062500
5205		-41.015625
5206		-39.062500
5207		-41.015625
5208		-37.109375
5209		-39.062500
5210		-35.156250
5211		-37.109375
5212		-35.156250
5213		-37.109375
5214		-33.203125
5215		-35.156250
5216		-31.250000
5217		-33.203125
5218		-29.296875
5219		-31.250000
5220		-27.343750
5221		-29.296875
5222		-25.390625
5223		-27.343750
5224		-23.437500
5225		-25.390625
5226		-19.531250
5227		-21.484375
5228		-17.578125
5229		-19.531250
5230		-15.625000
5231		-17.578125
5232		-13.671875
5233		-15.625000
5234		-9.765625
5235		-11.718750
5236		-7.812500
5237		-9.765625
5238		-5.859375
5239		-7.812500
5240		-3.906250
5241		-3.906250
5242		0.000000
5243		-3.906250
5244		1.953125
5245		0.000000
5246		3.906250
5247		3.906250
5248		7.812500
5249		5.859375
5250		9.765625
5251		7.812500
5252		11.718750
5253		11.718750
5254		15.625000
5255		13.671875
5256		17.578125
5257		17.578125
5258		19.531250
5259		19.531250
5260		23.437500
5261		21.484375
5262		25.390625
5263		23.437500
5264		29.296875
5265		27.343750
5266		31.250000
5267		29.296875
5268		33.203125
5269		31.250000
5270		37.109375
5271		33.203125
5272		37.109375
5273		37.109375
5274		41.015625
5275		39.062500
5276		42.968750
5277		41.015625
5278		44.921875
5279		42.968750
5280		46.875000
5281		44.921875
5282		48.828125
5283		46.875000
5284		50.781250
5285		48.828125
5286		50.781250
5287		50.781250
5288		54.687500
5289		48.828125
5290		54.687500
5291		52.734375
5292		56.640625
5293		54.687500
5294		56.640625
5295		54.687500
5296		60.546875
5297		56.640625
5298		60.546875
5299		56.640625
5300		60.546875
5301		58.593750
5302		62.500000
5303		58.593750
5304		62.500000
5305		60.546875
5306		62.500000
5307		60.546875
5308		62.500000
5309		60.546875
5310		64.453125
5311		60.546875
5312		64.453125
5313		60.546875
5314		64.453125
5315		62.500000
5316		64.453125
5317		60.546875
5318		64.453125
5319		62.500000
5320		64.453125
5321		60.546875
5322		64.453125
5323		60.546875
5324		62.500000
5325		60.546875
5326		62.500000
5327		58.593750
5328		62.500000
5329		58.593750
5330		62.500000
5331		58.593750
5332		62.500000
5333		56.640625
5334		60.546875
5335		56.640625
5336		60.546875
5337		54.687500
5338		58.593750
5339		52.734375
5340		56.640625
5341		52.734375
5342		54.687500
5343		48.828125
5344		52.734375
5345		48.828125
5346		52.734375
5347		46.875000
5348		50.781250
5349		44.921875
5350		48.828125
5351		42.968750
5352		46.875000
5353		41.015625
5354		44.921875
5355		37.109375
5356		42.968750
5357		37.109375
5358		41.015625
5359		35.156250
5360		39.062500
5361		31.250000
5362		37.109375
5363		29.296875
5364		35.156250
5365		27.343750
5366		31.250000
5367		23.437500
5368		29.296875
5369		21.484375
5370		27.343750
5371		19.531250
5372		23.437500
5373		17.578125
5374		23.437500
5375		13.671875
5376		17.578125
5377		11.718750
5378		15.625000
5379		7.812500
5380		13.671875
5381		5.859375
5382		9.765625
5383		3.906250
5384		7.812500
5385		0.000000
5386		5.859375
5387		-3.906250
5388		3.906250
5389		-3.906250
5390		0.000000
5391		-7.812500
5392		-3.906250
5393		-11.718750
5394		-5.859375
5395		-13.671875
5396		-7.812500
5397		-15.625000
5398		-11.718750
5399		-17.578125
5400		-13.671875
5401		-19.531250
5402		-15.625000
5403		-21.484375
5404		-17.578125
5405		-25.390625
5406		-19.531250
5407		-27.343750
5408		-23.437500
5409		-29.296875
5410		-25.390625
5411		-31.250000
5412		-27.343750
5413		-33.203125
5414		-29.296875
5415		-35.156250
5416		-31.250000
5417		-35.156250
5418		-33.203125
5419		-37.109375
5420		-33.203125
5421		-39.062500
5422		-37.109375
5423		-41.015625
5424		-37.109375
5425		-41.015625
5426		-39.062500
5427		-42.968750
5428		-39.062500
5429		-42.968750
5430		-41.015625
5431		-44.921875
5432		-41.015625
5433		-44.921875
5434		-42.968750
5435		-46.875000
5436		-42.968750
5437		-46.875000
5438		-42.968750
5439		-46.875000
5440		-42.968750
5441		-46.875000
5442		-44.921875
5443		-46.875000
5444		-44.921875
5445		-46.875000
5446		-42.968750
5447		-46.875000
5448		-42.968750
5449		-44.921875
5450		-42.968750
5451		-44.921875
5452		-41.015625
5453		-44.921875
5454		-41.015625
5455		-42.968750
5456		-41.015625
5457		-42.968750
5458		-39.062500
5459		-41.015625
5460		-37.109375
5461		-41.015625
5462		-37.109375
5463		-39.062500
5464		-35.156250
5465		-37.109375
5466		-33.203125
5467		-35.156250
5468		-31.250000
5469		-33.203125
5470		-29.296875
5471		-31.250000
5472		-27.343750
5473		-29.296875
5474		-25.390625
5475		-27.343750
5476		-23.437500
5477		-25.390625
5478		-21.484375
5479		-23.437500
5480		-19.531250
5481		-21.484375
5482		-17.578125
5483		-19.531250
5484		-13.671875
5485		-15.625000
5486		-11.718750
5487		-13.671875
5488		-9.765625
5489		-11.718750
5490		-5.859375
5491		-7.812500
5492		-3.906250
5493		-5.859375
5494		-1.953125
5495		-3.906250
5496		1.953125
5497		0.000000
5498		3.906250
5499		1.953125
5500		5.859375
5501		5.859375
5502		9.765625
5503		7.812500
5504		11.718750
5505		9.765625
5506		13.671875
5507		11.718750
5508		17.578125
5509		15.625000
5510		19.531250
5511		17.578125
5512		23.437500
5513		19.531250
5514		25.390625
5515		23.437500
5516		27.343750
5517		25.390625
5518		29.296875
5519		29.296875
5520		33.203125
5521		31.250000
5522		35.156250
5523		33.203125
5524		37.109375
5525		35.156250
5526		39.062500
5527		37.109375
5528		41.015625
5529		39.062500
5530		42.968750
5531		41.015625
5532		44.921875
5533		42.968750
5534		46.875000
5535		44.921875
5536		50.781250
5537		46.875000
5538		50.781250
5539		48.828125
5540		52.734375
5541		50.781250
5542		54.687500
5543		52.734375
5544		54.687500
5545		52.734375
5546		58.593750
5547		54.687500
5548		58.593750
5549		54.687500
5550		58.593750
5551		56.640625
5552		60.546875
5553		58.593750
5554		62.500000
5555		58.593750
5556		62.500000
5557		58.593750
5558		62.500000
5559		60.546875
5560		62.500000
5561		60.546875
5562		64.453125
5563		62.500000
5564		64.453125
5565		62.500000
5566		64.453125
5567		60.546875
5568		64.453125
5569		62.500000
5570		64.453125
5571		60.546875
5572		64.453125
5573		60.546875
5574		64.453125
5575		60.546875
5576		64.453125
5577		60.546875
5578		62.500000
5579		58.593750
5580		62.500000
5581		58.593750
5582		62.500000
5583		58.593750
5584		62.500000
5585		58.593750
5586		60.546875
5587		56.640625
5588		60.546875
5589		54.687500
5590		58.593750
5591		54.687500
5592		58.593750
5593		52.734375
5594		56.640625
5595		50.781250
5596		54.687500
5597		48.828125
5598		52.734375
5599		46.875000
5600		52.734375
5601		46.875000
5602		48.828125
5603		42.968750
5604		48.828125
5605		42.968750
5606		46.875000
5607		41.015625
5608		44.921875
5609		37.109375
5610		41.015625
5611		35.156250
5612		39.062500
5613		33.203125
5614		37.109375
5615		29.296875
5616		35.156250
5617		29.296875
5618		33.203125
5619		25.390625
5620		29.296875
5621		23.437500
5622		27.343750
5623		21.484375
5624		25.390625
5625		17.578125
5626		23.437500
5627		15.625000
5628		19.531250
5629		13.671875
5630		17.578125
5631		9.765625
5632		13.671875
5633		7.812500
5634		11.718750
5635		3.906250
5636		9.765625
5637		1.953125
5638		5.859375
5639		0.000000
5640		3.906250
5641		-3.906250
5642		0.000000
5643		-5.859375
5644		-1.953125
5645		-9.765625
5646		-3.906250
5647		-11.718750
5648		-5.859375
5649		-13.671875
5650		-9.765625
5651		-15.625000
5652		-11.718750
5653		-19.531250
5654		-15.625000
5655		-21.484375
5656		-17.578125
5657		-23.437500
5658		-19.531250
5659		-25.390625
5660		-21.484375
5661		-27.343750
5662		-23.437500
5663		-29.296875
5664		-25.390625
5665		-31.250000
5666		-27.343750
5667		-33.203125
5668		-29.296875
5669		-35.156250
5670		-31.250000
5671		-37.109375
5672		-33.203125
5673		-39.062500
5674		-35.156250
5675		-39.062500
5676		-35.156250
5677		-41.015625
5678		-37.109375
5679		-42.968750
5680		-39.062500
5681		-42.968750
5682		-39.062500
5683		-42.968750
5684		-41.015625
5685		-44.921875
5686		-41.015625
5687		-44.921875
5688		-41.015625
5689		-44.921875
5690		-42.968750
5691		-46.875000
5692		-42.968750
5693		-44.921875
5694		-42.968750
5695		-44.921875
5696		-42.968750
5697		-46.875000
5698		-41.015625
5699		-46.875000
5700		-41.015625
5701		-46.875000
5702		-42.968750
5703		-44.921875
5704		-41.015625
5705		-44.921875
5706		-41.015625
5707		-44.921875
5708		-39.062500
5709		-42.968750
5710		-39.062500
5711		-41.015625
5712		-37.109375
5713		-41.015625
5714		-35.156250
5715		-39.062500
5716		-35.156250
5717		-37.109375
5718		-33.203125
5719		-35.156250
5720		-31.250000
5721		-33.203125
5722		-29.296875
5723		-31.250000
5724		-27.343750
5725		-29.296875
5726		-25.390625
5727		-27.343750
5728		-23.437500
5729		-25.390625
5730		-21.484375
5731		-23.437500
5732		-19.531250
5733		-21.484375
5734		-17.578125
5735		-19.531250
5736		-13.671875
5737		-15.625000
5738		-11.718750
5739		-15.625000
5740		-7.812500
5741		-11.718750
5742		-5.859375
5743		-7.812500
5744		-3.906250
5745		-5.859375
5746		-1.953125
5747		-3.906250
5748		1.953125
5749		-1.953125
5750		5.859375
5751		0.000000
5752		7.812500
5753		3.906250
5754		9.765625
5755		5.859375
5756		11.718750
5757		9.765625
5758		15.625000
5759		11.718750
5760		17.578125
5761		15.625000
5762		19.531250
5763		17.578125
5764		23.437500
5765		19.531250
5766		25.390625
5767		23.437500
5768		29.296875
5769		23.437500
5770		31.250000
5771		27.343750
5772		33.203125
5773		29.296875
5774		35.156250
5775		33.203125
5776		37.109375
5777		35.156250
5778		39.062500
5779		37.109375
5780		41.015625
5781		39.062500
5782		44.921875
5783		41.015625
5784		46.875000
5785		42.968750
5786		48.828125
5787		44.921875
5788		50.781250
5789		46.875000
5790		52.734375
5791		48.828125
5792		54.687500
5793		50.781250
5794		54.687500
5795		52.734375
5796		54.687500
5797		52.734375
5798		58.593750
5799		54.687500
5800		58.593750
5801		54.687500
5802		60.546875
5803		56.640625
5804		62.500000
5805		56.640625
5806		62.500000
5807		58.593750
5808		64.453125
5809		58.593750
5810		64.453125
5811		60.546875
5812		62.500000
5813		60.546875
5814		64.453125
5815		62.500000
5816		64.453125
5817		62.500000
5818		64.453125
5819		62.500000
5820		64.453125
5821		62.500000
5822		64.453125
5823		62.500000
5824		64.453125
5825		60.546875
5826		66.406250
5827		62.500000
5828		64.453125
5829		60.546875
5830		64.453125
5831		60.546875
5832		64.453125
5833		60.546875
5834		62.500000
5835		58.593750
5836		62.500000
5837		58.593750
5838		60.546875
5839		56.640625
5840		60.546875
5841		56.640625
5842		58.593750
5843		54.687500
5844		58.593750
5845		52.734375
5846		56.640625
5847		52.734375
5848		54.687500
5849		50.781250
5850		52.734375
5851		48.828125
5852		52.734375
5853		46.875000
5854		50.781250
5855		44.921875
5856		48.828125
5857		42.968750
5858		46.875000
5859		41.015625
5860		44.921875
5861		39.062500
5862		42.968750
5863		37.109375
5864		41.015625
5865		35.156250
5866		37.109375
5867		31.250000
5868		35.156250
5869		29.296875
5870		33.203125
5871		27.343750
5872		31.250000
5873		25.390625
5874		27.343750
5875		21.484375
5876		25.390625
5877		19.531250
5878		23.437500
5879		15.625000
5880		19.531250
5881		13.671875
5882		17.578125
5883		11.718750
5884		15.625000
5885		7.812500
5886		13.671875
5887		5.859375
5888		9.765625
5889		3.906250
5890		7.812500
5891		0.000000
5892		3.906250
5893		-1.953125
5894		1.953125
5895		-5.859375
5896		0.000000
5897		-7.812500
5898		-3.906250
5899		-9.765625
5900		-5.859375
5901		-13.671875
5902		-7.812500
5903		-15.625000
5904		-11.718750
5905		-17.578125
5906		-13.671875
5907		-19.531250
5908		-15.625000
5909		-23.437500
5910		-19.531250
5911		-25.390625
5912		-21.484375
5913		-27.343750
5914		-23.437500
5915		-31.250000
5916		-23.437500
5917		-33.203125
5918		-25.390625
5919		-35.156250
5920		-27.343750
5921		-35.156250
5922		-31.250000
5923		-37.109375
5924		-33.203125
5925		-37.109375
5926		-35.156250
5927		-39.062500
5928		-35.156250
5929		-41.015625
5930		-37.109375
5931		-44.921875
5932		-37.109375
5933		-44.921875
5934		-37.109375
5935		-46.875000
5936		-37.109375
5937		-46.875000
5938		-39.062500
5939		-44.921875
5940		-42.968750
5941		-44.921875
5942		-42.968750
5943		-44.921875
5944		-42.968750
5945		-44.921875
5946		-42.968750
5947		-44.921875
5948		-42.968750
5949		-48.828125
5950		-39.062500
5951		-48.828125
5952		-39.062500
5953		-48.828125
5954		-39.062500
5955		-44.921875
5956		-41.015625
5957		-42.968750
5958		-41.015625
5959		-42.968750
5960		-39.062500
5961		-41.015625
5962		-39.062500
5963		-41.015625
5964		-39.062500
5965		-42.968750
5966		-33.203125
5967		-41.015625
5968		-31.250000
5969		-41.015625
5970		-31.250000
5971		-39.062500
5972		-29.296875
5973		-33.203125
5974		-29.296875
5975		-31.250000
5976		-27.343750
5977		-29.296875
5978		-27.343750
5979		-27.343750
5980		-25.390625
5981		-25.390625
5982		-21.484375
5983		-27.343750
5984		-17.578125
5985		-25.390625
5986		-15.625000
5987		-23.437500
5988		-13.671875
5989		-17.578125
5990		-13.671875
5991		-13.671875
5992		-9.765625
5993		-11.718750
5994		-7.812500
5995		-9.765625
5996		-5.859375
5997		-5.859375
5998		-1.953125
5999		-5.859375
6000		3.906250
6001		-3.906250
6002		5.859375
6003		-1.953125
6004		9.765625
6005		3.906250
6006		7.812500
6007		5.859375
6008		11.718750
6009		9.765625
6010		13.671875
6011		11.718750
6012		15.625000
6013		15.625000
6014		19.531250
6015		15.625000
6016		25.390625
6017		17.578125
6018		27.343750
6019		19.531250
6020		29.296875
6021		21.484375
6022		31.250000
6023		27.343750
6024		31.250000
6025		29.296875
6026		33.203125
6027		33.203125
6028		37.109375
6029		35.156250
6030		39.062500
6031		37.109375
6032		41.015625
6033		35.156250
6034		46.875000
6035		37.109375
6036		48.828125
6037		41.015625
6038		50.781250
6039		44.921875
6040		48.828125
6041		46.875000
6042		50.781250
6043		48.828125
6044		52.734375
6045		50.781250
6046		52.734375
6047		52.734375
6048		54.687500
6049		50.781250
6050		60.546875
6051		50.781250
6052		62.500000
6053		52.734375
6054		62.500000
6055		54.687500
6056		62.500000
6057		58.593750
6058		60.546875
6059		60.546875
6060		62.500000
6061		60.546875
6062		62.500000
6063		60.546875
6064		62.500000
6065		60.546875
6066		64.453125
6067		58.593750
6068		68.359375
6069		58.593750
6070		68.359375
6071		58.593750
6072		68.359375
6073		62.500000
6074		64.453125
6075		62.500000
6076		64.453125
6077		62.500000
6078		64.453125
6079		62.500000
6080		64.453125
6081		62.500000
6082		64.453125
6083		56.640625
6084		66.406250
6085		56.640625
6086		66.406250
6087		56.640625
6088		64.453125
6089		58.593750
6090		62.500000
6091		58.593750
6092		60.546875
6093		56.640625
6094		58.593750
6095		56.640625
6096		58.593750
6097		54.687500
6098		56.640625
6099		52.734375
6100		56.640625
6101		50.781250
6102		54.687500
6103		46.875000
6104		54.687500
6105		48.828125
6106		50.781250
6107		44.921875
6108		48.828125
6109		42.968750
6110		46.875000
6111		42.968750
6112		44.921875
6113		39.062500
6114		42.968750
6115		37.109375
6116		41.015625
6117		35.156250
6118		39.062500
6119		31.250000
6120		39.062500
6121		29.296875
6122		37.109375
6123		27.343750
6124		31.250000
6125		25.390625
6126		29.296875
6127		23.437500
6128		27.343750
6129		21.484375
6130		23.437500
6131		17.578125
6132		21.484375
6133		15.625000
6134		19.531250
6135		11.718750
6136		17.578125
6137		9.765625
6138		15.625000
6139		5.859375
6140		11.718750
6141		3.906250
6142		7.812500
6143		1.953125
6144		5.859375
6145		-1.953125
6146		3.906250
6147		-3.906250
6148		0.000000
6149		-5.859375
6150		-1.953125
6151		-9.765625
6152		-5.859375
6153		-11.718750
6154		-7.812500
6155		-13.671875
6156		-9.765625
6157		-15.625000
6158		-13.671875
6159		-19.531250
6160		-15.625000
6161		-21.484375
6162		-17.578125
6163		-23.437500
6164		-19.531250
6165		-25.390625
6166		-21.484375
6167		-27.343750
6168		-25.390625
6169		-29.296875
6170		-25.390625
6171		-31.250000
6172		-27.343750
6173		-33.203125
6174		-29.296875
6175		-35.156250
6176		-31.250000
6177		-37.109375
6178		-33.203125
6179		-37.109375
6180		-35.156250
6181		-39.062500
6182		-37.109375
6183		-41.015625
6184		-37.109375
6185		-41.015625
6186		-39.062500
6187		-42.968750
6188		-39.062500
6189		-42.968750
6190		-41.015625
6191		-44.921875
6192		-41.015625
6193		-44.921875
6194		-41.015625
6195		-44.921875
6196		-42.968750
6197		-44.921875
6198		-42.968750
6199		-44.921875
6200		-42.968750
6201		-44.921875
6202		-42.968750
6203		-44.921875
6204		-41.015625
6205		-44.921875
6206		-42.968750
6207		-44.921875
6208		-41.015625
6209		-44.921875
6210		-41.015625
6211		-42.968750
6212		-39.062500
6213		-41.015625
6214		-39.062500
6215		-41.015625
6216		-37.109375
6217		-39.062500
6218		-35.156250
6219		-39.062500
6220		-35.156250
6221		-37.109375
6222		-33.203125
6223		-35.156250
6224		-31.250000
6225		-35.156250
6226		-29.296875
6227		-31.250000
6228		-29.296875
6229		-29.296875
6230		-27.343750
6231		-27.343750
6232		-23.437500
6233		-25.390625
6234		-21.484375
6235		-25.390625
6236		-19.531250
6237		-21.484375
6238		-17.578125
6239		-19.531250
6240		-15.625000
6241		-17.578125
6242		-11.718750
6243		-15.625000
6244		-9.765625
6245		-11.718750
6246		-7.812500
6247		-9.765625
6248		-5.859375
6249		-7.812500
6250		-3.906250
6251		-3.906250
6252		0.000000
6253		-1.953125
6254		1.953125
6255		1.953125
6256		5.859375
6257		3.906250
6258		7.812500
6259		5.859375
6260		11.718750
6261		9.765625
6262		13.671875
6263		11.718750
6264		15.625000
6265		13.671875
6266		17.578125
6267		17.578125
6268		21.484375
6269		19.531250
6270		25.390625
6271		21.484375
6272		27.343750
6273		25.390625
6274		29.296875
6275		27.343750
6276		31.250000
6277		29.296875
6278		33.203125
6279		31.250000
6280		35.156250
6281		35.156250
6282		39.062500
6283		37.109375
6284		41.015625
6285		37.109375
6286		42.968750
6287		41.015625
6288		44.921875
6289		42.968750
6290		46.875000
6291		44.921875
6292		48.828125
6293		46.875000
6294		50.781250
6295		48.828125
6296		52.734375
6297		50.781250
6298		52.734375
6299		52.734375
6300		54.687500
6301		52.734375
6302		58.593750
6303		54.687500
6304		58.593750
6305		56.640625
6306		58.593750
6307		56.640625
6308		60.546875
6309		56.640625
6310		62.500000
6311		60.546875
6312		62.500000
6313		60.546875
6314		62.500000
6315		60.546875
6316		64.453125
6317		62.500000
6318		64.453125
6319		60.546875
6320		66.406250
6321		62.500000
6322		64.453125
6323		62.500000
6324		64.453125
6325		62.500000
6326		66.406250
6327		62.500000
6328		66.406250
6329		62.500000
6330		64.453125
6331		62.500000
6332		64.453125
6333		62.500000
6334		64.453125
6335		60.546875
6336		64.453125
6337		60.546875
6338		64.453125
6339		60.546875
6340		62.500000
6341		58.593750
6342		62.500000
6343		58.593750
6344		62.500000
6345		56.640625
6346		60.546875
6347		56.640625
6348		58.593750
6349		54.687500
6350		58.593750
6351		52.734375
6352		56.640625
6353		50.781250
6354		56.640625
6355		50.781250
6356		54.687500
6357		48.828125
6358		50.781250
6359		44.921875
6360		50.781250
6361		44.921875
6362		48.828125
6363		42.968750
6364		46.875000
6365		41.015625
6366		44.921875
6367		39.062500
6368		42.968750
6369		35.156250
6370		41.015625
6371		33.203125
6372		37.109375
6373		31.250000
6374		35.156250
6375		29.296875
6376		33.203125
6377		25.390625
6378		31.250000
6379		23.437500
6380		27.343750
6381		21.484375
6382		25.390625
6383		19.531250
6384		23.437500
6385		15.625000
6386		19.531250
6387		13.671875
6388		17.578125
6389		9.765625
6390		15.625000
6391		7.812500
6392		11.718750
6393		5.859375
6394		9.765625
6395		1.953125
6396		5.859375
6397		0.000000
6398		3.906250
6399		-3.906250
6400		1.953125
6401		-5.859375
6402		-1.953125
6403		-7.812500
6404		-3.906250
6405		-9.765625
6406		-7.812500
6407		-13.671875
6408		-9.765625
6409		-15.625000
6410		-11.718750
6411		-17.578125
6412		-13.671875
6413		-19.531250
6414		-17.578125
6415		-23.437500
6416		-19.531250
6417		-25.390625
6418		-21.484375
6419		-27.343750
6420		-23.437500
6421		-29.296875
6422		-25.390625
6423		-31.250000
6424		-27.343750
6425		-33.203125
6426		-29.296875
6427		-35.156250
6428		-31.250000
6429		-35.156250
6430		-33.203125
6431		-37.109375
6432		-33.203125
6433		-39.062500
6434		-35.156250
6435		-39.062500
6436		-37.109375
6437		-41.015625
6438		-39.062500
6439		-41.015625
6440		-39.062500
6441		-42.968750
6442		-41.015625
6443		-42.968750
6444		-41.015625
6445		-44.921875
6446		-41.015625
6447		-44.921875
6448		-42.968750
6449		-44.921875
6450		-42.968750
6451		-44.921875
6452		-42.968750
6453		-44.921875
6454		-42.968750
6455		-44.921875
6456		-42.968750
6457		-44.921875
6458		-42.968750
6459		-42.968750
6460		-41.015625
6461		-42.968750
6462		-41.015625
6463		-42.968750
6464		-41.015625
6465		-41.015625
6466		-39.062500
6467		-41.015625
6468		-37.109375
6469		-39.062500
6470		-37.109375
6471		-39.062500
6472		-35.156250
6473		-37.109375
6474		-33.203125
6475		-35.156250
6476		-31.250000
6477		-33.203125
6478		-31.250000
6479		-33.203125
6480		-29.296875
6481		-31.250000
6482		-27.343750
6483		-29.296875
6484		-25.390625
6485		-27.343750
6486		-23.437500
6487		-23.437500
6488		-19.531250
6489		-21.484375
6490		-17.578125
6491		-19.531250
6492		-15.625000
6493		-17.578125
6494		-13.671875
6495		-15.625000
6496		-11.718750
6497		-11.718750
6498		-7.812500
6499		-9.765625
6500		-5.859375
6501		-7.812500
6502		-3.906250
6503		-5.859375
6504		0.000000
6505		-1.953125
6506		1.953125
6507		0.000000
6508		3.906250
6509		3.906250
6510		7.812500
6511		5.859375
6512		9.765625
6513		7.812500
6514		11.718750
6515		11.718750
6516		15.625000
6517		13.671875
6518		17.578125
6519		17.578125
6520		21.484375
6521		17.578125
6522		23.437500
6523		21.484375
6524		25.390625
6525		23.437500
6526		29.296875
6527		27.343750
6528		31.250000
6529		29.296875
6530		33.203125
6531		31.250000
6532		35.156250
6533		35.156250
6534		37.109375
6535		37.109375
6536		41.015625
6537		39.062500
6538		44.921875
6539		39.062500
6540		44.921875
6541		42.968750
6542		46.875000
6543		44.921875
6544		48.828125
6545		46.875000
6546		50.781250
6547		48.828125
6548		52.734375
6549		50.781250
6550		54.687500
6551		52.734375
6552		54.687500
6553		52.734375
6554		58.593750
6555		54.687500
6556		60.546875
6557		56.640625
6558		58.593750
6559		56.640625
6560		60.546875
6561		58.593750
6562		60.546875
6563		60.546875
6564		62.500000
6565		60.546875
6566		62.500000
6567		60.546875
6568		64.453125
6569		62.500000
6570		64.453125
6571		60.546875
6572		66.406250
6573		60.546875
6574		66.406250
6575		62.500000
6576		66.406250
6577		64.453125
6578		66.406250
6579		64.453125
6580		66.406250
6581		62.500000
6582		66.406250
6583		62.500000
6584		66.406250
6585		62.500000
6586		64.453125
6587		60.546875
6588		66.406250
6589		60.546875
6590		66.406250
6591		60.546875
6592		64.453125
6593		60.546875
6594		62.500000
6595		58.593750
6596		62.500000
6597		58.593750
6598		60.546875
6599		56.640625
6600		60.546875
6601		56.640625
6602		58.593750
6603		52.734375
6604		56.640625
6605		50.781250
6606		56.640625
6607		50.781250
6608		56.640625
6609		48.828125
6610		52.734375
6611		46.875000
6612		50.781250
6613		44.921875
6614		48.828125
6615		42.968750
6616		46.875000
6617		41.015625
6618		44.921875
6619		39.062500
6620		42.968750
6621		35.156250
6622		42.968750
6623		35.156250
6624		39.062500
6625		33.203125
6626		37.109375
6627		29.296875
6628		33.203125
6629		27.343750
6630		31.250000
6631		25.390625
6632		29.296875
6633		23.437500
6634		27.343750
6635		19.531250
6636		23.437500
6637		15.625000
6638		21.484375
6639		13.671875
6640		19.531250
6641		11.718750
6642		15.625000
6643		9.765625
6644		13.671875
6645		5.859375
6646		9.765625
6647		3.906250
6648		7.812500
6649		1.953125
6650		5.859375
6651		-1.953125
6652		3.906250
6653		-3.906250
6654		0.000000
6655		-7.812500
6656		-1.953125
6657		-9.765625
6658		-3.906250
6659		-11.718750
6660		-7.812500
6661		-13.671875
6662		-9.765625
6663		-17.578125
6664		-13.671875
6665		-19.531250
6666		-15.625000
6667		-21.484375
6668		-17.578125
6669		-23.437500
6670		-19.531250
6671		-27.343750
6672		-21.484375
6673		-29.296875
6674		-23.437500
6675		-29.296875
6676		-25.390625
6677		-31.250000
6678		-27.343750
6679		-33.203125
6680		-29.296875
6681		-35.156250
6682		-31.250000
6683		-37.109375
6684		-33.203125
6685		-37.109375
6686		-35.156250
6687		-41.015625
6688		-35.156250
6689		-41.015625
6690		-35.156250
6691		-42.968750
6692		-37.109375
6693		-41.015625
6694		-39.062500
6695		-42.968750
6696		-39.062500
6697		-42.968750
6698		-41.015625
6699		-42.968750
6700		-41.015625
6701		-42.968750
6702		-41.015625
6703		-42.968750
6704		-41.015625
6705		-44.921875
6706		-39.062500
6707		-44.921875
6708		-39.062500
6709		-42.968750
6710		-41.015625
6711		-42.968750
6712		-41.015625
6713		-42.968750
6714		-41.015625
6715		-41.015625
6716		-39.062500
6717		-41.015625
6718		-39.062500
6719		-41.015625
6720		-37.109375
6721		-41.015625
6722		-35.156250
6723		-39.062500
6724		-35.156250
6725		-37.109375
6726		-33.203125
6727		-35.156250
6728		-33.203125
6729		-33.203125
6730		-31.250000
6731		-33.203125
6732		-29.296875
6733		-31.250000
6734		-27.343750
6735		-29.296875
6736		-25.390625
6737		-25.390625
6738		-23.437500
6739		-25.390625
6740		-21.484375
6741		-21.484375
6742		-17.578125
6743		-19.531250
6744		-15.625000
6745		-17.578125
6746		-13.671875
6747		-15.625000
6748		-11.718750
6749		-11.718750
6750		-7.812500
6751		-9.765625
6752		-5.859375
6753		-7.812500
6754		-3.906250
6755		-5.859375
6756		0.000000
6757		-1.953125
6758		1.953125
6759		0.000000
6760		3.906250
6761		1.953125
6762		7.812500
6763		5.859375
6764		9.765625
6765		7.812500
6766		11.718750
6767		9.765625
6768		15.625000
6769		13.671875
6770		17.578125
6771		15.625000
6772		19.531250
6773		19.531250
6774		23.437500
6775		21.484375
6776		25.390625
6777		23.437500
6778		27.343750
6779		27.343750
6780		29.296875
6781		29.296875
6782		33.203125
6783		31.250000
6784		35.156250
6785		33.203125
6786		37.109375
6787		35.156250
6788		39.062500
6789		39.062500
6790		41.015625
6791		41.015625
6792		44.921875
6793		42.968750
6794		46.875000
6795		44.921875
6796		48.828125
6797		46.875000
6798		50.781250
6799		48.828125
6800		50.781250
6801		50.781250
6802		52.734375
6803		50.781250
6804		54.687500
6805		52.734375
6806		56.640625
6807		54.687500
6808		58.593750
6809		56.640625
6810		58.593750
6811		56.640625
6812		60.546875
6813		58.593750
6814		60.546875
6815		60.546875
6816		62.500000
6817		60.546875
6818		62.500000
6819		60.546875
6820		64.453125
6821		62.500000
6822		64.453125
6823		62.500000
6824		64.453125
6825		62.500000
6826		64.453125
6827		62.500000
6828		64.453125
6829		62.500000
6830		66.406250
6831		64.453125
6832		66.406250
6833		62.500000
6834		64.453125
6835		62.500000
6836		64.453125
6837		62.500000
6838		64.453125
6839		62.500000
6840		64.453125
6841		62.500000
6842		64.453125
6843		60.546875
6844		64.453125
6845		60.546875
6846		62.500000
6847		58.593750
6848		62.500000
6849		58.593750
6850		60.546875
6851		56.640625
6852		60.546875
6853		56.640625
6854		58.593750
6855		54.687500
6856		56.640625
6857		52.734375
6858		56.640625
6859		50.781250
6860		54.687500
6861		48.828125
6862		52.734375
6863		46.875000
6864		50.781250
6865		46.875000
6866		48.828125
6867		42.968750
6868		46.875000
6869		41.015625
6870		44.921875
6871		39.062500
6872		42.968750
6873		37.109375
6874		41.015625
6875		35.156250
6876		39.062500
6877		33.203125
6878		37.109375
6879		31.250000
6880		35.156250
6881		27.343750
6882		31.250000
6883		25.390625
6884		29.296875
6885		23.437500
6886		27.343750
6887		19.531250
6888		23.437500
6889		17.578125
6890		21.484375
6891		15.625000
6892		19.531250
6893		11.718750
6894		15.625000
6895		9.765625
6896		13.671875
6897		5.859375
6898		11.718750
6899		3.906250
6900		7.812500
6901		1.953125
6902		5.859375
6903		-1.953125
6904		1.953125
6905		-3.906250
6906		0.000000
6907		-5.859375
6908		-1.953125
6909		-9.765625
6910		-5.859375
6911		-11.718750
6912		-7.812500
6913		-13.671875
6914		-9.765625
6915		-17.578125
6916		-13.671875
6917		-19.531250
6918		-15.625000
6919		-21.484375
6920		-17.578125
6921		-23.437500
6922		-19.531250
6923		-25.390625
6924		-21.484375
6925		-27.343750
6926		-23.437500
6927		-29.296875
6928		-25.390625
6929		-31.250000
6930		-29.296875
6931		-33.203125
6932		-29.296875
6933		-35.156250
6934		-31.250000
6935		-37.109375
6936		-33.203125
6937		-37.109375
6938		-35.156250
6939		-39.062500
6940		-37.109375
6941		-41.015625
6942		-37.109375
6943		-41.015625
6944		-39.062500
6945		-42.968750
6946		-39.062500
6947		-42.968750
6948		-41.015625
6949		-42.968750
6950		-41.015625
6951		-44.921875
6952		-41.015625
6953		-44.921875
6954		-42.968750
6955		-44.921875
6956		-42.968750
6957		-44.921875
6958		-42.968750
6959		-44.921875
6960		-42.968750
6961		-44.921875
6962		-42.968750
6963		-44.921875
6964		-41.015625
6965		-42.968750
6966		-41.015625
6967		-42.968750
6968		-41.015625
6969		-42.968750
6970		-39.062500
6971		-41.015625
6972		-39.062500
6973		-41.015625
6974		-37.109375
6975		-39.062500
6976		-37.109375
6977		-37.109375
6978		-35.156250
6979		-37.109375
6980		-33.203125
6981		-35.156250
6982		-31.250000
6983		-33.203125
6984		-29.296875
6985		-31.250000
6986		-27.343750
6987		-29.296875
6988		-25.390625
6989		-27.343750
6990		-23.437500
6991		-25.390625
6992		-21.484375
6993		-23.437500
6994		-19.531250
6995		-21.484375
6996		-17.578125
6997		-19.531250
6998		-15.625000
6999		-15.625000
7000		-11.718750
7001		-13.671875
7002		-9.765625
7003		-11.718750
7004		-7.812500
7005		-7.812500
7006		-3.906250
7007		-5.859375
7008		-1.953125
7009		-3.906250
7010		0.000000
7011		0.000000
7012		3.906250
7013		1.953125
7014		5.859375
7015		3.906250
7016		7.812500
7017		7.812500
7018		11.718750
7019		9.765625
7020		13.671875
7021		13.671875
7022		17.578125
7023		15.625000
7024		19.531250
7025		17.578125
7026		21.484375
7027		21.484375
7028		25.390625
7029		23.437500
7030		27.343750
7031		25.390625
7032		29.296875
7033		27.343750
7034		33.203125
7035		31.250000
7036		35.156250
7037		33.203125
7038		37.109375
7039		35.156250
7040		39.062500
7041		37.109375
7042		41.015625
7043		39.062500
7044		42.968750
7045		41.015625
7046		44.921875
7047		44.921875
7048		46.875000
7049		44.921875
7050		48.828125
7051		46.875000
7052		50.781250
7053		48.828125
7054		52.734375
7055		50.781250
7056		54.687500
7057		52.734375
7058		54.687500
7059		54.687500
7060		56.640625
7061		56.640625
7062		58.593750
7063		56.640625
7064		58.593750
7065		58.593750
7066		60.546875
7067		58.593750
7068		62.500000
7069		60.546875
7070		62.500000
7071		60.546875
7072		62.500000
7073		62.500000
7074		64.453125
7075		62.500000
7076		64.453125
7077		62.500000
7078		66.406250
7079		62.500000
7080		64.453125
7081		62.500000
7082		66.406250
7083		64.453125
7084		64.453125
7085		64.453125
7086		64.453125
7087		62.500000
7088		64.453125
7089		62.500000
7090		64.453125
7091		62.500000
7092		64.453125
7093		62.500000
7094		64.453125
7095		60.546875
7096		64.453125
7097		60.546875
7098		62.500000
7099		58.593750
7100		62.500000
7101		58.593750
7102		60.546875
7103		56.640625
7104		60.546875
7105		56.640625
7106		58.593750
7107		54.687500
7108		58.593750
7109		52.734375
7110		56.640625
7111		50.781250
7112		56.640625
7113		50.781250
7114		52.734375
7115		48.828125
7116		52.734375
7117		46.875000
7118		50.781250
7119		44.921875
7120		48.828125
7121		42.968750
7122		46.875000
7123		41.015625
7124		44.921875
7125		39.062500
7126		41.015625
7127		37.109375
7128		39.062500
7129		33.203125
7130		37.109375
7131		31.250000
7132		35.156250
7133		29.296875
7134		33.203125
7135		25.390625
7136		31.250000
7137		23.437500
7138		27.343750
7139		21.484375
7140		25.390625
7141		19.531250
7142		23.437500
7143		15.625000
7144		19.531250
7145		13.671875
7146		17.578125
7147		9.765625
7148		15.625000
7149		7.812500
7150		11.718750
7151		5.859375
7152		9.765625
7153		1.953125
7154		5.859375
7155		0.000000
7156		3.906250
7157		-3.906250
7158		1.953125
7159		-5.859375
7160		-1.953125
7161		-7.812500
7162		-3.906250
7163		-9.765625
7164		-5.859375
7165		-13.671875
7166		-9.765625
7167		-15.625000
7168		-11.718750
7169		-17.578125
7170		-13.671875
7171		-19.531250
7172		-15.625000
7173		-23.437500
7174		-19.531250
7175		-25.390625
7176		-21.484375
7177		-27.343750
7178		-23.437500
7179		-29.296875
7180		-25.390625
7181		-31.250000
7182		-27.343750
7183		-33.203125
7184		-29.296875
7185		-35.156250
7186		-31.250000
7187		-35.156250
7188		-33.203125
7189		-37.109375
7190		-35.156250
7191		-39.062500
7192		-35.156250
7193		-39.062500
7194		-37.109375
7195		-41.015625
7196		-39.062500
7197		-42.968750
7198		-39.062500
7199		-42.968750
7200		-39.062500
7201		-42.968750
7202		-41.015625
7203		-42.968750
7204		-41.015625
7205		-44.921875
7206		-41.015625
7207		-44.921875
7208		-41.015625
7209		-44.921875
7210		-41.015625
7211		-44.921875
7212		-42.968750
7213		-44.921875
7214		-41.015625
7215		-42.968750
7216		-41.015625
7217		-42.968750
7218		-41.015625
7219		-42.968750
7220		-41.015625
7221		-42.968750
7222		-39.062500
7223		-41.015625
7224		-39.062500
7225		-41.015625
7226		-37.109375
7227		-39.062500
7228		-37.109375
7229		-37.109375
7230		-35.156250
7231		-37.109375
7232		-33.203125
7233		-35.156250
7234		-31.250000
7235		-35.156250
7236		-29.296875
7237		-31.250000
7238		-29.296875
7239		-29.296875
7240		-27.343750
7241		-27.343750
7242		-23.437500
7243		-25.390625
7244		-21.484375
7245		-23.437500
7246		-19.531250
7247		-21.484375
7248		-17.578125
7249		-19.531250
7250		-15.625000
7251		-17.578125
7252		-13.671875
7253		-15.625000
7254		-9.765625
7255		-11.718750
7256		-7.812500
7257		-9.765625
7258		-5.859375
7259		-5.859375
7260		-1.953125
7261		-3.906250
7262		0.000000
7263		-1.953125
7264		1.953125
7265		1.953125
7266		5.859375
7267		3.906250
7268		7.812500
7269		5.859375
7270		9.765625
7271		9.765625
7272		13.671875
7273		11.718750
7274		15.625000
7275		13.671875
7276		19.531250
7277		17.578125
7278		21.484375
7279		19.531250
7280		23.437500
7281		21.484375
7282		25.390625
7283		25.390625
7284		29.296875
7285		27.343750
7286		31.250000
7287		29.296875
7288		33.203125
7289		33.203125
7290		37.109375
7291		35.156250
7292		39.062500
7293		37.109375
7294		41.015625
7295		39.062500
7296		42.968750
7297		41.015625
7298		44.921875
7299		42.968750
7300		46.875000
7301		44.921875
7302		48.828125
7303		46.875000
7304		50.781250
7305		48.828125
7306		52.734375
7307		50.781250
7308		54.687500
7309		52.734375
7310		54.687500
7311		54.687500
7312		56.640625
7313		54.687500
7314		58.593750
7315		56.640625
7316		58.593750
7317		56.640625
7318		60.546875
7319		58.593750
7320		62.500000
7321		60.546875
7322		62.500000
7323		60.546875
7324		62.500000
7325		60.546875
7326		64.453125
7327		62.500000
7328		64.453125
7329		62.500000
7330		64.453125
7331		62.500000
7332		64.453125
7333		62.500000
7334		66.406250
7335		64.453125
7336		64.453125
7337		62.500000
7338		66.406250
7339		62.500000
7340		64.453125
7341		62.500000
7342		66.406250
7343		62.500000
7344		64.453125
7345		62.500000
7346		64.453125
7347		62.500000
7348		64.453125
7349		60.546875
7350		62.500000
7351		58.593750
7352		62.500000
7353		58.593750
7354		62.500000
7355		58.593750
7356		60.546875
7357		56.640625
7358		58.593750
7359		54.687500
7360		58.593750
7361		52.734375
7362		56.640625
7363		52.734375
7364		54.687500
7365		50.781250
7366		54.687500
7367		48.828125
7368		52.734375
7369		46.875000
7370		50.781250
7371		44.921875
7372		48.828125
7373		42.968750
7374		46.875000
7375		41.015625
7376		44.921875
7377		39.062500
7378		42.968750
7379		37.109375
7380		41.015625
7381		35.156250
7382		39.062500
7383		31.250000
7384		35.156250
7385		29.296875
7386		33.203125
7387		27.343750
7388		31.250000
7389		25.390625
7390		27.343750
7391		21.484375
7392		25.390625
7393		19.531250
7394		23.437500
7395		15.625000
7396		21.484375
7397		13.671875
7398		17.578125
7399		11.718750
7400		15.625000
7401		7.812500
7402		11.718750
7403		5.859375
7404		9.765625
7405		3.906250
7406		7.812500
7407		0.000000
7408		3.906250
7409		-1.953125
7410		1.953125
7411		-5.859375
7412		0.000000
7413		-7.812500
7414		-3.906250
7415		-9.765625
7416		-5.859375
7417		-13.671875
7418		-9.765625
7419		-15.625000
7420		-11.718750
7421		-17.578125
7422		-13.671875
7423		-19.531250
7424		-15.625000
7425		-21.484375
7426		-17.578125
7427		-25.390625
7428		-21.484375
7429		-27.343750
7430		-23.437500
7431		-29.296875
7432		-25.390625
7433		-31.250000
7434		-27.343750
7435		-31.250000
7436		-29.296875
7437		-33.203125
7438		-31.250000
7439		-35.156250
7440		-33.203125
7441		-37.109375
7442		-33.203125
7443		-39.062500
7444		-35.156250
7445		-39.062500
7446		-37.109375
7447		-41.015625
7448		-37.109375
7449		-41.015625
7450		-39.062500
7451		-42.968750
7452		-39.062500
7453		-42.968750
7454		-39.062500
7455		-42.968750
7456		-41.015625
7457		-44.921875
7458		-41.015625
7459		-44.921875
7460		-41.015625
7461		-44.921875
7462		-42.968750
7463		-44.921875
7464		-41.015625
7465		-44.921875
7466		-41.015625
7467		-42.968750
7468		-41.015625
7469		-42.968750
7470		-41.015625
7471		-42.968750
7472		-41.015625
7473		-42.968750
7474		-39.062500
7475		-41.015625
7476		-39.062500
7477		-41.015625
7478		-37.109375
7479		-39.062500
7480		-37.109375
7481		-37.109375
7482		-35.156250
7483		-37.109375
7484		-33.203125
7485		-35.156250
7486		-31.250000
7487		-33.203125
7488		-29.296875
7489		-31.250000
7490		-29.296875
7491		-29.296875
7492		-27.343750
7493		-27.343750
7494		-25.390625
7495		-25.390625
7496		-23.437500
7497		-25.390625
7498		-21.484375
7499		-21.484375
7500		-17.578125
7501		-19.531250
7502		-15.625000
7503		-17.578125
7504		-13.671875
7505		-15.625000
7506		-11.718750
7507		-11.718750
7508		-7.812500
7509		-11.718750
7510		-5.859375
7511		-7.812500
7512		-3.906250
7513		-5.859375
7514		0.000000
7515		-1.953125
7516		1.953125
7517		0.000000
7518		3.906250
7519		1.953125
7520		7.812500
7521		5.859375
7522		9.765625
7523		7.812500
7524		11.718750
7525		11.718750
7526		15.625000
7527		13.671875
7528		17.578125
7529		17.578125
7530		21.484375
7531		19.531250
7532		23.437500
7533		21.484375
7534		25.390625
7535		23.437500
7536		27.343750
7537		27.343750
7538		31.250000
7539		29.296875
7540		33.203125
7541		31.250000
7542		37.109375
7543		33.203125
7544		37.109375
7545		37.109375
7546		41.015625
7547		39.062500
7548		42.968750
7549		41.015625
7550		44.921875
7551		42.968750
7552		46.875000
7553		44.921875
7554		48.828125
7555		46.875000
7556		50.781250
7557		48.828125
7558		52.734375
7559		50.781250
7560		54.687500
7561		52.734375
7562		54.687500
7563		52.734375
7564		56.640625
7565		54.687500
7566		60.546875
7567		54.687500
7568		58.593750
7569		56.640625
7570		60.546875
7571		56.640625
7572		62.500000
7573		60.546875
7574		62.500000
7575		60.546875
7576		64.453125
7577		62.500000
7578		64.453125
7579		62.500000
7580		64.453125
7581		62.500000
7582		64.453125
7583		60.546875
7584		66.406250
7585		62.500000
7586		66.406250
7587		62.500000
7588		68.359375
7589		64.453125
7590		66.406250
7591		62.500000
7592		68.359375
7593		62.500000
7594		66.406250
7595		62.500000
7596		66.406250
7597		62.500000
7598		66.406250
7599		60.546875
7600		66.406250
7601		60.546875
7602		64.453125
7603		58.593750
7604		62.500000
7605		58.593750
7606		64.453125
7607		56.640625
7608		62.500000
7609		56.640625
7610		60.546875
7611		56.640625
7612		58.593750
7613		52.734375
7614		58.593750
7615		52.734375
7616		56.640625
7617		50.781250
7618		56.640625
7619		50.781250
7620		52.734375
7621		46.875000
7622		52.734375
7623		46.875000
7624		48.828125
7625		42.968750
7626		50.781250
7627		42.968750
7628		44.921875
7629		39.062500
7630		42.968750
7631		33.203125
7632		42.968750
7633		33.203125
7634		41.015625
7635		31.250000
7636		37.109375
7637		27.343750
7638		35.156250
7639		27.343750
7640		31.250000
7641		23.437500
7642		31.250000
7643		21.484375
7644		27.343750
7645		19.531250
7646		25.390625
7647		15.625000
7648		21.484375
7649		13.671875
7650		21.484375
7651		11.718750
7652		19.531250
7653		9.765625
7654		13.671875
7655		3.906250
7656		13.671875
7657		3.906250
7658		7.812500
7659		1.953125
7660		7.812500
7661		-1.953125
7662		1.953125
7663		-5.859375
7664		0.000000
7665		-7.812500
7666		0.000000
7667		-9.765625
7668		-3.906250
7669		-11.718750
7670		-7.812500
7671		-15.625000
7672		-9.765625
7673		-17.578125
7674		-9.765625
7675		-23.437500
7676		-13.671875
7677		-21.484375
7678		-17.578125
7679		-23.437500
7680		-19.531250
7681		-25.390625
7682		-21.484375
7683		-31.250000
7684		-21.484375
7685		-29.296875
7686		-25.390625
7687		-31.250000
7688		-27.343750
7689		-37.109375
7690		-27.343750
7691		-39.062500
7692		-29.296875
7693		-35.156250
7694		-33.203125
7695		-37.109375
7696		-33.203125
7697		-41.015625
7698		-35.156250
7699		-42.968750
7700		-35.156250
7701		-42.968750
7702		-37.109375
7703		-41.015625
7704		-39.062500
7705		-46.875000
7706		-37.109375
7707		-46.875000
7708		-37.109375
7709		-46.875000
7710		-37.109375
7711		-42.968750
7712		-41.015625
7713		-44.921875
7714		-41.015625
7715		-46.875000
7716		-37.109375
7717		-44.921875
7718		-39.062500
7719		-42.968750
7720		-41.015625
7721		-44.921875
7722		-39.062500
7723		-46.875000
7724		-37.109375
7725		-44.921875
7726		-37.109375
7727		-41.015625
7728		-39.062500
7729		-41.015625
7730		-37.109375
7731		-41.015625
7732		-35.156250
7733		-41.015625
7734		-33.203125
7735		-39.062500
7736		-33.203125
7737		-35.156250
7738		-33.203125
7739		-37.109375
7740		-27.343750
7741		-33.203125
7742		-29.296875
7743		-35.156250
7744		-25.390625
7745		-29.296875
7746		-25.390625
7747		-27.343750
7748		-21.484375
7749		-27.343750
7750		-17.578125
7751		-23.437500
7752		-17.578125
7753		-19.531250
7754		-15.625000
7755		-19.531250
7756		-9.765625
7757		-19.531250
7758		-9.765625
7759		-15.625000
7760		-7.812500
7761		-11.718750
7762		-5.859375
7763		-7.812500
7764		-3.906250
7765		-5.859375
7766		0.000000
7767		-5.859375
7768		3.906250
7769		-1.953125
7770		3.906250
7771		1.953125
7772		7.812500
7773		1.953125
7774		13.671875
7775		5.859375
7776		15.625000
7777		11.718750
7778		15.625000
7779		13.671875
7780		17.578125
7781		15.625000
7782		21.484375
7783		15.625000
7784		25.390625
7785		21.484375
7786		25.390625
7787		23.437500
7788		27.343750
7789		25.390625
7790		33.203125
7791		25.390625
7792		35.156250
7793		29.296875
7794		37.109375
7795		33.203125
7796		37.109375
7797		35.156250
7798		41.015625
7799		37.109375
7800		44.921875
7801		37.109375
7802		44.921875
7803		41.015625
7804		46.875000
7805		42.968750
7806		48.828125
7807		42.968750
7808		52.734375
7809		46.875000
7810		52.734375
7811		50.781250
7812		52.734375
7813		50.781250
7814		54.687500
7815		52.734375
7816		56.640625
7817		52.734375
7818		60.546875
7819		52.734375
7820		60.546875
7821		56.640625
7822		60.546875
7823		56.640625
7824		64.453125
7825		54.687500
7826		64.453125
7827		58.593750
7828		64.453125
7829		60.546875
7830		64.453125
7831		60.546875
7832		66.406250
7833		60.546875
7834		68.359375
7835		60.546875
7836		66.406250
7837		62.500000
7838		66.406250
7839		62.500000
7840		68.359375
7841		64.453125
7842		66.406250
7843		60.546875
7844		68.359375
7845		64.453125
7846		66.406250
7847		64.453125
7848		66.406250
7849		62.500000
7850		64.453125
7851		60.546875
7852		68.359375
7853		60.546875
7854		64.453125
7855		58.593750
7856		64.453125
7857		58.593750
7858		64.453125
7859		58.593750
7860		62.500000
7861		58.593750
7862		60.546875
7863		56.640625
7864		60.546875
7865		54.687500
7866		58.593750
7867		54.687500
7868		56.640625
7869		50.781250
7870		56.640625
7871		50.781250
7872		54.687500
7873		48.828125
7874		52.734375
7875		46.875000
7876		50.781250
7877		44.921875
7878		48.828125
7879		42.968750
7880		46.875000
7881		39.062500
7882		44.921875
7883		39.062500
7884		42.968750
7885		35.156250
7886		41.015625
7887		33.203125
7888		37.109375
7889		31.250000
7890		35.156250
7891		29.296875
7892		33.203125
7893		25.390625
7894		31.250000
7895		23.437500
7896		27.343750
7897		21.484375
7898		25.390625
7899		19.531250
7900		23.437500
7901		15.625000
7902		19.531250
7903		13.671875
7904		17.578125
7905		11.718750
7906		15.625000
7907		7.812500
7908		11.718750
7909		5.859375
7910		9.765625
7911		1.953125
7912		7.812500
7913		0.000000
7914		3.906250
7915		-3.906250
7916		1.953125
7917		-5.859375
7918		0.000000
7919		-9.765625
7920		-1.953125
7921		-11.718750
7922		-5.859375
7923		-13.671875
7924		-7.812500
7925		-17.578125
7926		-9.765625
7927		-19.531250
7928		-13.671875
7929		-19.531250
7930		-15.625000
7931		-21.484375
7932		-19.531250
7933		-25.390625
7934		-19.531250
7935		-27.343750
7936		-21.484375
7937		-29.296875
7938		-23.437500
7939		-31.250000
7940		-25.390625
7941		-33.203125
7942		-27.343750
7943		-35.156250
7944		-29.296875
7945		-35.156250
7946		-31.250000
7947		-37.109375
7948		-33.203125
7949		-39.062500
7950		-35.156250
7951		-41.015625
7952		-35.156250
7953		-41.015625
7954		-35.156250
7955		-42.968750
7956		-37.109375
7957		-42.968750
7958		-37.109375
7959		-42.968750
7960		-39.062500
7961		-44.921875
7962		-39.062500
7963		-42.968750
7964		-41.015625
7965		-44.921875
7966		-41.015625
7967		-44.921875
7968		-41.015625
7969		-44.921875
7970		-39.062500
7971		-44.921875
7972		-39.062500
7973		-44.921875
7974		-39.062500
7975		-42.968750
7976		-39.062500
7977		-42.968750
7978		-37.109375
7979		-42.968750
7980		-37.109375
7981		-41.015625
7982		-37.109375
7983		-39.062500
7984		-35.156250
7985		-39.062500
7986		-35.156250
7987		-39.062500
7988		-33.203125
7989		-37.109375
7990		-31.250000
7991		-35.156250
7992		-29.296875
7993		-33.203125
7994		-29.296875
7995		-31.250000
7996		-27.343750
7997		-29.296875
7998		-25.390625
7999		-27.343750
8000		-21.484375
8001		-25.390625
8002		-19.531250
8003		-23.437500
8004		-17.578125
8005		-21.484375
8006		-15.625000
8007		-19.531250
8008		-13.671875
8009		-15.625000
8010		-11.718750
8011		-13.671875
8012		-7.812500
8013		-9.765625
8014		-7.812500
8015		-7.812500
8016		-3.906250
8017		-7.812500
8018		-1.953125
8019		-3.906250
8020		1.953125
8021		0.000000
8022		3.906250
8023		0.000000
8024		7.812500
8025		3.906250
8026		9.765625
8027		7.812500
8028		11.718750
8029		9.765625
8030		15.625000
8031		13.671875
8032		17.578125
8033		15.625000
8034		19.531250
8035		17.578125
8036		23.437500
8037		21.484375
8038		25.390625
8039		23.437500
8040		29.296875
8041		25.390625
8042		29.296875
8043		27.343750
8044		33.203125
8045		31.250000
8046		35.156250
8047		33.203125
8048		37.109375
8049		35.156250
8050		41.015625
8051		37.109375
8052		42.968750
8053		41.015625
8054		44.921875
8055		41.015625
8056		48.828125
8057		44.921875
8058		46.875000
8059		46.875000
8060		50.781250
8061		48.828125
8062		52.734375
8063		48.828125
8064		52.734375
8065		52.734375
8066		54.687500
8067		52.734375
8068		56.640625
8069		54.687500
8070		58.593750
8071		56.640625
8072		60.546875
8073		54.687500
8074		62.500000
8075		58.593750
8076		62.500000
8077		58.593750
8078		62.500000
8079		60.546875
8080		64.453125
8081		62.500000
8082		64.453125
8083		62.500000
8084		66.406250
8085		62.500000
8086		66.406250
8087		62.500000
8088		66.406250
8089		62.500000
8090		68.359375
8091		64.453125
8092		66.406250
8093		64.453125
8094		66.406250
8095		62.500000
8096		68.359375
8097		64.453125
8098		66.406250
8099		62.500000
8100		66.406250
8101		62.500000
8102		66.406250
8103		62.500000
8104		66.406250
8105		62.500000
8106		66.406250
8107		60.546875
8108		66.406250
8109		60.546875
8110		62.500000
8111		58.593750
8112		62.500000
8113		58.593750
8114		62.500000
8115		56.640625
8116		60.546875
8117		56.640625
8118		58.593750
8119		54.687500
8120		58.593750
8121		52.734375
8122		56.640625
8123		50.781250
8124		54.687500
8125		48.828125
8126		52.734375
8127		46.875000
8128		50.781250
8129		44.921875
8130		50.781250
8131		42.968750
8132		46.875000
8133		41.015625
8134		44.921875
8135		39.062500
8136		42.968750
8137		37.109375
8138		41.015625
8139		33.203125
8140		39.062500
8141		33.203125
8142		37.109375
8143		29.296875
8144		35.156250
8145		27.343750
8146		31.250000
8147		25.390625
8148		29.296875
8149		23.437500
8150		27.343750
8151		19.531250
8152		23.437500
8153		17.578125
8154		21.484375
8155		13.671875
8156		19.531250
8157		11.718750
8158		15.625000
8159		9.765625
8160		15.625000
8161		5.859375
8162		11.718750
8163		3.906250
8164		7.812500
8165		0.000000
8166		5.859375
8167		-1.953125
8168		1.953125
8169		-5.859375
8170		0.000000
8171		-7.812500
8172		-1.953125
8173		-9.765625
8174		-5.859375
8175		-11.718750
8176		-7.812500
8177		-13.671875
8178		-9.765625
8179		-17.578125
8180		-11.718750
8181		-19.531250
8182		-15.625000
8183		-21.484375
8184		-17.578125
8185		-23.437500
8186		-19.531250
8187		-25.390625
8188		-21.484375
8189		-27.343750
8190		-23.437500
8191		-29.296875
8192		-25.390625
8193		-31.250000
8194		-27.343750
8195		-33.203125
8196		-29.296875
8197		-35.156250
8198		-29.296875
8199		-35.156250
8200		-33.203125
8201		-39.062500
8202		-35.156250
8203		-39.062500
8204		-35.156250
8205		-41.015625
8206		-35.156250
8207		-41.015625
8208		-37.109375
8209		-41.015625
8210		-39.062500
8211		-42.968750
8212		-39.062500
8213		-42.968750
8214		-39.062500
8215		-42.968750
8216		-41.015625
8217		-42.968750
8218		-41.015625
8219		-44.921875
8220		-41.015625
8221		-42.968750
8222		-41.015625
8223		-42.968750
8224		-41.015625
8225		-42.968750
8226		-41.015625
8227		-42.968750
8228		-39.062500
8229		-42.968750
8230		-39.062500
8231		-41.015625
8232		-39.062500
8233		-41.015625
8234		-37.109375
8235		-41.015625
8236		-35.156250
8237		-39.062500
8238		-35.156250
8239		-37.109375
8240		-33.203125
8241		-37.109375
8242		-33.203125
8243		-35.156250
8244		-31.250000
8245		-33.203125
8246		-27.343750
8247		-31.250000
8248		-27.343750
8249		-29.296875
8250		-25.390625
8251		-27.343750
8252		-21.484375
8253		-25.390625
8254		-21.484375
8255		-23.437500
8256		-19.531250
8257		-21.484375
8258		-15.625000
8259		-19.531250
8260		-13.671875
8261		-15.625000
8262		-11.718750
8263		-13.671875
8264		-9.765625
8265		-11.718750
8266		-7.812500
8267		-7.812500
8268		-3.906250
8269		-5.859375
8270		-1.953125
8271		-3.906250
8272		0.000000
8273		0.000000
8274		3.906250
8275		1.953125
8276		7.812500
8277		3.906250
8278		9.765625
8279		5.859375
8280		11.718750
8281		9.765625
8282		13.671875
8283		11.718750
8284		15.625000
8285		15.625000
8286		19.531250
8287		17.578125
8288		21.484375
8289		19.531250
8290		25.390625
8291		23.437500
8292		27.343750
8293		25.390625
8294		29.296875
8295		27.343750
8296		33.203125
8297		31.250000
8298		35.156250
8299		33.203125
8300		37.109375
8301		35.156250
8302		39.062500
8303		35.156250
8304		41.015625
8305		39.062500
8306		42.968750
8307		41.015625
8308		44.921875
8309		42.968750
8310		46.875000
8311		44.921875
8312		48.828125
8313		46.875000
8314		52.734375
8315		48.828125
8316		52.734375
8317		50.781250
8318		54.687500
8319		52.734375
8320		56.640625
8321		54.687500
8322		58.593750
8323		54.687500
8324		58.593750
8325		56.640625
8326		60.546875
8327		58.593750
8328		62.500000
8329		58.593750
8330		62.500000
8331		58.593750
8332		64.453125
8333		60.546875
8334		64.453125
8335		62.500000
8336		64.453125
8337		62.500000
8338		66.406250
8339		62.500000
8340		66.406250
8341		62.500000
8342		66.406250
8343		64.453125
8344		66.406250
8345		64.453125
8346		66.406250
8347		62.500000
8348		66.406250
8349		64.453125
8350		66.406250
8351		64.453125
8352		66.406250
8353		62.500000
8354		66.406250
8355		62.500000
8356		66.406250
8357		62.500000
8358		64.453125
8359		62.500000
8360		64.453125
8361		60.546875
8362		64.453125
8363		60.546875
8364		62.500000
8365		58.593750
8366		62.500000
8367		56.640625
8368		60.546875
8369		54.687500
8370		60.546875
8371		54.687500
8372		58.593750
8373		52.734375
8374		56.640625
8375		52.734375
8376		54.687500
8377		50.781250
8378		54.687500
8379		48.828125
8380		52.734375
8381		44.921875
8382		50.781250
8383		44.921875
8384		48.828125
8385		42.968750
8386		46.875000
8387		39.062500
8388		44.921875
8389		37.109375
8390		42.968750
8391		35.156250
8392		39.062500
8393		33.203125
8394		37.109375
8395		29.296875
8396		35.156250
8397		27.343750
8398		33.203125
8399		25.390625
8400		31.250000
8401		23.437500
8402		27.343750
8403		19.531250
8404		25.390625
8405		17.578125
8406		21.484375
8407		15.625000
8408		19.531250
8409		11.718750
8410		17.578125
8411		9.765625
8412		13.671875
8413		7.812500
8414		11.718750
8415		3.906250
8416		9.765625
8417		1.953125
8418		5.859375
8419		-1.953125
8420		3.906250
8421		-3.906250
8422		1.953125
8423		-5.859375
8424		-1.953125
8425		-9.765625
8426		-3.906250
8427		-11.718750
8428		-7.812500
8429		-13.671875
8430		-9.765625
8431		-15.625000
8432		-11.718750
8433		-19.531250
8434		-15.625000
8435		-21.484375
8436		-17.578125
8437		-23.437500
8438		-19.531250
8439		-25.390625
8440		-21.484375
8441		-27.343750
8442		-23.437500
8443		-29.296875
8444		-25.390625
8445		-31.250000
8446		-27.343750
8447		-33.203125
8448		-29.296875
8449		-35.156250
8450		-31.250000
8451		-35.156250
8452		-33.203125
8453		-37.109375
8454		-33.203125
8455		-39.062500
8456		-35.156250
8457		-39.062500
8458		-37.109375
8459		-41.015625
8460		-37.109375
8461		-41.015625
8462		-37.109375
8463		-42.968750
8464		-39.062500
8465		-42.968750
8466		-39.062500
8467		-42.968750
8468		-41.015625
8469		-42.968750
8470		-41.015625
8471		-44.921875
8472		-41.015625
8473		-42.968750
8474		-41.015625
8475		-42.968750
8476		-41.015625
8477		-42.968750
8478		-39.062500
8479		-42.968750
8480		-39.062500
8481		-42.968750
8482		-39.062500
8483		-41.015625
8484		-39.062500
8485		-41.015625
8486		-37.109375
8487		-41.015625
8488		-37.109375
8489		-39.062500
8490		-35.156250
8491		-37.109375
8492		-35.156250
8493		-37.109375
8494		-33.203125
8495		-35.156250
8496		-31.250000
8497		-33.203125
8498		-29.296875
8499		-31.250000
8500		-27.343750
8501		-29.296875
8502		-25.390625
8503		-27.343750
8504		-23.437500
8505		-25.390625
8506		-21.484375
8507		-23.437500
8508		-19.531250
8509		-21.484375
8510		-17.578125
8511		-19.531250
8512		-15.625000
8513		-17.578125
8514		-11.718750
8515		-13.671875
8516		-9.765625
8517		-11.718750
8518		-7.812500
8519		-9.765625
8520		-5.859375
8521		-7.812500
8522		-1.953125
8523		-3.906250
8524		0.000000
8525		-1.953125
8526		1.953125
8527		0.000000
8528		5.859375
8529		3.906250
8530		7.812500
8531		5.859375
8532		11.718750
8533		7.812500
8534		13.671875
8535		11.718750
8536		15.625000
8537		13.671875
8538		19.531250
8539		17.578125
8540		21.484375
8541		19.531250
8542		23.437500
8543		21.484375
8544		25.390625
8545		23.437500
8546		29.296875
8547		27.343750
8548		31.250000
8549		29.296875
8550		35.156250
8551		33.203125
8552		37.109375
8553		35.156250
8554		39.062500
8555		35.156250
8556		41.015625
8557		39.062500
8558		42.968750
8559		41.015625
8560		46.875000
8561		42.968750
8562		48.828125
8563		44.921875
8564		48.828125
8565		46.875000
8566		50.781250
8567		48.828125
8568		52.734375
8569		50.781250
8570		54.687500
8571		52.734375
8572		56.640625
8573		54.687500
8574		58.593750
8575		54.687500
8576		58.593750
8577		56.640625
8578		60.546875
8579		58.593750
8580		62.500000
8581		58.593750
8582		62.500000
8583		60.546875
8584		64.453125
8585		62.500000
8586		64.453125
8587		60.546875
8588		66.406250
8589		62.500000
8590		66.406250
8591		64.453125
8592		66.406250
8593		62.500000
8594		68.359375
8595		64.453125
8596		66.406250
8597		64.453125
8598		68.359375
8599		62.500000
8600		68.359375
8601		64.453125
8602		66.406250
8603		64.453125
8604		66.406250
8605		64.453125
8606		68.359375
8607		64.453125
8608		66.406250
8609		62.500000
8610		66.406250
8611		62.500000
8612		64.453125
8613		60.546875
8614		64.453125
8615		60.546875
8616		64.453125
8617		58.593750
8618		62.500000
8619		58.593750
8620		60.546875
8621		56.640625
8622		60.546875
8623		56.640625
8624		58.593750
8625		52.734375
8626		58.593750
8627		52.734375
8628		56.640625
8629		50.781250
8630		54.687500
8631		48.828125
8632		52.734375
8633		46.875000
8634		50.781250
8635		44.921875
8636		48.828125
8637		42.968750
8638		46.875000
8639		41.015625
8640		44.921875
8641		39.062500
8642		42.968750
8643		37.109375
8644		41.015625
8645		35.156250
8646		39.062500
8647		31.250000
8648		35.156250
8649		29.296875
8650		33.203125
8651		27.343750
8652		31.250000
8653		25.390625
8654		29.296875
8655		21.484375
8656		25.390625
8657		19.531250
8658		23.437500
8659		15.625000
8660		21.484375
8661		13.671875
8662		17.578125
8663		11.718750
8664		15.625000
8665		7.812500
8666		13.671875
8667		5.859375
8668		9.765625
8669		3.906250
8670		7.812500
8671		0.000000
8672		3.906250
8673		-1.953125
8674		1.953125
8675		-5.859375
8676		0.000000
8677		-7.812500
8678		-3.906250
8679		-9.765625
8680		-5.859375
8681		-13.671875
8682		-7.812500
8683		-17.578125
8684		-11.718750
8685		-17.578125
8686		-13.671875
8687		-19.531250
8688		-15.625000
8689		-21.484375
8690		-17.578125
8691		-23.437500
8692		-19.531250
8693		-27.343750
8694		-21.484375
8695		-27.343750
8696		-23.437500
8697		-29.296875
8698		-25.390625
8699		-31.250000
8700		-27.343750
8701		-33.203125
8702		-29.296875
8703		-35.156250
8704		-31.250000
8705		-37.109375
8706		-33.203125
8707		-37.109375
8708		-33.203125
8709		-39.062500
8710		-35.156250
8711		-39.062500
8712		-37.109375
8713		-41.015625
8714		-37.109375
8715		-41.015625
8716		-39.062500
8717		-42.968750
8718		-39.062500
8719		-42.968750
8720		-39.062500
8721		-42.968750
8722		-41.015625
8723		-42.968750
8724		-39.062500
8725		-42.968750
8726		-39.062500
8727		-42.968750
8728		-41.015625
8729		-42.968750
8730		-39.062500
8731		-42.968750
8732		-39.062500
8733		-42.968750
8734		-39.062500
8735		-42.968750
8736		-37.109375
8737		-41.015625
8738		-37.109375
8739		-39.062500
8740		-37.109375
8741		-39.062500
8742		-35.156250
8743		-37.109375
8744		-33.203125
8745		-37.109375
8746		-31.250000
8747		-35.156250
8748		-31.250000
8749		-33.203125
8750		-29.296875
8751		-31.250000
8752		-27.343750
8753		-29.296875
8754		-25.390625
8755		-27.343750
8756		-23.437500
8757		-25.390625
8758		-21.484375
8759		-23.437500
8760		-19.531250
8761		-21.484375
8762		-17.578125
8763		-19.531250
8764		-15.625000
8765		-17.578125
8766		-13.671875
8767		-13.671875
8768		-9.765625
8769		-11.718750
8770		-7.812500
8771		-9.765625
8772		-5.859375
8773		-7.812500
8774		-3.906250
8775		-5.859375
8776		0.000000
8777		-1.953125
8778		1.953125
8779		0.000000
8780		3.906250
8781		3.906250
8782		7.812500
8783		5.859375
8784		9.765625
8785		7.812500
8786		11.718750
8787		11.718750
8788		15.625000
8789		13.671875
8790		19.531250
8791		15.625000
8792		21.484375
8793		19.531250
8794		23.437500
8795		21.484375
8796		25.390625
8797		25.390625
8798		29.296875
8799		27.343750
8800		31.250000
8801		29.296875
8802		35.156250
8803		31.250000
8804		35.156250
8805		35.156250
8806		37.109375
8807		37.109375
8808		41.015625
8809		39.062500
8810		42.968750
8811		41.015625
8812		44.921875
8813		42.968750
8814		46.875000
8815		44.921875
8816		48.828125
8817		46.875000
8818		50.781250
8819		46.875000
8820		52.734375
8821		50.781250
8822		54.687500
8823		52.734375
8824		56.640625
8825		52.734375
8826		56.640625
8827		54.687500
8828		58.593750
8829		56.640625
8830		60.546875
8831		56.640625
8832		62.500000
8833		58.593750
8834		62.500000
8835		60.546875
8836		64.453125
8837		60.546875
8838		64.453125
8839		62.500000
8840		64.453125
8841		62.500000
8842		66.406250
8843		62.500000
8844		66.406250
8845		62.500000
8846		66.406250
8847		64.453125
8848		66.406250
8849		64.453125
8850		66.406250
8851		62.500000
8852		66.406250
8853		64.453125
8854		66.406250
8855		64.453125
8856		66.406250
8857		62.500000
8858		68.359375
8859		62.500000
8860		66.406250
8861		62.500000
8862		66.406250
8863		62.500000
8864		66.406250
8865		60.546875
8866		64.453125
8867		60.546875
8868		64.453125
8869		58.593750
8870		62.500000
8871		58.593750
8872		60.546875
8873		56.640625
8874		60.546875
8875		56.640625
8876		60.546875
8877		54.687500
8878		58.593750
8879		52.734375
8880		56.640625
8881		50.781250
8882		54.687500
8883		48.828125
8884		52.734375
8885		46.875000
8886		50.781250
8887		46.875000
8888		48.828125
8889		42.968750
8890		46.875000
8891		41.015625
8892		44.921875
8893		39.062500
8894		42.968750
8895		37.109375
8896		41.015625
8897		33.203125
8898		39.062500
8899		31.250000
8900		37.109375
8901		29.296875
8902		35.156250
8903		27.343750
8904		33.203125
8905		25.390625
8906		29.296875
8907		21.484375
8908		25.390625
8909		19.531250
8910		23.437500
8911		17.578125
8912		21.484375
8913		13.671875
8914		19.531250
8915		11.718750
8916		15.625000
8917		7.812500
8918		13.671875
8919		5.859375
8920		11.718750
8921		3.906250
8922		7.812500
8923		1.953125
8924		5.859375
8925		-1.953125
8926		3.906250
8927		-3.906250
8928		0.000000
8929		-7.812500
8930		-1.953125
8931		-9.765625
8932		-3.906250
8933		-11.718750
8934		-7.812500
8935		-15.625000
8936		-9.765625
8937		-17.578125
8938		-11.718750
8939		-19.531250
8940		-15.625000
8941		-21.484375
8942		-17.578125
8943		-23.437500
8944		-19.531250
8945		-25.390625
8946		-21.484375
8947		-29.296875
8948		-23.437500
8949		-29.296875
8950		-25.390625
8951		-31.250000
8952		-27.343750
8953		-33.203125
8954		-29.296875
8955		-35.156250
8956		-31.250000
8957		-37.109375
8958		-33.203125
8959		-39.062500
8960		-35.156250
8961		-39.062500
8962		-35.156250
8963		-39.062500
8964		-37.109375
8965		-41.015625
8966		-37.109375
8967		-41.015625
8968		-37.109375
8969		-42.968750
8970		-39.062500
8971		-42.968750
8972		-39.062500
8973		-42.968750
8974		-41.015625
8975		-44.921875
8976		-39.062500
8977		-44.921875
8978		-39.062500
8979		-42.968750
8980		-41.015625
8981		-42.968750
8982		-41.015625
8983		-42.968750
8984		-39.062500
8985		-42.968750
8986		-39.062500
8987		-41.015625
8988		-39.062500
8989		-41.015625
8990		-39.062500
8991		-41.015625
8992		-37.109375
8993		-39.062500
8994		-35.156250
8995		-39.062500
8996		-35.156250
8997		-37.109375
8998		-33.203125
8999		-35.156250
9000		-31.250000
9001		-35.156250
9002		-29.296875
9003		-31.250000
9004		-27.343750
9005		-31.250000
9006		-27.343750
9007		-27.343750
9008		-25.390625
9009		-27.343750
9010		-21.484375
9011		-25.390625
9012		-19.531250
9013		-21.484375
9014		-17.578125
9015		-19.531250
9016		-15.625000
9017		-17.578125
9018		-13.671875
9019		-15.625000
9020		-11.718750
9021		-13.671875
9022		-9.765625
9023		-9.765625
9024		-5.859375
9025		-7.812500
9026		-3.906250
9027		-5.859375
9028		-1.953125
9029		-3.906250
9030		1.953125
9031		0.000000
9032		3.906250
9033		1.953125
9034		5.859375
9035		3.906250
9036		9.765625
9037		7.812500
9038		11.718750
9039		9.765625
9040		13.671875
9041		13.671875
9042		17.578125
9043		15.625000
9044		19.531250
9045		17.578125
9046		23.437500
9047		21.484375
9048		25.390625
9049		23.437500
9050		27.343750
9051		25.390625
9052		31.250000
9053		29.296875
9054		33.203125
9055		31.250000
9056		35.156250
9057		33.203125
9058		37.109375
9059		35.156250
9060		41.015625
9061		39.062500
9062		42.968750
9063		39.062500
9064		44.921875
9065		42.968750
9066		46.875000
9067		44.921875
9068		48.828125
9069		46.875000
9070		50.781250
9071		46.875000
9072		52.734375
9073		50.781250
9074		52.734375
9075		52.734375
9076		56.640625
9077		52.734375
9078		56.640625
9079		54.687500
9080		58.593750
9081		56.640625
9082		58.593750
9083		56.640625
9084		62.500000
9085		58.593750
9086		62.500000
9087		58.593750
9088		64.453125
9089		60.546875
9090		64.453125
9091		62.500000
9092		64.453125
9093		62.500000
9094		66.406250
9095		62.500000
9096		66.406250
9097		62.500000
9098		66.406250
9099		64.453125
9100		66.406250
9101		64.453125
9102		66.406250
9103		64.453125
9104		68.359375
9105		64.453125
9106		68.359375
9107		64.453125
9108		66.406250
9109		62.500000
9110		66.406250
9111		64.453125
9112		66.406250
9113		62.500000
9114		66.406250
9115		62.500000
9116		66.406250
9117		60.546875
9118		64.453125
9119		60.546875
9120		64.453125
9121		60.546875
9122		64.453125
9123		58.593750
9124		62.500000
9125		56.640625
9126		60.546875
9127		56.640625
9128		60.546875
9129		54.687500
9130		58.593750
9131		52.734375
9132		56.640625
9133		52.734375
9134		54.687500
9135		50.781250
9136		54.687500
9137		46.875000
9138		52.734375
9139		46.875000
9140		50.781250
9141		44.921875
9142		48.828125
9143		41.015625
9144		46.875000
9145		41.015625
9146		44.921875
9147		37.109375
9148		42.968750
9149		35.156250
9150		39.062500
9151		33.203125
9152		37.109375
9153		31.250000
9154		35.156250
9155		27.343750
9156		33.203125
9157		25.390625
9158		29.296875
9159		23.437500
9160		27.343750
9161		19.531250
9162		25.390625
9163		17.578125
9164		21.484375
9165		15.625000
9166		19.531250
9167		11.718750
9168		17.578125
9169		9.765625
9170		13.671875
9171		7.812500
9172		11.718750
9173		3.906250
9174		9.765625
9175		1.953125
9176		5.859375
9177		-1.953125
9178		3.906250
9179		-3.906250
9180		1.953125
9181		-5.859375
9182		-1.953125
9183		-9.765625
9184		-3.906250
9185		-11.718750
9186		-5.859375
9187		-13.671875
9188		-9.765625
9189		-15.625000
9190		-11.718750
9191		-19.531250
9192		-15.625000
9193		-21.484375
9194		-17.578125
9195		-23.437500
9196		-19.531250
9197		-25.390625
9198		-21.484375
9199		-27.343750
9200		-23.437500
9201		-29.296875
9202		-25.390625
9203		-31.250000
9204		-27.343750
9205		-33.203125
9206		-29.296875
9207		-35.156250
9208		-31.250000
9209		-35.156250
9210		-31.250000
9211		-37.109375
9212		-33.203125
9213		-39.062500
9214		-35.156250
9215		-39.062500
9216		-35.156250
9217		-41.015625
9218		-37.109375
9219		-41.015625
9220		-37.109375
9221		-42.968750
9222		-39.062500
9223		-42.968750
9224		-39.062500
9225		-42.968750
9226		-41.015625
9227		-42.968750
9228		-41.015625
9229		-42.968750
9230		-41.015625
9231		-44.921875
9232		-41.015625
9233		-42.968750
9234		-41.015625
9235		-42.968750
9236		-39.062500
9237		-42.968750
9238		-39.062500
9239		-42.968750
9240		-39.062500
9241		-41.015625
9242		-39.062500
9243		-41.015625
9244		-37.109375
9245		-39.062500
9246		-37.109375
9247		-39.062500
9248		-35.156250
9249		-37.109375
9250		-33.203125
9251		-37.109375
9252		-33.203125
9253		-35.156250
9254		-31.250000
9255		-33.203125
9256		-29.296875
9257		-31.250000
9258		-27.343750
9259		-29.296875
9260		-25.390625
9261		-27.343750
9262		-23.437500
9263		-25.390625
9264		-21.484375
9265		-23.437500
9266		-19.531250
9267		-21.484375
9268		-17.578125
9269		-19.531250
9270		-15.625000
9271		-17.578125
9272		-11.718750
9273		-15.625000
9274		-9.765625
9275		-11.718750
9276		-7.812500
9277		-9.765625
9278		-3.906250
9279		-7.812500
9280		-1.953125
9281		-3.906250
9282		0.000000
9283		-1.953125
9284		3.906250
9285		1.953125
9286		5.859375
9287		3.906250
9288		7.812500
9289		5.859375
9290		9.765625
9291		9.765625
9292		13.671875
9293		11.718750
9294		17.578125
9295		15.625000
9296		19.531250
9297		17.578125
9298		21.484375
9299		19.531250
9300		23.437500
9301		23.437500
9302		27.343750
9303		25.390625
9304		29.296875
9305		27.343750
9306		33.203125
9307		29.296875
9308		33.203125
9309		33.203125
9310		37.109375
9311		33.203125
9312		39.062500
9313		37.109375
9314		41.015625
9315		39.062500
9316		42.968750
9317		41.015625
9318		44.921875
9319		42.968750
9320		48.828125
9321		44.921875
9322		48.828125
9323		46.875000
9324		50.781250
9325		48.828125
9326		52.734375
9327		50.781250
9328		54.687500
9329		52.734375
9330		56.640625
9331		54.687500
9332		58.593750
9333		54.687500
9334		58.593750
9335		56.640625
9336		60.546875
9337		58.593750
9338		62.500000
9339		58.593750
9340		62.500000
9341		60.546875
9342		62.500000
9343		60.546875
9344		64.453125
9345		60.546875
9346		64.453125
9347		62.500000
9348		66.406250
9349		62.500000
9350		66.406250
9351		62.500000
9352		66.406250
9353		64.453125
9354		66.406250
9355		64.453125
9356		68.359375
9357		62.500000
9358		66.406250
9359		64.453125
9360		66.406250
9361		62.500000
9362		66.406250
9363		62.500000
9364		66.406250
9365		62.500000
9366		66.406250
9367		62.500000
9368		64.453125
9369		60.546875
9370		64.453125
9371		60.546875
9372		64.453125
9373		58.593750
9374		64.453125
9375		58.593750
9376		62.500000
9377		56.640625
9378		60.546875
9379		56.640625
9380		58.593750
9381		54.687500
9382		58.593750
9383		52.734375
9384		56.640625
9385		50.781250
9386		54.687500
9387		48.828125
9388		54.687500
9389		48.828125
9390		50.781250
9391		46.875000
9392		48.828125
9393		44.921875
9394		46.875000
9395		41.015625
9396		46.875000
9397		39.062500
9398		44.921875
9399		37.109375
9400		41.015625
9401		35.156250
9402		39.062500
9403		33.203125
9404		37.109375
9405		31.250000
9406		35.156250
9407		27.343750
9408		33.203125
9409		25.390625
9410		29.296875
9411		23.437500
9412		27.343750
9413		19.531250
9414		25.390625
9415		17.578125
9416		21.484375
9417		15.625000
9418		19.531250
9419		11.718750
9420		17.578125
9421		9.765625
9422		13.671875
9423		7.812500
9424		11.718750
9425		3.906250
9426		7.812500
9427		1.953125
9428		5.859375
9429		-1.953125
9430		3.906250
9431		-3.906250
9432		1.953125
9433		-5.859375
9434		-1.953125
9435		-9.765625
9436		-3.906250
9437		-11.718750
9438		-7.812500
9439		-13.671875
9440		-9.765625
9441		-15.625000
9442		-11.718750
9443		-17.578125
9444		-13.671875
9445		-21.484375
9446		-17.578125
9447		-23.437500
9448		-19.531250
9449		-25.390625
9450		-21.484375
9451		-27.343750
9452		-23.437500
9453		-29.296875
9454		-25.390625
9455		-31.250000
9456		-27.343750
9457		-33.203125
9458		-29.296875
9459		-35.156250
9460		-31.250000
9461		-35.156250
9462		-33.203125
9463		-37.109375
9464		-33.203125
9465		-39.062500
9466		-35.156250
9467		-39.062500
9468		-37.109375
9469		-41.015625
9470		-37.109375
9471		-41.015625
9472		-39.062500
9473		-42.968750
9474		-39.062500
9475		-42.968750
9476		-41.015625
9477		-42.968750
9478		-41.015625
9479		-44.921875
9480		-41.015625
9481		-44.921875
9482		-41.015625
9483		-44.921875
9484		-41.015625
9485		-44.921875
9486		-41.015625
9487		-42.968750
9488		-41.015625
9489		-42.968750
9490		-41.015625
9491		-44.921875
9492		-39.062500
9493		-41.015625
9494		-39.062500
9495		-41.015625
9496		-37.109375
9497		-41.015625
9498		-37.109375
9499		-39.062500
9500		-35.156250
9501		-39.062500
9502		-35.156250
9503		-37.109375
9504		-33.203125
9505		-35.156250
9506		-31.250000
9507		-33.203125
9508		-29.296875
9509		-33.203125
9510		-29.296875
9511		-31.250000
9512		-27.343750
9513		-29.296875
9514		-25.390625
9515		-27.343750
9516		-23.437500
9517		-25.390625
9518		-19.531250
9519		-21.484375
9520		-17.578125
9521		-21.484375
9522		-15.625000
9523		-17.578125
9524		-13.671875
9525		-15.625000
9526		-11.718750
9527		-13.671875
9528		-7.812500
9529		-9.765625
9530		-5.859375
9531		-7.812500
9532		-3.906250
9533		-5.859375
9534		0.000000
9535		-1.953125
9536		1.953125
9537		0.000000
9538		3.906250
9539		1.953125
9540		7.812500
9541		5.859375
9542		9.765625
9543		7.812500
9544		11.718750
9545		11.718750
9546		15.625000
9547		11.718750
9548		17.578125
9549		15.625000
9550		21.484375
9551		19.531250
9552		23.437500
9553		21.484375
9554		25.390625
9555		23.437500
9556		27.343750
9557		27.343750
9558		31.250000
9559		27.343750
9560		33.203125
9561		31.250000
9562		35.156250
9563		33.203125
9564		37.109375
9565		35.156250
9566		39.062500
9567		37.109375
9568		42.968750
9569		41.015625
9570		44.921875
9571		42.968750
9572		46.875000
9573		44.921875
9574		48.828125
9575		44.921875
9576		50.781250
9577		48.828125
9578		52.734375
9579		50.781250
9580		54.687500
9581		52.734375
9582		56.640625
9583		52.734375
9584		56.640625
9585		54.687500
9586		58.593750
9587		56.640625
9588		60.546875
9589		56.640625
9590		60.546875
9591		58.593750
9592		62.500000
9593		60.546875
9594		62.500000
9595		60.546875
9596		62.500000
9597		62.500000
9598		64.453125
9599		62.500000
9600		64.453125
9601		62.500000
9602		64.453125
9603		62.500000
9604		66.406250
9605		64.453125
9606		66.406250
9607		64.453125
9608		66.406250
9609		64.453125
9610		66.406250
9611		64.453125
9612		66.406250
9613		62.500000
9614		66.406250
9615		62.500000
9616		66.406250
9617		62.500000
9618		66.406250
9619		62.500000
9620		66.406250
9621		60.546875
9622		64.453125
9623		60.546875
9624		64.453125
9625		58.593750
9626		64.453125
9627		58.593750
9628		62.500000
9629		58.593750
9630		60.546875
9631		56.640625
9632		60.546875
9633		54.687500
9634		58.593750
9635		54.687500
9636		56.640625
9637		52.734375
9638		56.640625
9639		50.781250
9640		54.687500
9641		48.828125
9642		52.734375
9643		46.875000
9644		50.781250
9645		44.921875
9646		48.828125
9647		42.968750
9648		46.875000
9649		41.015625
9650		44.921875
9651		39.062500
9652		42.968750
9653		37.109375
9654		41.015625
9655		33.203125
9656		39.062500
9657		31.250000
9658		37.109375
9659		29.296875
9660		33.203125
9661		27.343750
9662		31.250000
9663		23.437500
9664		27.343750
9665		21.484375
9666		25.390625
9667		19.531250
9668		23.437500
9669		15.625000
9670		21.484375
9671		13.671875
9672		17.578125
9673		11.718750
9674		15.625000
9675		7.812500
9676		11.718750
9677		5.859375
9678		9.765625
9679		1.953125
9680		7.812500
9681		0.000000
9682		3.906250
9683		-3.906250
9684		1.953125
9685		-5.859375
9686		-1.953125
9687		-7.812500
9688		-3.906250
9689		-11.718750
9690		-5.859375
9691		-13.671875
9692		-9.765625
9693		-15.625000
9694		-9.765625
9695		-17.578125
9696		-13.671875
9697		-19.531250
9698		-15.625000
9699		-21.484375
9700		-19.531250
9701		-25.390625
9702		-19.531250
9703		-27.343750
9704		-23.437500
9705		-29.296875
9706		-25.390625
9707		-31.250000
9708		-27.343750
9709		-33.203125
9710		-29.296875
9711		-33.203125
9712		-31.250000
9713		-35.156250
9714		-33.203125
9715		-37.109375
9716		-33.203125
9717		-39.062500
9718		-35.156250
9719		-39.062500
9720		-35.156250
9721		-41.015625
9722		-37.109375
9723		-41.015625
9724		-39.062500
9725		-42.968750
9726		-39.062500
9727		-42.968750
9728		-39.062500
9729		-42.968750
9730		-41.015625
9731		-44.921875
9732		-41.015625
9733		-44.921875
9734		-41.015625
9735		-44.921875
9736		-41.015625
9737		-44.921875
9738		-41.015625
9739		-44.921875
9740		-41.015625
9741		-42.968750
9742		-39.062500
9743		-42.968750
9744		-41.015625
9745		-42.968750
9746		-39.062500
9747		-41.015625
9748		-37.109375
9749		-41.015625
9750		-37.109375
9751		-39.062500
9752		-35.156250
9753		-39.062500
9754		-35.156250
9755		-37.109375
9756		-33.203125
9757		-37.109375
9758		-33.203125
9759		-35.156250
9760		-31.250000
9761		-33.203125
9762		-29.296875
9763		-31.250000
9764		-27.343750
9765		-29.296875
9766		-25.390625
9767		-27.343750
9768		-23.437500
9769		-25.390625
9770		-21.484375
9771		-23.437500
9772		-19.531250
9773		-21.484375
9774		-17.578125
9775		-19.531250
9776		-15.625000
9777		-17.578125
9778		-11.718750
9779		-13.671875
9780		-9.765625
9781		-11.718750
9782		-5.859375
9783		-7.812500
9784		-3.906250
9785		-5.859375
9786		-1.953125
9787		-3.906250
9788		0.000000
9789		-1.953125
9790		3.906250
9791		1.953125
9792		5.859375
9793		3.906250
9794		9.765625
9795		7.812500
9796		11.718750
9797		9.765625
9798		13.671875
9799		11.718750
9800		15.625000
9801		13.671875
9802		19.531250
9803		17.578125
9804		21.484375
9805		21.484375
9806		25.390625
9807		23.437500
9808		27.343750
9809		25.390625
9810		29.296875
9811		27.343750
9812		31.250000
9813		31.250000
9814		35.156250
9815		33.203125
9816		37.109375
9817		35.156250
9818		39.062500
9819		37.109375
9820		41.015625
9821		39.062500
9822		42.968750
9823		41.015625
9824		44.921875
9825		42.968750
9826		46.875000
9827		44.921875
9828		48.828125
9829		48.828125
9830		50.781250
9831		48.828125
9832		54.687500
9833		50.781250
9834		54.687500
9835		52.734375
9836		56.640625
9837		52.734375
9838		56.640625
9839		54.687500
9840		58.593750
9841		56.640625
9842		60.546875
9843		56.640625
9844		62.500000
9845		58.593750
9846		62.500000
9847		60.546875
9848		62.500000
9849		60.546875
9850		64.453125
9851		62.500000
9852		64.453125
9853		62.500000
9854		64.453125
9855		62.500000
9856		66.406250
9857		62.500000
9858		66.406250
9859		62.500000
9860		66.406250
9861		64.453125
9862		66.406250
9863		64.453125
9864		66.406250
9865		62.500000
9866		66.406250
9867		62.500000
9868		66.406250
9869		62.500000
9870		66.406250
9871		60.546875
9872		66.406250
9873		60.546875
9874		64.453125
9875		60.546875
9876		64.453125
9877		60.546875
9878		64.453125
9879		58.593750
9880		62.500000
9881		58.593750
9882		60.546875
9883		56.640625
9884		60.546875
9885		54.687500
9886		58.593750
9887		54.687500
9888		56.640625
9889		50.781250
9890		54.687500
9891		50.781250
9892		54.687500
9893		48.828125
9894		52.734375
9895		46.875000
9896		50.781250
9897		44.921875
9898		48.828125
9899		42.968750
9900		46.875000
9901		41.015625
9902		44.921875
9903		39.062500
9904		42.968750
9905		35.156250
9906		41.015625
9907		35.156250
9908		37.109375
9909		31.250000
9910		37.109375
9911		29.296875
9912		33.203125
9913		27.343750
9914		31.250000
9915		23.437500
9916		27.343750
9917		21.484375
9918		25.390625
9919		19.531250
9920		23.437500
9921		15.625000
9922		21.484375
9923		13.671875
9924		17.578125
9925		9.765625
9926		15.625000
9927		7.812500
9928		11.718750
9929		5.859375
9930		9.765625
9931		3.906250
9932		7.812500
9933		0.000000
9934		3.906250
9935		-1.953125
9936		1.953125
9937		-5.859375
9938		0.000000
9939		-7.812500
9940		-3.906250
9941		-9.765625
9942		-5.859375
9943		-13.671875
9944		-9.765625
9945		-15.625000
9946		-9.765625
9947		-17.578125
9948		-13.671875
9949		-21.484375
9950		-15.625000
9951		-21.484375
9952		-17.578125
9953		-25.390625
9954		-21.484375
9955		-27.343750
9956		-23.437500
9957		-29.296875
9958		-25.390625
9959		-29.296875
9960		-27.343750
9961		-33.203125
9962		-27.343750
9963		-33.203125
9964		-31.250000
9965		-35.156250
9966		-33.203125
9967		-37.109375
9968		-33.203125
9969		-39.062500
9970		-35.156250
9971		-39.062500
9972		-37.109375
9973		-41.015625
9974		-37.109375
9975		-41.015625
9976		-39.062500
9977		-42.968750
9978		-39.062500
9979		-42.968750
9980		-39.062500
9981		-42.968750
9982		-41.015625
9983		-44.921875
9984		-41.015625
9985		-44.921875
9986		-41.015625
9987		-44.921875
9988		-41.015625
9989		-44.921875
9990		-41.015625
9991		-44.921875
9992		-41.015625
9993		-44.921875
9994		-41.015625
9995		-44.921875
9996		-39.062500
9997		-42.968750
9998		-41.015625
9999		-42.968750
10000		-39.062500
