Channel              :		CH1
Frequency            :		1.975kHz
Period               :		0.506ms
PK-PK                :		117.2mV
Probe attenuation    :		1X
Voltage per ADC value:		0.122070mV
Time interval        :		2.00000us

index		CH1_Voltage(mV)
1		60.546875
2		60.546875
3		64.453125
4		60.546875
5		64.453125
6		60.546875
7		64.453125
8		60.546875
9		62.500000
10		58.593750
11		62.500000
12		58.593750
13		62.500000
14		58.593750
15		60.546875
16		56.640625
17		60.546875
18		56.640625
19		58.593750
20		54.687500
21		58.593750
22		50.781250
23		56.640625
24		52.734375
25		54.687500
26		50.781250
27		52.734375
28		48.828125
29		52.734375
30		46.875000
31		50.781250
32		44.921875
33		48.828125
34		42.968750
35		46.875000
36		41.015625
37		44.921875
38		39.062500
39		42.968750
40		37.109375
41		41.015625
42		33.203125
43		39.062500
44		31.250000
45		35.156250
46		29.296875
47		33.203125
48		25.390625
49		31.250000
50		23.437500
51		29.296875
52		21.484375
53		27.343750
54		19.531250
55		23.437500
56		17.578125
57		21.484375
58		13.671875
59		17.578125
60		11.718750
61		15.625000
62		7.812500
63		13.671875
64		5.859375
65		9.765625
66		3.906250
67		7.812500
68		0.000000
69		3.906250
70		-1.953125
71		1.953125
72		-5.859375
73		0.000000
74		-7.812500
75		-1.953125
76		-9.765625
77		-5.859375
78		-11.718750
79		-7.812500
80		-15.625000
81		-11.718750
82		-17.578125
83		-13.671875
84		-21.484375
85		-15.625000
86		-23.437500
87		-19.531250
88		-25.390625
89		-19.531250
90		-27.343750
91		-23.437500
92		-29.296875
93		-25.390625
94		-31.250000
95		-27.343750
96		-33.203125
97		-29.296875
98		-35.156250
99		-31.250000
100		-37.109375
101		-33.203125
102		-39.062500
103		-35.156250
104		-41.015625
105		-35.156250
106		-41.015625
107		-37.109375
108		-41.015625
109		-39.062500
110		-42.968750
111		-39.062500
112		-44.921875
113		-39.062500
114		-44.921875
115		-41.015625
116		-44.921875
117		-42.968750
118		-44.921875
119		-42.968750
120		-46.875000
121		-42.968750
122		-46.875000
123		-42.968750
124		-46.875000
125		-42.968750
126		-44.921875
127		-42.968750
128		-46.875000
129		-42.968750
130		-46.875000
131		-42.968750
132		-44.921875
133		-41.015625
134		-44.921875
135		-41.015625
136		-42.968750
137		-39.062500
138		-42.968750
139		-39.062500
140		-42.968750
141		-37.109375
142		-41.015625
143		-37.109375
144		-39.062500
145		-35.156250
146		-39.062500
147		-35.156250
148		-37.109375
149		-33.203125
150		-35.156250
151		-31.250000
152		-33.203125
153		-29.296875
154		-31.250000
155		-27.343750
156		-29.296875
157		-25.390625
158		-27.343750
159		-23.437500
160		-25.390625
161		-21.484375
162		-21.484375
163		-17.578125
164		-19.531250
165		-15.625000
166		-17.578125
167		-13.671875
168		-15.625000
169		-9.765625
170		-13.671875
171		-7.812500
172		-9.765625
173		-5.859375
174		-7.812500
175		-3.906250
176		-5.859375
177		-1.953125
178		-1.953125
179		1.953125
180		0.000000
181		3.906250
182		1.953125
183		7.812500
184		5.859375
185		9.765625
186		7.812500
187		13.671875
188		9.765625
189		15.625000
190		13.671875
191		17.578125
192		15.625000
193		19.531250
194		19.531250
195		23.437500
196		21.484375
197		25.390625
198		23.437500
199		29.296875
200		25.390625
201		31.250000
202		29.296875
203		33.203125
204		31.250000
205		37.109375
206		33.203125
207		37.109375
208		35.156250
209		39.062500
210		37.109375
211		41.015625
212		41.015625
213		44.921875
214		42.968750
215		46.875000
216		44.921875
217		48.828125
218		44.921875
219		48.828125
220		46.875000
221		52.734375
222		48.828125
223		52.734375
224		50.781250
225		54.687500
226		52.734375
227		56.640625
228		54.687500
229		56.640625
230		54.687500
231		58.593750
232		56.640625
233		60.546875
234		56.640625
235		60.546875
236		58.593750
237		62.500000
238		58.593750
239		62.500000
240		60.546875
241		62.500000
242		60.546875
243		64.453125
244		62.500000
245		64.453125
246		60.546875
247		64.453125
248		62.500000
249		64.453125
250		62.500000
251		64.453125
252		62.500000
253		64.453125
254		62.500000
255		64.453125
256		62.500000
257		64.453125
258		60.546875
259		64.453125
260		62.500000
261		64.453125
262		60.546875
263		62.500000
264		58.593750
265		62.500000
266		58.593750
267		62.500000
268		58.593750
269		60.546875
270		56.640625
271		60.546875
272		54.687500
273		58.593750
274		54.687500
275		58.593750
276		52.734375
277		58.593750
278		52.734375
279		54.687500
280		50.781250
281		54.687500
282		48.828125
283		52.734375
284		46.875000
285		50.781250
286		44.921875
287		48.828125
288		42.968750
289		46.875000
290		41.015625
291		44.921875
292		39.062500
293		42.968750
294		37.109375
295		41.015625
296		33.203125
297		37.109375
298		31.250000
299		35.156250
300		29.296875
301		33.203125
302		27.343750
303		31.250000
304		25.390625
305		29.296875
306		21.484375
307		27.343750
308		19.531250
309		23.437500
310		17.578125
311		21.484375
312		13.671875
313		17.578125
314		11.718750
315		15.625000
316		7.812500
317		13.671875
318		5.859375
319		11.718750
320		3.906250
321		7.812500
322		0.000000
323		5.859375
324		-3.906250
325		1.953125
326		-5.859375
327		0.000000
328		-7.812500
329		-3.906250
330		-11.718750
331		-5.859375
332		-13.671875
333		-7.812500
334		-15.625000
335		-11.718750
336		-17.578125
337		-13.671875
338		-19.531250
339		-15.625000
340		-23.437500
341		-19.531250
342		-25.390625
343		-21.484375
344		-27.343750
345		-23.437500
346		-29.296875
347		-25.390625
348		-31.250000
349		-25.390625
350		-33.203125
351		-29.296875
352		-35.156250
353		-31.250000
354		-35.156250
355		-33.203125
356		-39.062500
357		-33.203125
358		-39.062500
359		-35.156250
360		-41.015625
361		-35.156250
362		-41.015625
363		-39.062500
364		-42.968750
365		-39.062500
366		-42.968750
367		-39.062500
368		-44.921875
369		-41.015625
370		-44.921875
371		-41.015625
372		-44.921875
373		-41.015625
374		-44.921875
375		-41.015625
376		-44.921875
377		-41.015625
378		-44.921875
379		-42.968750
380		-44.921875
381		-41.015625
382		-44.921875
383		-41.015625
384		-44.921875
385		-41.015625
386		-42.968750
387		-41.015625
388		-42.968750
389		-39.062500
390		-42.968750
391		-39.062500
392		-41.015625
393		-37.109375
394		-39.062500
395		-37.109375
396		-39.062500
397		-35.156250
398		-39.062500
399		-33.203125
400		-35.156250
401		-33.203125
402		-35.156250
403		-31.250000
404		-33.203125
405		-29.296875
406		-31.250000
407		-27.343750
408		-29.296875
409		-25.390625
410		-27.343750
411		-23.437500
412		-25.390625
413		-21.484375
414		-23.437500
415		-17.578125
416		-21.484375
417		-17.578125
418		-17.578125
419		-13.671875
420		-15.625000
421		-11.718750
422		-13.671875
423		-7.812500
424		-11.718750
425		-5.859375
426		-7.812500
427		-3.906250
428		-5.859375
429		-1.953125
430		-3.906250
431		1.953125
432		0.000000
433		3.906250
434		1.953125
435		5.859375
436		3.906250
437		9.765625
438		7.812500
439		11.718750
440		9.765625
441		13.671875
442		11.718750
443		17.578125
444		13.671875
445		19.531250
446		17.578125
447		21.484375
448		21.484375
449		25.390625
450		23.437500
451		27.343750
452		25.390625
453		29.296875
454		27.343750
455		33.203125
456		31.250000
457		35.156250
458		33.203125
459		37.109375
460		35.156250
461		39.062500
462		37.109375
463		41.015625
464		39.062500
465		44.921875
466		41.015625
467		46.875000
468		42.968750
469		46.875000
470		44.921875
471		48.828125
472		46.875000
473		50.781250
474		48.828125
475		52.734375
476		50.781250
477		54.687500
478		52.734375
479		56.640625
480		54.687500
481		56.640625
482		54.687500
483		58.593750
484		56.640625
485		60.546875
486		58.593750
487		60.546875
488		58.593750
489		62.500000
490		60.546875
491		62.500000
492		60.546875
493		64.453125
494		60.546875
495		64.453125
496		62.500000
497		64.453125
498		62.500000
499		66.406250
500		62.500000
501		66.406250
502		62.500000
503		66.406250
504		62.500000
505		66.406250
506		62.500000
507		66.406250
508		62.500000
509		66.406250
510		62.500000
511		66.406250
512		62.500000
513		64.453125
514		62.500000
515		64.453125
516		60.546875
517		64.453125
518		60.546875
519		64.453125
520		58.593750
521		62.500000
522		58.593750
523		62.500000
524		56.640625
525		60.546875
526		56.640625
527		60.546875
528		54.687500
529		58.593750
530		52.734375
531		56.640625
532		50.781250
533		56.640625
534		48.828125
535		54.687500
536		48.828125
537		52.734375
538		46.875000
539		50.781250
540		44.921875
541		48.828125
542		42.968750
543		46.875000
544		41.015625
545		44.921875
546		39.062500
547		42.968750
548		35.156250
549		41.015625
550		33.203125
551		39.062500
552		31.250000
553		35.156250
554		29.296875
555		33.203125
556		27.343750
557		31.250000
558		23.437500
559		29.296875
560		19.531250
561		25.390625
562		19.531250
563		23.437500
564		15.625000
565		19.531250
566		11.718750
567		17.578125
568		9.765625
569		15.625000
570		7.812500
571		13.671875
572		5.859375
573		9.765625
574		1.953125
575		7.812500
576		0.000000
577		3.906250
578		-3.906250
579		1.953125
580		-5.859375
581		-1.953125
582		-7.812500
583		-3.906250
584		-11.718750
585		-5.859375
586		-13.671875
587		-7.812500
588		-15.625000
589		-11.718750
590		-19.531250
591		-13.671875
592		-19.531250
593		-15.625000
594		-23.437500
595		-17.578125
596		-25.390625
597		-21.484375
598		-27.343750
599		-23.437500
600		-29.296875
601		-23.437500
602		-31.250000
603		-27.343750
604		-33.203125
605		-29.296875
606		-35.156250
607		-31.250000
608		-37.109375
609		-31.250000
610		-39.062500
611		-33.203125
612		-39.062500
613		-35.156250
614		-39.062500
615		-37.109375
616		-41.015625
617		-37.109375
618		-42.968750
619		-39.062500
620		-42.968750
621		-39.062500
622		-42.968750
623		-41.015625
624		-44.921875
625		-41.015625
626		-44.921875
627		-41.015625
628		-44.921875
629		-41.015625
630		-44.921875
631		-42.968750
632		-44.921875
633		-41.015625
634		-44.921875
635		-41.015625
636		-44.921875
637		-41.015625
638		-44.921875
639		-41.015625
640		-42.968750
641		-41.015625
642		-42.968750
643		-39.062500
644		-42.968750
645		-37.109375
646		-41.015625
647		-37.109375
648		-39.062500
649		-37.109375
650		-39.062500
651		-35.156250
652		-37.109375
653		-33.203125
654		-35.156250
655		-31.250000
656		-33.203125
657		-29.296875
658		-31.250000
659		-27.343750
660		-31.250000
661		-25.390625
662		-29.296875
663		-23.437500
664		-25.390625
665		-23.437500
666		-23.437500
667		-19.531250
668		-23.437500
669		-17.578125
670		-19.531250
671		-15.625000
672		-17.578125
673		-13.671875
674		-15.625000
675		-9.765625
676		-11.718750
677		-7.812500
678		-9.765625
679		-5.859375
680		-7.812500
681		-3.906250
682		-3.906250
683		0.000000
684		-1.953125
685		1.953125
686		0.000000
687		5.859375
688		3.906250
689		7.812500
690		5.859375
691		9.765625
692		7.812500
693		11.718750
694		11.718750
695		15.625000
696		11.718750
697		17.578125
698		15.625000
699		19.531250
700		19.531250
701		23.437500
702		21.484375
703		25.390625
704		23.437500
705		29.296875
706		27.343750
707		31.250000
708		29.296875
709		33.203125
710		31.250000
711		35.156250
712		33.203125
713		37.109375
714		37.109375
715		41.015625
716		39.062500
717		42.968750
718		41.015625
719		44.921875
720		41.015625
721		46.875000
722		44.921875
723		48.828125
724		46.875000
725		50.781250
726		46.875000
727		52.734375
728		50.781250
729		54.687500
730		50.781250
731		54.687500
732		52.734375
733		56.640625
734		54.687500
735		58.593750
736		54.687500
737		60.546875
738		56.640625
739		60.546875
740		58.593750
741		60.546875
742		58.593750
743		62.500000
744		60.546875
745		62.500000
746		60.546875
747		64.453125
748		62.500000
749		64.453125
750		60.546875
751		66.406250
752		62.500000
753		64.453125
754		62.500000
755		66.406250
756		62.500000
757		66.406250
758		62.500000
759		66.406250
760		62.500000
761		66.406250
762		60.546875
763		66.406250
764		62.500000
765		64.453125
766		62.500000
767		64.453125
768		60.546875
769		64.453125
770		60.546875
771		64.453125
772		60.546875
773		62.500000
774		58.593750
775		62.500000
776		56.640625
777		60.546875
778		56.640625
779		60.546875
780		54.687500
781		58.593750
782		54.687500
783		56.640625
784		52.734375
785		56.640625
786		50.781250
787		54.687500
788		48.828125
789		52.734375
790		46.875000
791		50.781250
792		44.921875
793		48.828125
794		42.968750
795		48.828125
796		42.968750
797		46.875000
798		39.062500
799		42.968750
800		37.109375
801		41.015625
802		33.203125
803		41.015625
804		33.203125
805		37.109375
806		31.250000
807		35.156250
808		27.343750
809		33.203125
810		25.390625
811		29.296875
812		21.484375
813		27.343750
814		21.484375
815		25.390625
816		17.578125
817		21.484375
818		15.625000
819		19.531250
820		11.718750
821		17.578125
822		9.765625
823		13.671875
824		5.859375
825		11.718750
826		3.906250
827		9.765625
828		1.953125
829		5.859375
830		-1.953125
831		3.906250
832		-3.906250
833		0.000000
834		-5.859375
835		-1.953125
836		-9.765625
837		-3.906250
838		-11.718750
839		-7.812500
840		-13.671875
841		-9.765625
842		-17.578125
843		-11.718750
844		-19.531250
845		-13.671875
846		-21.484375
847		-17.578125
848		-23.437500
849		-19.531250
850		-25.390625
851		-21.484375
852		-27.343750
853		-23.437500
854		-29.296875
855		-25.390625
856		-31.250000
857		-27.343750
858		-33.203125
859		-29.296875
860		-35.156250
861		-31.250000
862		-37.109375
863		-33.203125
864		-39.062500
865		-33.203125
866		-39.062500
867		-35.156250
868		-41.015625
869		-37.109375
870		-41.015625
871		-39.062500
872		-42.968750
873		-39.062500
874		-42.968750
875		-41.015625
876		-42.968750
877		-41.015625
878		-42.968750
879		-41.015625
880		-44.921875
881		-41.015625
882		-44.921875
883		-42.968750
884		-44.921875
885		-41.015625
886		-44.921875
887		-41.015625
888		-44.921875
889		-41.015625
890		-42.968750
891		-41.015625
892		-42.968750
893		-41.015625
894		-42.968750
895		-39.062500
896		-42.968750
897		-39.062500
898		-41.015625
899		-39.062500
900		-39.062500
901		-37.109375
902		-39.062500
903		-35.156250
904		-39.062500
905		-33.203125
906		-37.109375
907		-33.203125
908		-35.156250
909		-31.250000
910		-33.203125
911		-29.296875
912		-31.250000
913		-27.343750
914		-29.296875
915		-25.390625
916		-27.343750
917		-23.437500
918		-25.390625
919		-21.484375
920		-23.437500
921		-19.531250
922		-21.484375
923		-17.578125
924		-19.531250
925		-13.671875
926		-15.625000
927		-11.718750
928		-13.671875
929		-9.765625
930		-11.718750
931		-5.859375
932		-7.812500
933		-3.906250
934		-5.859375
935		-1.953125
936		-3.906250
937		1.953125
938		-1.953125
939		3.906250
940		1.953125
941		7.812500
942		3.906250
943		7.812500
944		5.859375
945		11.718750
946		9.765625
947		15.625000
948		11.718750
949		17.578125
950		15.625000
951		19.531250
952		17.578125
953		23.437500
954		19.531250
955		25.390625
956		23.437500
957		27.343750
958		25.390625
959		29.296875
960		27.343750
961		33.203125
962		29.296875
963		35.156250
964		33.203125
965		37.109375
966		35.156250
967		39.062500
968		37.109375
969		41.015625
970		39.062500
971		42.968750
972		41.015625
973		44.921875
974		42.968750
975		46.875000
976		44.921875
977		48.828125
978		46.875000
979		50.781250
980		48.828125
981		52.734375
982		50.781250
983		54.687500
984		52.734375
985		56.640625
986		54.687500
987		58.593750
988		54.687500
989		58.593750
990		56.640625
991		60.546875
992		58.593750
993		60.546875
994		58.593750
995		62.500000
996		60.546875
997		64.453125
998		60.546875
999		64.453125
1000		62.500000
1001		64.453125
1002		60.546875
1003		64.453125
1004		62.500000
1005		66.406250
1006		62.500000
1007		66.406250
1008		62.500000
1009		66.406250
1010		64.453125
1011		66.406250
1012		62.500000
1013		66.406250
1014		62.500000
1015		66.406250
1016		62.500000
1017		66.406250
1018		62.500000
1019		64.453125
1020		60.546875
1021		66.406250
1022		60.546875
1023		64.453125
1024		60.546875
1025		64.453125
1026		60.546875
1027		62.500000
1028		58.593750
1029		62.500000
1030		58.593750
1031		60.546875
1032		56.640625
1033		60.546875
1034		56.640625
1035		58.593750
1036		54.687500
1037		58.593750
1038		52.734375
1039		56.640625
1040		50.781250
1041		54.687500
1042		48.828125
1043		52.734375
1044		46.875000
1045		50.781250
1046		46.875000
1047		48.828125
1048		42.968750
1049		48.828125
1050		41.015625
1051		44.921875
1052		39.062500
1053		42.968750
1054		37.109375
1055		42.968750
1056		35.156250
1057		39.062500
1058		33.203125
1059		37.109375
1060		29.296875
1061		35.156250
1062		27.343750
1063		33.203125
1064		25.390625
1065		31.250000
1066		23.437500
1067		27.343750
1068		19.531250
1069		23.437500
1070		17.578125
1071		21.484375
1072		13.671875
1073		19.531250
1074		11.718750
1075		15.625000
1076		7.812500
1077		13.671875
1078		5.859375
1079		11.718750
1080		3.906250
1081		7.812500
1082		1.953125
1083		5.859375
1084		-1.953125
1085		1.953125
1086		-5.859375
1087		0.000000
1088		-7.812500
1089		-1.953125
1090		-9.765625
1091		-5.859375
1092		-11.718750
1093		-7.812500
1094		-13.671875
1095		-9.765625
1096		-17.578125
1097		-11.718750
1098		-19.531250
1099		-15.625000
1100		-21.484375
1101		-17.578125
1102		-23.437500
1103		-19.531250
1104		-25.390625
1105		-21.484375
1106		-27.343750
1107		-23.437500
1108		-29.296875
1109		-25.390625
1110		-31.250000
1111		-27.343750
1112		-33.203125
1113		-29.296875
1114		-35.156250
1115		-31.250000
1116		-37.109375
1117		-33.203125
1118		-37.109375
1119		-35.156250
1120		-39.062500
1121		-35.156250
1122		-41.015625
1123		-37.109375
1124		-41.015625
1125		-39.062500
1126		-41.015625
1127		-39.062500
1128		-42.968750
1129		-39.062500
1130		-42.968750
1131		-41.015625
1132		-44.921875
1133		-39.062500
1134		-44.921875
1135		-41.015625
1136		-44.921875
1137		-41.015625
1138		-44.921875
1139		-41.015625
1140		-44.921875
1141		-41.015625
1142		-44.921875
1143		-41.015625
1144		-42.968750
1145		-41.015625
1146		-42.968750
1147		-39.062500
1148		-42.968750
1149		-39.062500
1150		-41.015625
1151		-39.062500
1152		-41.015625
1153		-37.109375
1154		-41.015625
1155		-35.156250
1156		-39.062500
1157		-35.156250
1158		-37.109375
1159		-33.203125
1160		-35.156250
1161		-31.250000
1162		-33.203125
1163		-29.296875
1164		-33.203125
1165		-27.343750
1166		-31.250000
1167		-27.343750
1168		-27.343750
1169		-23.437500
1170		-25.390625
1171		-21.484375
1172		-25.390625
1173		-19.531250
1174		-21.484375
1175		-17.578125
1176		-19.531250
1177		-15.625000
1178		-17.578125
1179		-13.671875
1180		-15.625000
1181		-9.765625
1182		-13.671875
1183		-7.812500
1184		-9.765625
1185		-5.859375
1186		-7.812500
1187		-3.906250
1188		-5.859375
1189		0.000000
1190		-1.953125
1191		1.953125
1192		0.000000
1193		5.859375
1194		1.953125
1195		5.859375
1196		3.906250
1197		9.765625
1198		7.812500
1199		11.718750
1200		9.765625
1201		15.625000
1202		13.671875
1203		17.578125
1204		15.625000
1205		21.484375
1206		17.578125
1207		23.437500
1208		21.484375
1209		27.343750
1210		23.437500
1211		27.343750
1212		25.390625
1213		31.250000
1214		29.296875
1215		33.203125
1216		31.250000
1217		35.156250
1218		33.203125
1219		37.109375
1220		35.156250
1221		39.062500
1222		37.109375
1223		42.968750
1224		41.015625
1225		44.921875
1226		42.968750
1227		46.875000
1228		44.921875
1229		48.828125
1230		46.875000
1231		48.828125
1232		46.875000
1233		52.734375
1234		48.828125
1235		52.734375
1236		50.781250
1237		54.687500
1238		52.734375
1239		56.640625
1240		54.687500
1241		58.593750
1242		56.640625
1243		60.546875
1244		56.640625
1245		60.546875
1246		58.593750
1247		60.546875
1248		58.593750
1249		62.500000
1250		58.593750
1251		64.453125
1252		60.546875
1253		62.500000
1254		62.500000
1255		64.453125
1256		62.500000
1257		64.453125
1258		62.500000
1259		66.406250
1260		62.500000
1261		66.406250
1262		62.500000
1263		66.406250
1264		62.500000
1265		66.406250
1266		62.500000
1267		66.406250
1268		64.453125
1269		66.406250
1270		62.500000
1271		66.406250
1272		62.500000
1273		66.406250
1274		62.500000
1275		64.453125
1276		60.546875
1277		64.453125
1278		60.546875
1279		64.453125
1280		60.546875
1281		62.500000
1282		58.593750
1283		62.500000
1284		56.640625
1285		62.500000
1286		56.640625
1287		58.593750
1288		54.687500
1289		58.593750
1290		54.687500
1291		56.640625
1292		52.734375
1293		56.640625
1294		50.781250
1295		54.687500
1296		48.828125
1297		52.734375
1298		46.875000
1299		50.781250
1300		44.921875
1301		48.828125
1302		42.968750
1303		46.875000
1304		41.015625
1305		44.921875
1306		39.062500
1307		42.968750
1308		35.156250
1309		41.015625
1310		35.156250
1311		39.062500
1312		31.250000
1313		35.156250
1314		29.296875
1315		33.203125
1316		27.343750
1317		31.250000
1318		25.390625
1319		29.296875
1320		21.484375
1321		27.343750
1322		19.531250
1323		23.437500
1324		17.578125
1325		21.484375
1326		13.671875
1327		17.578125
1328		9.765625
1329		15.625000
1330		7.812500
1331		13.671875
1332		5.859375
1333		9.765625
1334		1.953125
1335		7.812500
1336		0.000000
1337		3.906250
1338		-1.953125
1339		1.953125
1340		-3.906250
1341		0.000000
1342		-7.812500
1343		-1.953125
1344		-9.765625
1345		-5.859375
1346		-11.718750
1347		-7.812500
1348		-15.625000
1349		-9.765625
1350		-17.578125
1351		-13.671875
1352		-19.531250
1353		-15.625000
1354		-21.484375
1355		-17.578125
1356		-25.390625
1357		-19.531250
1358		-27.343750
1359		-23.437500
1360		-29.296875
1361		-25.390625
1362		-29.296875
1363		-27.343750
1364		-31.250000
1365		-27.343750
1366		-35.156250
1367		-29.296875
1368		-35.156250
1369		-31.250000
1370		-37.109375
1371		-33.203125
1372		-39.062500
1373		-35.156250
1374		-39.062500
1375		-35.156250
1376		-41.015625
1377		-37.109375
1378		-42.968750
1379		-37.109375
1380		-42.968750
1381		-39.062500
1382		-42.968750
1383		-39.062500
1384		-44.921875
1385		-39.062500
1386		-42.968750
1387		-41.015625
1388		-44.921875
1389		-41.015625
1390		-44.921875
1391		-41.015625
1392		-44.921875
1393		-41.015625
1394		-44.921875
1395		-41.015625
1396		-42.968750
1397		-41.015625
1398		-42.968750
1399		-39.062500
1400		-44.921875
1401		-39.062500
1402		-42.968750
1403		-37.109375
1404		-41.015625
1405		-37.109375
1406		-39.062500
1407		-37.109375
1408		-39.062500
1409		-35.156250
1410		-37.109375
1411		-33.203125
1412		-37.109375
1413		-33.203125
1414		-35.156250
1415		-31.250000
1416		-33.203125
1417		-27.343750
1418		-31.250000
1419		-27.343750
1420		-29.296875
1421		-25.390625
1422		-27.343750
1423		-23.437500
1424		-27.343750
1425		-19.531250
1426		-25.390625
1427		-17.578125
1428		-21.484375
1429		-17.578125
1430		-19.531250
1431		-13.671875
1432		-19.531250
1433		-11.718750
1434		-15.625000
1435		-7.812500
1436		-11.718750
1437		-7.812500
1438		-7.812500
1439		-3.906250
1440		-7.812500
1441		0.000000
1442		-5.859375
1443		1.953125
1444		-1.953125
1445		3.906250
1446		0.000000
1447		5.859375
1448		3.906250
1449		9.765625
1450		5.859375
1451		13.671875
1452		7.812500
1453		13.671875
1454		11.718750
1455		15.625000
1456		15.625000
1457		21.484375
1458		15.625000
1459		23.437500
1460		17.578125
1461		25.390625
1462		19.531250
1463		27.343750
1464		23.437500
1465		31.250000
1466		25.390625
1467		33.203125
1468		27.343750
1469		35.156250
1470		31.250000
1471		37.109375
1472		35.156250
1473		39.062500
1474		35.156250
1475		42.968750
1476		37.109375
1477		44.921875
1478		39.062500
1479		46.875000
1480		41.015625
1481		48.828125
1482		42.968750
1483		50.781250
1484		44.921875
1485		52.734375
1486		46.875000
1487		52.734375
1488		50.781250
1489		54.687500
1490		50.781250
1491		58.593750
1492		52.734375
1493		58.593750
1494		52.734375
1495		60.546875
1496		54.687500
1497		62.500000
1498		56.640625
1499		62.500000
1500		56.640625
1501		64.453125
1502		58.593750
1503		64.453125
1504		60.546875
1505		64.453125
1506		62.500000
1507		64.453125
1508		60.546875
1509		68.359375
1510		60.546875
1511		68.359375
1512		62.500000
1513		68.359375
1514		62.500000
1515		68.359375
1516		60.546875
1517		68.359375
1518		62.500000
1519		68.359375
1520		62.500000
1521		66.406250
1522		64.453125
1523		66.406250
1524		62.500000
1525		68.359375
1526		60.546875
1527		68.359375
1528		60.546875
1529		66.406250
1530		60.546875
1531		66.406250
1532		58.593750
1533		66.406250
1534		58.593750
1535		64.453125
1536		58.593750
1537		64.453125
1538		58.593750
1539		60.546875
1540		54.687500
1541		60.546875
1542		52.734375
1543		60.546875
1544		50.781250
1545		58.593750
1546		50.781250
1547		58.593750
1548		48.828125
1549		56.640625
1550		46.875000
1551		54.687500
1552		44.921875
1553		52.734375
1554		44.921875
1555		48.828125
1556		42.968750
1557		46.875000
1558		39.062500
1559		46.875000
1560		37.109375
1561		44.921875
1562		35.156250
1563		42.968750
1564		33.203125
1565		41.015625
1566		29.296875
1567		37.109375
1568		27.343750
1569		35.156250
1570		27.343750
1571		33.203125
1572		23.437500
1573		29.296875
1574		19.531250
1575		27.343750
1576		15.625000
1577		25.390625
1578		15.625000
1579		23.437500
1580		11.718750
1581		19.531250
1582		7.812500
1583		17.578125
1584		5.859375
1585		15.625000
1586		5.859375
1587		11.718750
1588		3.906250
1589		7.812500
1590		0.000000
1591		3.906250
1592		-3.906250
1593		3.906250
1594		-7.812500
1595		0.000000
1596		-9.765625
1597		-1.953125
1598		-11.718750
1599		-3.906250
1600		-15.625000
1601		-5.859375
1602		-17.578125
1603		-9.765625
1604		-17.578125
1605		-11.718750
1606		-19.531250
1607		-15.625000
1608		-25.390625
1609		-17.578125
1610		-27.343750
1611		-19.531250
1612		-29.296875
1613		-21.484375
1614		-31.250000
1615		-23.437500
1616		-33.203125
1617		-25.390625
1618		-33.203125
1619		-27.343750
1620		-35.156250
1621		-27.343750
1622		-35.156250
1623		-31.250000
1624		-39.062500
1625		-33.203125
1626		-39.062500
1627		-33.203125
1628		-41.015625
1629		-33.203125
1630		-42.968750
1631		-35.156250
1632		-42.968750
1633		-35.156250
1634		-44.921875
1635		-37.109375
1636		-44.921875
1637		-37.109375
1638		-42.968750
1639		-41.015625
1640		-42.968750
1641		-41.015625
1642		-44.921875
1643		-39.062500
1644		-46.875000
1645		-39.062500
1646		-44.921875
1647		-39.062500
1648		-44.921875
1649		-39.062500
1650		-44.921875
1651		-39.062500
1652		-44.921875
1653		-37.109375
1654		-42.968750
1655		-37.109375
1656		-41.015625
1657		-39.062500
1658		-41.015625
1659		-35.156250
1660		-41.015625
1661		-33.203125
1662		-41.015625
1663		-31.250000
1664		-39.062500
1665		-31.250000
1666		-37.109375
1667		-29.296875
1668		-37.109375
1669		-29.296875
1670		-35.156250
1671		-27.343750
1672		-29.296875
1673		-27.343750
1674		-29.296875
1675		-25.390625
1676		-27.343750
1677		-19.531250
1678		-25.390625
1679		-19.531250
1680		-25.390625
1681		-15.625000
1682		-21.484375
1683		-13.671875
1684		-19.531250
1685		-11.718750
1686		-17.578125
1687		-9.765625
1688		-13.671875
1689		-9.765625
1690		-9.765625
1691		-5.859375
1692		-9.765625
1693		-1.953125
1694		-7.812500
1695		1.953125
1696		-3.906250
1697		3.906250
1698		-3.906250
1699		5.859375
1700		0.000000
1701		9.765625
1702		1.953125
1703		11.718750
1704		5.859375
1705		11.718750
1706		9.765625
1707		15.625000
1708		13.671875
1709		17.578125
1710		13.671875
1711		21.484375
1712		17.578125
1713		23.437500
1714		19.531250
1715		25.390625
1716		21.484375
1717		29.296875
1718		25.390625
1719		31.250000
1720		27.343750
1721		33.203125
1722		31.250000
1723		35.156250
1724		33.203125
1725		37.109375
1726		33.203125
1727		41.015625
1728		35.156250
1729		44.921875
1730		39.062500
1731		46.875000
1732		39.062500
1733		48.828125
1734		41.015625
1735		50.781250
1736		42.968750
1737		52.734375
1738		46.875000
1739		52.734375
1740		50.781250
1741		52.734375
1742		50.781250
1743		56.640625
1744		50.781250
1745		58.593750
1746		52.734375
1747		60.546875
1748		54.687500
1749		60.546875
1750		54.687500
1751		62.500000
1752		56.640625
1753		64.453125
1754		56.640625
1755		64.453125
1756		60.546875
1757		62.500000
1758		60.546875
1759		64.453125
1760		60.546875
1761		66.406250
1762		60.546875
1763		68.359375
1764		60.546875
1765		68.359375
1766		60.546875
1767		68.359375
1768		60.546875
1769		68.359375
1770		62.500000
1771		68.359375
1772		62.500000
1773		66.406250
1774		64.453125
1775		66.406250
1776		62.500000
1777		68.359375
1778		60.546875
1779		68.359375
1780		60.546875
1781		68.359375
1782		60.546875
1783		66.406250
1784		60.546875
1785		66.406250
1786		58.593750
1787		64.453125
1788		58.593750
1789		64.453125
1790		58.593750
1791		62.500000
1792		56.640625
1793		60.546875
1794		54.687500
1795		60.546875
1796		52.734375
1797		60.546875
1798		50.781250
1799		58.593750
1800		48.828125
1801		56.640625
1802		48.828125
1803		54.687500
1804		46.875000
1805		54.687500
1806		46.875000
1807		50.781250
1808		44.921875
1809		48.828125
1810		39.062500
1811		46.875000
1812		37.109375
1813		44.921875
1814		37.109375
1815		44.921875
1816		33.203125
1817		41.015625
1818		31.250000
1819		39.062500
1820		27.343750
1821		37.109375
1822		27.343750
1823		35.156250
1824		25.390625
1825		29.296875
1826		21.484375
1827		27.343750
1828		17.578125
1829		27.343750
1830		15.625000
1831		23.437500
1832		13.671875
1833		21.484375
1834		9.765625
1835		19.531250
1836		7.812500
1837		15.625000
1838		5.859375
1839		13.671875
1840		3.906250
1841		7.812500
1842		1.953125
1843		5.859375
1844		-3.906250
1845		5.859375
1846		-5.859375
1847		1.953125
1848		-7.812500
1849		0.000000
1850		-9.765625
1851		-1.953125
1852		-13.671875
1853		-3.906250
1854		-15.625000
1855		-7.812500
1856		-15.625000
1857		-11.718750
1858		-17.578125
1859		-15.625000
1860		-23.437500
1861		-15.625000
1862		-25.390625
1863		-17.578125
1864		-27.343750
1865		-19.531250
1866		-29.296875
1867		-21.484375
1868		-31.250000
1869		-23.437500
1870		-33.203125
1871		-25.390625
1872		-33.203125
1873		-27.343750
1874		-33.203125
1875		-31.250000
1876		-37.109375
1877		-33.203125
1878		-39.062500
1879		-31.250000
1880		-41.015625
1881		-33.203125
1882		-41.015625
1883		-35.156250
1884		-42.968750
1885		-35.156250
1886		-42.968750
1887		-37.109375
1888		-44.921875
1889		-37.109375
1890		-42.968750
1891		-41.015625
1892		-42.968750
1893		-41.015625
1894		-44.921875
1895		-39.062500
1896		-44.921875
1897		-39.062500
1898		-44.921875
1899		-39.062500
1900		-44.921875
1901		-39.062500
1902		-44.921875
1903		-39.062500
1904		-44.921875
1905		-37.109375
1906		-44.921875
1907		-37.109375
1908		-41.015625
1909		-39.062500
1910		-42.968750
1911		-35.156250
1912		-41.015625
1913		-35.156250
1914		-41.015625
1915		-33.203125
1916		-39.062500
1917		-31.250000
1918		-39.062500
1919		-31.250000
1920		-37.109375
1921		-29.296875
1922		-35.156250
1923		-27.343750
1924		-31.250000
1925		-27.343750
1926		-29.296875
1927		-25.390625
1928		-29.296875
1929		-21.484375
1930		-27.343750
1931		-19.531250
1932		-25.390625
1933		-17.578125
1934		-23.437500
1935		-15.625000
1936		-21.484375
1937		-13.671875
1938		-19.531250
1939		-9.765625
1940		-15.625000
1941		-9.765625
1942		-11.718750
1943		-7.812500
1944		-11.718750
1945		-3.906250
1946		-9.765625
1947		0.000000
1948		-5.859375
1949		1.953125
1950		-3.906250
1951		3.906250
1952		-1.953125
1953		7.812500
1954		1.953125
1955		9.765625
1956		3.906250
1957		11.718750
1958		7.812500
1959		13.671875
1960		11.718750
1961		15.625000
1962		11.718750
1963		19.531250
1964		15.625000
1965		23.437500
1966		17.578125
1967		25.390625
1968		19.531250
1969		29.296875
1970		23.437500
1971		31.250000
1972		25.390625
1973		33.203125
1974		29.296875
1975		33.203125
1976		31.250000
1977		37.109375
1978		33.203125
1979		41.015625
1980		35.156250
1981		42.968750
1982		35.156250
1983		44.921875
1984		39.062500
1985		46.875000
1986		41.015625
1987		48.828125
1988		42.968750
1989		50.781250
1990		44.921875
1991		52.734375
1992		48.828125
1993		52.734375
1994		50.781250
1995		56.640625
1996		50.781250
1997		56.640625
1998		50.781250
1999		58.593750
2000		52.734375
2001		60.546875
2002		54.687500
2003		62.500000
2004		54.687500
2005		62.500000
2006		56.640625
2007		64.453125
2008		60.546875
2009		62.500000
2010		60.546875
2011		64.453125
2012		60.546875
2013		66.406250
2014		60.546875
2015		66.406250
2016		60.546875
2017		68.359375
2018		60.546875
2019		68.359375
2020		60.546875
2021		68.359375
2022		62.500000
2023		68.359375
2024		64.453125
2025		68.359375
2026		64.453125
2027		66.406250
2028		62.500000
2029		68.359375
2030		60.546875
2031		68.359375
2032		60.546875
2033		68.359375
2034		60.546875
2035		68.359375
2036		60.546875
2037		66.406250
2038		58.593750
2039		66.406250
2040		58.593750
2041		64.453125
2042		60.546875
2043		62.500000
2044		56.640625
2045		62.500000
2046		54.687500
2047		62.500000
2048		54.687500
2049		60.546875
2050		52.734375
2051		60.546875
2052		50.781250
2053		58.593750
2054		48.828125
2055		56.640625
2056		46.875000
2057		56.640625
2058		48.828125
2059		50.781250
2060		46.875000
2061		48.828125
2062		41.015625
2063		48.828125
2064		39.062500
2065		46.875000
2066		37.109375
2067		44.921875
2068		35.156250
2069		42.968750
2070		33.203125
2071		41.015625
2072		29.296875
2073		39.062500
2074		29.296875
2075		37.109375
2076		27.343750
2077		31.250000
2078		25.390625
2079		29.296875
2080		21.484375
2081		29.296875
2082		17.578125
2083		25.390625
2084		15.625000
2085		23.437500
2086		11.718750
2087		21.484375
2088		9.765625
2089		19.531250
2090		7.812500
2091		15.625000
2092		5.859375
2093		9.765625
2094		3.906250
2095		7.812500
2096		-1.953125
2097		7.812500
2098		-3.906250
2099		3.906250
2100		-5.859375
2101		1.953125
2102		-7.812500
2103		0.000000
2104		-11.718750
2105		-3.906250
2106		-13.671875
2107		-5.859375
2108		-15.625000
2109		-7.812500
2110		-17.578125
2111		-13.671875
2112		-21.484375
2113		-13.671875
2114		-25.390625
2115		-15.625000
2116		-25.390625
2117		-17.578125
2118		-27.343750
2119		-19.531250
2120		-31.250000
2121		-21.484375
2122		-31.250000
2123		-23.437500
2124		-33.203125
2125		-25.390625
2126		-33.203125
2127		-29.296875
2128		-35.156250
2129		-31.250000
2130		-39.062500
2131		-31.250000
2132		-39.062500
2133		-33.203125
2134		-41.015625
2135		-33.203125
2136		-42.968750
2137		-35.156250
2138		-42.968750
2139		-35.156250
2140		-42.968750
2141		-37.109375
2142		-42.968750
2143		-39.062500
2144		-42.968750
2145		-41.015625
2146		-44.921875
2147		-39.062500
2148		-46.875000
2149		-39.062500
2150		-46.875000
2151		-39.062500
2152		-46.875000
2153		-39.062500
2154		-44.921875
2155		-39.062500
2156		-44.921875
2157		-39.062500
2158		-44.921875
2159		-39.062500
2160		-42.968750
2161		-39.062500
2162		-42.968750
2163		-37.109375
2164		-42.968750
2165		-35.156250
2166		-42.968750
2167		-35.156250
2168		-41.015625
2169		-33.203125
2170		-39.062500
2171		-33.203125
2172		-39.062500
2173		-31.250000
2174		-37.109375
2175		-29.296875
2176		-33.203125
2177		-29.296875
2178		-31.250000
2179		-27.343750
2180		-31.250000
2181		-23.437500
2182		-29.296875
2183		-21.484375
2184		-27.343750
2185		-19.531250
2186		-25.390625
2187		-17.578125
2188		-23.437500
2189		-15.625000
2190		-21.484375
2191		-13.671875
2192		-19.531250
2193		-11.718750
2194		-13.671875
2195		-9.765625
2196		-11.718750
2197		-5.859375
2198		-11.718750
2199		-3.906250
2200		-7.812500
2201		0.000000
2202		-5.859375
2203		1.953125
2204		-1.953125
2205		5.859375
2206		-1.953125
2207		7.812500
2208		1.953125
2209		9.765625
2210		5.859375
2211		9.765625
2212		9.765625
2213		13.671875
2214		9.765625
2215		19.531250
2216		11.718750
2217		21.484375
2218		15.625000
2219		23.437500
2220		17.578125
2221		25.390625
2222		19.531250
2223		27.343750
2224		21.484375
2225		31.250000
2226		25.390625
2227		31.250000
2228		29.296875
2229		33.203125
2230		31.250000
2231		39.062500
2232		31.250000
2233		41.015625
2234		35.156250
2235		42.968750
2236		37.109375
2237		44.921875
2238		39.062500
2239		46.875000
2240		41.015625
2241		50.781250
2242		42.968750
2243		50.781250
2244		46.875000
2245		50.781250
2246		48.828125
2247		54.687500
2248		48.828125
2249		56.640625
2250		50.781250
2251		58.593750
2252		50.781250
2253		58.593750
2254		52.734375
2255		60.546875
2256		54.687500
2257		62.500000
2258		54.687500
2259		62.500000
2260		58.593750
2261		62.500000
2262		60.546875
2263		62.500000
2264		58.593750
2265		66.406250
2266		58.593750
2267		66.406250
2268		60.546875
2269		68.359375
2270		60.546875
2271		68.359375
2272		60.546875
2273		68.359375
2274		60.546875
2275		68.359375
2276		60.546875
2277		68.359375
2278		64.453125
2279		66.406250
2280		62.500000
2281		68.359375
2282		60.546875
2283		68.359375
2284		60.546875
2285		68.359375
2286		60.546875
2287		66.406250
2288		60.546875
2289		66.406250
2290		60.546875
2291		66.406250
2292		58.593750
2293		64.453125
2294		60.546875
2295		62.500000
2296		58.593750
2297		62.500000
2298		54.687500
2299		62.500000
2300		52.734375
2301		60.546875
2302		52.734375
2303		60.546875
2304		50.781250
2305		58.593750
2306		48.828125
2307		58.593750
2308		46.875000
2309		56.640625
2310		48.828125
2311		54.687500
2312		46.875000
2313		50.781250
2314		42.968750
2315		48.828125
2316		41.015625
2317		48.828125
2318		39.062500
2319		46.875000
2320		35.156250
2321		44.921875
2322		35.156250
2323		41.015625
2324		31.250000
2325		39.062500
2326		31.250000
2327		37.109375
2328		29.296875
2329		33.203125
2330		25.390625
2331		31.250000
2332		21.484375
2333		29.296875
2334		19.531250
2335		27.343750
2336		15.625000
2337		25.390625
2338		13.671875
2339		21.484375
2340		11.718750
2341		19.531250
2342		9.765625
2343		17.578125
2344		7.812500
2345		11.718750
2346		5.859375
2347		9.765625
2348		0.000000
2349		7.812500
2350		-1.953125
2351		5.859375
2352		-5.859375
2353		3.906250
2354		-7.812500
2355		1.953125
2356		-9.765625
2357		-1.953125
2358		-13.671875
2359		-3.906250
2360		-13.671875
2361		-5.859375
2362		-15.625000
2363		-11.718750
2364		-21.484375
2365		-13.671875
2366		-21.484375
2367		-13.671875
2368		-25.390625
2369		-15.625000
2370		-27.343750
2371		-19.531250
2372		-29.296875
2373		-21.484375
2374		-31.250000
2375		-23.437500
2376		-31.250000
2377		-25.390625
2378		-31.250000
2379		-29.296875
2380		-35.156250
2381		-31.250000
2382		-39.062500
2383		-31.250000
2384		-39.062500
2385		-31.250000
2386		-41.015625
2387		-33.203125
2388		-42.968750
2389		-35.156250
2390		-42.968750
2391		-35.156250
2392		-44.921875
2393		-37.109375
2394		-42.968750
2395		-39.062500
2396		-42.968750
2397		-41.015625
2398		-44.921875
2399		-39.062500
2400		-46.875000
2401		-39.062500
2402		-46.875000
2403		-39.062500
2404		-46.875000
2405		-39.062500
2406		-46.875000
2407		-39.062500
2408		-46.875000
2409		-39.062500
2410		-44.921875
2411		-39.062500
2412		-42.968750
2413		-41.015625
2414		-42.968750
2415		-39.062500
2416		-42.968750
2417		-37.109375
2418		-42.968750
2419		-35.156250
2420		-41.015625
2421		-35.156250
2422		-41.015625
2423		-33.203125
2424		-39.062500
2425		-31.250000
2426		-37.109375
2427		-29.296875
2428		-33.203125
2429		-31.250000
2430		-33.203125
2431		-29.296875
2432		-31.250000
2433		-25.390625
2434		-31.250000
2435		-23.437500
2436		-29.296875
2437		-21.484375
2438		-27.343750
2439		-19.531250
2440		-25.390625
2441		-15.625000
2442		-23.437500
2443		-13.671875
2444		-19.531250
2445		-13.671875
2446		-15.625000
2447		-11.718750
2448		-13.671875
2449		-7.812500
2450		-13.671875
2451		-3.906250
2452		-11.718750
2453		-1.953125
2454		-7.812500
2455		0.000000
2456		-5.859375
2457		1.953125
2458		-3.906250
2459		5.859375
2460		0.000000
2461		7.812500
2462		5.859375
2463		9.765625
2464		7.812500
2465		11.718750
2466		7.812500
2467		17.578125
2468		9.765625
2469		19.531250
2470		13.671875
2471		21.484375
2472		15.625000
2473		25.390625
2474		17.578125
2475		27.343750
2476		21.484375
2477		29.296875
2478		23.437500
2479		29.296875
2480		29.296875
2481		33.203125
2482		31.250000
2483		37.109375
2484		31.250000
2485		39.062500
2486		33.203125
2487		41.015625
2488		35.156250
2489		42.968750
2490		37.109375
2491		44.921875
2492		39.062500
2493		48.828125
2494		41.015625
2495		48.828125
2496		46.875000
2497		48.828125
2498		46.875000
2499		52.734375
2500		46.875000
2501		54.687500
2502		48.828125
2503		56.640625
2504		50.781250
2505		58.593750
2506		52.734375
2507		60.546875
2508		52.734375
2509		60.546875
2510		54.687500
2511		62.500000
2512		58.593750
2513		60.546875
2514		58.593750
2515		62.500000
2516		58.593750
2517		64.453125
2518		58.593750
2519		66.406250
2520		58.593750
2521		66.406250
2522		60.546875
2523		66.406250
2524		60.546875
2525		68.359375
2526		60.546875
2527		68.359375
2528		62.500000
2529		68.359375
2530		64.453125
2531		66.406250
2532		62.500000
2533		68.359375
2534		60.546875
2535		68.359375
2536		60.546875
2537		68.359375
2538		60.546875
2539		68.359375
2540		60.546875
2541		68.359375
2542		60.546875
2543		68.359375
2544		58.593750
2545		66.406250
2546		60.546875
2547		62.500000
2548		60.546875
2549		62.500000
2550		56.640625
2551		64.453125
2552		54.687500
2553		62.500000
2554		54.687500
2555		60.546875
2556		52.734375
2557		60.546875
2558		50.781250
2559		58.593750
2560		48.828125
2561		56.640625
2562		50.781250
2563		54.687500
2564		48.828125
2565		50.781250
2566		44.921875
2567		50.781250
2568		41.015625
2569		50.781250
2570		39.062500
2571		48.828125
2572		37.109375
2573		44.921875
2574		35.156250
2575		44.921875
2576		33.203125
2577		41.015625
2578		31.250000
2579		39.062500
2580		31.250000
2581		35.156250
2582		27.343750
2583		33.203125
2584		23.437500
2585		31.250000
2586		21.484375
2587		29.296875
2588		19.531250
2589		27.343750
2590		15.625000
2591		23.437500
2592		13.671875
2593		21.484375
2594		9.765625
2595		19.531250
2596		9.765625
2597		13.671875
2598		7.812500
2599		11.718750
2600		1.953125
2601		9.765625
2602		0.000000
2603		7.812500
2604		-3.906250
2605		5.859375
2606		-5.859375
2607		1.953125
2608		-7.812500
2609		0.000000
2610		-11.718750
2611		-1.953125
2612		-13.671875
2613		-3.906250
2614		-13.671875
2615		-9.765625
2616		-17.578125
2617		-11.718750
2618		-21.484375
2619		-11.718750
2620		-23.437500
2621		-15.625000
2622		-25.390625
2623		-17.578125
2624		-27.343750
2625		-19.531250
2626		-31.250000
2627		-21.484375
2628		-31.250000
2629		-23.437500
2630		-31.250000
2631		-27.343750
2632		-33.203125
2633		-29.296875
2634		-37.109375
2635		-29.296875
2636		-39.062500
2637		-31.250000
2638		-39.062500
2639		-31.250000
2640		-41.015625
2641		-33.203125
2642		-42.968750
2643		-35.156250
2644		-42.968750
2645		-35.156250
2646		-42.968750
2647		-37.109375
2648		-42.968750
2649		-39.062500
2650		-44.921875
2651		-39.062500
2652		-44.921875
2653		-39.062500
2654		-44.921875
2655		-39.062500
2656		-46.875000
2657		-39.062500
2658		-46.875000
2659		-39.062500
2660		-46.875000
2661		-39.062500
2662		-46.875000
2663		-39.062500
2664		-42.968750
2665		-41.015625
2666		-42.968750
2667		-39.062500
2668		-44.921875
2669		-37.109375
2670		-42.968750
2671		-35.156250
2672		-42.968750
2673		-35.156250
2674		-41.015625
2675		-33.203125
2676		-41.015625
2677		-33.203125
2678		-39.062500
2679		-31.250000
2680		-35.156250
2681		-31.250000
2682		-33.203125
2683		-29.296875
2684		-33.203125
2685		-25.390625
2686		-33.203125
2687		-23.437500
2688		-31.250000
2689		-23.437500
2690		-29.296875
2691		-19.531250
2692		-27.343750
2693		-17.578125
2694		-23.437500
2695		-17.578125
2696		-21.484375
2697		-15.625000
2698		-17.578125
2699		-13.671875
2700		-15.625000
2701		-9.765625
2702		-13.671875
2703		-5.859375
2704		-11.718750
2705		-3.906250
2706		-9.765625
2707		-1.953125
2708		-7.812500
2709		1.953125
2710		-5.859375
2711		3.906250
2712		-1.953125
2713		5.859375
2714		3.906250
2715		7.812500
2716		5.859375
2717		9.765625
2718		5.859375
2719		15.625000
2720		7.812500
2721		17.578125
2722		9.765625
2723		19.531250
2724		13.671875
2725		23.437500
2726		15.625000
2727		25.390625
2728		19.531250
2729		27.343750
2730		21.484375
2731		27.343750
2732		27.343750
2733		31.250000
2734		27.343750
2735		35.156250
2736		29.296875
2737		37.109375
2738		31.250000
2739		39.062500
2740		33.203125
2741		42.968750
2742		35.156250
2743		44.921875
2744		39.062500
2745		46.875000
2746		41.015625
2747		46.875000
2748		44.921875
2749		48.828125
2750		46.875000
2751		50.781250
2752		46.875000
2753		54.687500
2754		46.875000
2755		56.640625
2756		50.781250
2757		56.640625
2758		50.781250
2759		58.593750
2760		52.734375
2761		60.546875
2762		52.734375
2763		60.546875
2764		54.687500
2765		60.546875
2766		58.593750
2767		60.546875
2768		58.593750
2769		64.453125
2770		58.593750
2771		64.453125
2772		58.593750
2773		66.406250
2774		58.593750
2775		66.406250
2776		60.546875
2777		66.406250
2778		60.546875
2779		68.359375
2780		60.546875
2781		68.359375
2782		62.500000
2783		66.406250
2784		62.500000
2785		68.359375
2786		60.546875
2787		68.359375
2788		60.546875
2789		68.359375
2790		60.546875
2791		68.359375
2792		60.546875
2793		68.359375
2794		60.546875
2795		66.406250
2796		60.546875
2797		66.406250
2798		60.546875
2799		64.453125
2800		60.546875
2801		62.500000
2802		56.640625
2803		64.453125
2804		56.640625
2805		62.500000
2806		54.687500
2807		62.500000
2808		52.734375
2809		60.546875
2810		50.781250
2811		58.593750
2812		50.781250
2813		58.593750
2814		48.828125
2815		56.640625
2816		48.828125
2817		52.734375
2818		44.921875
2819		52.734375
2820		42.968750
2821		50.781250
2822		41.015625
2823		48.828125
2824		39.062500
2825		46.875000
2826		37.109375
2827		44.921875
2828		35.156250
2829		42.968750
2830		33.203125
2831		41.015625
2832		31.250000
2833		37.109375
2834		29.296875
2835		35.156250
2836		25.390625
2837		33.203125
2838		21.484375
2839		31.250000
2840		19.531250
2841		29.296875
2842		17.578125
2843		25.390625
2844		15.625000
2845		23.437500
2846		11.718750
2847		19.531250
2848		11.718750
2849		17.578125
2850		9.765625
2851		13.671875
2852		3.906250
2853		11.718750
2854		1.953125
2855		9.765625
2856		-1.953125
2857		7.812500
2858		-3.906250
2859		3.906250
2860		-7.812500
2861		1.953125
2862		-9.765625
2863		-1.953125
2864		-9.765625
2865		-3.906250
2866		-11.718750
2867		-7.812500
2868		-15.625000
2869		-11.718750
2870		-19.531250
2871		-11.718750
2872		-21.484375
2873		-13.671875
2874		-23.437500
2875		-15.625000
2876		-27.343750
2877		-19.531250
2878		-29.296875
2879		-21.484375
2880		-31.250000
2881		-23.437500
2882		-31.250000
2883		-27.343750
2884		-31.250000
2885		-29.296875
2886		-35.156250
2887		-29.296875
2888		-37.109375
2889		-29.296875
2890		-39.062500
2891		-31.250000
2892		-41.015625
2893		-31.250000
2894		-41.015625
2895		-35.156250
2896		-42.968750
2897		-35.156250
2898		-42.968750
2899		-37.109375
2900		-42.968750
2901		-39.062500
2902		-42.968750
2903		-39.062500
2904		-46.875000
2905		-39.062500
2906		-46.875000
2907		-39.062500
2908		-46.875000
2909		-39.062500
2910		-46.875000
2911		-39.062500
2912		-46.875000
2913		-39.062500
2914		-44.921875
2915		-39.062500
2916		-42.968750
2917		-41.015625
2918		-42.968750
2919		-41.015625
2920		-44.921875
2921		-37.109375
2922		-44.921875
2923		-37.109375
2924		-42.968750
2925		-35.156250
2926		-41.015625
2927		-35.156250
2928		-41.015625
2929		-33.203125
2930		-39.062500
2931		-31.250000
2932		-39.062500
2933		-31.250000
2934		-35.156250
2935		-31.250000
2936		-35.156250
2937		-27.343750
2938		-33.203125
2939		-25.390625
2940		-33.203125
2941		-23.437500
2942		-29.296875
2943		-21.484375
2944		-27.343750
2945		-19.531250
2946		-25.390625
2947		-17.578125
2948		-23.437500
2949		-15.625000
2950		-19.531250
2951		-15.625000
2952		-15.625000
2953		-11.718750
2954		-15.625000
2955		-7.812500
2956		-13.671875
2957		-5.859375
2958		-11.718750
2959		-3.906250
2960		-9.765625
2961		0.000000
2962		-5.859375
2963		1.953125
2964		-3.906250
2965		3.906250
2966		1.953125
2967		5.859375
2968		3.906250
2969		7.812500
2970		5.859375
2971		11.718750
2972		7.812500
2973		15.625000
2974		9.765625
2975		17.578125
2976		11.718750
2977		21.484375
2978		15.625000
2979		23.437500
2980		17.578125
2981		25.390625
2982		19.531250
2983		27.343750
2984		25.390625
2985		29.296875
2986		27.343750
2987		33.203125
2988		27.343750
2989		35.156250
2990		31.250000
2991		37.109375
2992		31.250000
2993		41.015625
2994		35.156250
2995		42.968750
2996		37.109375
2997		44.921875
2998		39.062500
2999		46.875000
3000		42.968750
3001		46.875000
3002		44.921875
3003		48.828125
3004		44.921875
3005		52.734375
3006		46.875000
3007		54.687500
3008		48.828125
3009		56.640625
3010		50.781250
3011		58.593750
3012		50.781250
3013		58.593750
3014		52.734375
3015		60.546875
3016		52.734375
3017		60.546875
3018		58.593750
3019		60.546875
3020		56.640625
3021		64.453125
3022		58.593750
3023		64.453125
3024		58.593750
3025		66.406250
3026		58.593750
3027		66.406250
3028		60.546875
3029		66.406250
3030		60.546875
3031		68.359375
3032		60.546875
3033		68.359375
3034		64.453125
3035		66.406250
3036		62.500000
3037		66.406250
3038		60.546875
3039		68.359375
3040		60.546875
3041		68.359375
3042		60.546875
3043		68.359375
3044		60.546875
3045		68.359375
3046		60.546875
3047		66.406250
3048		58.593750
3049		66.406250
3050		62.500000
3051		64.453125
3052		60.546875
3053		62.500000
3054		56.640625
3055		64.453125
3056		56.640625
3057		64.453125
3058		54.687500
3059		62.500000
3060		52.734375
3061		62.500000
3062		52.734375
3063		60.546875
3064		50.781250
3065		58.593750
3066		50.781250
3067		58.593750
3068		50.781250
3069		52.734375
3070		46.875000
3071		52.734375
3072		44.921875
3073		52.734375
3074		42.968750
3075		50.781250
3076		41.015625
3077		48.828125
3078		39.062500
3079		46.875000
3080		35.156250
3081		44.921875
3082		33.203125
3083		42.968750
3084		33.203125
3085		37.109375
3086		31.250000
3087		35.156250
3088		27.343750
3089		35.156250
3090		23.437500
3091		33.203125
3092		19.531250
3093		29.296875
3094		19.531250
3095		27.343750
3096		15.625000
3097		25.390625
3098		13.671875
3099		21.484375
3100		13.671875
3101		19.531250
3102		9.765625
3103		15.625000
3104		5.859375
3105		11.718750
3106		1.953125
3107		11.718750
3108		0.000000
3109		9.765625
3110		-1.953125
3111		5.859375
3112		-5.859375
3113		3.906250
3114		-7.812500
3115		1.953125
3116		-9.765625
3117		-1.953125
3118		-11.718750
3119		-7.812500
3120		-15.625000
3121		-9.765625
3122		-19.531250
3123		-9.765625
3124		-19.531250
3125		-11.718750
3126		-23.437500
3127		-13.671875
3128		-25.390625
3129		-17.578125
3130		-27.343750
3131		-19.531250
3132		-29.296875
3133		-21.484375
3134		-29.296875
3135		-25.390625
3136		-31.250000
3137		-27.343750
3138		-35.156250
3139		-27.343750
3140		-37.109375
3141		-29.296875
3142		-39.062500
3143		-31.250000
3144		-41.015625
3145		-31.250000
3146		-41.015625
3147		-33.203125
3148		-42.968750
3149		-35.156250
3150		-42.968750
3151		-35.156250
3152		-41.015625
3153		-39.062500
3154		-44.921875
3155		-37.109375
3156		-46.875000
3157		-39.062500
3158		-46.875000
3159		-39.062500
3160		-46.875000
3161		-39.062500
3162		-46.875000
3163		-39.062500
3164		-46.875000
3165		-39.062500
3166		-46.875000
3167		-39.062500
3168		-42.968750
3169		-41.015625
3170		-42.968750
3171		-41.015625
3172		-44.921875
3173		-39.062500
3174		-44.921875
3175		-37.109375
3176		-42.968750
3177		-37.109375
3178		-42.968750
3179		-35.156250
3180		-42.968750
3181		-33.203125
3182		-41.015625
3183		-33.203125
3184		-39.062500
3185		-33.203125
3186		-35.156250
3187		-33.203125
3188		-35.156250
3189		-27.343750
3190		-35.156250
3191		-27.343750
3192		-33.203125
3193		-25.390625
3194		-31.250000
3195		-23.437500
3196		-29.296875
3197		-21.484375
3198		-27.343750
3199		-19.531250
3200		-25.390625
3201		-17.578125
3202		-21.484375
3203		-17.578125
3204		-17.578125
3205		-13.671875
3206		-17.578125
3207		-9.765625
3208		-15.625000
3209		-7.812500
3210		-13.671875
3211		-3.906250
3212		-11.718750
3213		-1.953125
3214		-7.812500
3215		0.000000
3216		-5.859375
3217		3.906250
3218		0.000000
3219		3.906250
3220		1.953125
3221		5.859375
3222		3.906250
3223		11.718750
3224		5.859375
3225		13.671875
3226		7.812500
3227		15.625000
3228		9.765625
3229		19.531250
3230		13.671875
3231		21.484375
3232		15.625000
3233		23.437500
3234		17.578125
3235		25.390625
3236		23.437500
3237		27.343750
3238		25.390625
3239		31.250000
3240		25.390625
3241		35.156250
3242		27.343750
3243		37.109375
3244		31.250000
3245		39.062500
3246		33.203125
3247		41.015625
3248		35.156250
3249		42.968750
3250		37.109375
3251		44.921875
3252		41.015625
3253		44.921875
3254		44.921875
3255		46.875000
3256		42.968750
3257		50.781250
3258		44.921875
3259		52.734375
3260		46.875000
3261		54.687500
3262		48.828125
3263		56.640625
3264		50.781250
3265		58.593750
3266		52.734375
3267		60.546875
3268		52.734375
3269		60.546875
3270		56.640625
3271		60.546875
3272		56.640625
3273		62.500000
3274		56.640625
3275		64.453125
3276		56.640625
3277		64.453125
3278		58.593750
3279		66.406250
3280		60.546875
3281		66.406250
3282		60.546875
3283		66.406250
3284		60.546875
3285		68.359375
3286		64.453125
3287		66.406250
3288		62.500000
3289		66.406250
3290		60.546875
3291		68.359375
3292		62.500000
3293		68.359375
3294		60.546875
3295		68.359375
3296		60.546875
3297		68.359375
3298		60.546875
3299		68.359375
3300		60.546875
3301		68.359375
3302		62.500000
3303		64.453125
3304		62.500000
3305		64.453125
3306		58.593750
3307		64.453125
3308		56.640625
3309		64.453125
3310		56.640625
3311		64.453125
3312		54.687500
3313		62.500000
3314		54.687500
3315		60.546875
3316		52.734375
3317		58.593750
3318		52.734375
3319		56.640625
3320		52.734375
3321		54.687500
3322		48.828125
3323		54.687500
3324		46.875000
3325		54.687500
3326		42.968750
3327		52.734375
3328		42.968750
3329		50.781250
3330		41.015625
3331		48.828125
3332		41.015625
3333		44.921875
3334		37.109375
3335		42.968750
3336		35.156250
3337		39.062500
3338		33.203125
3339		37.109375
3340		29.296875
3341		35.156250
3342		25.390625
3343		35.156250
3344		23.437500
3345		33.203125
3346		21.484375
3347		29.296875
3348		21.484375
3349		27.343750
3350		17.578125
3351		23.437500
3352		15.625000
3353		21.484375
3354		13.671875
3355		17.578125
3356		9.765625
3357		13.671875
3358		5.859375
3359		13.671875
3360		1.953125
3361		11.718750
3362		0.000000
3363		7.812500
3364		-1.953125
3365		3.906250
3366		-5.859375
3367		0.000000
3368		-5.859375
3369		-1.953125
3370		-7.812500
3371		-3.906250
3372		-11.718750
3373		-7.812500
3374		-13.671875
3375		-7.812500
3376		-19.531250
3377		-9.765625
3378		-17.578125
3379		-13.671875
3380		-23.437500
3381		-17.578125
3382		-23.437500
3383		-19.531250
3384		-25.390625
3385		-21.484375
3386		-27.343750
3387		-23.437500
3388		-29.296875
3389		-25.390625
3390		-31.250000
3391		-27.343750
3392		-33.203125
3393		-29.296875
3394		-35.156250
3395		-29.296875
3396		-35.156250
3397		-33.203125
3398		-37.109375
3399		-33.203125
3400		-39.062500
3401		-35.156250
3402		-41.015625
3403		-37.109375
3404		-41.015625
3405		-37.109375
3406		-41.015625
3407		-39.062500
3408		-42.968750
3409		-39.062500
3410		-42.968750
3411		-39.062500
3412		-42.968750
3413		-41.015625
3414		-44.921875
3415		-41.015625
3416		-44.921875
3417		-41.015625
3418		-44.921875
3419		-41.015625
3420		-42.968750
3421		-41.015625
3422		-42.968750
3423		-41.015625
3424		-44.921875
3425		-41.015625
3426		-42.968750
3427		-39.062500
3428		-41.015625
3429		-39.062500
3430		-41.015625
3431		-37.109375
3432		-41.015625
3433		-37.109375
3434		-39.062500
3435		-35.156250
3436		-39.062500
3437		-35.156250
3438		-37.109375
3439		-33.203125
3440		-35.156250
3441		-31.250000
3442		-33.203125
3443		-29.296875
3444		-31.250000
3445		-27.343750
3446		-29.296875
3447		-27.343750
3448		-29.296875
3449		-23.437500
3450		-25.390625
3451		-21.484375
3452		-25.390625
3453		-19.531250
3454		-21.484375
3455		-17.578125
3456		-19.531250
3457		-15.625000
3458		-17.578125
3459		-13.671875
3460		-15.625000
3461		-9.765625
3462		-11.718750
3463		-7.812500
3464		-9.765625
3465		-5.859375
3466		-7.812500
3467		-3.906250
3468		-5.859375
3469		0.000000
3470		-3.906250
3471		1.953125
3472		0.000000
3473		3.906250
3474		3.906250
3475		7.812500
3476		5.859375
3477		9.765625
3478		7.812500
3479		13.671875
3480		11.718750
3481		15.625000
3482		13.671875
3483		17.578125
3484		15.625000
3485		19.531250
3486		19.531250
3487		23.437500
3488		21.484375
3489		25.390625
3490		23.437500
3491		29.296875
3492		25.390625
3493		31.250000
3494		29.296875
3495		33.203125
3496		31.250000
3497		35.156250
3498		33.203125
3499		39.062500
3500		35.156250
3501		41.015625
3502		39.062500
3503		42.968750
3504		41.015625
3505		44.921875
3506		42.968750
3507		46.875000
3508		42.968750
3509		48.828125
3510		46.875000
3511		50.781250
3512		46.875000
3513		52.734375
3514		50.781250
3515		52.734375
3516		50.781250
3517		54.687500
3518		52.734375
3519		56.640625
3520		54.687500
3521		58.593750
3522		56.640625
3523		58.593750
3524		56.640625
3525		60.546875
3526		58.593750
3527		62.500000
3528		58.593750
3529		62.500000
3530		60.546875
3531		64.453125
3532		60.546875
3533		64.453125
3534		62.500000
3535		64.453125
3536		62.500000
3537		66.406250
3538		62.500000
3539		66.406250
3540		64.453125
3541		66.406250
3542		64.453125
3543		66.406250
3544		64.453125
3545		66.406250
3546		64.453125
3547		66.406250
3548		64.453125
3549		66.406250
3550		62.500000
3551		66.406250
3552		62.500000
3553		66.406250
3554		60.546875
3555		66.406250
3556		62.500000
3557		64.453125
3558		60.546875
3559		64.453125
3560		60.546875
3561		62.500000
3562		58.593750
3563		62.500000
3564		58.593750
3565		62.500000
3566		56.640625
3567		60.546875
3568		54.687500
3569		58.593750
3570		54.687500
3571		58.593750
3572		52.734375
3573		56.640625
3574		48.828125
3575		54.687500
3576		48.828125
3577		52.734375
3578		46.875000
3579		50.781250
3580		44.921875
3581		48.828125
3582		42.968750
3583		46.875000
3584		41.015625
3585		44.921875
3586		39.062500
3587		42.968750
3588		37.109375
3589		41.015625
3590		35.156250
3591		39.062500
3592		31.250000
3593		37.109375
3594		29.296875
3595		33.203125
3596		27.343750
3597		33.203125
3598		25.390625
3599		29.296875
3600		21.484375
3601		27.343750
3602		19.531250
3603		23.437500
3604		17.578125
3605		21.484375
3606		13.671875
3607		19.531250
3608		11.718750
3609		15.625000
3610		7.812500
3611		13.671875
3612		5.859375
3613		9.765625
3614		3.906250
3615		7.812500
3616		0.000000
3617		5.859375
3618		-1.953125
3619		1.953125
3620		-5.859375
3621		0.000000
3622		-7.812500
3623		-1.953125
3624		-9.765625
3625		-5.859375
3626		-11.718750
3627		-7.812500
3628		-15.625000
3629		-9.765625
3630		-17.578125
3631		-13.671875
3632		-19.531250
3633		-15.625000
3634		-21.484375
3635		-17.578125
3636		-23.437500
3637		-19.531250
3638		-25.390625
3639		-21.484375
3640		-29.296875
3641		-25.390625
3642		-31.250000
3643		-27.343750
3644		-33.203125
3645		-27.343750
3646		-33.203125
3647		-29.296875
3648		-35.156250
3649		-31.250000
3650		-37.109375
3651		-33.203125
3652		-39.062500
3653		-35.156250
3654		-39.062500
3655		-35.156250
3656		-41.015625
3657		-37.109375
3658		-42.968750
3659		-39.062500
3660		-42.968750
3661		-39.062500
3662		-42.968750
3663		-39.062500
3664		-42.968750
3665		-41.015625
3666		-42.968750
3667		-41.015625
3668		-44.921875
3669		-41.015625
3670		-44.921875
3671		-41.015625
3672		-42.968750
3673		-41.015625
3674		-42.968750
3675		-41.015625
3676		-44.921875
3677		-41.015625
3678		-42.968750
3679		-39.062500
3680		-42.968750
3681		-39.062500
3682		-41.015625
3683		-39.062500
3684		-41.015625
3685		-37.109375
3686		-41.015625
3687		-37.109375
3688		-39.062500
3689		-35.156250
3690		-39.062500
3691		-35.156250
3692		-37.109375
3693		-33.203125
3694		-35.156250
3695		-31.250000
3696		-33.203125
3697		-29.296875
3698		-31.250000
3699		-29.296875
3700		-29.296875
3701		-25.390625
3702		-27.343750
3703		-23.437500
3704		-25.390625
3705		-21.484375
3706		-23.437500
3707		-19.531250
3708		-21.484375
3709		-17.578125
3710		-19.531250
3711		-15.625000
3712		-17.578125
3713		-11.718750
3714		-13.671875
3715		-9.765625
3716		-11.718750
3717		-7.812500
3718		-9.765625
3719		-5.859375
3720		-7.812500
3721		-1.953125
3722		-3.906250
3723		0.000000
3724		-1.953125
3725		1.953125
3726		1.953125
3727		5.859375
3728		3.906250
3729		7.812500
3730		5.859375
3731		9.765625
3732		7.812500
3733		13.671875
3734		11.718750
3735		15.625000
3736		13.671875
3737		19.531250
3738		17.578125
3739		21.484375
3740		19.531250
3741		23.437500
3742		21.484375
3743		27.343750
3744		25.390625
3745		29.296875
3746		27.343750
3747		31.250000
3748		29.296875
3749		33.203125
3750		31.250000
3751		35.156250
3752		35.156250
3753		39.062500
3754		37.109375
3755		41.015625
3756		39.062500
3757		42.968750
3758		41.015625
3759		44.921875
3760		42.968750
3761		46.875000
3762		44.921875
3763		48.828125
3764		46.875000
3765		50.781250
3766		48.828125
3767		52.734375
3768		50.781250
3769		54.687500
3770		50.781250
3771		56.640625
3772		52.734375
3773		56.640625
3774		54.687500
3775		58.593750
3776		56.640625
3777		60.546875
3778		56.640625
3779		60.546875
3780		58.593750
3781		62.500000
3782		60.546875
3783		62.500000
3784		60.546875
3785		62.500000
3786		60.546875
3787		64.453125
3788		62.500000
3789		64.453125
3790		62.500000
3791		64.453125
3792		62.500000
3793		64.453125
3794		62.500000
3795		66.406250
3796		62.500000
3797		66.406250
3798		62.500000
3799		66.406250
3800		62.500000
3801		66.406250
3802		62.500000
3803		66.406250
3804		62.500000
3805		66.406250
3806		60.546875
3807		66.406250
3808		62.500000
3809		64.453125
3810		60.546875
3811		64.453125
3812		60.546875
3813		64.453125
3814		58.593750
3815		62.500000
3816		58.593750
3817		60.546875
3818		56.640625
3819		60.546875
3820		56.640625
3821		60.546875
3822		54.687500
3823		58.593750
3824		52.734375
3825		56.640625
3826		52.734375
3827		54.687500
3828		50.781250
3829		54.687500
3830		48.828125
3831		52.734375
3832		46.875000
3833		50.781250
3834		44.921875
3835		48.828125
3836		41.015625
3837		46.875000
3838		39.062500
3839		44.921875
3840		39.062500
3841		42.968750
3842		37.109375
3843		39.062500
3844		33.203125
3845		39.062500
3846		31.250000
3847		35.156250
3848		29.296875
3849		33.203125
3850		25.390625
3851		31.250000
3852		23.437500
3853		27.343750
3854		21.484375
3855		25.390625
3856		19.531250
3857		23.437500
3858		15.625000
3859		19.531250
3860		11.718750
3861		17.578125
3862		9.765625
3863		15.625000
3864		7.812500
3865		11.718750
3866		5.859375
3867		9.765625
3868		1.953125
3869		7.812500
3870		0.000000
3871		3.906250
3872		-3.906250
3873		1.953125
3874		-5.859375
3875		-1.953125
3876		-7.812500
3877		-3.906250
3878		-11.718750
3879		-5.859375
3880		-13.671875
3881		-9.765625
3882		-15.625000
3883		-11.718750
3884		-19.531250
3885		-13.671875
3886		-21.484375
3887		-15.625000
3888		-23.437500
3889		-19.531250
3890		-25.390625
3891		-19.531250
3892		-27.343750
3893		-23.437500
3894		-29.296875
3895		-25.390625
3896		-31.250000
3897		-27.343750
3898		-33.203125
3899		-29.296875
3900		-35.156250
3901		-29.296875
3902		-35.156250
3903		-31.250000
3904		-37.109375
3905		-33.203125
3906		-39.062500
3907		-35.156250
3908		-39.062500
3909		-37.109375
3910		-41.015625
3911		-37.109375
3912		-41.015625
3913		-39.062500
3914		-42.968750
3915		-39.062500
3916		-42.968750
3917		-39.062500
3918		-42.968750
3919		-41.015625
3920		-42.968750
3921		-41.015625
3922		-44.921875
3923		-41.015625
3924		-42.968750
3925		-41.015625
3926		-42.968750
3927		-41.015625
3928		-44.921875
3929		-41.015625
3930		-42.968750
3931		-39.062500
3932		-42.968750
3933		-39.062500
3934		-42.968750
3935		-39.062500
3936		-41.015625
3937		-39.062500
3938		-41.015625
3939		-37.109375
3940		-41.015625
3941		-37.109375
3942		-39.062500
3943		-35.156250
3944		-37.109375
3945		-33.203125
3946		-37.109375
3947		-31.250000
3948		-33.203125
3949		-31.250000
3950		-33.203125
3951		-29.296875
3952		-31.250000
3953		-27.343750
3954		-29.296875
3955		-25.390625
3956		-27.343750
3957		-21.484375
3958		-25.390625
3959		-21.484375
3960		-23.437500
3961		-19.531250
3962		-21.484375
3963		-15.625000
3964		-17.578125
3965		-13.671875
3966		-15.625000
3967		-11.718750
3968		-13.671875
3969		-9.765625
3970		-11.718750
3971		-5.859375
3972		-9.765625
3973		-3.906250
3974		-5.859375
3975		-1.953125
3976		-3.906250
3977		0.000000
3978		0.000000
3979		3.906250
3980		1.953125
3981		5.859375
3982		3.906250
3983		9.765625
3984		5.859375
3985		11.718750
3986		9.765625
3987		13.671875
3988		11.718750
3989		17.578125
3990		15.625000
3991		19.531250
3992		17.578125
3993		21.484375
3994		21.484375
3995		25.390625
3996		21.484375
3997		27.343750
3998		25.390625
3999		29.296875
4000		27.343750
4001		31.250000
4002		31.250000
4003		35.156250
4004		33.203125
4005		37.109375
4006		35.156250
4007		39.062500
4008		37.109375
4009		41.015625
4010		39.062500
4011		42.968750
4012		41.015625
4013		44.921875
4014		42.968750
4015		48.828125
4016		44.921875
4017		48.828125
4018		46.875000
4019		50.781250
4020		48.828125
4021		52.734375
4022		50.781250
4023		54.687500
4024		52.734375
4025		56.640625
4026		54.687500
4027		56.640625
4028		54.687500
4029		58.593750
4030		56.640625
4031		60.546875
4032		58.593750
4033		60.546875
4034		58.593750
4035		62.500000
4036		60.546875
4037		62.500000
4038		60.546875
4039		64.453125
4040		60.546875
4041		64.453125
4042		62.500000
4043		64.453125
4044		62.500000
4045		64.453125
4046		62.500000
4047		66.406250
4048		62.500000
4049		66.406250
4050		62.500000
4051		66.406250
4052		64.453125
4053		66.406250
4054		62.500000
4055		66.406250
4056		62.500000
4057		66.406250
4058		62.500000
4059		66.406250
4060		62.500000
4061		64.453125
4062		60.546875
4063		66.406250
4064		60.546875
4065		64.453125
4066		60.546875
4067		62.500000
4068		58.593750
4069		62.500000
4070		58.593750
4071		60.546875
4072		56.640625
4073		60.546875
4074		54.687500
4075		58.593750
4076		54.687500
4077		56.640625
4078		52.734375
4079		56.640625
4080		50.781250
4081		56.640625
4082		48.828125
4083		52.734375
4084		46.875000
4085		50.781250
4086		44.921875
4087		48.828125
4088		42.968750
4089		46.875000
4090		41.015625
4091		44.921875
4092		39.062500
4093		44.921875
4094		37.109375
4095		41.015625
4096		35.156250
4097		39.062500
4098		33.203125
4099		37.109375
4100		29.296875
4101		35.156250
4102		27.343750
4103		31.250000
4104		25.390625
4105		29.296875
4106		21.484375
4107		27.343750
4108		19.531250
4109		23.437500
4110		17.578125
4111		21.484375
4112		13.671875
4113		19.531250
4114		11.718750
4115		17.578125
4116		9.765625
4117		13.671875
4118		5.859375
4119		11.718750
4120		3.906250
4121		7.812500
4122		0.000000
4123		5.859375
4124		-1.953125
4125		1.953125
4126		-3.906250
4127		0.000000
4128		-7.812500
4129		-1.953125
4130		-9.765625
4131		-5.859375
4132		-11.718750
4133		-7.812500
4134		-15.625000
4135		-9.765625
4136		-17.578125
4137		-13.671875
4138		-19.531250
4139		-15.625000
4140		-21.484375
4141		-17.578125
4142		-23.437500
4143		-19.531250
4144		-25.390625
4145		-21.484375
4146		-29.296875
4147		-23.437500
4148		-29.296875
4149		-27.343750
4150		-31.250000
4151		-27.343750
4152		-33.203125
4153		-29.296875
4154		-35.156250
4155		-31.250000
4156		-37.109375
4157		-33.203125
4158		-39.062500
4159		-33.203125
4160		-39.062500
4161		-37.109375
4162		-41.015625
4163		-37.109375
4164		-42.968750
4165		-37.109375
4166		-42.968750
4167		-39.062500
4168		-42.968750
4169		-41.015625
4170		-44.921875
4171		-41.015625
4172		-44.921875
4173		-41.015625
4174		-44.921875
4175		-41.015625
4176		-44.921875
4177		-41.015625
4178		-44.921875
4179		-42.968750
4180		-44.921875
4181		-41.015625
4182		-44.921875
4183		-41.015625
4184		-42.968750
4185		-41.015625
4186		-42.968750
4187		-41.015625
4188		-42.968750
4189		-39.062500
4190		-42.968750
4191		-39.062500
4192		-41.015625
4193		-37.109375
4194		-39.062500
4195		-35.156250
4196		-39.062500
4197		-35.156250
4198		-39.062500
4199		-33.203125
4200		-35.156250
4201		-31.250000
4202		-35.156250
4203		-31.250000
4204		-33.203125
4205		-29.296875
4206		-31.250000
4207		-27.343750
4208		-29.296875
4209		-23.437500
4210		-27.343750
4211		-23.437500
4212		-25.390625
4213		-21.484375
4214		-23.437500
4215		-17.578125
4216		-19.531250
4217		-15.625000
4218		-19.531250
4219		-13.671875
4220		-15.625000
4221		-11.718750
4222		-13.671875
4223		-7.812500
4224		-11.718750
4225		-5.859375
4226		-9.765625
4227		-3.906250
4228		-5.859375
4229		-1.953125
4230		-3.906250
4231		1.953125
4232		0.000000
4233		3.906250
4234		1.953125
4235		5.859375
4236		5.859375
4237		9.765625
4238		7.812500
4239		11.718750
4240		9.765625
4241		15.625000
4242		13.671875
4243		17.578125
4244		15.625000
4245		19.531250
4246		17.578125
4247		23.437500
4248		19.531250
4249		25.390625
4250		23.437500
4251		27.343750
4252		25.390625
4253		29.296875
4254		27.343750
4255		33.203125
4256		31.250000
4257		35.156250
4258		33.203125
4259		37.109375
4260		35.156250
4261		39.062500
4262		37.109375
4263		42.968750
4264		39.062500
4265		44.921875
4266		41.015625
4267		46.875000
4268		44.921875
4269		48.828125
4270		44.921875
4271		50.781250
4272		46.875000
4273		52.734375
4274		48.828125
4275		52.734375
4276		50.781250
4277		54.687500
4278		52.734375
4279		56.640625
4280		54.687500
4281		58.593750
4282		54.687500
4283		58.593750
4284		56.640625
4285		60.546875
4286		58.593750
4287		60.546875
4288		58.593750
4289		62.500000
4290		60.546875
4291		62.500000
4292		60.546875
4293		64.453125
4294		62.500000
4295		64.453125
4296		62.500000
4297		64.453125
4298		62.500000
4299		66.406250
4300		62.500000
4301		66.406250
4302		62.500000
4303		66.406250
4304		62.500000
4305		66.406250
4306		62.500000
4307		66.406250
4308		62.500000
4309		66.406250
4310		60.546875
4311		66.406250
4312		62.500000
4313		64.453125
4314		60.546875
4315		64.453125
4316		60.546875
4317		64.453125
4318		58.593750
4319		64.453125
4320		60.546875
4321		62.500000
4322		58.593750
4323		62.500000
4324		56.640625
4325		60.546875
4326		56.640625
4327		60.546875
4328		54.687500
4329		58.593750
4330		54.687500
4331		56.640625
4332		52.734375
4333		54.687500
4334		48.828125
4335		54.687500
4336		48.828125
4337		52.734375
4338		46.875000
4339		50.781250
4340		44.921875
4341		48.828125
4342		42.968750
4343		48.828125
4344		41.015625
4345		44.921875
4346		39.062500
4347		42.968750
4348		35.156250
4349		41.015625
4350		33.203125
4351		39.062500
4352		31.250000
4353		35.156250
4354		29.296875
4355		33.203125
4356		27.343750
4357		31.250000
4358		23.437500
4359		29.296875
4360		21.484375
4361		25.390625
4362		19.531250
4363		23.437500
4364		15.625000
4365		21.484375
4366		13.671875
4367		17.578125
4368		11.718750
4369		15.625000
4370		7.812500
4371		13.671875
4372		5.859375
4373		9.765625
4374		1.953125
4375		7.812500
4376		0.000000
4377		3.906250
4378		-1.953125
4379		1.953125
4380		-5.859375
4381		-1.953125
4382		-7.812500
4383		-3.906250
4384		-9.765625
4385		-5.859375
4386		-13.671875
4387		-7.812500
4388		-15.625000
4389		-11.718750
4390		-17.578125
4391		-13.671875
4392		-19.531250
4393		-15.625000
4394		-21.484375
4395		-17.578125
4396		-25.390625
4397		-21.484375
4398		-27.343750
4399		-23.437500
4400		-29.296875
4401		-25.390625
4402		-31.250000
4403		-27.343750
4404		-33.203125
4405		-29.296875
4406		-35.156250
4407		-31.250000
4408		-35.156250
4409		-31.250000
4410		-37.109375
4411		-33.203125
4412		-39.062500
4413		-35.156250
4414		-39.062500
4415		-35.156250
4416		-41.015625
4417		-37.109375
4418		-42.968750
4419		-39.062500
4420		-42.968750
4421		-39.062500
4422		-42.968750
4423		-41.015625
4424		-44.921875
4425		-41.015625
4426		-44.921875
4427		-41.015625
4428		-44.921875
4429		-41.015625
4430		-44.921875
4431		-42.968750
4432		-44.921875
4433		-41.015625
4434		-44.921875
4435		-41.015625
4436		-44.921875
4437		-41.015625
4438		-42.968750
4439		-41.015625
4440		-42.968750
4441		-39.062500
4442		-42.968750
4443		-39.062500
4444		-42.968750
4445		-37.109375
4446		-41.015625
4447		-37.109375
4448		-39.062500
4449		-37.109375
4450		-39.062500
4451		-35.156250
4452		-37.109375
4453		-33.203125
4454		-35.156250
4455		-31.250000
4456		-33.203125
4457		-29.296875
4458		-31.250000
4459		-27.343750
4460		-29.296875
4461		-25.390625
4462		-27.343750
4463		-23.437500
4464		-25.390625
4465		-21.484375
4466		-25.390625
4467		-19.531250
4468		-21.484375
4469		-17.578125
4470		-19.531250
4471		-15.625000
4472		-17.578125
4473		-13.671875
4474		-15.625000
4475		-9.765625
4476		-11.718750
4477		-7.812500
4478		-9.765625
4479		-5.859375
4480		-5.859375
4481		-3.906250
4482		-3.906250
4483		1.953125
4484		-1.953125
4485		1.953125
4486		0.000000
4487		5.859375
4488		3.906250
4489		7.812500
4490		5.859375
4491		11.718750
4492		7.812500
4493		13.671875
4494		11.718750
4495		15.625000
4496		13.671875
4497		17.578125
4498		17.578125
4499		21.484375
4500		19.531250
4501		23.437500
4502		21.484375
4503		25.390625
4504		23.437500
4505		29.296875
4506		27.343750
4507		31.250000
4508		29.296875
4509		33.203125
4510		31.250000
4511		37.109375
4512		33.203125
4513		37.109375
4514		37.109375
4515		41.015625
4516		39.062500
4517		42.968750
4518		41.015625
4519		44.921875
4520		42.968750
4521		46.875000
4522		44.921875
4523		48.828125
4524		46.875000
4525		50.781250
4526		48.828125
4527		52.734375
4528		48.828125
4529		52.734375
4530		52.734375
4531		54.687500
4532		52.734375
4533		56.640625
4534		54.687500
4535		58.593750
4536		54.687500
4537		58.593750
4538		56.640625
4539		60.546875
4540		58.593750
4541		62.500000
4542		58.593750
4543		62.500000
4544		60.546875
4545		64.453125
4546		60.546875
4547		64.453125
4548		62.500000
4549		64.453125
4550		62.500000
4551		64.453125
4552		62.500000
4553		66.406250
4554		62.500000
4555		66.406250
4556		62.500000
4557		66.406250
4558		62.500000
4559		66.406250
4560		62.500000
4561		66.406250
4562		62.500000
4563		66.406250
4564		62.500000
4565		64.453125
4566		60.546875
4567		66.406250
4568		60.546875
4569		64.453125
4570		60.546875
4571		64.453125
4572		60.546875
4573		64.453125
4574		58.593750
4575		62.500000
4576		58.593750
4577		62.500000
4578		56.640625
4579		60.546875
4580		56.640625
4581		58.593750
4582		54.687500
4583		56.640625
4584		52.734375
4585		56.640625
4586		52.734375
4587		54.687500
4588		48.828125
4589		54.687500
4590		48.828125
4591		50.781250
4592		46.875000
4593		50.781250
4594		44.921875
4595		48.828125
4596		42.968750
4597		46.875000
4598		39.062500
4599		42.968750
4600		37.109375
4601		41.015625
4602		35.156250
4603		39.062500
4604		33.203125
4605		37.109375
4606		31.250000
4607		35.156250
4608		29.296875
4609		33.203125
4610		25.390625
4611		29.296875
4612		23.437500
4613		27.343750
4614		21.484375
4615		25.390625
4616		17.578125
4617		21.484375
4618		15.625000
4619		21.484375
4620		11.718750
4621		17.578125
4622		9.765625
4623		13.671875
4624		5.859375
4625		11.718750
4626		3.906250
4627		9.765625
4628		1.953125
4629		5.859375
4630		0.000000
4631		3.906250
4632		-3.906250
4633		0.000000
4634		-5.859375
4635		-1.953125
4636		-9.765625
4637		-3.906250
4638		-11.718750
4639		-7.812500
4640		-13.671875
4641		-9.765625
4642		-15.625000
4643		-11.718750
4644		-19.531250
4645		-13.671875
4646		-21.484375
4647		-17.578125
4648		-23.437500
4649		-19.531250
4650		-25.390625
4651		-21.484375
4652		-29.296875
4653		-23.437500
4654		-29.296875
4655		-25.390625
4656		-31.250000
4657		-27.343750
4658		-33.203125
4659		-29.296875
4660		-35.156250
4661		-31.250000
4662		-37.109375
4663		-33.203125
4664		-39.062500
4665		-35.156250
4666		-39.062500
4667		-37.109375
4668		-41.015625
4669		-37.109375
4670		-41.015625
4671		-39.062500
4672		-42.968750
4673		-39.062500
4674		-42.968750
4675		-41.015625
4676		-42.968750
4677		-41.015625
4678		-44.921875
4679		-41.015625
4680		-44.921875
4681		-41.015625
4682		-44.921875
4683		-42.968750
4684		-46.875000
4685		-41.015625
4686		-44.921875
4687		-41.015625
4688		-44.921875
4689		-41.015625
4690		-44.921875
4691		-41.015625
4692		-42.968750
4693		-41.015625
4694		-42.968750
4695		-41.015625
4696		-42.968750
4697		-39.062500
4698		-41.015625
4699		-39.062500
4700		-41.015625
4701		-37.109375
4702		-41.015625
4703		-35.156250
4704		-37.109375
4705		-33.203125
4706		-37.109375
4707		-33.203125
4708		-35.156250
4709		-31.250000
4710		-33.203125
4711		-29.296875
4712		-31.250000
4713		-27.343750
4714		-31.250000
4715		-25.390625
4716		-27.343750
4717		-23.437500
4718		-25.390625
4719		-21.484375
4720		-23.437500
4721		-19.531250
4722		-21.484375
4723		-17.578125
4724		-19.531250
4725		-13.671875
4726		-15.625000
4727		-11.718750
4728		-15.625000
4729		-9.765625
4730		-11.718750
4731		-7.812500
4732		-9.765625
4733		-5.859375
4734		-5.859375
4735		-1.953125
4736		-3.906250
4737		1.953125
4738		-1.953125
4739		3.906250
4740		0.000000
4741		5.859375
4742		3.906250
4743		7.812500
4744		5.859375
4745		11.718750
4746		9.765625
4747		13.671875
4748		11.718750
4749		15.625000
4750		15.625000
4751		19.531250
4752		17.578125
4753		21.484375
4754		19.531250
4755		23.437500
4756		23.437500
4757		27.343750
4758		25.390625
4759		29.296875
4760		27.343750
4761		31.250000
4762		29.296875
4763		35.156250
4764		31.250000
4765		37.109375
4766		35.156250
4767		39.062500
4768		37.109375
4769		41.015625
4770		39.062500
4771		42.968750
4772		41.015625
4773		44.921875
4774		42.968750
4775		46.875000
4776		44.921875
4777		48.828125
4778		46.875000
4779		50.781250
4780		48.828125
4781		52.734375
4782		50.781250
4783		54.687500
4784		52.734375
4785		54.687500
4786		52.734375
4787		56.640625
4788		54.687500
4789		58.593750
4790		54.687500
4791		60.546875
4792		56.640625
4793		60.546875
4794		58.593750
4795		60.546875
4796		58.593750
4797		62.500000
4798		58.593750
4799		64.453125
4800		60.546875
4801		64.453125
4802		60.546875
4803		64.453125
4804		62.500000
4805		66.406250
4806		62.500000
4807		64.453125
4808		62.500000
4809		66.406250
4810		62.500000
4811		66.406250
4812		62.500000
4813		66.406250
4814		62.500000
4815		66.406250
4816		62.500000
4817		64.453125
4818		60.546875
4819		66.406250
4820		60.546875
4821		64.453125
4822		60.546875
4823		64.453125
4824		60.546875
4825		62.500000
4826		58.593750
4827		62.500000
4828		58.593750
4829		62.500000
4830		56.640625
4831		60.546875
4832		56.640625
4833		60.546875
4834		54.687500
4835		58.593750
4836		52.734375
4837		58.593750
4838		52.734375
4839		54.687500
4840		50.781250
4841		54.687500
4842		48.828125
4843		52.734375
4844		46.875000
4845		50.781250
4846		44.921875
4847		48.828125
4848		42.968750
4849		46.875000
4850		41.015625
4851		44.921875
4852		39.062500
4853		42.968750
4854		37.109375
4855		41.015625
4856		33.203125
4857		39.062500
4858		33.203125
4859		37.109375
4860		29.296875
4861		35.156250
4862		27.343750
4863		31.250000
4864		23.437500
4865		29.296875
4866		21.484375
4867		27.343750
4868		19.531250
4869		23.437500
4870		17.578125
4871		21.484375
4872		13.671875
4873		19.531250
4874		11.718750
4875		15.625000
4876		7.812500
4877		13.671875
4878		5.859375
4879		9.765625
4880		3.906250
4881		7.812500
4882		0.000000
4883		5.859375
4884		-1.953125
4885		1.953125
4886		-3.906250
4887		0.000000
4888		-7.812500
4889		-3.906250
4890		-9.765625
4891		-5.859375
4892		-13.671875
4893		-7.812500
4894		-15.625000
4895		-9.765625
4896		-17.578125
4897		-13.671875
4898		-19.531250
4899		-15.625000
4900		-21.484375
4901		-17.578125
4902		-25.390625
4903		-19.531250
4904		-27.343750
4905		-21.484375
4906		-27.343750
4907		-23.437500
4908		-31.250000
4909		-27.343750
4910		-31.250000
4911		-29.296875
4912		-33.203125
4913		-31.250000
4914		-35.156250
4915		-31.250000
4916		-37.109375
4917		-33.203125
4918		-39.062500
4919		-35.156250
4920		-41.015625
4921		-35.156250
4922		-41.015625
4923		-37.109375
4924		-41.015625
4925		-39.062500
4926		-42.968750
4927		-39.062500
4928		-44.921875
4929		-41.015625
4930		-44.921875
4931		-41.015625
4932		-44.921875
4933		-41.015625
4934		-44.921875
4935		-42.968750
4936		-44.921875
4937		-41.015625
4938		-44.921875
4939		-41.015625
4940		-44.921875
4941		-41.015625
4942		-44.921875
4943		-41.015625
4944		-44.921875
4945		-41.015625
4946		-42.968750
4947		-41.015625
4948		-42.968750
4949		-39.062500
4950		-41.015625
4951		-39.062500
4952		-41.015625
4953		-37.109375
4954		-41.015625
4955		-37.109375
4956		-39.062500
4957		-35.156250
4958		-37.109375
4959		-33.203125
4960		-35.156250
4961		-33.203125
4962		-35.156250
4963		-31.250000
4964		-33.203125
4965		-29.296875
4966		-31.250000
4967		-27.343750
4968		-29.296875
4969		-25.390625
4970		-27.343750
4971		-23.437500
4972		-25.390625
4973		-21.484375
4974		-23.437500
4975		-19.531250
4976		-21.484375
4977		-15.625000
4978		-17.578125
4979		-13.671875
4980		-15.625000
4981		-11.718750
4982		-13.671875
4983		-9.765625
4984		-11.718750
4985		-7.812500
4986		-7.812500
4987		-1.953125
4988		-5.859375
4989		-1.953125
4990		-3.906250
4991		1.953125
4992		0.000000
4993		3.906250
4994		1.953125
4995		5.859375
4996		3.906250
4997		9.765625
4998		7.812500
4999		11.718750
5000		9.765625
5001		13.671875
5002		13.671875
5003		17.578125
5004		15.625000
5005		19.531250
5006		17.578125
5007		21.484375
5008		21.484375
5009		25.390625
5010		23.437500
5011		27.343750
5012		25.390625
5013		31.250000
5014		27.343750
5015		33.203125
5016		31.250000
5017		35.156250
5018		33.203125
5019		37.109375
5020		35.156250
5021		39.062500
5022		37.109375
5023		41.015625
5024		39.062500
5025		44.921875
5026		41.015625
5027		44.921875
5028		42.968750
5029		46.875000
5030		44.921875
5031		48.828125
5032		46.875000
5033		50.781250
5034		48.828125
5035		52.734375
5036		50.781250
5037		54.687500
5038		50.781250
5039		56.640625
5040		54.687500
5041		56.640625
5042		54.687500
5043		58.593750
5044		56.640625
5045		60.546875
5046		56.640625
5047		60.546875
5048		58.593750
5049		62.500000
5050		58.593750
5051		62.500000
5052		60.546875
5053		62.500000
5054		60.546875
5055		64.453125
5056		60.546875
5057		64.453125
5058		62.500000
5059		64.453125
5060		62.500000
5061		66.406250
5062		62.500000
5063		64.453125
5064		62.500000
5065		66.406250
5066		62.500000
5067		66.406250
5068		62.500000
5069		64.453125
5070		62.500000
5071		64.453125
5072		62.500000
5073		64.453125
5074		60.546875
5075		64.453125
5076		60.546875
5077		62.500000
5078		60.546875
5079		62.500000
5080		58.593750
5081		62.500000
5082		56.640625
5083		60.546875
5084		56.640625
5085		60.546875
5086		56.640625
5087		58.593750
5088		54.687500
5089		56.640625
5090		52.734375
5091		56.640625
5092		50.781250
5093		54.687500
5094		50.781250
5095		54.687500
5096		46.875000
5097		52.734375
5098		44.921875
5099		48.828125
5100		44.921875
5101		48.828125
5102		42.968750
5103		46.875000
5104		39.062500
5105		44.921875
5106		37.109375
5107		42.968750
5108		35.156250
5109		39.062500
5110		33.203125
5111		37.109375
5112		29.296875
5113		35.156250
5114		29.296875
5115		33.203125
5116		25.390625
5117		31.250000
5118		23.437500
5119		27.343750
5120		21.484375
5121		25.390625
5122		17.578125
5123		23.437500
5124		15.625000
5125		19.531250
5126		11.718750
5127		17.578125
5128		9.765625
5129		13.671875
5130		7.812500
5131		11.718750
5132		3.906250
5133		9.765625
5134		1.953125
5135		5.859375
5136		0.000000
5137		3.906250
5138		-3.906250
5139		0.000000
5140		-5.859375
5141		-1.953125
5142		-9.765625
5143		-3.906250
5144		-11.718750
5145		-7.812500
5146		-13.671875
5147		-9.765625
5148		-15.625000
5149		-11.718750
5150		-19.531250
5151		-13.671875
5152		-21.484375
5153		-17.578125
5154		-23.437500
5155		-19.531250
5156		-25.390625
5157		-21.484375
5158		-27.343750
5159		-23.437500
5160		-29.296875
5161		-25.390625
5162		-33.203125
5163		-27.343750
5164		-35.156250
5165		-29.296875
5166		-35.156250
5167		-31.250000
5168		-37.109375
5169		-31.250000
5170		-39.062500
5171		-35.156250
5172		-41.015625
5173		-35.156250
5174		-41.015625
5175		-37.109375
5176		-41.015625
5177		-39.062500
5178		-42.968750
5179		-39.062500
5180		-44.921875
5181		-41.015625
5182		-44.921875
5183		-41.015625
5184		-44.921875
5185		-41.015625
5186		-44.921875
5187		-42.968750
5188		-46.875000
5189		-42.968750
5190		-46.875000
5191		-42.968750
5192		-44.921875
5193		-42.968750
5194		-44.921875
5195		-42.968750
5196		-44.921875
5197		-41.015625
5198		-44.921875
5199		-41.015625
5200		-44.921875
5201		-41.015625
5202		-42.968750
5203		-41.015625
5204		-42.968750
5205		-39.062500
5206		-41.015625
5207		-37.109375
5208		-41.015625
5209		-37.109375
5210		-39.062500
5211		-35.156250
5212		-39.062500
5213		-35.156250
5214		-37.109375
5215		-31.250000
5216		-35.156250
5217		-29.296875
5218		-33.203125
5219		-29.296875
5220		-31.250000
5221		-27.343750
5222		-29.296875
5223		-25.390625
5224		-27.343750
5225		-23.437500
5226		-25.390625
5227		-21.484375
5228		-23.437500
5229		-19.531250
5230		-19.531250
5231		-15.625000
5232		-17.578125
5233		-13.671875
5234		-15.625000
5235		-11.718750
5236		-13.671875
5237		-9.765625
5238		-11.718750
5239		-5.859375
5240		-7.812500
5241		-3.906250
5242		-5.859375
5243		-1.953125
5244		-3.906250
5245		1.953125
5246		-1.953125
5247		3.906250
5248		1.953125
5249		5.859375
5250		3.906250
5251		9.765625
5252		7.812500
5253		11.718750
5254		9.765625
5255		13.671875
5256		13.671875
5257		17.578125
5258		15.625000
5259		19.531250
5260		17.578125
5261		21.484375
5262		21.484375
5263		25.390625
5264		23.437500
5265		29.296875
5266		25.390625
5267		31.250000
5268		27.343750
5269		33.203125
5270		31.250000
5271		35.156250
5272		33.203125
5273		37.109375
5274		35.156250
5275		39.062500
5276		37.109375
5277		41.015625
5278		39.062500
5279		42.968750
5280		41.015625
5281		44.921875
5282		42.968750
5283		46.875000
5284		44.921875
5285		50.781250
5286		46.875000
5287		50.781250
5288		48.828125
5289		52.734375
5290		48.828125
5291		54.687500
5292		52.734375
5293		56.640625
5294		54.687500
5295		58.593750
5296		54.687500
5297		58.593750
5298		56.640625
5299		58.593750
5300		56.640625
5301		60.546875
5302		58.593750
5303		62.500000
5304		58.593750
5305		62.500000
5306		60.546875
5307		64.453125
5308		60.546875
5309		64.453125
5310		60.546875
5311		64.453125
5312		62.500000
5313		64.453125
5314		62.500000
5315		64.453125
5316		62.500000
5317		64.453125
5318		62.500000
5319		66.406250
5320		62.500000
5321		64.453125
5322		62.500000
5323		64.453125
5324		60.546875
5325		66.406250
5326		60.546875
5327		64.453125
5328		60.546875
5329		64.453125
5330		60.546875
5331		62.500000
5332		58.593750
5333		62.500000
5334		58.593750
5335		62.500000
5336		56.640625
5337		60.546875
5338		56.640625
5339		58.593750
5340		54.687500
5341		58.593750
5342		54.687500
5343		58.593750
5344		52.734375
5345		56.640625
5346		50.781250
5347		54.687500
5348		48.828125
5349		52.734375
5350		46.875000
5351		50.781250
5352		44.921875
5353		48.828125
5354		42.968750
5355		46.875000
5356		41.015625
5357		44.921875
5358		39.062500
5359		42.968750
5360		37.109375
5361		41.015625
5362		35.156250
5363		39.062500
5364		33.203125
5365		37.109375
5366		29.296875
5367		35.156250
5368		27.343750
5369		31.250000
5370		25.390625
5371		29.296875
5372		23.437500
5373		27.343750
5374		19.531250
5375		23.437500
5376		17.578125
5377		21.484375
5378		13.671875
5379		19.531250
5380		11.718750
5381		15.625000
5382		9.765625
5383		13.671875
5384		5.859375
5385		11.718750
5386		3.906250
5387		9.765625
5388		1.953125
5389		5.859375
5390		-1.953125
5391		1.953125
5392		-3.906250
5393		0.000000
5394		-7.812500
5395		-1.953125
5396		-9.765625
5397		-5.859375
5398		-11.718750
5399		-7.812500
5400		-15.625000
5401		-9.765625
5402		-17.578125
5403		-11.718750
5404		-19.531250
5405		-15.625000
5406		-21.484375
5407		-17.578125
5408		-25.390625
5409		-19.531250
5410		-27.343750
5411		-23.437500
5412		-27.343750
5413		-25.390625
5414		-31.250000
5415		-25.390625
5416		-31.250000
5417		-29.296875
5418		-35.156250
5419		-29.296875
5420		-35.156250
5421		-31.250000
5422		-37.109375
5423		-33.203125
5424		-39.062500
5425		-35.156250
5426		-41.015625
5427		-37.109375
5428		-41.015625
5429		-37.109375
5430		-42.968750
5431		-39.062500
5432		-42.968750
5433		-39.062500
5434		-44.921875
5435		-41.015625
5436		-44.921875
5437		-41.015625
5438		-44.921875
5439		-42.968750
5440		-46.875000
5441		-42.968750
5442		-44.921875
5443		-42.968750
5444		-44.921875
5445		-42.968750
5446		-46.875000
5447		-42.968750
5448		-44.921875
5449		-42.968750
5450		-44.921875
5451		-41.015625
5452		-44.921875
5453		-41.015625
5454		-42.968750
5455		-41.015625
5456		-42.968750
5457		-41.015625
5458		-42.968750
5459		-39.062500
5460		-41.015625
5461		-37.109375
5462		-41.015625
5463		-37.109375
5464		-39.062500
5465		-35.156250
5466		-37.109375
5467		-33.203125
5468		-35.156250
5469		-33.203125
5470		-35.156250
5471		-31.250000
5472		-33.203125
5473		-29.296875
5474		-31.250000
5475		-25.390625
5476		-29.296875
5477		-25.390625
5478		-27.343750
5479		-21.484375
5480		-23.437500
5481		-19.531250
5482		-23.437500
5483		-17.578125
5484		-19.531250
5485		-15.625000
5486		-17.578125
5487		-13.671875
5488		-15.625000
5489		-11.718750
5490		-13.671875
5491		-7.812500
5492		-9.765625
5493		-5.859375
5494		-7.812500
5495		-1.953125
5496		-3.906250
5497		0.000000
5498		-1.953125
5499		1.953125
5500		0.000000
5501		5.859375
5502		3.906250
5503		7.812500
5504		5.859375
5505		9.765625
5506		7.812500
5507		13.671875
5508		11.718750
5509		15.625000
5510		13.671875
5511		19.531250
5512		15.625000
5513		21.484375
5514		19.531250
5515		23.437500
5516		21.484375
5517		25.390625
5518		23.437500
5519		29.296875
5520		27.343750
5521		31.250000
5522		29.296875
5523		33.203125
5524		31.250000
5525		37.109375
5526		33.203125
5527		37.109375
5528		35.156250
5529		39.062500
5530		39.062500
5531		42.968750
5532		41.015625
5533		44.921875
5534		42.968750
5535		46.875000
5536		44.921875
5537		48.828125
5538		46.875000
5539		48.828125
5540		48.828125
5541		50.781250
5542		48.828125
5543		54.687500
5544		50.781250
5545		54.687500
5546		52.734375
5547		56.640625
5548		54.687500
5549		58.593750
5550		54.687500
5551		60.546875
5552		56.640625
5553		60.546875
5554		56.640625
5555		62.500000
5556		58.593750
5557		60.546875
5558		58.593750
5559		62.500000
5560		60.546875
5561		64.453125
5562		60.546875
5563		64.453125
5564		60.546875
5565		64.453125
5566		62.500000
5567		64.453125
5568		60.546875
5569		64.453125
5570		60.546875
5571		66.406250
5572		62.500000
5573		64.453125
5574		62.500000
5575		64.453125
5576		60.546875
5577		64.453125
5578		60.546875
5579		64.453125
5580		60.546875
5581		64.453125
5582		60.546875
5583		64.453125
5584		60.546875
5585		62.500000
5586		58.593750
5587		62.500000
5588		58.593750
5589		62.500000
5590		56.640625
5591		60.546875
5592		54.687500
5593		58.593750
5594		54.687500
5595		58.593750
5596		52.734375
5597		56.640625
5598		52.734375
5599		54.687500
5600		48.828125
5601		52.734375
5602		48.828125
5603		52.734375
5604		46.875000
5605		50.781250
5606		44.921875
5607		48.828125
5608		41.015625
5609		46.875000
5610		41.015625
5611		44.921875
5612		39.062500
5613		42.968750
5614		37.109375
5615		39.062500
5616		33.203125
5617		37.109375
5618		31.250000
5619		35.156250
5620		27.343750
5621		33.203125
5622		27.343750
5623		31.250000
5624		23.437500
5625		27.343750
5626		21.484375
5627		25.390625
5628		19.531250
5629		23.437500
5630		15.625000
5631		19.531250
5632		13.671875
5633		17.578125
5634		9.765625
5635		15.625000
5636		7.812500
5637		11.718750
5638		5.859375
5639		9.765625
5640		1.953125
5641		5.859375
5642		-1.953125
5643		3.906250
5644		-1.953125
5645		1.953125
5646		-5.859375
5647		-1.953125
5648		-7.812500
5649		-3.906250
5650		-11.718750
5651		-5.859375
5652		-13.671875
5653		-9.765625
5654		-15.625000
5655		-11.718750
5656		-17.578125
5657		-13.671875
5658		-19.531250
5659		-17.578125
5660		-23.437500
5661		-17.578125
5662		-25.390625
5663		-21.484375
5664		-27.343750
5665		-23.437500
5666		-29.296875
5667		-25.390625
5668		-31.250000
5669		-27.343750
5670		-33.203125
5671		-29.296875
5672		-35.156250
5673		-31.250000
5674		-37.109375
5675		-33.203125
5676		-39.062500
5677		-33.203125
5678		-39.062500
5679		-35.156250
5680		-41.015625
5681		-37.109375
5682		-42.968750
5683		-39.062500
5684		-42.968750
5685		-41.015625
5686		-42.968750
5687		-41.015625
5688		-44.921875
5689		-41.015625
5690		-44.921875
5691		-42.968750
5692		-44.921875
5693		-42.968750
5694		-46.875000
5695		-42.968750
5696		-46.875000
5697		-42.968750
5698		-46.875000
5699		-42.968750
5700		-44.921875
5701		-42.968750
5702		-44.921875
5703		-42.968750
5704		-44.921875
5705		-41.015625
5706		-44.921875
5707		-41.015625
5708		-42.968750
5709		-41.015625
5710		-44.921875
5711		-39.062500
5712		-42.968750
5713		-39.062500
5714		-41.015625
5715		-37.109375
5716		-41.015625
5717		-35.156250
5718		-39.062500
5719		-35.156250
5720		-37.109375
5721		-33.203125
5722		-35.156250
5723		-31.250000
5724		-33.203125
5725		-31.250000
5726		-31.250000
5727		-27.343750
5728		-31.250000
5729		-25.390625
5730		-29.296875
5731		-23.437500
5732		-25.390625
5733		-21.484375
5734		-23.437500
5735		-19.531250
5736		-21.484375
5737		-17.578125
5738		-19.531250
5739		-15.625000
5740		-17.578125
5741		-13.671875
5742		-15.625000
5743		-9.765625
5744		-11.718750
5745		-7.812500
5746		-9.765625
5747		-5.859375
5748		-7.812500
5749		-1.953125
5750		-3.906250
5751		0.000000
5752		-1.953125
5753		1.953125
5754		1.953125
5755		5.859375
5756		3.906250
5757		7.812500
5758		5.859375
5759		11.718750
5760		9.765625
5761		13.671875
5762		11.718750
5763		15.625000
5764		13.671875
5765		19.531250
5766		17.578125
5767		21.484375
5768		19.531250
5769		23.437500
5770		21.484375
5771		27.343750
5772		25.390625
5773		29.296875
5774		27.343750
5775		31.250000
5776		29.296875
5777		33.203125
5778		31.250000
5779		37.109375
5780		33.203125
5781		39.062500
5782		37.109375
5783		41.015625
5784		39.062500
5785		42.968750
5786		41.015625
5787		44.921875
5788		42.968750
5789		48.828125
5790		44.921875
5791		48.828125
5792		46.875000
5793		50.781250
5794		48.828125
5795		52.734375
5796		50.781250
5797		54.687500
5798		50.781250
5799		54.687500
5800		52.734375
5801		56.640625
5802		54.687500
5803		58.593750
5804		54.687500
5805		60.546875
5806		56.640625
5807		60.546875
5808		58.593750
5809		60.546875
5810		58.593750
5811		62.500000
5812		58.593750
5813		62.500000
5814		60.546875
5815		64.453125
5816		60.546875
5817		64.453125
5818		60.546875
5819		64.453125
5820		60.546875
5821		64.453125
5822		60.546875
5823		66.406250
5824		62.500000
5825		64.453125
5826		62.500000
5827		64.453125
5828		60.546875
5829		66.406250
5830		60.546875
5831		64.453125
5832		60.546875
5833		64.453125
5834		60.546875
5835		64.453125
5836		60.546875
5837		64.453125
5838		58.593750
5839		62.500000
5840		58.593750
5841		62.500000
5842		58.593750
5843		60.546875
5844		56.640625
5845		60.546875
5846		54.687500
5847		60.546875
5848		52.734375
5849		58.593750
5850		50.781250
5851		56.640625
5852		48.828125
5853		56.640625
5854		48.828125
5855		54.687500
5856		46.875000
5857		52.734375
5858		44.921875
5859		48.828125
5860		44.921875
5861		46.875000
5862		41.015625
5863		46.875000
5864		39.062500
5865		44.921875
5866		35.156250
5867		42.968750
5868		33.203125
5869		41.015625
5870		33.203125
5871		39.062500
5872		29.296875
5873		37.109375
5874		27.343750
5875		33.203125
5876		25.390625
5877		29.296875
5878		21.484375
5879		27.343750
5880		19.531250
5881		25.390625
5882		17.578125
5883		23.437500
5884		13.671875
5885		21.484375
5886		11.718750
5887		19.531250
5888		7.812500
5889		15.625000
5890		7.812500
5891		11.718750
5892		3.906250
5893		9.765625
5894		1.953125
5895		5.859375
5896		-1.953125
5897		3.906250
5898		-5.859375
5899		1.953125
5900		-7.812500
5901		0.000000
5902		-9.765625
5903		-3.906250
5904		-13.671875
5905		-5.859375
5906		-15.625000
5907		-9.765625
5908		-17.578125
5909		-11.718750
5910		-19.531250
5911		-15.625000
5912		-21.484375
5913		-17.578125
5914		-23.437500
5915		-19.531250
5916		-25.390625
5917		-21.484375
5918		-27.343750
5919		-23.437500
5920		-29.296875
5921		-27.343750
5922		-31.250000
5923		-29.296875
5924		-33.203125
5925		-31.250000
5926		-35.156250
5927		-31.250000
5928		-39.062500
5929		-33.203125
5930		-39.062500
5931		-35.156250
5932		-39.062500
5933		-37.109375
5934		-41.015625
5935		-39.062500
5936		-42.968750
5937		-39.062500
5938		-42.968750
5939		-41.015625
5940		-44.921875
5941		-41.015625
5942		-44.921875
5943		-42.968750
5944		-44.921875
5945		-42.968750
5946		-44.921875
5947		-42.968750
5948		-44.921875
5949		-42.968750
5950		-44.921875
5951		-42.968750
5952		-44.921875
5953		-42.968750
5954		-44.921875
5955		-42.968750
5956		-46.875000
5957		-42.968750
5958		-44.921875
5959		-42.968750
5960		-44.921875
5961		-41.015625
5962		-42.968750
5963		-41.015625
5964		-42.968750
5965		-41.015625
5966		-41.015625
5967		-39.062500
5968		-41.015625
5969		-37.109375
5970		-39.062500
5971		-37.109375
5972		-39.062500
5973		-35.156250
5974		-37.109375
5975		-33.203125
5976		-35.156250
5977		-31.250000
5978		-33.203125
5979		-29.296875
5980		-31.250000
5981		-27.343750
5982		-29.296875
5983		-25.390625
5984		-27.343750
5985		-23.437500
5986		-25.390625
5987		-21.484375
5988		-23.437500
5989		-19.531250
5990		-21.484375
5991		-17.578125
5992		-17.578125
5993		-13.671875
5994		-15.625000
5995		-11.718750
5996		-13.671875
5997		-9.765625
5998		-11.718750
5999		-7.812500
6000		-7.812500
6001		-3.906250
6002		-5.859375
6003		-1.953125
6004		-3.906250
6005		0.000000
6006		0.000000
6007		3.906250
6008		1.953125
6009		5.859375
6010		3.906250
6011		7.812500
6012		5.859375
6013		13.671875
6014		7.812500
6015		17.578125
6016		9.765625
6017		21.484375
6018		11.718750
6019		19.531250
6020		17.578125
6021		21.484375
6022		19.531250
6023		25.390625
6024		23.437500
6025		27.343750
6026		25.390625
6027		29.296875
6028		27.343750
6029		31.250000
6030		27.343750
6031		37.109375
6032		29.296875
6033		39.062500
6034		31.250000
6035		41.015625
6036		37.109375
6037		41.015625
6038		39.062500
6039		42.968750
6040		41.015625
6041		44.921875
6042		42.968750
6043		46.875000
6044		44.921875
6045		48.828125
6046		44.921875
6047		52.734375
6048		44.921875
6049		54.687500
6050		46.875000
6051		58.593750
6052		52.734375
6053		54.687500
6054		52.734375
6055		56.640625
6056		54.687500
6057		56.640625
6058		56.640625
6059		58.593750
6060		56.640625
6061		60.546875
6062		56.640625
6063		64.453125
6064		54.687500
6065		64.453125
6066		56.640625
6067		66.406250
6068		56.640625
6069		66.406250
6070		60.546875
6071		62.500000
6072		62.500000
6073		64.453125
6074		62.500000
6075		64.453125
6076		60.546875
6077		64.453125
6078		62.500000
6079		64.453125
6080		58.593750
6081		68.359375
6082		58.593750
6083		68.359375
6084		58.593750
6085		66.406250
6086		60.546875
6087		64.453125
6088		60.546875
6089		62.500000
6090		60.546875
6091		62.500000
6092		58.593750
6093		62.500000
6094		58.593750
6095		60.546875
6096		54.687500
6097		62.500000
6098		50.781250
6099		62.500000
6100		50.781250
6101		60.546875
6102		50.781250
6103		60.546875
6104		52.734375
6105		54.687500
6106		50.781250
6107		52.734375
6108		48.828125
6109		52.734375
6110		46.875000
6111		50.781250
6112		44.921875
6113		48.828125
6114		39.062500
6115		50.781250
6116		37.109375
6117		48.828125
6118		35.156250
6119		46.875000
6120		37.109375
6121		41.015625
6122		35.156250
6123		37.109375
6124		31.250000
6125		37.109375
6126		29.296875
6127		33.203125
6128		27.343750
6129		31.250000
6130		19.531250
6131		31.250000
6132		19.531250
6133		27.343750
6134		15.625000
6135		27.343750
6136		17.578125
6137		21.484375
6138		13.671875
6139		17.578125
6140		11.718750
6141		15.625000
6142		7.812500
6143		13.671875
6144		5.859375
6145		9.765625
6146		0.000000
6147		7.812500
6148		-3.906250
6149		9.765625
6150		-3.906250
6151		5.859375
6152		-5.859375
6153		1.953125
6154		-7.812500
6155		-3.906250
6156		-9.765625
6157		-5.859375
6158		-13.671875
6159		-9.765625
6160		-15.625000
6161		-11.718750
6162		-17.578125
6163		-13.671875
6164		-23.437500
6165		-13.671875
6166		-25.390625
6167		-15.625000
6168		-29.296875
6169		-17.578125
6170		-27.343750
6171		-23.437500
6172		-29.296875
6173		-25.390625
6174		-31.250000
6175		-27.343750
6176		-33.203125
6177		-29.296875
6178		-35.156250
6179		-31.250000
6180		-39.062500
6181		-31.250000
6182		-41.015625
6183		-31.250000
6184		-42.968750
6185		-33.203125
6186		-42.968750
6187		-33.203125
6188		-41.015625
6189		-39.062500
6190		-42.968750
6191		-39.062500
6192		-42.968750
6193		-41.015625
6194		-44.921875
6195		-41.015625
6196		-46.875000
6197		-42.968750
6198		-44.921875
6199		-42.968750
6200		-48.828125
6201		-39.062500
6202		-48.828125
6203		-41.015625
6204		-46.875000
6205		-42.968750
6206		-46.875000
6207		-42.968750
6208		-46.875000
6209		-42.968750
6210		-44.921875
6211		-42.968750
6212		-44.921875
6213		-42.968750
6214		-44.921875
6215		-41.015625
6216		-44.921875
6217		-39.062500
6218		-44.921875
6219		-37.109375
6220		-41.015625
6221		-39.062500
6222		-41.015625
6223		-37.109375
6224		-39.062500
6225		-35.156250
6226		-37.109375
6227		-33.203125
6228		-37.109375
6229		-33.203125
6230		-35.156250
6231		-29.296875
6232		-33.203125
6233		-27.343750
6234		-33.203125
6235		-25.390625
6236		-31.250000
6237		-25.390625
6238		-27.343750
6239		-23.437500
6240		-25.390625
6241		-21.484375
6242		-23.437500
6243		-17.578125
6244		-19.531250
6245		-15.625000
6246		-17.578125
6247		-13.671875
6248		-15.625000
6249		-11.718750
6250		-13.671875
6251		-9.765625
6252		-11.718750
6253		-5.859375
6254		-7.812500
6255		-3.906250
6256		-5.859375
6257		-1.953125
6258		-1.953125
6259		1.953125
6260		0.000000
6261		3.906250
6262		3.906250
6263		7.812500
6264		5.859375
6265		9.765625
6266		7.812500
6267		11.718750
6268		11.718750
6269		15.625000
6270		13.671875
6271		17.578125
6272		15.625000
6273		19.531250
6274		17.578125
6275		23.437500
6276		21.484375
6277		25.390625
6278		23.437500
6279		27.343750
6280		25.390625
6281		31.250000
6282		29.296875
6283		33.203125
6284		31.250000
6285		35.156250
6286		33.203125
6287		37.109375
6288		35.156250
6289		39.062500
6290		39.062500
6291		41.015625
6292		41.015625
6293		42.968750
6294		42.968750
6295		44.921875
6296		44.921875
6297		46.875000
6298		46.875000
6299		50.781250
6300		46.875000
6301		50.781250
6302		48.828125
6303		52.734375
6304		50.781250
6305		54.687500
6306		52.734375
6307		56.640625
6308		54.687500
6309		56.640625
6310		54.687500
6311		58.593750
6312		56.640625
6313		58.593750
6314		56.640625
6315		60.546875
6316		58.593750
6317		62.500000
6318		58.593750
6319		62.500000
6320		60.546875
6321		62.500000
6322		60.546875
6323		64.453125
6324		60.546875
6325		64.453125
6326		62.500000
6327		64.453125
6328		62.500000
6329		64.453125
6330		62.500000
6331		64.453125
6332		62.500000
6333		64.453125
6334		60.546875
6335		64.453125
6336		62.500000
6337		64.453125
6338		60.546875
6339		64.453125
6340		60.546875
6341		64.453125
6342		60.546875
6343		62.500000
6344		60.546875
6345		62.500000
6346		58.593750
6347		60.546875
6348		56.640625
6349		62.500000
6350		56.640625
6351		60.546875
6352		56.640625
6353		58.593750
6354		54.687500
6355		56.640625
6356		52.734375
6357		56.640625
6358		50.781250
6359		54.687500
6360		50.781250
6361		52.734375
6362		46.875000
6363		50.781250
6364		46.875000
6365		50.781250
6366		42.968750
6367		48.828125
6368		42.968750
6369		46.875000
6370		41.015625
6371		42.968750
6372		37.109375
6373		41.015625
6374		35.156250
6375		41.015625
6376		33.203125
6377		37.109375
6378		31.250000
6379		35.156250
6380		29.296875
6381		33.203125
6382		25.390625
6383		31.250000
6384		23.437500
6385		29.296875
6386		21.484375
6387		27.343750
6388		17.578125
6389		23.437500
6390		15.625000
6391		21.484375
6392		13.671875
6393		17.578125
6394		9.765625
6395		13.671875
6396		7.812500
6397		11.718750
6398		3.906250
6399		9.765625
6400		1.953125
6401		7.812500
6402		0.000000
6403		3.906250
6404		-3.906250
6405		1.953125
6406		-5.859375
6407		-1.953125
6408		-7.812500
6409		-3.906250
6410		-11.718750
6411		-7.812500
6412		-13.671875
6413		-9.765625
6414		-15.625000
6415		-11.718750
6416		-19.531250
6417		-13.671875
6418		-21.484375
6419		-17.578125
6420		-23.437500
6421		-19.531250
6422		-25.390625
6423		-21.484375
6424		-27.343750
6425		-23.437500
6426		-29.296875
6427		-25.390625
6428		-31.250000
6429		-27.343750
6430		-33.203125
6431		-29.296875
6432		-37.109375
6433		-31.250000
6434		-37.109375
6435		-33.203125
6436		-39.062500
6437		-35.156250
6438		-41.015625
6439		-37.109375
6440		-41.015625
6441		-37.109375
6442		-42.968750
6443		-39.062500
6444		-42.968750
6445		-41.015625
6446		-44.921875
6447		-41.015625
6448		-44.921875
6449		-42.968750
6450		-46.875000
6451		-42.968750
6452		-46.875000
6453		-42.968750
6454		-46.875000
6455		-42.968750
6456		-46.875000
6457		-42.968750
6458		-46.875000
6459		-42.968750
6460		-46.875000
6461		-44.921875
6462		-46.875000
6463		-42.968750
6464		-44.921875
6465		-42.968750
6466		-44.921875
6467		-41.015625
6468		-44.921875
6469		-41.015625
6470		-42.968750
6471		-41.015625
6472		-42.968750
6473		-39.062500
6474		-42.968750
6475		-37.109375
6476		-41.015625
6477		-37.109375
6478		-39.062500
6479		-35.156250
6480		-37.109375
6481		-35.156250
6482		-35.156250
6483		-33.203125
6484		-35.156250
6485		-31.250000
6486		-33.203125
6487		-29.296875
6488		-31.250000
6489		-27.343750
6490		-29.296875
6491		-25.390625
6492		-27.343750
6493		-23.437500
6494		-23.437500
6495		-21.484375
6496		-21.484375
6497		-17.578125
6498		-19.531250
6499		-15.625000
6500		-17.578125
6501		-13.671875
6502		-15.625000
6503		-11.718750
6504		-11.718750
6505		-7.812500
6506		-9.765625
6507		-5.859375
6508		-7.812500
6509		-3.906250
6510		-5.859375
6511		0.000000
6512		-1.953125
6513		1.953125
6514		0.000000
6515		3.906250
6516		3.906250
6517		7.812500
6518		5.859375
6519		9.765625
6520		7.812500
6521		13.671875
6522		11.718750
6523		15.625000
6524		13.671875
6525		17.578125
6526		15.625000
6527		19.531250
6528		19.531250
6529		23.437500
6530		21.484375
6531		25.390625
6532		23.437500
6533		27.343750
6534		27.343750
6535		31.250000
6536		29.296875
6537		33.203125
6538		31.250000
6539		35.156250
6540		33.203125
6541		37.109375
6542		35.156250
6543		39.062500
6544		37.109375
6545		41.015625
6546		39.062500
6547		42.968750
6548		42.968750
6549		46.875000
6550		44.921875
6551		46.875000
6552		44.921875
6553		48.828125
6554		46.875000
6555		50.781250
6556		48.828125
6557		52.734375
6558		50.781250
6559		54.687500
6560		52.734375
6561		54.687500
6562		52.734375
6563		56.640625
6564		54.687500
6565		58.593750
6566		56.640625
6567		58.593750
6568		56.640625
6569		60.546875
6570		58.593750
6571		60.546875
6572		58.593750
6573		62.500000
6574		60.546875
6575		62.500000
6576		60.546875
6577		62.500000
6578		60.546875
6579		64.453125
6580		60.546875
6581		62.500000
6582		60.546875
6583		64.453125
6584		62.500000
6585		64.453125
6586		60.546875
6587		64.453125
6588		60.546875
6589		64.453125
6590		60.546875
6591		64.453125
6592		60.546875
6593		62.500000
6594		60.546875
6595		62.500000
6596		58.593750
6597		62.500000
6598		58.593750
6599		60.546875
6600		56.640625
6601		60.546875
6602		56.640625
6603		60.546875
6604		54.687500
6605		58.593750
6606		54.687500
6607		58.593750
6608		52.734375
6609		56.640625
6610		50.781250
6611		54.687500
6612		48.828125
6613		52.734375
6614		48.828125
6615		50.781250
6616		46.875000
6617		50.781250
6618		44.921875
6619		48.828125
6620		42.968750
6621		46.875000
6622		41.015625
6623		44.921875
6624		39.062500
6625		42.968750
6626		37.109375
6627		41.015625
6628		35.156250
6629		39.062500
6630		31.250000
6631		35.156250
6632		29.296875
6633		33.203125
6634		25.390625
6635		31.250000
6636		23.437500
6637		29.296875
6638		21.484375
6639		25.390625
6640		19.531250
6641		23.437500
6642		17.578125
6643		21.484375
6644		13.671875
6645		17.578125
6646		11.718750
6647		15.625000
6648		7.812500
6649		13.671875
6650		5.859375
6651		9.765625
6652		1.953125
6653		9.765625
6654		0.000000
6655		5.859375
6656		-1.953125
6657		1.953125
6658		-5.859375
6659		0.000000
6660		-7.812500
6661		-3.906250
6662		-9.765625
6663		-5.859375
6664		-13.671875
6665		-7.812500
6666		-15.625000
6667		-11.718750
6668		-19.531250
6669		-13.671875
6670		-21.484375
6671		-15.625000
6672		-23.437500
6673		-19.531250
6674		-25.390625
6675		-21.484375
6676		-27.343750
6677		-23.437500
6678		-29.296875
6679		-25.390625
6680		-31.250000
6681		-27.343750
6682		-33.203125
6683		-29.296875
6684		-37.109375
6685		-31.250000
6686		-39.062500
6687		-31.250000
6688		-39.062500
6689		-33.203125
6690		-39.062500
6691		-37.109375
6692		-41.015625
6693		-37.109375
6694		-42.968750
6695		-39.062500
6696		-42.968750
6697		-39.062500
6698		-44.921875
6699		-41.015625
6700		-44.921875
6701		-42.968750
6702		-46.875000
6703		-41.015625
6704		-46.875000
6705		-42.968750
6706		-46.875000
6707		-42.968750
6708		-46.875000
6709		-44.921875
6710		-46.875000
6711		-44.921875
6712		-46.875000
6713		-44.921875
6714		-46.875000
6715		-44.921875
6716		-46.875000
6717		-42.968750
6718		-48.828125
6719		-41.015625
6720		-46.875000
6721		-41.015625
6722		-44.921875
6723		-42.968750
6724		-42.968750
6725		-41.015625
6726		-42.968750
6727		-39.062500
6728		-42.968750
6729		-39.062500
6730		-41.015625
6731		-37.109375
6732		-39.062500
6733		-35.156250
6734		-37.109375
6735		-35.156250
6736		-37.109375
6737		-31.250000
6738		-35.156250
6739		-29.296875
6740		-33.203125
6741		-29.296875
6742		-31.250000
6743		-27.343750
6744		-29.296875
6745		-25.390625
6746		-27.343750
6747		-23.437500
6748		-25.390625
6749		-19.531250
6750		-21.484375
6751		-17.578125
6752		-19.531250
6753		-13.671875
6754		-17.578125
6755		-11.718750
6756		-15.625000
6757		-9.765625
6758		-11.718750
6759		-7.812500
6760		-9.765625
6761		-3.906250
6762		-7.812500
6763		-1.953125
6764		-3.906250
6765		0.000000
6766		-1.953125
6767		1.953125
6768		0.000000
6769		7.812500
6770		1.953125
6771		9.765625
6772		5.859375
6773		9.765625
6774		9.765625
6775		13.671875
6776		9.765625
6777		15.625000
6778		13.671875
6779		17.578125
6780		17.578125
6781		21.484375
6782		19.531250
6783		23.437500
6784		21.484375
6785		25.390625
6786		23.437500
6787		29.296875
6788		27.343750
6789		31.250000
6790		29.296875
6791		33.203125
6792		31.250000
6793		35.156250
6794		33.203125
6795		37.109375
6796		37.109375
6797		41.015625
6798		39.062500
6799		42.968750
6800		41.015625
6801		44.921875
6802		42.968750
6803		48.828125
6804		42.968750
6805		50.781250
6806		46.875000
6807		48.828125
6808		48.828125
6809		50.781250
6810		48.828125
6811		54.687500
6812		50.781250
6813		54.687500
6814		52.734375
6815		56.640625
6816		54.687500
6817		56.640625
6818		54.687500
6819		58.593750
6820		56.640625
6821		60.546875
6822		56.640625
6823		60.546875
6824		58.593750
6825		60.546875
6826		58.593750
6827		62.500000
6828		60.546875
6829		62.500000
6830		60.546875
6831		62.500000
6832		60.546875
6833		64.453125
6834		60.546875
6835		64.453125
6836		60.546875
6837		64.453125
6838		60.546875
6839		64.453125
6840		60.546875
6841		64.453125
6842		60.546875
6843		64.453125
6844		60.546875
6845		64.453125
6846		60.546875
6847		64.453125
6848		60.546875
6849		62.500000
6850		58.593750
6851		62.500000
6852		56.640625
6853		60.546875
6854		58.593750
6855		60.546875
6856		56.640625
6857		58.593750
6858		54.687500
6859		58.593750
6860		54.687500
6861		56.640625
6862		52.734375
6863		56.640625
6864		50.781250
6865		54.687500
6866		50.781250
6867		52.734375
6868		48.828125
6869		50.781250
6870		46.875000
6871		50.781250
6872		44.921875
6873		48.828125
6874		42.968750
6875		46.875000
6876		41.015625
6877		44.921875
6878		39.062500
6879		42.968750
6880		37.109375
6881		41.015625
6882		33.203125
6883		39.062500
6884		31.250000
6885		35.156250
6886		29.296875
6887		33.203125
6888		27.343750
6889		31.250000
6890		23.437500
6891		29.296875
6892		21.484375
6893		25.390625
6894		19.531250
6895		23.437500
6896		15.625000
6897		21.484375
6898		13.671875
6899		17.578125
6900		11.718750
6901		15.625000
6902		7.812500
6903		11.718750
6904		3.906250
6905		9.765625
6906		1.953125
6907		7.812500
6908		0.000000
6909		3.906250
6910		-1.953125
6911		1.953125
6912		-5.859375
6913		-1.953125
6914		-7.812500
6915		-3.906250
6916		-11.718750
6917		-5.859375
6918		-13.671875
6919		-9.765625
6920		-15.625000
6921		-11.718750
6922		-17.578125
6923		-13.671875
6924		-21.484375
6925		-15.625000
6926		-23.437500
6927		-19.531250
6928		-25.390625
6929		-21.484375
6930		-27.343750
6931		-23.437500
6932		-29.296875
6933		-25.390625
6934		-31.250000
6935		-27.343750
6936		-33.203125
6937		-29.296875
6938		-35.156250
6939		-31.250000
6940		-37.109375
6941		-33.203125
6942		-39.062500
6943		-35.156250
6944		-41.015625
6945		-37.109375
6946		-41.015625
6947		-39.062500
6948		-42.968750
6949		-39.062500
6950		-42.968750
6951		-41.015625
6952		-44.921875
6953		-41.015625
6954		-44.921875
6955		-42.968750
6956		-44.921875
6957		-42.968750
6958		-46.875000
6959		-42.968750
6960		-46.875000
6961		-42.968750
6962		-46.875000
6963		-44.921875
6964		-46.875000
6965		-44.921875
6966		-46.875000
6967		-44.921875
6968		-46.875000
6969		-42.968750
6970		-46.875000
6971		-42.968750
6972		-44.921875
6973		-42.968750
6974		-44.921875
6975		-42.968750
6976		-44.921875
6977		-41.015625
6978		-42.968750
6979		-41.015625
6980		-42.968750
6981		-39.062500
6982		-41.015625
6983		-39.062500
6984		-39.062500
6985		-37.109375
6986		-39.062500
6987		-35.156250
6988		-37.109375
6989		-33.203125
6990		-35.156250
6991		-31.250000
6992		-33.203125
6993		-29.296875
6994		-31.250000
6995		-27.343750
6996		-29.296875
6997		-25.390625
6998		-27.343750
6999		-23.437500
7000		-25.390625
7001		-21.484375
7002		-23.437500
7003		-19.531250
7004		-21.484375
7005		-17.578125
7006		-19.531250
7007		-15.625000
7008		-15.625000
7009		-11.718750
7010		-13.671875
7011		-9.765625
7012		-11.718750
7013		-5.859375
7014		-9.765625
7015		-3.906250
7016		-5.859375
7017		-1.953125
7018		-3.906250
7019		0.000000
7020		0.000000
7021		3.906250
7022		1.953125
7023		5.859375
7024		3.906250
7025		9.765625
7026		7.812500
7027		11.718750
7028		9.765625
7029		13.671875
7030		11.718750
7031		17.578125
7032		15.625000
7033		19.531250
7034		17.578125
7035		21.484375
7036		19.531250
7037		25.390625
7038		23.437500
7039		27.343750
7040		25.390625
7041		29.296875
7042		27.343750
7043		31.250000
7044		29.296875
7045		33.203125
7046		33.203125
7047		37.109375
7048		35.156250
7049		39.062500
7050		37.109375
7051		41.015625
7052		39.062500
7053		42.968750
7054		41.015625
7055		44.921875
7056		42.968750
7057		46.875000
7058		44.921875
7059		48.828125
7060		46.875000
7061		50.781250
7062		48.828125
7063		52.734375
7064		50.781250
7065		52.734375
7066		50.781250
7067		54.687500
7068		52.734375
7069		56.640625
7070		54.687500
7071		56.640625
7072		54.687500
7073		58.593750
7074		56.640625
7075		58.593750
7076		56.640625
7077		60.546875
7078		58.593750
7079		60.546875
7080		58.593750
7081		62.500000
7082		60.546875
7083		62.500000
7084		60.546875
7085		62.500000
7086		60.546875
7087		62.500000
7088		60.546875
7089		62.500000
7090		60.546875
7091		64.453125
7092		60.546875
7093		64.453125
7094		60.546875
7095		64.453125
7096		60.546875
7097		64.453125
7098		60.546875
7099		62.500000
7100		60.546875
7101		62.500000
7102		60.546875
7103		62.500000
7104		58.593750
7105		62.500000
7106		58.593750
7107		60.546875
7108		56.640625
7109		60.546875
7110		54.687500
7111		58.593750
7112		54.687500
7113		58.593750
7114		52.734375
7115		56.640625
7116		52.734375
7117		54.687500
7118		50.781250
7119		54.687500
7120		48.828125
7121		52.734375
7122		46.875000
7123		50.781250
7124		44.921875
7125		48.828125
7126		42.968750
7127		46.875000
7128		41.015625
7129		44.921875
7130		39.062500
7131		42.968750
7132		37.109375
7133		41.015625
7134		35.156250
7135		39.062500
7136		33.203125
7137		37.109375
7138		31.250000
7139		35.156250
7140		29.296875
7141		33.203125
7142		25.390625
7143		29.296875
7144		23.437500
7145		27.343750
7146		19.531250
7147		25.390625
7148		17.578125
7149		21.484375
7150		15.625000
7151		19.531250
7152		11.718750
7153		17.578125
7154		9.765625
7155		13.671875
7156		7.812500
7157		11.718750
7158		3.906250
7159		9.765625
7160		1.953125
7161		5.859375
7162		0.000000
7163		3.906250
7164		-3.906250
7165		0.000000
7166		-7.812500
7167		-1.953125
7168		-9.765625
7169		-5.859375
7170		-11.718750
7171		-7.812500
7172		-13.671875
7173		-9.765625
7174		-15.625000
7175		-13.671875
7176		-19.531250
7177		-15.625000
7178		-21.484375
7179		-17.578125
7180		-23.437500
7181		-19.531250
7182		-25.390625
7183		-21.484375
7184		-27.343750
7185		-25.390625
7186		-29.296875
7187		-27.343750
7188		-33.203125
7189		-29.296875
7190		-33.203125
7191		-31.250000
7192		-35.156250
7193		-33.203125
7194		-37.109375
7195		-35.156250
7196		-39.062500
7197		-35.156250
7198		-41.015625
7199		-37.109375
7200		-41.015625
7201		-39.062500
7202		-42.968750
7203		-39.062500
7204		-42.968750
7205		-41.015625
7206		-44.921875
7207		-41.015625
7208		-44.921875
7209		-42.968750
7210		-46.875000
7211		-42.968750
7212		-46.875000
7213		-42.968750
7214		-46.875000
7215		-42.968750
7216		-46.875000
7217		-44.921875
7218		-46.875000
7219		-44.921875
7220		-46.875000
7221		-44.921875
7222		-46.875000
7223		-44.921875
7224		-46.875000
7225		-42.968750
7226		-44.921875
7227		-42.968750
7228		-44.921875
7229		-42.968750
7230		-42.968750
7231		-41.015625
7232		-42.968750
7233		-41.015625
7234		-41.015625
7235		-39.062500
7236		-41.015625
7237		-37.109375
7238		-39.062500
7239		-37.109375
7240		-37.109375
7241		-35.156250
7242		-37.109375
7243		-33.203125
7244		-35.156250
7245		-31.250000
7246		-33.203125
7247		-29.296875
7248		-31.250000
7249		-27.343750
7250		-29.296875
7251		-25.390625
7252		-27.343750
7253		-23.437500
7254		-25.390625
7255		-21.484375
7256		-21.484375
7257		-19.531250
7258		-19.531250
7259		-15.625000
7260		-17.578125
7261		-13.671875
7262		-15.625000
7263		-11.718750
7264		-13.671875
7265		-9.765625
7266		-9.765625
7267		-5.859375
7268		-7.812500
7269		-3.906250
7270		-5.859375
7271		-1.953125
7272		-1.953125
7273		1.953125
7274		0.000000
7275		3.906250
7276		1.953125
7277		7.812500
7278		5.859375
7279		9.765625
7280		7.812500
7281		11.718750
7282		11.718750
7283		15.625000
7284		13.671875
7285		17.578125
7286		15.625000
7287		19.531250
7288		19.531250
7289		23.437500
7290		21.484375
7291		25.390625
7292		23.437500
7293		27.343750
7294		27.343750
7295		31.250000
7296		29.296875
7297		33.203125
7298		31.250000
7299		35.156250
7300		33.203125
7301		37.109375
7302		35.156250
7303		39.062500
7304		37.109375
7305		41.015625
7306		39.062500
7307		44.921875
7308		42.968750
7309		44.921875
7310		44.921875
7311		46.875000
7312		46.875000
7313		48.828125
7314		46.875000
7315		50.781250
7316		48.828125
7317		52.734375
7318		50.781250
7319		54.687500
7320		52.734375
7321		54.687500
7322		52.734375
7323		56.640625
7324		54.687500
7325		58.593750
7326		56.640625
7327		58.593750
7328		56.640625
7329		60.546875
7330		56.640625
7331		60.546875
7332		58.593750
7333		62.500000
7334		60.546875
7335		62.500000
7336		60.546875
7337		62.500000
7338		60.546875
7339		64.453125
7340		60.546875
7341		64.453125
7342		62.500000
7343		64.453125
7344		62.500000
7345		64.453125
7346		62.500000
7347		64.453125
7348		62.500000
7349		64.453125
7350		60.546875
7351		64.453125
7352		60.546875
7353		62.500000
7354		60.546875
7355		62.500000
7356		60.546875
7357		62.500000
7358		58.593750
7359		62.500000
7360		58.593750
7361		60.546875
7362		56.640625
7363		60.546875
7364		56.640625
7365		58.593750
7366		54.687500
7367		58.593750
7368		52.734375
7369		56.640625
7370		52.734375
7371		54.687500
7372		50.781250
7373		54.687500
7374		48.828125
7375		52.734375
7376		46.875000
7377		50.781250
7378		44.921875
7379		48.828125
7380		42.968750
7381		46.875000
7382		41.015625
7383		44.921875
7384		39.062500
7385		42.968750
7386		37.109375
7387		41.015625
7388		35.156250
7389		39.062500
7390		33.203125
7391		37.109375
7392		31.250000
7393		35.156250
7394		27.343750
7395		31.250000
7396		25.390625
7397		29.296875
7398		23.437500
7399		27.343750
7400		19.531250
7401		25.390625
7402		17.578125
7403		21.484375
7404		15.625000
7405		19.531250
7406		11.718750
7407		15.625000
7408		9.765625
7409		13.671875
7410		5.859375
7411		11.718750
7412		3.906250
7413		7.812500
7414		1.953125
7415		5.859375
7416		-1.953125
7417		1.953125
7418		-3.906250
7419		0.000000
7420		-7.812500
7421		-1.953125
7422		-9.765625
7423		-5.859375
7424		-11.718750
7425		-7.812500
7426		-13.671875
7427		-9.765625
7428		-17.578125
7429		-13.671875
7430		-19.531250
7431		-15.625000
7432		-23.437500
7433		-17.578125
7434		-23.437500
7435		-21.484375
7436		-27.343750
7437		-23.437500
7438		-29.296875
7439		-25.390625
7440		-31.250000
7441		-27.343750
7442		-33.203125
7443		-29.296875
7444		-35.156250
7445		-31.250000
7446		-35.156250
7447		-33.203125
7448		-37.109375
7449		-35.156250
7450		-39.062500
7451		-35.156250
7452		-41.015625
7453		-37.109375
7454		-42.968750
7455		-39.062500
7456		-42.968750
7457		-39.062500
7458		-42.968750
7459		-41.015625
7460		-44.921875
7461		-41.015625
7462		-44.921875
7463		-42.968750
7464		-44.921875
7465		-42.968750
7466		-46.875000
7467		-42.968750
7468		-46.875000
7469		-44.921875
7470		-46.875000
7471		-44.921875
7472		-46.875000
7473		-44.921875
7474		-46.875000
7475		-44.921875
7476		-46.875000
7477		-42.968750
7478		-46.875000
7479		-42.968750
7480		-44.921875
7481		-42.968750
7482		-44.921875
7483		-41.015625
7484		-42.968750
7485		-41.015625
7486		-42.968750
7487		-41.015625
7488		-41.015625
7489		-39.062500
7490		-41.015625
7491		-37.109375
7492		-39.062500
7493		-35.156250
7494		-37.109375
7495		-35.156250
7496		-35.156250
7497		-33.203125
7498		-35.156250
7499		-31.250000
7500		-33.203125
7501		-27.343750
7502		-29.296875
7503		-27.343750
7504		-27.343750
7505		-25.390625
7506		-25.390625
7507		-23.437500
7508		-23.437500
7509		-19.531250
7510		-21.484375
7511		-17.578125
7512		-19.531250
7513		-15.625000
7514		-17.578125
7515		-13.671875
7516		-13.671875
7517		-9.765625
7518		-11.718750
7519		-7.812500
7520		-9.765625
7521		-5.859375
7522		-7.812500
7523		-1.953125
7524		-3.906250
7525		0.000000
7526		-1.953125
7527		1.953125
7528		0.000000
7529		5.859375
7530		3.906250
7531		7.812500
7532		5.859375
7533		9.765625
7534		9.765625
7535		13.671875
7536		11.718750
7537		15.625000
7538		13.671875
7539		17.578125
7540		17.578125
7541		21.484375
7542		19.531250
7543		23.437500
7544		21.484375
7545		25.390625
7546		23.437500
7547		27.343750
7548		27.343750
7549		31.250000
7550		29.296875
7551		33.203125
7552		31.250000
7553		35.156250
7554		33.203125
7555		37.109375
7556		37.109375
7557		41.015625
7558		39.062500
7559		42.968750
7560		41.015625
7561		42.968750
7562		42.968750
7563		46.875000
7564		44.921875
7565		48.828125
7566		46.875000
7567		48.828125
7568		48.828125
7569		50.781250
7570		48.828125
7571		52.734375
7572		50.781250
7573		54.687500
7574		52.734375
7575		56.640625
7576		54.687500
7577		56.640625
7578		54.687500
7579		58.593750
7580		54.687500
7581		58.593750
7582		56.640625
7583		60.546875
7584		58.593750
7585		60.546875
7586		58.593750
7587		60.546875
7588		60.546875
7589		62.500000
7590		60.546875
7591		62.500000
7592		60.546875
7593		62.500000
7594		60.546875
7595		62.500000
7596		60.546875
7597		62.500000
7598		60.546875
7599		62.500000
7600		60.546875
7601		62.500000
7602		60.546875
7603		64.453125
7604		60.546875
7605		62.500000
7606		60.546875
7607		62.500000
7608		60.546875
7609		62.500000
7610		58.593750
7611		62.500000
7612		58.593750
7613		60.546875
7614		56.640625
7615		60.546875
7616		56.640625
7617		58.593750
7618		54.687500
7619		58.593750
7620		54.687500
7621		56.640625
7622		52.734375
7623		54.687500
7624		50.781250
7625		54.687500
7626		48.828125
7627		52.734375
7628		48.828125
7629		50.781250
7630		46.875000
7631		48.828125
7632		42.968750
7633		48.828125
7634		42.968750
7635		44.921875
7636		41.015625
7637		42.968750
7638		37.109375
7639		41.015625
7640		35.156250
7641		39.062500
7642		33.203125
7643		37.109375
7644		31.250000
7645		35.156250
7646		27.343750
7647		33.203125
7648		25.390625
7649		29.296875
7650		23.437500
7651		27.343750
7652		21.484375
7653		25.390625
7654		19.531250
7655		23.437500
7656		15.625000
7657		19.531250
7658		13.671875
7659		17.578125
7660		9.765625
7661		15.625000
7662		7.812500
7663		11.718750
7664		3.906250
7665		9.765625
7666		1.953125
7667		5.859375
7668		-1.953125
7669		5.859375
7670		-3.906250
7671		1.953125
7672		-5.859375
7673		-1.953125
7674		-7.812500
7675		-3.906250
7676		-11.718750
7677		-7.812500
7678		-13.671875
7679		-9.765625
7680		-17.578125
7681		-11.718750
7682		-19.531250
7683		-13.671875
7684		-23.437500
7685		-17.578125
7686		-23.437500
7687		-17.578125
7688		-27.343750
7689		-19.531250
7690		-27.343750
7691		-23.437500
7692		-29.296875
7693		-25.390625
7694		-31.250000
7695		-27.343750
7696		-33.203125
7697		-31.250000
7698		-37.109375
7699		-29.296875
7700		-37.109375
7701		-33.203125
7702		-41.015625
7703		-33.203125
7704		-39.062500
7705		-37.109375
7706		-42.968750
7707		-35.156250
7708		-42.968750
7709		-39.062500
7710		-44.921875
7711		-41.015625
7712		-44.921875
7713		-41.015625
7714		-46.875000
7715		-41.015625
7716		-46.875000
7717		-42.968750
7718		-46.875000
7719		-42.968750
7720		-46.875000
7721		-44.921875
7722		-48.828125
7723		-41.015625
7724		-46.875000
7725		-44.921875
7726		-46.875000
7727		-44.921875
7728		-48.828125
7729		-42.968750
7730		-48.828125
7731		-41.015625
7732		-46.875000
7733		-42.968750
7734		-44.921875
7735		-41.015625
7736		-46.875000
7737		-41.015625
7738		-44.921875
7739		-39.062500
7740		-42.968750
7741		-39.062500
7742		-41.015625
7743		-39.062500
7744		-41.015625
7745		-35.156250
7746		-41.015625
7747		-33.203125
7748		-39.062500
7749		-33.203125
7750		-35.156250
7751		-31.250000
7752		-35.156250
7753		-27.343750
7754		-35.156250
7755		-27.343750
7756		-33.203125
7757		-23.437500
7758		-27.343750
7759		-23.437500
7760		-25.390625
7761		-21.484375
7762		-25.390625
7763		-15.625000
7764		-21.484375
7765		-15.625000
7766		-19.531250
7767		-13.671875
7768		-15.625000
7769		-11.718750
7770		-15.625000
7771		-7.812500
7772		-13.671875
7773		-3.906250
7774		-7.812500
7775		-3.906250
7776		-5.859375
7777		-1.953125
7778		-3.906250
7779		1.953125
7780		-3.906250
7781		5.859375
7782		1.953125
7783		5.859375
7784		3.906250
7785		9.765625
7786		5.859375
7787		15.625000
7788		9.765625
7789		13.671875
7790		7.812500
7791		17.578125
7792		15.625000
7793		19.531250
7794		17.578125
7795		23.437500
7796		19.531250
7797		27.343750
7798		23.437500
7799		27.343750
7800		25.390625
7801		29.296875
7802		27.343750
7803		35.156250
7804		27.343750
7805		37.109375
7806		31.250000
7807		39.062500
7808		35.156250
7809		39.062500
7810		37.109375
7811		41.015625
7812		39.062500
7813		44.921875
7814		39.062500
7815		46.875000
7816		42.968750
7817		46.875000
7818		44.921875
7819		48.828125
7820		42.968750
7821		54.687500
7822		46.875000
7823		54.687500
7824		50.781250
7825		52.734375
7826		52.734375
7827		54.687500
7828		52.734375
7829		56.640625
7830		52.734375
7831		60.546875
7832		52.734375
7833		60.546875
7834		56.640625
7835		60.546875
7836		56.640625
7837		64.453125
7838		54.687500
7839		64.453125
7840		54.687500
7841		64.453125
7842		60.546875
7843		62.500000
7844		60.546875
7845		64.453125
7846		58.593750
7847		66.406250
7848		58.593750
7849		66.406250
7850		60.546875
7851		64.453125
7852		60.546875
7853		64.453125
7854		58.593750
7855		68.359375
7856		58.593750
7857		66.406250
7858		60.546875
7859		62.500000
7860		60.546875
7861		62.500000
7862		58.593750
7863		62.500000
7864		56.640625
7865		64.453125
7866		56.640625
7867		62.500000
7868		56.640625
7869		60.546875
7870		52.734375
7871		62.500000
7872		52.734375
7873		60.546875
7874		52.734375
7875		58.593750
7876		52.734375
7877		54.687500
7878		48.828125
7879		54.687500
7880		44.921875
7881		54.687500
7882		44.921875
7883		50.781250
7884		44.921875
7885		48.828125
7886		41.015625
7887		48.828125
7888		39.062500
7889		48.828125
7890		39.062500
7891		44.921875
7892		37.109375
7893		41.015625
7894		35.156250
7895		39.062500
7896		31.250000
7897		37.109375
7898		27.343750
7899		37.109375
7900		27.343750
7901		33.203125
7902		25.390625
7903		29.296875
7904		19.531250
7905		29.296875
7906		17.578125
7907		25.390625
7908		17.578125
7909		21.484375
7910		15.625000
7911		19.531250
7912		11.718750
7913		17.578125
7914		7.812500
7915		15.625000
7916		5.859375
7917		13.671875
7918		3.906250
7919		9.765625
7920		-1.953125
7921		7.812500
7922		-1.953125
7923		5.859375
7924		-3.906250
7925		3.906250
7926		-5.859375
7927		-1.953125
7928		-9.765625
7929		-5.859375
7930		-11.718750
7931		-5.859375
7932		-15.625000
7933		-7.812500
7934		-17.578125
7935		-11.718750
7936		-19.531250
7937		-15.625000
7938		-21.484375
7939		-15.625000
7940		-25.390625
7941		-19.531250
7942		-25.390625
7943		-23.437500
7944		-27.343750
7945		-25.390625
7946		-29.296875
7947		-27.343750
7948		-35.156250
7949		-27.343750
7950		-35.156250
7951		-29.296875
7952		-35.156250
7953		-33.203125
7954		-39.062500
7955		-33.203125
7956		-39.062500
7957		-35.156250
7958		-41.015625
7959		-37.109375
7960		-41.015625
7961		-39.062500
7962		-42.968750
7963		-41.015625
7964		-42.968750
7965		-41.015625
7966		-46.875000
7967		-41.015625
7968		-44.921875
7969		-42.968750
7970		-48.828125
7971		-42.968750
7972		-46.875000
7973		-44.921875
7974		-46.875000
7975		-44.921875
7976		-46.875000
7977		-44.921875
7978		-46.875000
7979		-44.921875
7980		-46.875000
7981		-44.921875
7982		-46.875000
7983		-42.968750
7984		-46.875000
7985		-42.968750
7986		-44.921875
7987		-42.968750
7988		-44.921875
7989		-42.968750
7990		-42.968750
7991		-41.015625
7992		-44.921875
7993		-41.015625
7994		-41.015625
7995		-39.062500
7996		-41.015625
7997		-37.109375
7998		-39.062500
7999		-37.109375
8000		-37.109375
8001		-35.156250
8002		-37.109375
8003		-31.250000
8004		-35.156250
8005		-31.250000
8006		-33.203125
8007		-29.296875
8008		-31.250000
8009		-27.343750
8010		-29.296875
8011		-25.390625
8012		-27.343750
8013		-21.484375
8014		-25.390625
8015		-19.531250
8016		-23.437500
8017		-17.578125
8018		-21.484375
8019		-15.625000
8020		-19.531250
8021		-11.718750
8022		-17.578125
8023		-9.765625
8024		-13.671875
8025		-7.812500
8026		-9.765625
8027		-5.859375
8028		-7.812500
8029		-3.906250
8030		-5.859375
8031		0.000000
8032		-3.906250
8033		3.906250
8034		-1.953125
8035		5.859375
8036		1.953125
8037		7.812500
8038		5.859375
8039		11.718750
8040		7.812500
8041		13.671875
8042		9.765625
8043		15.625000
8044		13.671875
8045		17.578125
8046		15.625000
8047		21.484375
8048		17.578125
8049		23.437500
8050		21.484375
8051		27.343750
8052		21.484375
8053		29.296875
8054		25.390625
8055		31.250000
8056		27.343750
8057		33.203125
8058		31.250000
8059		35.156250
8060		33.203125
8061		37.109375
8062		35.156250
8063		39.062500
8064		37.109375
8065		42.968750
8066		39.062500
8067		44.921875
8068		41.015625
8069		46.875000
8070		41.015625
8071		48.828125
8072		44.921875
8073		50.781250
8074		46.875000
8075		52.734375
8076		48.828125
8077		52.734375
8078		50.781250
8079		54.687500
8080		50.781250
8081		56.640625
8082		52.734375
8083		56.640625
8084		52.734375
8085		58.593750
8086		54.687500
8087		60.546875
8088		56.640625
8089		60.546875
8090		56.640625
8091		62.500000
8092		58.593750
8093		62.500000
8094		60.546875
8095		62.500000
8096		60.546875
8097		62.500000
8098		58.593750
8099		64.453125
8100		60.546875
8101		64.453125
8102		58.593750
8103		66.406250
8104		60.546875
8105		66.406250
8106		60.546875
8107		64.453125
8108		60.546875
8109		64.453125
8110		60.546875
8111		62.500000
8112		60.546875
8113		62.500000
8114		58.593750
8115		64.453125
8116		58.593750
8117		64.453125
8118		58.593750
8119		62.500000
8120		54.687500
8121		62.500000
8122		56.640625
8123		60.546875
8124		54.687500
8125		58.593750
8126		54.687500
8127		58.593750
8128		52.734375
8129		56.640625
8130		50.781250
8131		54.687500
8132		48.828125
8133		52.734375
8134		48.828125
8135		52.734375
8136		44.921875
8137		50.781250
8138		44.921875
8139		48.828125
8140		42.968750
8141		46.875000
8142		41.015625
8143		44.921875
8144		39.062500
8145		42.968750
8146		37.109375
8147		41.015625
8148		35.156250
8149		39.062500
8150		31.250000
8151		37.109375
8152		29.296875
8153		33.203125
8154		27.343750
8155		33.203125
8156		25.390625
8157		29.296875
8158		21.484375
8159		27.343750
8160		19.531250
8161		23.437500
8162		17.578125
8163		21.484375
8164		13.671875
8165		17.578125
8166		11.718750
8167		15.625000
8168		9.765625
8169		13.671875
8170		3.906250
8171		11.718750
8172		1.953125
8173		7.812500
8174		0.000000
8175		5.859375
8176		-1.953125
8177		1.953125
8178		-3.906250
8179		0.000000
8180		-7.812500
8181		-3.906250
8182		-9.765625
8183		-3.906250
8184		-13.671875
8185		-7.812500
8186		-17.578125
8187		-11.718750
8188		-17.578125
8189		-11.718750
8190		-21.484375
8191		-15.625000
8192		-23.437500
8193		-19.531250
8194		-25.390625
8195		-19.531250
8196		-27.343750
8197		-23.437500
8198		-29.296875
8199		-25.390625
8200		-31.250000
8201		-27.343750
8202		-33.203125
8203		-29.296875
8204		-35.156250
8205		-31.250000
8206		-37.109375
8207		-33.203125
8208		-39.062500
8209		-35.156250
8210		-41.015625
8211		-37.109375
8212		-41.015625
8213		-39.062500
8214		-42.968750
8215		-39.062500
8216		-42.968750
8217		-39.062500
8218		-44.921875
8219		-41.015625
8220		-46.875000
8221		-41.015625
8222		-46.875000
8223		-42.968750
8224		-46.875000
8225		-42.968750
8226		-46.875000
8227		-42.968750
8228		-46.875000
8229		-44.921875
8230		-46.875000
8231		-44.921875
8232		-48.828125
8233		-42.968750
8234		-46.875000
8235		-42.968750
8236		-46.875000
8237		-42.968750
8238		-46.875000
8239		-42.968750
8240		-46.875000
8241		-42.968750
8242		-44.921875
8243		-41.015625
8244		-44.921875
8245		-41.015625
8246		-42.968750
8247		-39.062500
8248		-41.015625
8249		-39.062500
8250		-41.015625
8251		-37.109375
8252		-39.062500
8253		-35.156250
8254		-39.062500
8255		-33.203125
8256		-37.109375
8257		-33.203125
8258		-35.156250
8259		-31.250000
8260		-33.203125
8261		-29.296875
8262		-31.250000
8263		-27.343750
8264		-29.296875
8265		-25.390625
8266		-27.343750
8267		-21.484375
8268		-25.390625
8269		-19.531250
8270		-21.484375
8271		-17.578125
8272		-19.531250
8273		-15.625000
8274		-17.578125
8275		-13.671875
8276		-15.625000
8277		-9.765625
8278		-13.671875
8279		-7.812500
8280		-9.765625
8281		-5.859375
8282		-7.812500
8283		-3.906250
8284		-3.906250
8285		0.000000
8286		-1.953125
8287		3.906250
8288		0.000000
8289		5.859375
8290		3.906250
8291		7.812500
8292		5.859375
8293		11.718750
8294		7.812500
8295		13.671875
8296		11.718750
8297		15.625000
8298		13.671875
8299		19.531250
8300		15.625000
8301		21.484375
8302		19.531250
8303		23.437500
8304		21.484375
8305		25.390625
8306		25.390625
8307		29.296875
8308		25.390625
8309		31.250000
8310		29.296875
8311		33.203125
8312		31.250000
8313		35.156250
8314		35.156250
8315		37.109375
8316		35.156250
8317		41.015625
8318		39.062500
8319		42.968750
8320		39.062500
8321		44.921875
8322		42.968750
8323		46.875000
8324		44.921875
8325		48.828125
8326		44.921875
8327		50.781250
8328		46.875000
8329		50.781250
8330		50.781250
8331		52.734375
8332		50.781250
8333		54.687500
8334		52.734375
8335		56.640625
8336		54.687500
8337		56.640625
8338		54.687500
8339		58.593750
8340		56.640625
8341		58.593750
8342		56.640625
8343		60.546875
8344		58.593750
8345		60.546875
8346		58.593750
8347		62.500000
8348		58.593750
8349		62.500000
8350		58.593750
8351		62.500000
8352		60.546875
8353		64.453125
8354		60.546875
8355		64.453125
8356		60.546875
8357		64.453125
8358		60.546875
8359		64.453125
8360		60.546875
8361		64.453125
8362		60.546875
8363		64.453125
8364		60.546875
8365		62.500000
8366		58.593750
8367		62.500000
8368		60.546875
8369		62.500000
8370		58.593750
8371		62.500000
8372		58.593750
8373		62.500000
8374		56.640625
8375		60.546875
8376		56.640625
8377		60.546875
8378		54.687500
8379		58.593750
8380		54.687500
8381		56.640625
8382		52.734375
8383		56.640625
8384		50.781250
8385		54.687500
8386		48.828125
8387		52.734375
8388		46.875000
8389		52.734375
8390		46.875000
8391		50.781250
8392		44.921875
8393		48.828125
8394		41.015625
8395		44.921875
8396		41.015625
8397		42.968750
8398		39.062500
8399		41.015625
8400		35.156250
8401		39.062500
8402		33.203125
8403		37.109375
8404		31.250000
8405		35.156250
8406		29.296875
8407		33.203125
8408		25.390625
8409		31.250000
8410		23.437500
8411		27.343750
8412		21.484375
8413		25.390625
8414		17.578125
8415		23.437500
8416		15.625000
8417		19.531250
8418		13.671875
8419		17.578125
8420		9.765625
8421		15.625000
8422		7.812500
8423		11.718750
8424		5.859375
8425		9.765625
8426		1.953125
8427		7.812500
8428		0.000000
8429		3.906250
8430		-1.953125
8431		1.953125
8432		-5.859375
8433		-1.953125
8434		-7.812500
8435		-3.906250
8436		-11.718750
8437		-5.859375
8438		-13.671875
8439		-9.765625
8440		-15.625000
8441		-11.718750
8442		-17.578125
8443		-13.671875
8444		-21.484375
8445		-15.625000
8446		-23.437500
8447		-19.531250
8448		-25.390625
8449		-21.484375
8450		-27.343750
8451		-23.437500
8452		-29.296875
8453		-25.390625
8454		-33.203125
8455		-27.343750
8456		-33.203125
8457		-29.296875
8458		-35.156250
8459		-31.250000
8460		-37.109375
8461		-33.203125
8462		-39.062500
8463		-35.156250
8464		-41.015625
8465		-37.109375
8466		-41.015625
8467		-39.062500
8468		-42.968750
8469		-39.062500
8470		-44.921875
8471		-41.015625
8472		-44.921875
8473		-41.015625
8474		-44.921875
8475		-42.968750
8476		-46.875000
8477		-42.968750
8478		-46.875000
8479		-42.968750
8480		-46.875000
8481		-44.921875
8482		-46.875000
8483		-44.921875
8484		-48.828125
8485		-44.921875
8486		-48.828125
8487		-44.921875
8488		-46.875000
8489		-42.968750
8490		-46.875000
8491		-42.968750
8492		-46.875000
8493		-42.968750
8494		-46.875000
8495		-42.968750
8496		-44.921875
8497		-41.015625
8498		-42.968750
8499		-41.015625
8500		-42.968750
8501		-39.062500
8502		-41.015625
8503		-39.062500
8504		-41.015625
8505		-35.156250
8506		-39.062500
8507		-35.156250
8508		-37.109375
8509		-33.203125
8510		-35.156250
8511		-31.250000
8512		-35.156250
8513		-29.296875
8514		-33.203125
8515		-29.296875
8516		-31.250000
8517		-27.343750
8518		-29.296875
8519		-23.437500
8520		-25.390625
8521		-21.484375
8522		-23.437500
8523		-19.531250
8524		-23.437500
8525		-17.578125
8526		-19.531250
8527		-15.625000
8528		-17.578125
8529		-11.718750
8530		-15.625000
8531		-9.765625
8532		-11.718750
8533		-7.812500
8534		-9.765625
8535		-3.906250
8536		-5.859375
8537		-1.953125
8538		-3.906250
8539		0.000000
8540		-1.953125
8541		3.906250
8542		1.953125
8543		5.859375
8544		3.906250
8545		7.812500
8546		5.859375
8547		11.718750
8548		9.765625
8549		13.671875
8550		11.718750
8551		17.578125
8552		15.625000
8553		19.531250
8554		17.578125
8555		21.484375
8556		19.531250
8557		23.437500
8558		23.437500
8559		27.343750
8560		25.390625
8561		29.296875
8562		27.343750
8563		33.203125
8564		29.296875
8565		33.203125
8566		33.203125
8567		37.109375
8568		35.156250
8569		39.062500
8570		37.109375
8571		41.015625
8572		39.062500
8573		42.968750
8574		41.015625
8575		44.921875
8576		42.968750
8577		46.875000
8578		44.921875
8579		48.828125
8580		46.875000
8581		48.828125
8582		48.828125
8583		50.781250
8584		50.781250
8585		54.687500
8586		50.781250
8587		54.687500
8588		52.734375
8589		56.640625
8590		54.687500
8591		58.593750
8592		54.687500
8593		58.593750
8594		56.640625
8595		60.546875
8596		56.640625
8597		60.546875
8598		58.593750
8599		60.546875
8600		58.593750
8601		62.500000
8602		58.593750
8603		62.500000
8604		58.593750
8605		62.500000
8606		60.546875
8607		64.453125
8608		60.546875
8609		64.453125
8610		60.546875
8611		64.453125
8612		60.546875
8613		64.453125
8614		60.546875
8615		64.453125
8616		60.546875
8617		62.500000
8618		60.546875
8619		62.500000
8620		60.546875
8621		62.500000
8622		58.593750
8623		62.500000
8624		58.593750
8625		62.500000
8626		56.640625
8627		60.546875
8628		56.640625
8629		60.546875
8630		56.640625
8631		58.593750
8632		54.687500
8633		58.593750
8634		50.781250
8635		56.640625
8636		52.734375
8637		56.640625
8638		50.781250
8639		54.687500
8640		48.828125
8641		52.734375
8642		46.875000
8643		50.781250
8644		44.921875
8645		48.828125
8646		42.968750
8647		46.875000
8648		41.015625
8649		44.921875
8650		39.062500
8651		42.968750
8652		37.109375
8653		41.015625
8654		35.156250
8655		39.062500
8656		33.203125
8657		37.109375
8658		29.296875
8659		35.156250
8660		27.343750
8661		31.250000
8662		25.390625
8663		29.296875
8664		23.437500
8665		27.343750
8666		21.484375
8667		25.390625
8668		17.578125
8669		21.484375
8670		13.671875
8671		19.531250
8672		11.718750
8673		17.578125
8674		9.765625
8675		15.625000
8676		5.859375
8677		11.718750
8678		3.906250
8679		7.812500
8680		0.000000
8681		5.859375
8682		-1.953125
8683		3.906250
8684		-3.906250
8685		0.000000
8686		-5.859375
8687		-1.953125
8688		-9.765625
8689		-5.859375
8690		-11.718750
8691		-5.859375
8692		-15.625000
8693		-9.765625
8694		-17.578125
8695		-13.671875
8696		-19.531250
8697		-15.625000
8698		-21.484375
8699		-17.578125
8700		-23.437500
8701		-19.531250
8702		-27.343750
8703		-21.484375
8704		-27.343750
8705		-23.437500
8706		-31.250000
8707		-27.343750
8708		-33.203125
8709		-29.296875
8710		-35.156250
8711		-31.250000
8712		-37.109375
8713		-31.250000
8714		-37.109375
8715		-33.203125
8716		-39.062500
8717		-37.109375
8718		-41.015625
8719		-37.109375
8720		-42.968750
8721		-37.109375
8722		-42.968750
8723		-39.062500
8724		-44.921875
8725		-41.015625
8726		-44.921875
8727		-41.015625
8728		-46.875000
8729		-42.968750
8730		-46.875000
8731		-42.968750
8732		-46.875000
8733		-44.921875
8734		-46.875000
8735		-44.921875
8736		-46.875000
8737		-42.968750
8738		-46.875000
8739		-42.968750
8740		-46.875000
8741		-44.921875
8742		-46.875000
8743		-42.968750
8744		-46.875000
8745		-42.968750
8746		-44.921875
8747		-42.968750
8748		-44.921875
8749		-41.015625
8750		-44.921875
8751		-41.015625
8752		-42.968750
8753		-41.015625
8754		-42.968750
8755		-39.062500
8756		-41.015625
8757		-37.109375
8758		-41.015625
8759		-37.109375
8760		-39.062500
8761		-35.156250
8762		-37.109375
8763		-33.203125
8764		-35.156250
8765		-31.250000
8766		-33.203125
8767		-29.296875
8768		-31.250000
8769		-27.343750
8770		-31.250000
8771		-25.390625
8772		-27.343750
8773		-23.437500
8774		-25.390625
8775		-21.484375
8776		-21.484375
8777		-17.578125
8778		-19.531250
8779		-15.625000
8780		-17.578125
8781		-13.671875
8782		-15.625000
8783		-11.718750
8784		-13.671875
8785		-9.765625
8786		-9.765625
8787		-5.859375
8788		-7.812500
8789		-3.906250
8790		-5.859375
8791		-1.953125
8792		-1.953125
8793		1.953125
8794		0.000000
8795		5.859375
8796		1.953125
8797		7.812500
8798		5.859375
8799		9.765625
8800		7.812500
8801		13.671875
8802		11.718750
8803		15.625000
8804		11.718750
8805		17.578125
8806		15.625000
8807		21.484375
8808		17.578125
8809		23.437500
8810		21.484375
8811		25.390625
8812		23.437500
8813		29.296875
8814		27.343750
8815		31.250000
8816		27.343750
8817		33.203125
8818		31.250000
8819		35.156250
8820		33.203125
8821		37.109375
8822		35.156250
8823		41.015625
8824		37.109375
8825		41.015625
8826		39.062500
8827		42.968750
8828		41.015625
8829		46.875000
8830		44.921875
8831		48.828125
8832		44.921875
8833		48.828125
8834		46.875000
8835		50.781250
8836		48.828125
8837		52.734375
8838		50.781250
8839		54.687500
8840		50.781250
8841		56.640625
8842		52.734375
8843		56.640625
8844		54.687500
8845		58.593750
8846		54.687500
8847		58.593750
8848		56.640625
8849		60.546875
8850		58.593750
8851		60.546875
8852		58.593750
8853		62.500000
8854		58.593750
8855		62.500000
8856		60.546875
8857		62.500000
8858		60.546875
8859		62.500000
8860		60.546875
8861		62.500000
8862		62.500000
8863		64.453125
8864		62.500000
8865		64.453125
8866		60.546875
8867		64.453125
8868		60.546875
8869		64.453125
8870		60.546875
8871		64.453125
8872		60.546875
8873		64.453125
8874		60.546875
8875		62.500000
8876		60.546875
8877		62.500000
8878		58.593750
8879		62.500000
8880		56.640625
8881		60.546875
8882		56.640625
8883		60.546875
8884		56.640625
8885		58.593750
8886		54.687500
8887		56.640625
8888		52.734375
8889		56.640625
8890		50.781250
8891		54.687500
8892		50.781250
8893		54.687500
8894		48.828125
8895		52.734375
8896		46.875000
8897		50.781250
8898		44.921875
8899		50.781250
8900		42.968750
8901		46.875000
8902		41.015625
8903		44.921875
8904		39.062500
8905		42.968750
8906		37.109375
8907		41.015625
8908		35.156250
8909		39.062500
8910		33.203125
8911		37.109375
8912		29.296875
8913		35.156250
8914		27.343750
8915		31.250000
8916		25.390625
8917		29.296875
8918		21.484375
8919		25.390625
8920		19.531250
8921		23.437500
8922		17.578125
8923		21.484375
8924		13.671875
8925		19.531250
8926		11.718750
8927		15.625000
8928		9.765625
8929		13.671875
8930		5.859375
8931		11.718750
8932		3.906250
8933		7.812500
8934		0.000000
8935		5.859375
8936		-1.953125
8937		1.953125
8938		-5.859375
8939		0.000000
8940		-7.812500
8941		-3.906250
8942		-9.765625
8943		-5.859375
8944		-11.718750
8945		-7.812500
8946		-15.625000
8947		-9.765625
8948		-17.578125
8949		-13.671875
8950		-19.531250
8951		-15.625000
8952		-21.484375
8953		-17.578125
8954		-25.390625
8955		-19.531250
8956		-27.343750
8957		-23.437500
8958		-29.296875
8959		-25.390625
8960		-31.250000
8961		-27.343750
8962		-33.203125
8963		-29.296875
8964		-35.156250
8965		-31.250000
8966		-37.109375
8967		-33.203125
8968		-37.109375
8969		-35.156250
8970		-39.062500
8971		-37.109375
8972		-41.015625
8973		-37.109375
8974		-41.015625
8975		-37.109375
8976		-44.921875
8977		-39.062500
8978		-44.921875
8979		-41.015625
8980		-44.921875
8981		-41.015625
8982		-44.921875
8983		-42.968750
8984		-44.921875
8985		-42.968750
8986		-46.875000
8987		-44.921875
8988		-48.828125
8989		-42.968750
8990		-46.875000
8991		-42.968750
8992		-46.875000
8993		-44.921875
8994		-46.875000
8995		-42.968750
8996		-46.875000
8997		-42.968750
8998		-46.875000
8999		-42.968750
9000		-46.875000
9001		-42.968750
9002		-44.921875
9003		-41.015625
9004		-42.968750
9005		-41.015625
9006		-42.968750
9007		-39.062500
9008		-41.015625
9009		-39.062500
9010		-41.015625
9011		-37.109375
9012		-39.062500
9013		-35.156250
9014		-39.062500
9015		-33.203125
9016		-35.156250
9017		-31.250000
9018		-35.156250
9019		-31.250000
9020		-33.203125
9021		-29.296875
9022		-31.250000
9023		-25.390625
9024		-29.296875
9025		-25.390625
9026		-25.390625
9027		-21.484375
9028		-23.437500
9029		-19.531250
9030		-21.484375
9031		-17.578125
9032		-19.531250
9033		-15.625000
9034		-17.578125
9035		-13.671875
9036		-13.671875
9037		-9.765625
9038		-11.718750
9039		-7.812500
9040		-9.765625
9041		-5.859375
9042		-7.812500
9043		-1.953125
9044		-3.906250
9045		0.000000
9046		-1.953125
9047		3.906250
9048		0.000000
9049		5.859375
9050		3.906250
9051		7.812500
9052		5.859375
9053		9.765625
9054		9.765625
9055		13.671875
9056		9.765625
9057		15.625000
9058		13.671875
9059		19.531250
9060		17.578125
9061		21.484375
9062		19.531250
9063		23.437500
9064		21.484375
9065		25.390625
9066		25.390625
9067		29.296875
9068		25.390625
9069		31.250000
9070		29.296875
9071		33.203125
9072		31.250000
9073		37.109375
9074		33.203125
9075		39.062500
9076		37.109375
9077		41.015625
9078		39.062500
9079		42.968750
9080		41.015625
9081		44.921875
9082		42.968750
9083		46.875000
9084		44.921875
9085		48.828125
9086		46.875000
9087		50.781250
9088		48.828125
9089		52.734375
9090		48.828125
9091		52.734375
9092		50.781250
9093		54.687500
9094		52.734375
9095		56.640625
9096		54.687500
9097		56.640625
9098		54.687500
9099		58.593750
9100		56.640625
9101		60.546875
9102		56.640625
9103		60.546875
9104		58.593750
9105		60.546875
9106		58.593750
9107		62.500000
9108		58.593750
9109		62.500000
9110		60.546875
9111		64.453125
9112		60.546875
9113		64.453125
9114		60.546875
9115		64.453125
9116		60.546875
9117		64.453125
9118		60.546875
9119		64.453125
9120		62.500000
9121		64.453125
9122		60.546875
9123		64.453125
9124		60.546875
9125		64.453125
9126		60.546875
9127		64.453125
9128		60.546875
9129		62.500000
9130		58.593750
9131		62.500000
9132		58.593750
9133		62.500000
9134		56.640625
9135		60.546875
9136		56.640625
9137		58.593750
9138		54.687500
9139		58.593750
9140		54.687500
9141		58.593750
9142		52.734375
9143		56.640625
9144		50.781250
9145		54.687500
9146		50.781250
9147		52.734375
9148		48.828125
9149		50.781250
9150		46.875000
9151		50.781250
9152		44.921875
9153		48.828125
9154		42.968750
9155		46.875000
9156		41.015625
9157		44.921875
9158		39.062500
9159		42.968750
9160		35.156250
9161		41.015625
9162		33.203125
9163		39.062500
9164		31.250000
9165		37.109375
9166		29.296875
9167		33.203125
9168		27.343750
9169		31.250000
9170		23.437500
9171		29.296875
9172		21.484375
9173		25.390625
9174		17.578125
9175		23.437500
9176		15.625000
9177		21.484375
9178		13.671875
9179		17.578125
9180		11.718750
9181		15.625000
9182		7.812500
9183		13.671875
9184		5.859375
9185		9.765625
9186		3.906250
9187		7.812500
9188		0.000000
9189		3.906250
9190		-1.953125
9191		1.953125
9192		-5.859375
9193		0.000000
9194		-9.765625
9195		-3.906250
9196		-9.765625
9197		-5.859375
9198		-13.671875
9199		-7.812500
9200		-15.625000
9201		-11.718750
9202		-17.578125
9203		-13.671875
9204		-19.531250
9205		-17.578125
9206		-23.437500
9207		-19.531250
9208		-25.390625
9209		-19.531250
9210		-27.343750
9211		-23.437500
9212		-29.296875
9213		-25.390625
9214		-31.250000
9215		-27.343750
9216		-33.203125
9217		-29.296875
9218		-35.156250
9219		-31.250000
9220		-37.109375
9221		-33.203125
9222		-39.062500
9223		-35.156250
9224		-39.062500
9225		-35.156250
9226		-41.015625
9227		-37.109375
9228		-42.968750
9229		-39.062500
9230		-42.968750
9231		-39.062500
9232		-44.921875
9233		-41.015625
9234		-44.921875
9235		-41.015625
9236		-44.921875
9237		-41.015625
9238		-44.921875
9239		-42.968750
9240		-46.875000
9241		-42.968750
9242		-46.875000
9243		-42.968750
9244		-46.875000
9245		-42.968750
9246		-46.875000
9247		-42.968750
9248		-46.875000
9249		-42.968750
9250		-46.875000
9251		-42.968750
9252		-46.875000
9253		-42.968750
9254		-44.921875
9255		-41.015625
9256		-44.921875
9257		-41.015625
9258		-42.968750
9259		-41.015625
9260		-42.968750
9261		-39.062500
9262		-41.015625
9263		-37.109375
9264		-39.062500
9265		-35.156250
9266		-39.062500
9267		-35.156250
9268		-37.109375
9269		-33.203125
9270		-35.156250
9271		-31.250000
9272		-33.203125
9273		-29.296875
9274		-31.250000
9275		-27.343750
9276		-29.296875
9277		-25.390625
9278		-27.343750
9279		-23.437500
9280		-25.390625
9281		-21.484375
9282		-23.437500
9283		-17.578125
9284		-21.484375
9285		-17.578125
9286		-19.531250
9287		-13.671875
9288		-15.625000
9289		-11.718750
9290		-13.671875
9291		-9.765625
9292		-11.718750
9293		-5.859375
9294		-7.812500
9295		-3.906250
9296		-5.859375
9297		-1.953125
9298		-3.906250
9299		1.953125
9300		0.000000
9301		3.906250
9302		1.953125
9303		7.812500
9304		5.859375
9305		9.765625
9306		7.812500
9307		11.718750
9308		9.765625
9309		15.625000
9310		11.718750
9311		17.578125
9312		15.625000
9313		19.531250
9314		17.578125
9315		23.437500
9316		21.484375
9317		25.390625
9318		23.437500
9319		27.343750
9320		25.390625
9321		29.296875
9322		29.296875
9323		33.203125
9324		31.250000
9325		35.156250
9326		33.203125
9327		37.109375
9328		35.156250
9329		39.062500
9330		37.109375
9331		41.015625
9332		39.062500
9333		42.968750
9334		41.015625
9335		46.875000
9336		42.968750
9337		46.875000
9338		44.921875
9339		48.828125
9340		46.875000
9341		50.781250
9342		46.875000
9343		52.734375
9344		50.781250
9345		54.687500
9346		50.781250
9347		56.640625
9348		52.734375
9349		56.640625
9350		54.687500
9351		58.593750
9352		56.640625
9353		60.546875
9354		56.640625
9355		60.546875
9356		58.593750
9357		60.546875
9358		58.593750
9359		62.500000
9360		58.593750
9361		62.500000
9362		60.546875
9363		62.500000
9364		60.546875
9365		64.453125
9366		60.546875
9367		64.453125
9368		62.500000
9369		64.453125
9370		60.546875
9371		64.453125
9372		62.500000
9373		64.453125
9374		62.500000
9375		66.406250
9376		60.546875
9377		64.453125
9378		60.546875
9379		64.453125
9380		60.546875
9381		64.453125
9382		60.546875
9383		62.500000
9384		58.593750
9385		62.500000
9386		58.593750
9387		62.500000
9388		56.640625
9389		60.546875
9390		56.640625
9391		58.593750
9392		54.687500
9393		58.593750
9394		52.734375
9395		58.593750
9396		52.734375
9397		56.640625
9398		50.781250
9399		54.687500
9400		48.828125
9401		54.687500
9402		46.875000
9403		50.781250
9404		44.921875
9405		50.781250
9406		44.921875
9407		46.875000
9408		41.015625
9409		46.875000
9410		41.015625
9411		42.968750
9412		37.109375
9413		42.968750
9414		35.156250
9415		41.015625
9416		33.203125
9417		39.062500
9418		31.250000
9419		35.156250
9420		27.343750
9421		33.203125
9422		25.390625
9423		31.250000
9424		23.437500
9425		27.343750
9426		21.484375
9427		25.390625
9428		17.578125
9429		23.437500
9430		15.625000
9431		19.531250
9432		13.671875
9433		17.578125
9434		9.765625
9435		15.625000
9436		5.859375
9437		11.718750
9438		5.859375
9439		9.765625
9440		1.953125
9441		5.859375
9442		0.000000
9443		3.906250
9444		-3.906250
9445		1.953125
9446		-5.859375
9447		-1.953125
9448		-9.765625
9449		-3.906250
9450		-11.718750
9451		-7.812500
9452		-13.671875
9453		-9.765625
9454		-15.625000
9455		-11.718750
9456		-19.531250
9457		-15.625000
9458		-21.484375
9459		-17.578125
9460		-23.437500
9461		-19.531250
9462		-25.390625
9463		-21.484375
9464		-27.343750
9465		-23.437500
9466		-29.296875
9467		-25.390625
9468		-31.250000
9469		-27.343750
9470		-33.203125
9471		-29.296875
9472		-35.156250
9473		-31.250000
9474		-37.109375
9475		-33.203125
9476		-39.062500
9477		-33.203125
9478		-41.015625
9479		-37.109375
9480		-42.968750
9481		-37.109375
9482		-42.968750
9483		-39.062500
9484		-42.968750
9485		-39.062500
9486		-44.921875
9487		-41.015625
9488		-46.875000
9489		-41.015625
9490		-44.921875
9491		-42.968750
9492		-46.875000
9493		-42.968750
9494		-46.875000
9495		-42.968750
9496		-46.875000
9497		-42.968750
9498		-46.875000
9499		-42.968750
9500		-46.875000
9501		-42.968750
9502		-46.875000
9503		-42.968750
9504		-46.875000
9505		-42.968750
9506		-44.921875
9507		-42.968750
9508		-44.921875
9509		-42.968750
9510		-42.968750
9511		-41.015625
9512		-42.968750
9513		-39.062500
9514		-41.015625
9515		-39.062500
9516		-41.015625
9517		-37.109375
9518		-39.062500
9519		-35.156250
9520		-39.062500
9521		-35.156250
9522		-37.109375
9523		-33.203125
9524		-35.156250
9525		-31.250000
9526		-33.203125
9527		-29.296875
9528		-31.250000
9529		-25.390625
9530		-29.296875
9531		-25.390625
9532		-27.343750
9533		-23.437500
9534		-25.390625
9535		-21.484375
9536		-23.437500
9537		-17.578125
9538		-19.531250
9539		-15.625000
9540		-17.578125
9541		-13.671875
9542		-15.625000
9543		-9.765625
9544		-13.671875
9545		-7.812500
9546		-9.765625
9547		-5.859375
9548		-7.812500
9549		-3.906250
9550		-3.906250
9551		0.000000
9552		-1.953125
9553		1.953125
9554		0.000000
9555		3.906250
9556		1.953125
9557		7.812500
9558		5.859375
9559		9.765625
9560		7.812500
9561		13.671875
9562		11.718750
9563		15.625000
9564		13.671875
9565		17.578125
9566		17.578125
9567		21.484375
9568		19.531250
9569		23.437500
9570		21.484375
9571		25.390625
9572		23.437500
9573		27.343750
9574		27.343750
9575		31.250000
9576		29.296875
9577		33.203125
9578		31.250000
9579		35.156250
9580		33.203125
9581		39.062500
9582		35.156250
9583		39.062500
9584		39.062500
9585		42.968750
9586		41.015625
9587		44.921875
9588		41.015625
9589		46.875000
9590		44.921875
9591		48.828125
9592		46.875000
9593		48.828125
9594		46.875000
9595		50.781250
9596		48.828125
9597		52.734375
9598		50.781250
9599		54.687500
9600		52.734375
9601		56.640625
9602		52.734375
9603		56.640625
9604		54.687500
9605		58.593750
9606		56.640625
9607		60.546875
9608		56.640625
9609		60.546875
9610		58.593750
9611		62.500000
9612		58.593750
9613		62.500000
9614		60.546875
9615		62.500000
9616		60.546875
9617		64.453125
9618		60.546875
9619		64.453125
9620		60.546875
9621		64.453125
9622		62.500000
9623		64.453125
9624		62.500000
9625		64.453125
9626		60.546875
9627		64.453125
9628		60.546875
9629		64.453125
9630		60.546875
9631		64.453125
9632		60.546875
9633		64.453125
9634		60.546875
9635		62.500000
9636		60.546875
9637		62.500000
9638		58.593750
9639		62.500000
9640		58.593750
9641		60.546875
9642		56.640625
9643		60.546875
9644		56.640625
9645		60.546875
9646		54.687500
9647		58.593750
9648		52.734375
9649		56.640625
9650		52.734375
9651		56.640625
9652		50.781250
9653		54.687500
9654		48.828125
9655		52.734375
9656		46.875000
9657		50.781250
9658		44.921875
9659		48.828125
9660		42.968750
9661		46.875000
9662		41.015625
9663		44.921875
9664		39.062500
9665		42.968750
9666		37.109375
9667		41.015625
9668		35.156250
9669		39.062500
9670		33.203125
9671		37.109375
9672		31.250000
9673		35.156250
9674		27.343750
9675		31.250000
9676		25.390625
9677		29.296875
9678		23.437500
9679		27.343750
9680		19.531250
9681		25.390625
9682		17.578125
9683		21.484375
9684		13.671875
9685		19.531250
9686		11.718750
9687		17.578125
9688		9.765625
9689		13.671875
9690		5.859375
9691		11.718750
9692		3.906250
9693		7.812500
9694		1.953125
9695		5.859375
9696		-1.953125
9697		3.906250
9698		-3.906250
9699		0.000000
9700		-5.859375
9701		-1.953125
9702		-9.765625
9703		-5.859375
9704		-11.718750
9705		-7.812500
9706		-15.625000
9707		-9.765625
9708		-17.578125
9709		-13.671875
9710		-19.531250
9711		-15.625000
9712		-21.484375
9713		-17.578125
9714		-23.437500
9715		-19.531250
9716		-25.390625
9717		-21.484375
9718		-27.343750
9719		-23.437500
9720		-31.250000
9721		-27.343750
9722		-33.203125
9723		-29.296875
9724		-33.203125
9725		-31.250000
9726		-35.156250
9727		-33.203125
9728		-37.109375
9729		-33.203125
9730		-39.062500
9731		-35.156250
9732		-41.015625
9733		-37.109375
9734		-41.015625
9735		-37.109375
9736		-42.968750
9737		-39.062500
9738		-42.968750
9739		-39.062500
9740		-44.921875
9741		-41.015625
9742		-44.921875
9743		-42.968750
9744		-46.875000
9745		-41.015625
9746		-44.921875
9747		-42.968750
9748		-46.875000
9749		-42.968750
9750		-46.875000
9751		-42.968750
9752		-46.875000
9753		-42.968750
9754		-44.921875
9755		-42.968750
9756		-46.875000
9757		-42.968750
9758		-44.921875
9759		-42.968750
9760		-44.921875
9761		-41.015625
9762		-44.921875
9763		-41.015625
9764		-42.968750
9765		-39.062500
9766		-42.968750
9767		-39.062500
9768		-41.015625
9769		-37.109375
9770		-39.062500
9771		-35.156250
9772		-39.062500
9773		-33.203125
9774		-37.109375
9775		-33.203125
9776		-35.156250
9777		-31.250000
9778		-33.203125
9779		-29.296875
9780		-33.203125
9781		-27.343750
9782		-29.296875
9783		-25.390625
9784		-27.343750
9785		-23.437500
9786		-25.390625
9787		-21.484375
9788		-23.437500
9789		-19.531250
9790		-21.484375
9791		-17.578125
9792		-17.578125
9793		-13.671875
9794		-15.625000
9795		-11.718750
9796		-13.671875
9797		-9.765625
9798		-11.718750
9799		-7.812500
9800		-9.765625
9801		-3.906250
9802		-5.859375
9803		-1.953125
9804		-3.906250
9805		1.953125
9806		0.000000
9807		3.906250
9808		1.953125
9809		5.859375
9810		3.906250
9811		9.765625
9812		7.812500
9813		11.718750
9814		9.765625
9815		13.671875
9816		13.671875
9817		17.578125
9818		15.625000
9819		19.531250
9820		17.578125
9821		23.437500
9822		21.484375
9823		25.390625
9824		23.437500
9825		27.343750
9826		25.390625
9827		29.296875
9828		27.343750
9829		33.203125
9830		29.296875
9831		35.156250
9832		33.203125
9833		37.109375
9834		35.156250
9835		39.062500
9836		37.109375
9837		41.015625
9838		39.062500
9839		42.968750
9840		41.015625
9841		44.921875
9842		42.968750
9843		46.875000
9844		44.921875
9845		48.828125
9846		46.875000
9847		50.781250
9848		48.828125
9849		52.734375
9850		50.781250
9851		54.687500
9852		52.734375
9853		54.687500
9854		52.734375
9855		56.640625
9856		54.687500
9857		58.593750
9858		54.687500
9859		58.593750
9860		56.640625
9861		60.546875
9862		56.640625
9863		62.500000
9864		58.593750
9865		62.500000
9866		60.546875
9867		62.500000
9868		60.546875
9869		64.453125
9870		60.546875
9871		64.453125
9872		60.546875
9873		64.453125
9874		60.546875
9875		64.453125
9876		62.500000
9877		64.453125
9878		62.500000
9879		64.453125
9880		60.546875
9881		64.453125
9882		62.500000
9883		64.453125
9884		62.500000
9885		64.453125
9886		60.546875
9887		64.453125
9888		60.546875
9889		62.500000
9890		60.546875
9891		62.500000
9892		58.593750
9893		62.500000
9894		58.593750
9895		60.546875
9896		56.640625
9897		60.546875
9898		56.640625
9899		60.546875
9900		54.687500
9901		58.593750
9902		52.734375
9903		56.640625
9904		50.781250
9905		54.687500
9906		50.781250
9907		54.687500
9908		48.828125
9909		52.734375
9910		46.875000
9911		50.781250
9912		44.921875
9913		48.828125
9914		42.968750
9915		46.875000
9916		41.015625
9917		44.921875
9918		39.062500
9919		42.968750
9920		37.109375
9921		41.015625
9922		35.156250
9923		39.062500
9924		31.250000
9925		37.109375
9926		29.296875
9927		33.203125
9928		27.343750
9929		31.250000
9930		25.390625
9931		29.296875
9932		21.484375
9933		27.343750
9934		19.531250
9935		23.437500
9936		17.578125
9937		21.484375
9938		13.671875
9939		17.578125
9940		11.718750
9941		17.578125
9942		9.765625
9943		13.671875
9944		5.859375
9945		9.765625
9946		1.953125
9947		7.812500
9948		0.000000
9949		3.906250
9950		-1.953125
9951		3.906250
9952		-5.859375
9953		0.000000
9954		-7.812500
9955		-3.906250
9956		-9.765625
9957		-5.859375
9958		-11.718750
9959		-7.812500
9960		-15.625000
9961		-11.718750
9962		-17.578125
9963		-13.671875
9964		-19.531250
9965		-13.671875
9966		-21.484375
9967		-17.578125
9968		-25.390625
9969		-21.484375
9970		-27.343750
9971		-23.437500
9972		-29.296875
9973		-25.390625
9974		-33.203125
9975		-27.343750
9976		-33.203125
9977		-29.296875
9978		-35.156250
9979		-31.250000
9980		-35.156250
9981		-33.203125
9982		-37.109375
9983		-33.203125
9984		-39.062500
9985		-35.156250
9986		-41.015625
9987		-37.109375
9988		-42.968750
9989		-37.109375
9990		-42.968750
9991		-39.062500
9992		-44.921875
9993		-39.062500
9994		-44.921875
9995		-41.015625
9996		-44.921875
9997		-42.968750
9998		-44.921875
9999		-42.968750
10000		-44.921875
