Channel              :		CH1
Frequency            :		1.982kHz
Period               :		0.505ms
PK-PK                :		144.5mV
Probe attenuation    :		1X
Voltage per ADC value:		0.122070mV
Time interval        :		2.00000us

index		CH1_Voltage(mV)
1		68.359375
2		68.359375
3		66.406250
4		68.359375
5		66.406250
6		72.265625
7		66.406250
8		72.265625
9		66.406250
10		74.218750
11		66.406250
12		74.218750
13		68.359375
14		76.171875
15		68.359375
16		76.171875
17		68.359375
18		76.171875
19		70.312500
20		72.265625
21		68.359375
22		74.218750
23		68.359375
24		76.171875
25		68.359375
26		74.218750
27		66.406250
28		74.218750
29		66.406250
30		74.218750
31		64.453125
32		72.265625
33		64.453125
34		72.265625
35		64.453125
36		68.359375
37		64.453125
38		66.406250
39		60.546875
40		66.406250
41		58.593750
42		66.406250
43		56.640625
44		64.453125
45		54.687500
46		62.500000
47		52.734375
48		60.546875
49		48.828125
50		58.593750
51		48.828125
52		54.687500
53		46.875000
54		50.781250
55		42.968750
56		48.828125
57		41.015625
58		48.828125
59		37.109375
60		46.875000
61		33.203125
62		42.968750
63		31.250000
64		39.062500
65		29.296875
66		37.109375
67		27.343750
68		33.203125
69		25.390625
70		29.296875
71		21.484375
72		25.390625
73		15.625000
74		25.390625
75		11.718750
76		21.484375
77		9.765625
78		17.578125
79		5.859375
80		13.671875
81		1.953125
82		11.718750
83		-1.953125
84		7.812500
85		-1.953125
86		3.906250
87		-5.859375
88		0.000000
89		-9.765625
90		-3.906250
91		-13.671875
92		-5.859375
93		-17.578125
94		-9.765625
95		-21.484375
96		-11.718750
97		-25.390625
98		-15.625000
99		-27.343750
100		-19.531250
101		-29.296875
102		-21.484375
103		-31.250000
104		-27.343750
105		-35.156250
106		-29.296875
107		-39.062500
108		-31.250000
109		-42.968750
110		-33.203125
111		-42.968750
112		-35.156250
113		-46.875000
114		-39.062500
115		-48.828125
116		-41.015625
117		-50.781250
118		-42.968750
119		-50.781250
120		-46.875000
121		-52.734375
122		-48.828125
123		-56.640625
124		-48.828125
125		-58.593750
126		-50.781250
127		-62.500000
128		-52.734375
129		-62.500000
130		-54.687500
131		-62.500000
132		-54.687500
133		-64.453125
134		-56.640625
135		-64.453125
136		-56.640625
137		-62.500000
138		-60.546875
139		-64.453125
140		-58.593750
141		-66.406250
142		-58.593750
143		-66.406250
144		-58.593750
145		-66.406250
146		-58.593750
147		-66.406250
148		-58.593750
149		-66.406250
150		-58.593750
151		-66.406250
152		-58.593750
153		-62.500000
154		-58.593750
155		-62.500000
156		-58.593750
157		-62.500000
158		-54.687500
159		-60.546875
160		-54.687500
161		-60.546875
162		-52.734375
163		-58.593750
164		-50.781250
165		-56.640625
166		-48.828125
167		-54.687500
168		-46.875000
169		-52.734375
170		-46.875000
171		-48.828125
172		-44.921875
173		-46.875000
174		-41.015625
175		-46.875000
176		-39.062500
177		-42.968750
178		-35.156250
179		-41.015625
180		-31.250000
181		-39.062500
182		-29.296875
183		-35.156250
184		-27.343750
185		-31.250000
186		-25.390625
187		-27.343750
188		-23.437500
189		-25.390625
190		-19.531250
191		-23.437500
192		-13.671875
193		-19.531250
194		-11.718750
195		-17.578125
196		-7.812500
197		-13.671875
198		-3.906250
199		-9.765625
200		-1.953125
201		-7.812500
202		1.953125
203		-1.953125
204		3.906250
205		1.953125
206		7.812500
207		3.906250
208		11.718750
209		5.859375
210		15.625000
211		9.765625
212		17.578125
213		11.718750
214		21.484375
215		15.625000
216		25.390625
217		19.531250
218		29.296875
219		23.437500
220		29.296875
221		27.343750
222		33.203125
223		31.250000
224		37.109375
225		31.250000
226		41.015625
227		35.156250
228		42.968750
229		37.109375
230		44.921875
231		39.062500
232		48.828125
233		42.968750
234		50.781250
235		44.921875
236		54.687500
237		50.781250
238		54.687500
239		52.734375
240		56.640625
241		54.687500
242		58.593750
243		54.687500
244		60.546875
245		56.640625
246		62.500000
247		58.593750
248		64.453125
249		60.546875
250		66.406250
251		62.500000
252		68.359375
253		64.453125
254		68.359375
255		66.406250
256		68.359375
257		64.453125
258		72.265625
259		66.406250
260		72.265625
261		66.406250
262		74.218750
263		68.359375
264		74.218750
265		68.359375
266		74.218750
267		68.359375
268		74.218750
269		68.359375
270		74.218750
271		70.312500
272		72.265625
273		70.312500
274		72.265625
275		68.359375
276		74.218750
277		68.359375
278		74.218750
279		66.406250
280		74.218750
281		66.406250
282		74.218750
283		64.453125
284		72.265625
285		64.453125
286		70.312500
287		64.453125
288		68.359375
289		64.453125
290		66.406250
291		60.546875
292		66.406250
293		58.593750
294		66.406250
295		56.640625
296		64.453125
297		54.687500
298		62.500000
299		52.734375
300		60.546875
301		50.781250
302		58.593750
303		48.828125
304		56.640625
305		46.875000
306		50.781250
307		42.968750
308		48.828125
309		41.015625
310		48.828125
311		37.109375
312		46.875000
313		35.156250
314		42.968750
315		31.250000
316		41.015625
317		29.296875
318		37.109375
319		27.343750
320		35.156250
321		25.390625
322		29.296875
323		21.484375
324		25.390625
325		17.578125
326		25.390625
327		13.671875
328		23.437500
329		9.765625
330		19.531250
331		5.859375
332		15.625000
333		1.953125
334		11.718750
335		-1.953125
336		9.765625
337		-1.953125
338		5.859375
339		-5.859375
340		0.000000
341		-9.765625
342		-3.906250
343		-13.671875
344		-3.906250
345		-17.578125
346		-7.812500
347		-19.531250
348		-11.718750
349		-23.437500
350		-13.671875
351		-27.343750
352		-17.578125
353		-29.296875
354		-21.484375
355		-31.250000
356		-25.390625
357		-33.203125
358		-29.296875
359		-39.062500
360		-29.296875
361		-41.015625
362		-33.203125
363		-42.968750
364		-35.156250
365		-46.875000
366		-37.109375
367		-48.828125
368		-41.015625
369		-50.781250
370		-42.968750
371		-50.781250
372		-46.875000
373		-52.734375
374		-48.828125
375		-56.640625
376		-50.781250
377		-58.593750
378		-50.781250
379		-60.546875
380		-52.734375
381		-62.500000
382		-54.687500
383		-62.500000
384		-54.687500
385		-64.453125
386		-56.640625
387		-64.453125
388		-56.640625
389		-62.500000
390		-60.546875
391		-66.406250
392		-58.593750
393		-66.406250
394		-58.593750
395		-66.406250
396		-58.593750
397		-66.406250
398		-58.593750
399		-66.406250
400		-58.593750
401		-66.406250
402		-58.593750
403		-64.453125
404		-58.593750
405		-62.500000
406		-58.593750
407		-60.546875
408		-58.593750
409		-62.500000
410		-54.687500
411		-62.500000
412		-54.687500
413		-60.546875
414		-52.734375
415		-58.593750
416		-50.781250
417		-58.593750
418		-48.828125
419		-56.640625
420		-46.875000
421		-54.687500
422		-46.875000
423		-48.828125
424		-44.921875
425		-46.875000
426		-41.015625
427		-46.875000
428		-39.062500
429		-44.921875
430		-35.156250
431		-41.015625
432		-33.203125
433		-39.062500
434		-29.296875
435		-35.156250
436		-27.343750
437		-33.203125
438		-25.390625
439		-27.343750
440		-23.437500
441		-25.390625
442		-19.531250
443		-23.437500
444		-13.671875
445		-19.531250
446		-11.718750
447		-17.578125
448		-7.812500
449		-13.671875
450		-3.906250
451		-11.718750
452		-1.953125
453		-7.812500
454		1.953125
455		-3.906250
456		1.953125
457		1.953125
458		5.859375
459		3.906250
460		11.718750
461		5.859375
462		15.625000
463		9.765625
464		19.531250
465		11.718750
466		21.484375
467		15.625000
468		25.390625
469		19.531250
470		27.343750
471		21.484375
472		29.296875
473		27.343750
474		31.250000
475		31.250000
476		37.109375
477		31.250000
478		39.062500
479		35.156250
480		42.968750
481		37.109375
482		46.875000
483		39.062500
484		48.828125
485		42.968750
486		50.781250
487		44.921875
488		52.734375
489		48.828125
490		54.687500
491		52.734375
492		56.640625
493		52.734375
494		60.546875
495		52.734375
496		62.500000
497		56.640625
498		64.453125
499		58.593750
500		66.406250
501		58.593750
502		66.406250
503		60.546875
504		68.359375
505		62.500000
506		68.359375
507		66.406250
508		68.359375
509		64.453125
510		72.265625
511		66.406250
512		72.265625
513		66.406250
514		74.218750
515		66.406250
516		74.218750
517		66.406250
518		74.218750
519		68.359375
520		74.218750
521		68.359375
522		74.218750
523		70.312500
524		72.265625
525		70.312500
526		72.265625
527		68.359375
528		74.218750
529		68.359375
530		74.218750
531		66.406250
532		74.218750
533		66.406250
534		72.265625
535		64.453125
536		72.265625
537		64.453125
538		72.265625
539		62.500000
540		70.312500
541		64.453125
542		66.406250
543		60.546875
544		66.406250
545		58.593750
546		66.406250
547		56.640625
548		64.453125
549		54.687500
550		62.500000
551		52.734375
552		60.546875
553		50.781250
554		58.593750
555		48.828125
556		56.640625
557		48.828125
558		52.734375
559		44.921875
560		50.781250
561		41.015625
562		48.828125
563		37.109375
564		46.875000
565		35.156250
566		44.921875
567		33.203125
568		41.015625
569		29.296875
570		37.109375
571		27.343750
572		35.156250
573		25.390625
574		29.296875
575		21.484375
576		27.343750
577		15.625000
578		25.390625
579		13.671875
580		21.484375
581		9.765625
582		19.531250
583		7.812500
584		15.625000
585		3.906250
586		11.718750
587		0.000000
588		9.765625
589		-1.953125
590		5.859375
591		-3.906250
592		0.000000
593		-9.765625
594		-1.953125
595		-13.671875
596		-3.906250
597		-17.578125
598		-7.812500
599		-19.531250
600		-9.765625
601		-23.437500
602		-13.671875
603		-25.390625
604		-17.578125
605		-29.296875
606		-21.484375
607		-29.296875
608		-25.390625
609		-33.203125
610		-29.296875
611		-37.109375
612		-29.296875
613		-41.015625
614		-33.203125
615		-42.968750
616		-35.156250
617		-46.875000
618		-37.109375
619		-48.828125
620		-39.062500
621		-50.781250
622		-42.968750
623		-50.781250
624		-44.921875
625		-52.734375
626		-48.828125
627		-56.640625
628		-48.828125
629		-58.593750
630		-50.781250
631		-60.546875
632		-52.734375
633		-62.500000
634		-52.734375
635		-62.500000
636		-54.687500
637		-62.500000
638		-56.640625
639		-64.453125
640		-56.640625
641		-62.500000
642		-60.546875
643		-64.453125
644		-58.593750
645		-66.406250
646		-58.593750
647		-66.406250
648		-58.593750
649		-66.406250
650		-58.593750
651		-66.406250
652		-58.593750
653		-66.406250
654		-58.593750
655		-64.453125
656		-58.593750
657		-62.500000
658		-60.546875
659		-62.500000
660		-58.593750
661		-62.500000
662		-56.640625
663		-62.500000
664		-54.687500
665		-60.546875
666		-52.734375
667		-60.546875
668		-52.734375
669		-56.640625
670		-50.781250
671		-56.640625
672		-46.875000
673		-52.734375
674		-46.875000
675		-48.828125
676		-44.921875
677		-48.828125
678		-41.015625
679		-46.875000
680		-39.062500
681		-44.921875
682		-37.109375
683		-42.968750
684		-33.203125
685		-39.062500
686		-31.250000
687		-37.109375
688		-27.343750
689		-33.203125
690		-25.390625
691		-29.296875
692		-23.437500
693		-25.390625
694		-19.531250
695		-25.390625
696		-15.625000
697		-21.484375
698		-11.718750
699		-19.531250
700		-9.765625
701		-15.625000
702		-5.859375
703		-11.718750
704		-1.953125
705		-7.812500
706		1.953125
707		-3.906250
708		1.953125
709		1.953125
710		5.859375
711		3.906250
712		11.718750
713		5.859375
714		13.671875
715		7.812500
716		17.578125
717		11.718750
718		21.484375
719		15.625000
720		23.437500
721		17.578125
722		27.343750
723		21.484375
724		29.296875
725		27.343750
726		31.250000
727		29.296875
728		37.109375
729		31.250000
730		39.062500
731		33.203125
732		42.968750
733		37.109375
734		44.921875
735		39.062500
736		46.875000
737		41.015625
738		50.781250
739		44.921875
740		52.734375
741		48.828125
742		52.734375
743		50.781250
744		54.687500
745		52.734375
746		58.593750
747		52.734375
748		62.500000
749		54.687500
750		62.500000
751		56.640625
752		64.453125
753		58.593750
754		66.406250
755		60.546875
756		68.359375
757		62.500000
758		68.359375
759		66.406250
760		68.359375
761		64.453125
762		72.265625
763		66.406250
764		72.265625
765		66.406250
766		74.218750
767		66.406250
768		74.218750
769		68.359375
770		74.218750
771		68.359375
772		74.218750
773		68.359375
774		74.218750
775		70.312500
776		72.265625
777		70.312500
778		72.265625
779		66.406250
780		76.171875
781		66.406250
782		74.218750
783		66.406250
784		74.218750
785		66.406250
786		72.265625
787		66.406250
788		72.265625
789		64.453125
790		70.312500
791		64.453125
792		70.312500
793		64.453125
794		66.406250
795		60.546875
796		68.359375
797		58.593750
798		66.406250
799		56.640625
800		64.453125
801		54.687500
802		62.500000
803		52.734375
804		60.546875
805		50.781250
806		58.593750
807		48.828125
808		56.640625
809		48.828125
810		52.734375
811		44.921875
812		50.781250
813		41.015625
814		50.781250
815		39.062500
816		46.875000
817		37.109375
818		42.968750
819		33.203125
820		41.015625
821		29.296875
822		39.062500
823		27.343750
824		35.156250
825		25.390625
826		31.250000
827		23.437500
828		27.343750
829		17.578125
830		25.390625
831		13.671875
832		23.437500
833		9.765625
834		19.531250
835		7.812500
836		17.578125
837		3.906250
838		13.671875
839		0.000000
840		9.765625
841		0.000000
842		5.859375
843		-3.906250
844		0.000000
845		-7.812500
846		-1.953125
847		-11.718750
848		-3.906250
849		-15.625000
850		-7.812500
851		-19.531250
852		-9.765625
853		-23.437500
854		-13.671875
855		-25.390625
856		-17.578125
857		-27.343750
858		-19.531250
859		-29.296875
860		-25.390625
861		-33.203125
862		-27.343750
863		-37.109375
864		-29.296875
865		-41.015625
866		-31.250000
867		-42.968750
868		-35.156250
869		-44.921875
870		-37.109375
871		-46.875000
872		-41.015625
873		-50.781250
874		-41.015625
875		-50.781250
876		-44.921875
877		-52.734375
878		-48.828125
879		-56.640625
880		-48.828125
881		-58.593750
882		-50.781250
883		-58.593750
884		-52.734375
885		-60.546875
886		-52.734375
887		-62.500000
888		-54.687500
889		-64.453125
890		-56.640625
891		-64.453125
892		-56.640625
893		-62.500000
894		-60.546875
895		-62.500000
896		-60.546875
897		-66.406250
898		-58.593750
899		-66.406250
900		-58.593750
901		-66.406250
902		-58.593750
903		-66.406250
904		-58.593750
905		-66.406250
906		-58.593750
907		-64.453125
908		-58.593750
909		-62.500000
910		-58.593750
911		-60.546875
912		-58.593750
913		-62.500000
914		-54.687500
915		-60.546875
916		-54.687500
917		-60.546875
918		-52.734375
919		-58.593750
920		-50.781250
921		-56.640625
922		-48.828125
923		-56.640625
924		-46.875000
925		-54.687500
926		-46.875000
927		-48.828125
928		-44.921875
929		-46.875000
930		-41.015625
931		-46.875000
932		-39.062500
933		-44.921875
934		-35.156250
935		-41.015625
936		-33.203125
937		-39.062500
938		-31.250000
939		-37.109375
940		-27.343750
941		-33.203125
942		-25.390625
943		-29.296875
944		-23.437500
945		-25.390625
946		-21.484375
947		-25.390625
948		-15.625000
949		-21.484375
950		-11.718750
951		-19.531250
952		-9.765625
953		-15.625000
954		-5.859375
955		-11.718750
956		-1.953125
957		-7.812500
958		1.953125
959		-5.859375
960		1.953125
961		0.000000
962		5.859375
963		3.906250
964		11.718750
965		3.906250
966		13.671875
967		7.812500
968		17.578125
969		11.718750
970		21.484375
971		15.625000
972		25.390625
973		19.531250
974		27.343750
975		21.484375
976		29.296875
977		27.343750
978		31.250000
979		29.296875
980		35.156250
981		31.250000
982		39.062500
983		33.203125
984		42.968750
985		37.109375
986		44.921875
987		39.062500
988		46.875000
989		41.015625
990		50.781250
991		44.921875
992		52.734375
993		46.875000
994		52.734375
995		52.734375
996		54.687500
997		52.734375
998		60.546875
999		54.687500
1000		62.500000
1001		56.640625
1002		64.453125
1003		56.640625
1004		66.406250
1005		58.593750
1006		66.406250
1007		60.546875
1008		68.359375
1009		62.500000
1010		68.359375
1011		66.406250
1012		68.359375
1013		66.406250
1014		72.265625
1015		66.406250
1016		72.265625
1017		66.406250
1018		74.218750
1019		66.406250
1020		74.218750
1021		68.359375
1022		74.218750
1023		68.359375
1024		74.218750
1025		68.359375
1026		76.171875
1027		70.312500
1028		74.218750
1029		70.312500
1030		72.265625
1031		68.359375
1032		76.171875
1033		68.359375
1034		74.218750
1035		68.359375
1036		74.218750
1037		66.406250
1038		74.218750
1039		64.453125
1040		72.265625
1041		64.453125
1042		72.265625
1043		64.453125
1044		70.312500
1045		64.453125
1046		68.359375
1047		60.546875
1048		68.359375
1049		58.593750
1050		66.406250
1051		58.593750
1052		64.453125
1053		54.687500
1054		62.500000
1055		52.734375
1056		60.546875
1057		50.781250
1058		58.593750
1059		48.828125
1060		56.640625
1061		48.828125
1062		52.734375
1063		46.875000
1064		50.781250
1065		41.015625
1066		48.828125
1067		39.062500
1068		46.875000
1069		37.109375
1070		44.921875
1071		33.203125
1072		42.968750
1073		31.250000
1074		39.062500
1075		27.343750
1076		37.109375
1077		27.343750
1078		33.203125
1079		23.437500
1080		27.343750
1081		17.578125
1082		25.390625
1083		15.625000
1084		23.437500
1085		11.718750
1086		21.484375
1087		7.812500
1088		17.578125
1089		3.906250
1090		13.671875
1091		1.953125
1092		11.718750
1093		0.000000
1094		7.812500
1095		-1.953125
1096		1.953125
1097		-9.765625
1098		-1.953125
1099		-11.718750
1100		-1.953125
1101		-15.625000
1102		-5.859375
1103		-19.531250
1104		-9.765625
1105		-21.484375
1106		-11.718750
1107		-25.390625
1108		-15.625000
1109		-27.343750
1110		-19.531250
1111		-29.296875
1112		-23.437500
1113		-31.250000
1114		-27.343750
1115		-37.109375
1116		-29.296875
1117		-39.062500
1118		-31.250000
1119		-42.968750
1120		-33.203125
1121		-44.921875
1122		-35.156250
1123		-46.875000
1124		-39.062500
1125		-50.781250
1126		-41.015625
1127		-50.781250
1128		-42.968750
1129		-50.781250
1130		-46.875000
1131		-54.687500
1132		-48.828125
1133		-56.640625
1134		-48.828125
1135		-58.593750
1136		-50.781250
1137		-60.546875
1138		-52.734375
1139		-62.500000
1140		-54.687500
1141		-62.500000
1142		-56.640625
1143		-62.500000
1144		-56.640625
1145		-62.500000
1146		-58.593750
1147		-62.500000
1148		-60.546875
1149		-66.406250
1150		-58.593750
1151		-66.406250
1152		-58.593750
1153		-66.406250
1154		-58.593750
1155		-66.406250
1156		-58.593750
1157		-66.406250
1158		-58.593750
1159		-64.453125
1160		-58.593750
1161		-64.453125
1162		-58.593750
1163		-60.546875
1164		-58.593750
1165		-62.500000
1166		-54.687500
1167		-62.500000
1168		-54.687500
1169		-60.546875
1170		-52.734375
1171		-58.593750
1172		-50.781250
1173		-56.640625
1174		-48.828125
1175		-56.640625
1176		-46.875000
1177		-52.734375
1178		-46.875000
1179		-48.828125
1180		-44.921875
1181		-48.828125
1182		-42.968750
1183		-46.875000
1184		-39.062500
1185		-44.921875
1186		-37.109375
1187		-42.968750
1188		-33.203125
1189		-39.062500
1190		-31.250000
1191		-37.109375
1192		-27.343750
1193		-33.203125
1194		-25.390625
1195		-29.296875
1196		-23.437500
1197		-25.390625
1198		-21.484375
1199		-23.437500
1200		-15.625000
1201		-21.484375
1202		-11.718750
1203		-17.578125
1204		-9.765625
1205		-15.625000
1206		-5.859375
1207		-11.718750
1208		-1.953125
1209		-9.765625
1210		1.953125
1211		-5.859375
1212		1.953125
1213		0.000000
1214		5.859375
1215		3.906250
1216		11.718750
1217		5.859375
1218		13.671875
1219		7.812500
1220		17.578125
1221		11.718750
1222		19.531250
1223		13.671875
1224		23.437500
1225		17.578125
1226		27.343750
1227		21.484375
1228		29.296875
1229		27.343750
1230		31.250000
1231		29.296875
1232		35.156250
1233		31.250000
1234		39.062500
1235		33.203125
1236		42.968750
1237		37.109375
1238		46.875000
1239		39.062500
1240		48.828125
1241		42.968750
1242		50.781250
1243		42.968750
1244		52.734375
1245		46.875000
1246		52.734375
1247		50.781250
1248		54.687500
1249		52.734375
1250		58.593750
1251		52.734375
1252		62.500000
1253		54.687500
1254		62.500000
1255		56.640625
1256		66.406250
1257		58.593750
1258		66.406250
1259		60.546875
1260		68.359375
1261		62.500000
1262		68.359375
1263		66.406250
1264		68.359375
1265		66.406250
1266		70.312500
1267		66.406250
1268		72.265625
1269		66.406250
1270		74.218750
1271		68.359375
1272		74.218750
1273		68.359375
1274		74.218750
1275		68.359375
1276		76.171875
1277		68.359375
1278		76.171875
1279		70.312500
1280		74.218750
1281		70.312500
1282		74.218750
1283		68.359375
1284		76.171875
1285		68.359375
1286		74.218750
1287		68.359375
1288		74.218750
1289		66.406250
1290		74.218750
1291		66.406250
1292		72.265625
1293		64.453125
1294		72.265625
1295		64.453125
1296		70.312500
1297		64.453125
1298		68.359375
1299		60.546875
1300		68.359375
1301		58.593750
1302		66.406250
1303		56.640625
1304		66.406250
1305		56.640625
1306		64.453125
1307		54.687500
1308		62.500000
1309		52.734375
1310		60.546875
1311		50.781250
1312		58.593750
1313		50.781250
1314		52.734375
1315		46.875000
1316		50.781250
1317		42.968750
1318		50.781250
1319		41.015625
1320		48.828125
1321		37.109375
1322		44.921875
1323		35.156250
1324		42.968750
1325		31.250000
1326		39.062500
1327		29.296875
1328		37.109375
1329		27.343750
1330		35.156250
1331		23.437500
1332		29.296875
1333		19.531250
1334		25.390625
1335		15.625000
1336		25.390625
1337		11.718750
1338		21.484375
1339		9.765625
1340		17.578125
1341		5.859375
1342		15.625000
1343		1.953125
1344		11.718750
1345		1.953125
1346		7.812500
1347		-1.953125
1348		1.953125
1349		-5.859375
1350		0.000000
1351		-9.765625
1352		-1.953125
1353		-13.671875
1354		-5.859375
1355		-17.578125
1356		-7.812500
1357		-21.484375
1358		-11.718750
1359		-23.437500
1360		-15.625000
1361		-27.343750
1362		-17.578125
1363		-29.296875
1364		-23.437500
1365		-31.250000
1366		-27.343750
1367		-37.109375
1368		-29.296875
1369		-39.062500
1370		-29.296875
1371		-41.015625
1372		-33.203125
1373		-42.968750
1374		-35.156250
1375		-46.875000
1376		-37.109375
1377		-48.828125
1378		-41.015625
1379		-48.828125
1380		-42.968750
1381		-50.781250
1382		-46.875000
1383		-54.687500
1384		-48.828125
1385		-56.640625
1386		-48.828125
1387		-58.593750
1388		-50.781250
1389		-60.546875
1390		-52.734375
1391		-60.546875
1392		-52.734375
1393		-62.500000
1394		-54.687500
1395		-62.500000
1396		-56.640625
1397		-62.500000
1398		-58.593750
1399		-62.500000
1400		-58.593750
1401		-64.453125
1402		-58.593750
1403		-64.453125
1404		-58.593750
1405		-64.453125
1406		-58.593750
1407		-64.453125
1408		-58.593750
1409		-64.453125
1410		-58.593750
1411		-64.453125
1412		-56.640625
1413		-62.500000
1414		-56.640625
1415		-60.546875
1416		-58.593750
1417		-60.546875
1418		-54.687500
1419		-60.546875
1420		-54.687500
1421		-60.546875
1422		-52.734375
1423		-58.593750
1424		-50.781250
1425		-56.640625
1426		-48.828125
1427		-56.640625
1428		-46.875000
1429		-52.734375
1430		-46.875000
1431		-48.828125
1432		-44.921875
1433		-46.875000
1434		-42.968750
1435		-46.875000
1436		-39.062500
1437		-44.921875
1438		-37.109375
1439		-42.968750
1440		-33.203125
1441		-39.062500
1442		-31.250000
1443		-37.109375
1444		-27.343750
1445		-33.203125
1446		-25.390625
1447		-29.296875
1448		-23.437500
1449		-25.390625
1450		-21.484375
1451		-23.437500
1452		-15.625000
1453		-21.484375
1454		-11.718750
1455		-17.578125
1456		-9.765625
1457		-15.625000
1458		-5.859375
1459		-11.718750
1460		-1.953125
1461		-7.812500
1462		0.000000
1463		-5.859375
1464		1.953125
1465		0.000000
1466		5.859375
1467		3.906250
1468		9.765625
1469		5.859375
1470		13.671875
1471		7.812500
1472		17.578125
1473		11.718750
1474		21.484375
1475		15.625000
1476		23.437500
1477		17.578125
1478		27.343750
1479		21.484375
1480		29.296875
1481		27.343750
1482		31.250000
1483		29.296875
1484		35.156250
1485		31.250000
1486		39.062500
1487		35.156250
1488		42.968750
1489		37.109375
1490		44.921875
1491		39.062500
1492		46.875000
1493		42.968750
1494		50.781250
1495		44.921875
1496		52.734375
1497		46.875000
1498		52.734375
1499		52.734375
1500		54.687500
1501		52.734375
1502		58.593750
1503		54.687500
1504		62.500000
1505		56.640625
1506		62.500000
1507		56.640625
1508		64.453125
1509		60.546875
1510		66.406250
1511		60.546875
1512		68.359375
1513		62.500000
1514		70.312500
1515		66.406250
1516		68.359375
1517		66.406250
1518		70.312500
1519		66.406250
1520		72.265625
1521		66.406250
1522		74.218750
1523		68.359375
1524		74.218750
1525		68.359375
1526		76.171875
1527		68.359375
1528		76.171875
1529		68.359375
1530		76.171875
1531		72.265625
1532		74.218750
1533		72.265625
1534		74.218750
1535		68.359375
1536		76.171875
1537		68.359375
1538		76.171875
1539		68.359375
1540		74.218750
1541		66.406250
1542		74.218750
1543		66.406250
1544		74.218750
1545		66.406250
1546		72.265625
1547		64.453125
1548		72.265625
1549		64.453125
1550		68.359375
1551		62.500000
1552		68.359375
1553		60.546875
1554		68.359375
1555		58.593750
1556		66.406250
1557		56.640625
1558		64.453125
1559		54.687500
1560		62.500000
1561		52.734375
1562		60.546875
1563		50.781250
1564		58.593750
1565		50.781250
1566		54.687500
1567		48.828125
1568		52.734375
1569		42.968750
1570		50.781250
1571		41.015625
1572		48.828125
1573		37.109375
1574		46.875000
1575		35.156250
1576		42.968750
1577		31.250000
1578		41.015625
1579		29.296875
1580		37.109375
1581		27.343750
1582		35.156250
1583		25.390625
1584		29.296875
1585		19.531250
1586		27.343750
1587		15.625000
1588		25.390625
1589		13.671875
1590		21.484375
1591		9.765625
1592		19.531250
1593		5.859375
1594		15.625000
1595		3.906250
1596		11.718750
1597		0.000000
1598		7.812500
1599		-1.953125
1600		3.906250
1601		-7.812500
1602		0.000000
1603		-9.765625
1604		-1.953125
1605		-13.671875
1606		-5.859375
1607		-17.578125
1608		-7.812500
1609		-19.531250
1610		-11.718750
1611		-23.437500
1612		-15.625000
1613		-27.343750
1614		-17.578125
1615		-27.343750
1616		-21.484375
1617		-31.250000
1618		-25.390625
1619		-35.156250
1620		-27.343750
1621		-39.062500
1622		-29.296875
1623		-41.015625
1624		-33.203125
1625		-44.921875
1626		-35.156250
1627		-46.875000
1628		-37.109375
1629		-48.828125
1630		-41.015625
1631		-48.828125
1632		-42.968750
1633		-50.781250
1634		-46.875000
1635		-54.687500
1636		-48.828125
1637		-56.640625
1638		-48.828125
1639		-58.593750
1640		-50.781250
1641		-58.593750
1642		-50.781250
1643		-60.546875
1644		-52.734375
1645		-62.500000
1646		-54.687500
1647		-62.500000
1648		-54.687500
1649		-60.546875
1650		-58.593750
1651		-62.500000
1652		-60.546875
1653		-64.453125
1654		-58.593750
1655		-64.453125
1656		-58.593750
1657		-64.453125
1658		-58.593750
1659		-64.453125
1660		-58.593750
1661		-64.453125
1662		-58.593750
1663		-64.453125
1664		-56.640625
1665		-64.453125
1666		-56.640625
1667		-60.546875
1668		-58.593750
1669		-62.500000
1670		-54.687500
1671		-60.546875
1672		-54.687500
1673		-60.546875
1674		-52.734375
1675		-58.593750
1676		-50.781250
1677		-56.640625
1678		-50.781250
1679		-54.687500
1680		-48.828125
1681		-52.734375
1682		-46.875000
1683		-48.828125
1684		-44.921875
1685		-46.875000
1686		-42.968750
1687		-46.875000
1688		-39.062500
1689		-44.921875
1690		-37.109375
1691		-42.968750
1692		-33.203125
1693		-39.062500
1694		-31.250000
1695		-37.109375
1696		-27.343750
1697		-33.203125
1698		-25.390625
1699		-29.296875
1700		-25.390625
1701		-25.390625
1702		-21.484375
1703		-23.437500
1704		-17.578125
1705		-21.484375
1706		-13.671875
1707		-19.531250
1708		-9.765625
1709		-15.625000
1710		-5.859375
1711		-11.718750
1712		-3.906250
1713		-7.812500
1714		0.000000
1715		-5.859375
1716		1.953125
1717		0.000000
1718		3.906250
1719		3.906250
1720		9.765625
1721		3.906250
1722		13.671875
1723		7.812500
1724		17.578125
1725		11.718750
1726		21.484375
1727		13.671875
1728		23.437500
1729		17.578125
1730		27.343750
1731		21.484375
1732		29.296875
1733		27.343750
1734		31.250000
1735		29.296875
1736		33.203125
1737		31.250000
1738		39.062500
1739		33.203125
1740		41.015625
1741		35.156250
1742		44.921875
1743		39.062500
1744		46.875000
1745		41.015625
1746		50.781250
1747		44.921875
1748		52.734375
1749		46.875000
1750		52.734375
1751		50.781250
1752		54.687500
1753		52.734375
1754		58.593750
1755		52.734375
1756		60.546875
1757		56.640625
1758		62.500000
1759		56.640625
1760		64.453125
1761		58.593750
1762		66.406250
1763		60.546875
1764		68.359375
1765		62.500000
1766		70.312500
1767		66.406250
1768		68.359375
1769		68.359375
1770		70.312500
1771		66.406250
1772		72.265625
1773		66.406250
1774		74.218750
1775		68.359375
1776		74.218750
1777		68.359375
1778		76.171875
1779		68.359375
1780		76.171875
1781		68.359375
1782		76.171875
1783		70.312500
1784		76.171875
1785		72.265625
1786		74.218750
1787		68.359375
1788		76.171875
1789		68.359375
1790		76.171875
1791		68.359375
1792		76.171875
1793		68.359375
1794		74.218750
1795		66.406250
1796		74.218750
1797		66.406250
1798		74.218750
1799		64.453125
1800		72.265625
1801		66.406250
1802		68.359375
1803		62.500000
1804		66.406250
1805		60.546875
1806		68.359375
1807		58.593750
1808		66.406250
1809		56.640625
1810		64.453125
1811		54.687500
1812		62.500000
1813		52.734375
1814		60.546875
1815		50.781250
1816		58.593750
1817		50.781250
1818		54.687500
1819		48.828125
1820		52.734375
1821		42.968750
1822		50.781250
1823		41.015625
1824		48.828125
1825		39.062500
1826		46.875000
1827		35.156250
1828		44.921875
1829		33.203125
1830		41.015625
1831		29.296875
1832		39.062500
1833		29.296875
1834		35.156250
1835		25.390625
1836		29.296875
1837		19.531250
1838		27.343750
1839		17.578125
1840		25.390625
1841		13.671875
1842		23.437500
1843		11.718750
1844		19.531250
1845		5.859375
1846		15.625000
1847		3.906250
1848		13.671875
1849		1.953125
1850		9.765625
1851		-1.953125
1852		3.906250
1853		-3.906250
1854		0.000000
1855		-9.765625
1856		-1.953125
1857		-13.671875
1858		-3.906250
1859		-15.625000
1860		-7.812500
1861		-19.531250
1862		-9.765625
1863		-23.437500
1864		-13.671875
1865		-25.390625
1866		-15.625000
1867		-27.343750
1868		-19.531250
1869		-29.296875
1870		-25.390625
1871		-35.156250
1872		-27.343750
1873		-37.109375
1874		-29.296875
1875		-39.062500
1876		-31.250000
1877		-42.968750
1878		-35.156250
1879		-46.875000
1880		-37.109375
1881		-48.828125
1882		-39.062500
1883		-48.828125
1884		-41.015625
1885		-48.828125
1886		-46.875000
1887		-52.734375
1888		-48.828125
1889		-56.640625
1890		-48.828125
1891		-56.640625
1892		-48.828125
1893		-58.593750
1894		-50.781250
1895		-60.546875
1896		-52.734375
1897		-62.500000
1898		-52.734375
1899		-62.500000
1900		-54.687500
1901		-60.546875
1902		-58.593750
1903		-60.546875
1904		-58.593750
1905		-64.453125
1906		-56.640625
1907		-64.453125
1908		-58.593750
1909		-64.453125
1910		-58.593750
1911		-64.453125
1912		-56.640625
1913		-64.453125
1914		-56.640625
1915		-64.453125
1916		-56.640625
1917		-64.453125
1918		-56.640625
1919		-60.546875
1920		-58.593750
1921		-60.546875
1922		-54.687500
1923		-60.546875
1924		-54.687500
1925		-58.593750
1926		-52.734375
1927		-58.593750
1928		-52.734375
1929		-56.640625
1930		-50.781250
1931		-54.687500
1932		-46.875000
1933		-52.734375
1934		-46.875000
1935		-48.828125
1936		-44.921875
1937		-46.875000
1938		-42.968750
1939		-46.875000
1940		-39.062500
1941		-44.921875
1942		-37.109375
1943		-42.968750
1944		-33.203125
1945		-39.062500
1946		-31.250000
1947		-37.109375
1948		-29.296875
1949		-33.203125
1950		-25.390625
1951		-31.250000
1952		-23.437500
1953		-25.390625
1954		-21.484375
1955		-23.437500
1956		-15.625000
1957		-21.484375
1958		-11.718750
1959		-19.531250
1960		-9.765625
1961		-15.625000
1962		-5.859375
1963		-11.718750
1964		-3.906250
1965		-9.765625
1966		0.000000
1967		-5.859375
1968		1.953125
1969		0.000000
1970		3.906250
1971		3.906250
1972		9.765625
1973		3.906250
1974		13.671875
1975		7.812500
1976		17.578125
1977		11.718750
1978		19.531250
1979		13.671875
1980		23.437500
1981		17.578125
1982		27.343750
1983		21.484375
1984		29.296875
1985		25.390625
1986		31.250000
1987		29.296875
1988		33.203125
1989		31.250000
1990		39.062500
1991		33.203125
1992		41.015625
1993		37.109375
1994		44.921875
1995		39.062500
1996		46.875000
1997		41.015625
1998		50.781250
1999		44.921875
2000		52.734375
2001		46.875000
2002		52.734375
2003		50.781250
2004		54.687500
2005		52.734375
2006		58.593750
2007		52.734375
2008		62.500000
2009		54.687500
2010		64.453125
2011		56.640625
2012		66.406250
2013		58.593750
2014		66.406250
2015		60.546875
2016		70.312500
2017		62.500000
2018		70.312500
2019		66.406250
2020		68.359375
2021		66.406250
2022		70.312500
2023		66.406250
2024		72.265625
2025		66.406250
2026		74.218750
2027		68.359375
2028		74.218750
2029		68.359375
2030		76.171875
2031		68.359375
2032		76.171875
2033		68.359375
2034		76.171875
2035		70.312500
2036		76.171875
2037		72.265625
2038		74.218750
2039		68.359375
2040		76.171875
2041		68.359375
2042		76.171875
2043		68.359375
2044		74.218750
2045		66.406250
2046		74.218750
2047		66.406250
2048		74.218750
2049		66.406250
2050		74.218750
2051		64.453125
2052		72.265625
2053		66.406250
2054		68.359375
2055		64.453125
2056		68.359375
2057		60.546875
2058		68.359375
2059		60.546875
2060		66.406250
2061		58.593750
2062		64.453125
2063		56.640625
2064		64.453125
2065		52.734375
2066		60.546875
2067		50.781250
2068		58.593750
2069		50.781250
2070		54.687500
2071		48.828125
2072		52.734375
2073		44.921875
2074		50.781250
2075		41.015625
2076		50.781250
2077		39.062500
2078		46.875000
2079		35.156250
2080		44.921875
2081		33.203125
2082		41.015625
2083		31.250000
2084		39.062500
2085		29.296875
2086		35.156250
2087		25.390625
2088		31.250000
2089		21.484375
2090		27.343750
2091		15.625000
2092		25.390625
2093		13.671875
2094		23.437500
2095		11.718750
2096		19.531250
2097		7.812500
2098		15.625000
2099		3.906250
2100		11.718750
2101		1.953125
2102		9.765625
2103		0.000000
2104		3.906250
2105		-3.906250
2106		1.953125
2107		-7.812500
2108		-1.953125
2109		-11.718750
2110		-3.906250
2111		-15.625000
2112		-7.812500
2113		-19.531250
2114		-9.765625
2115		-21.484375
2116		-13.671875
2117		-25.390625
2118		-17.578125
2119		-25.390625
2120		-19.531250
2121		-29.296875
2122		-25.390625
2123		-35.156250
2124		-27.343750
2125		-37.109375
2126		-29.296875
2127		-39.062500
2128		-31.250000
2129		-42.968750
2130		-35.156250
2131		-44.921875
2132		-37.109375
2133		-46.875000
2134		-39.062500
2135		-48.828125
2136		-41.015625
2137		-48.828125
2138		-46.875000
2139		-52.734375
2140		-46.875000
2141		-52.734375
2142		-48.828125
2143		-58.593750
2144		-50.781250
2145		-56.640625
2146		-52.734375
2147		-60.546875
2148		-52.734375
2149		-60.546875
2150		-54.687500
2151		-62.500000
2152		-54.687500
2153		-60.546875
2154		-58.593750
2155		-60.546875
2156		-58.593750
2157		-62.500000
2158		-58.593750
2159		-62.500000
2160		-58.593750
2161		-64.453125
2162		-58.593750
2163		-64.453125
2164		-58.593750
2165		-64.453125
2166		-58.593750
2167		-64.453125
2168		-58.593750
2169		-62.500000
2170		-58.593750
2171		-60.546875
2172		-58.593750
2173		-60.546875
2174		-56.640625
2175		-60.546875
2176		-54.687500
2177		-58.593750
2178		-54.687500
2179		-56.640625
2180		-52.734375
2181		-54.687500
2182		-48.828125
2183		-54.687500
2184		-50.781250
2185		-54.687500
2186		-46.875000
2187		-50.781250
2188		-46.875000
2189		-46.875000
2190		-42.968750
2191		-44.921875
2192		-41.015625
2193		-42.968750
2194		-39.062500
2195		-41.015625
2196		-37.109375
2197		-37.109375
2198		-33.203125
2199		-35.156250
2200		-31.250000
2201		-33.203125
2202		-27.343750
2203		-31.250000
2204		-25.390625
2205		-27.343750
2206		-21.484375
2207		-23.437500
2208		-19.531250
2209		-19.531250
2210		-15.625000
2211		-17.578125
2212		-11.718750
2213		-13.671875
2214		-9.765625
2215		-9.765625
2216		-5.859375
2217		-7.812500
2218		-1.953125
2219		-3.906250
2220		0.000000
2221		0.000000
2222		3.906250
2223		1.953125
2224		7.812500
2225		3.906250
2226		9.765625
2227		9.765625
2228		13.671875
2229		13.671875
2230		17.578125
2231		15.625000
2232		21.484375
2233		19.531250
2234		25.390625
2235		23.437500
2236		27.343750
2237		23.437500
2238		29.296875
2239		29.296875
2240		33.203125
2241		31.250000
2242		37.109375
2243		33.203125
2244		39.062500
2245		37.109375
2246		42.968750
2247		41.015625
2248		44.921875
2249		42.968750
2250		48.828125
2251		44.921875
2252		50.781250
2253		48.828125
2254		52.734375
2255		50.781250
2256		54.687500
2257		52.734375
2258		58.593750
2259		54.687500
2260		60.546875
2261		56.640625
2262		60.546875
2263		58.593750
2264		64.453125
2265		60.546875
2266		64.453125
2267		62.500000
2268		66.406250
2269		64.453125
2270		68.359375
2271		66.406250
2272		68.359375
2273		68.359375
2274		70.312500
2275		66.406250
2276		72.265625
2277		68.359375
2278		72.265625
2279		70.312500
2280		72.265625
2281		70.312500
2282		74.218750
2283		70.312500
2284		74.218750
2285		72.265625
2286		74.218750
2287		72.265625
2288		74.218750
2289		72.265625
2290		74.218750
2291		70.312500
2292		74.218750
2293		70.312500
2294		74.218750
2295		70.312500
2296		74.218750
2297		70.312500
2298		72.265625
2299		68.359375
2300		72.265625
2301		68.359375
2302		72.265625
2303		66.406250
2304		70.312500
2305		66.406250
2306		70.312500
2307		64.453125
2308		68.359375
2309		64.453125
2310		68.359375
2311		60.546875
2312		66.406250
2313		60.546875
2314		64.453125
2315		58.593750
2316		62.500000
2317		56.640625
2318		60.546875
2319		54.687500
2320		58.593750
2321		52.734375
2322		56.640625
2323		48.828125
2324		52.734375
2325		46.875000
2326		50.781250
2327		44.921875
2328		48.828125
2329		41.015625
2330		46.875000
2331		39.062500
2332		42.968750
2333		35.156250
2334		41.015625
2335		33.203125
2336		37.109375
2337		29.296875
2338		35.156250
2339		27.343750
2340		31.250000
2341		21.484375
2342		29.296875
2343		19.531250
2344		25.390625
2345		17.578125
2346		21.484375
2347		13.671875
2348		19.531250
2349		9.765625
2350		15.625000
2351		5.859375
2352		13.671875
2353		3.906250
2354		7.812500
2355		0.000000
2356		5.859375
2357		-1.953125
2358		1.953125
2359		-5.859375
2360		0.000000
2361		-9.765625
2362		-3.906250
2363		-13.671875
2364		-7.812500
2365		-15.625000
2366		-11.718750
2367		-19.531250
2368		-13.671875
2369		-21.484375
2370		-17.578125
2371		-25.390625
2372		-19.531250
2373		-27.343750
2374		-23.437500
2375		-33.203125
2376		-27.343750
2377		-35.156250
2378		-29.296875
2379		-37.109375
2380		-31.250000
2381		-39.062500
2382		-35.156250
2383		-42.968750
2384		-37.109375
2385		-44.921875
2386		-41.015625
2387		-46.875000
2388		-42.968750
2389		-48.828125
2390		-44.921875
2391		-50.781250
2392		-46.875000
2393		-52.734375
2394		-48.828125
2395		-54.687500
2396		-50.781250
2397		-56.640625
2398		-52.734375
2399		-56.640625
2400		-54.687500
2401		-58.593750
2402		-54.687500
2403		-60.546875
2404		-56.640625
2405		-60.546875
2406		-56.640625
2407		-60.546875
2408		-58.593750
2409		-62.500000
2410		-58.593750
2411		-62.500000
2412		-58.593750
2413		-62.500000
2414		-60.546875
2415		-62.500000
2416		-58.593750
2417		-62.500000
2418		-58.593750
2419		-62.500000
2420		-58.593750
2421		-62.500000
2422		-58.593750
2423		-60.546875
2424		-58.593750
2425		-60.546875
2426		-56.640625
2427		-58.593750
2428		-54.687500
2429		-58.593750
2430		-54.687500
2431		-56.640625
2432		-52.734375
2433		-54.687500
2434		-50.781250
2435		-54.687500
2436		-50.781250
2437		-52.734375
2438		-46.875000
2439		-48.828125
2440		-46.875000
2441		-46.875000
2442		-44.921875
2443		-46.875000
2444		-41.015625
2445		-42.968750
2446		-39.062500
2447		-41.015625
2448		-37.109375
2449		-37.109375
2450		-33.203125
2451		-35.156250
2452		-31.250000
2453		-33.203125
2454		-29.296875
2455		-31.250000
2456		-25.390625
2457		-27.343750
2458		-21.484375
2459		-23.437500
2460		-19.531250
2461		-19.531250
2462		-15.625000
2463		-17.578125
2464		-11.718750
2465		-13.671875
2466		-9.765625
2467		-11.718750
2468		-5.859375
2469		-7.812500
2470		-3.906250
2471		-3.906250
2472		0.000000
2473		0.000000
2474		3.906250
2475		1.953125
2476		7.812500
2477		5.859375
2478		9.765625
2479		9.765625
2480		13.671875
2481		11.718750
2482		17.578125
2483		15.625000
2484		21.484375
2485		19.531250
2486		23.437500
2487		21.484375
2488		27.343750
2489		25.390625
2490		29.296875
2491		29.296875
2492		33.203125
2493		31.250000
2494		37.109375
2495		35.156250
2496		41.015625
2497		37.109375
2498		41.015625
2499		39.062500
2500		44.921875
2501		42.968750
2502		46.875000
2503		44.921875
2504		50.781250
2505		48.828125
2506		52.734375
2507		50.781250
2508		54.687500
2509		52.734375
2510		56.640625
2511		54.687500
2512		58.593750
2513		56.640625
2514		60.546875
2515		58.593750
2516		62.500000
2517		60.546875
2518		64.453125
2519		62.500000
2520		66.406250
2521		64.453125
2522		68.359375
2523		66.406250
2524		68.359375
2525		66.406250
2526		70.312500
2527		66.406250
2528		72.265625
2529		68.359375
2530		72.265625
2531		70.312500
2532		72.265625
2533		70.312500
2534		74.218750
2535		70.312500
2536		74.218750
2537		72.265625
2538		74.218750
2539		70.312500
2540		74.218750
2541		72.265625
2542		74.218750
2543		72.265625
2544		74.218750
2545		70.312500
2546		74.218750
2547		70.312500
2548		74.218750
2549		70.312500
2550		74.218750
2551		70.312500
2552		72.265625
2553		68.359375
2554		72.265625
2555		66.406250
2556		72.265625
2557		66.406250
2558		70.312500
2559		66.406250
2560		68.359375
2561		62.500000
2562		68.359375
2563		62.500000
2564		66.406250
2565		60.546875
2566		64.453125
2567		58.593750
2568		62.500000
2569		56.640625
2570		60.546875
2571		54.687500
2572		58.593750
2573		52.734375
2574		56.640625
2575		50.781250
2576		52.734375
2577		46.875000
2578		50.781250
2579		42.968750
2580		48.828125
2581		41.015625
2582		46.875000
2583		39.062500
2584		42.968750
2585		37.109375
2586		41.015625
2587		33.203125
2588		39.062500
2589		29.296875
2590		35.156250
2591		27.343750
2592		31.250000
2593		23.437500
2594		29.296875
2595		19.531250
2596		27.343750
2597		17.578125
2598		23.437500
2599		13.671875
2600		19.531250
2601		11.718750
2602		15.625000
2603		7.812500
2604		13.671875
2605		1.953125
2606		9.765625
2607		1.953125
2608		5.859375
2609		-1.953125
2610		1.953125
2611		-5.859375
2612		-1.953125
2613		-9.765625
2614		-3.906250
2615		-13.671875
2616		-7.812500
2617		-15.625000
2618		-11.718750
2619		-19.531250
2620		-13.671875
2621		-21.484375
2622		-17.578125
2623		-25.390625
2624		-19.531250
2625		-27.343750
2626		-23.437500
2627		-31.250000
2628		-27.343750
2629		-33.203125
2630		-29.296875
2631		-37.109375
2632		-33.203125
2633		-39.062500
2634		-35.156250
2635		-42.968750
2636		-37.109375
2637		-44.921875
2638		-41.015625
2639		-46.875000
2640		-42.968750
2641		-48.828125
2642		-44.921875
2643		-50.781250
2644		-46.875000
2645		-52.734375
2646		-48.828125
2647		-54.687500
2648		-50.781250
2649		-56.640625
2650		-52.734375
2651		-58.593750
2652		-54.687500
2653		-58.593750
2654		-54.687500
2655		-60.546875
2656		-56.640625
2657		-60.546875
2658		-56.640625
2659		-60.546875
2660		-58.593750
2661		-62.500000
2662		-58.593750
2663		-62.500000
2664		-58.593750
2665		-62.500000
2666		-58.593750
2667		-62.500000
2668		-58.593750
2669		-62.500000
2670		-58.593750
2671		-62.500000
2672		-58.593750
2673		-62.500000
2674		-58.593750
2675		-60.546875
2676		-58.593750
2677		-60.546875
2678		-56.640625
2679		-58.593750
2680		-56.640625
2681		-58.593750
2682		-54.687500
2683		-56.640625
2684		-52.734375
2685		-54.687500
2686		-52.734375
2687		-52.734375
2688		-50.781250
2689		-52.734375
2690		-46.875000
2691		-48.828125
2692		-46.875000
2693		-46.875000
2694		-44.921875
2695		-46.875000
2696		-41.015625
2697		-42.968750
2698		-39.062500
2699		-41.015625
2700		-37.109375
2701		-39.062500
2702		-35.156250
2703		-35.156250
2704		-31.250000
2705		-33.203125
2706		-27.343750
2707		-31.250000
2708		-25.390625
2709		-27.343750
2710		-23.437500
2711		-23.437500
2712		-17.578125
2713		-21.484375
2714		-15.625000
2715		-17.578125
2716		-13.671875
2717		-15.625000
2718		-9.765625
2719		-11.718750
2720		-5.859375
2721		-7.812500
2722		-3.906250
2723		-5.859375
2724		0.000000
2725		-1.953125
2726		3.906250
2727		1.953125
2728		7.812500
2729		5.859375
2730		9.765625
2731		7.812500
2732		13.671875
2733		11.718750
2734		17.578125
2735		15.625000
2736		21.484375
2737		19.531250
2738		23.437500
2739		21.484375
2740		27.343750
2741		23.437500
2742		29.296875
2743		29.296875
2744		33.203125
2745		31.250000
2746		37.109375
2747		35.156250
2748		39.062500
2749		37.109375
2750		41.015625
2751		39.062500
2752		44.921875
2753		42.968750
2754		46.875000
2755		44.921875
2756		50.781250
2757		48.828125
2758		52.734375
2759		50.781250
2760		54.687500
2761		52.734375
2762		56.640625
2763		54.687500
2764		58.593750
2765		56.640625
2766		60.546875
2767		58.593750
2768		62.500000
2769		60.546875
2770		64.453125
2771		62.500000
2772		66.406250
2773		64.453125
2774		68.359375
2775		66.406250
2776		68.359375
2777		66.406250
2778		70.312500
2779		66.406250
2780		72.265625
2781		68.359375
2782		72.265625
2783		70.312500
2784		72.265625
2785		70.312500
2786		74.218750
2787		70.312500
2788		74.218750
2789		72.265625
2790		74.218750
2791		70.312500
2792		76.171875
2793		72.265625
2794		74.218750
2795		70.312500
2796		74.218750
2797		72.265625
2798		74.218750
2799		72.265625
2800		74.218750
2801		70.312500
2802		74.218750
2803		70.312500
2804		74.218750
2805		68.359375
2806		72.265625
2807		66.406250
2808		72.265625
2809		66.406250
2810		70.312500
2811		66.406250
2812		68.359375
2813		64.453125
2814		68.359375
2815		62.500000
2816		66.406250
2817		60.546875
2818		64.453125
2819		58.593750
2820		62.500000
2821		56.640625
2822		62.500000
2823		54.687500
2824		58.593750
2825		52.734375
2826		56.640625
2827		50.781250
2828		54.687500
2829		46.875000
2830		52.734375
2831		44.921875
2832		50.781250
2833		42.968750
2834		46.875000
2835		41.015625
2836		44.921875
2837		37.109375
2838		42.968750
2839		33.203125
2840		39.062500
2841		31.250000
2842		35.156250
2843		27.343750
2844		33.203125
2845		25.390625
2846		29.296875
2847		21.484375
2848		27.343750
2849		17.578125
2850		23.437500
2851		15.625000
2852		19.531250
2853		11.718750
2854		17.578125
2855		7.812500
2856		13.671875
2857		5.859375
2858		11.718750
2859		1.953125
2860		7.812500
2861		-1.953125
2862		3.906250
2863		-3.906250
2864		0.000000
2865		-7.812500
2866		-3.906250
2867		-11.718750
2868		-5.859375
2869		-15.625000
2870		-9.765625
2871		-17.578125
2872		-13.671875
2873		-21.484375
2874		-15.625000
2875		-23.437500
2876		-19.531250
2877		-27.343750
2878		-23.437500
2879		-31.250000
2880		-25.390625
2881		-33.203125
2882		-27.343750
2883		-35.156250
2884		-31.250000
2885		-39.062500
2886		-33.203125
2887		-41.015625
2888		-37.109375
2889		-42.968750
2890		-39.062500
2891		-46.875000
2892		-41.015625
2893		-46.875000
2894		-42.968750
2895		-50.781250
2896		-46.875000
2897		-52.734375
2898		-46.875000
2899		-52.734375
2900		-48.828125
2901		-56.640625
2902		-50.781250
2903		-56.640625
2904		-52.734375
2905		-58.593750
2906		-54.687500
2907		-58.593750
2908		-54.687500
2909		-60.546875
2910		-56.640625
2911		-60.546875
2912		-58.593750
2913		-62.500000
2914		-56.640625
2915		-62.500000
2916		-58.593750
2917		-62.500000
2918		-58.593750
2919		-62.500000
2920		-58.593750
2921		-62.500000
2922		-58.593750
2923		-62.500000
2924		-58.593750
2925		-62.500000
2926		-58.593750
2927		-60.546875
2928		-58.593750
2929		-60.546875
2930		-56.640625
2931		-58.593750
2932		-54.687500
2933		-58.593750
2934		-54.687500
2935		-56.640625
2936		-52.734375
2937		-56.640625
2938		-50.781250
2939		-54.687500
2940		-50.781250
2941		-52.734375
2942		-46.875000
2943		-50.781250
2944		-46.875000
2945		-46.875000
2946		-44.921875
2947		-44.921875
2948		-41.015625
2949		-42.968750
2950		-39.062500
2951		-41.015625
2952		-37.109375
2953		-39.062500
2954		-33.203125
2955		-35.156250
2956		-31.250000
2957		-33.203125
2958		-29.296875
2959		-31.250000
2960		-25.390625
2961		-27.343750
2962		-23.437500
2963		-25.390625
2964		-19.531250
2965		-21.484375
2966		-15.625000
2967		-17.578125
2968		-13.671875
2969		-15.625000
2970		-9.765625
2971		-11.718750
2972		-7.812500
2973		-7.812500
2974		-3.906250
2975		-3.906250
2976		0.000000
2977		-1.953125
2978		3.906250
2979		1.953125
2980		5.859375
2981		5.859375
2982		9.765625
2983		7.812500
2984		13.671875
2985		11.718750
2986		17.578125
2987		15.625000
2988		19.531250
2989		17.578125
2990		23.437500
2991		21.484375
2992		27.343750
2993		25.390625
2994		29.296875
2995		27.343750
2996		33.203125
2997		31.250000
2998		37.109375
2999		35.156250
3000		39.062500
3001		37.109375
3002		41.015625
3003		39.062500
3004		44.921875
3005		42.968750
3006		46.875000
3007		44.921875
3008		48.828125
3009		46.875000
3010		52.734375
3011		50.781250
3012		54.687500
3013		52.734375
3014		56.640625
3015		54.687500
3016		58.593750
3017		56.640625
3018		62.500000
3019		58.593750
3020		62.500000
3021		60.546875
3022		64.453125
3023		62.500000
3024		66.406250
3025		64.453125
3026		68.359375
3027		64.453125
3028		68.359375
3029		66.406250
3030		70.312500
3031		66.406250
3032		72.265625
3033		70.312500
3034		72.265625
3035		70.312500
3036		72.265625
3037		70.312500
3038		74.218750
3039		70.312500
3040		74.218750
3041		70.312500
3042		74.218750
3043		72.265625
3044		76.171875
3045		72.265625
3046		74.218750
3047		70.312500
3048		76.171875
3049		72.265625
3050		74.218750
3051		70.312500
3052		74.218750
3053		70.312500
3054		74.218750
3055		70.312500
3056		72.265625
3057		68.359375
3058		72.265625
3059		66.406250
3060		72.265625
3061		66.406250
3062		70.312500
3063		66.406250
3064		68.359375
3065		62.500000
3066		68.359375
3067		62.500000
3068		66.406250
3069		60.546875
3070		66.406250
3071		58.593750
3072		62.500000
3073		56.640625
3074		62.500000
3075		54.687500
3076		58.593750
3077		52.734375
3078		56.640625
3079		50.781250
3080		54.687500
3081		48.828125
3082		52.734375
3083		44.921875
3084		50.781250
3085		42.968750
3086		46.875000
3087		41.015625
3088		44.921875
3089		37.109375
3090		42.968750
3091		35.156250
3092		39.062500
3093		31.250000
3094		37.109375
3095		29.296875
3096		33.203125
3097		25.390625
3098		29.296875
3099		21.484375
3100		27.343750
3101		19.531250
3102		23.437500
3103		15.625000
3104		19.531250
3105		11.718750
3106		17.578125
3107		9.765625
3108		13.671875
3109		5.859375
3110		11.718750
3111		1.953125
3112		7.812500
3113		-1.953125
3114		3.906250
3115		-3.906250
3116		0.000000
3117		-7.812500
3118		-1.953125
3119		-11.718750
3120		-5.859375
3121		-15.625000
3122		-9.765625
3123		-17.578125
3124		-13.671875
3125		-21.484375
3126		-15.625000
3127		-23.437500
3128		-19.531250
3129		-27.343750
3130		-21.484375
3131		-31.250000
3132		-25.390625
3133		-33.203125
3134		-29.296875
3135		-35.156250
3136		-31.250000
3137		-39.062500
3138		-33.203125
3139		-41.015625
3140		-37.109375
3141		-42.968750
3142		-39.062500
3143		-46.875000
3144		-41.015625
3145		-46.875000
3146		-42.968750
3147		-48.828125
3148		-46.875000
3149		-52.734375
3150		-46.875000
3151		-54.687500
3152		-48.828125
3153		-54.687500
3154		-50.781250
3155		-56.640625
3156		-52.734375
3157		-58.593750
3158		-54.687500
3159		-58.593750
3160		-56.640625
3161		-60.546875
3162		-56.640625
3163		-60.546875
3164		-58.593750
3165		-60.546875
3166		-56.640625
3167		-62.500000
3168		-58.593750
3169		-62.500000
3170		-58.593750
3171		-62.500000
3172		-58.593750
3173		-62.500000
3174		-58.593750
3175		-62.500000
3176		-58.593750
3177		-62.500000
3178		-58.593750
3179		-60.546875
3180		-58.593750
3181		-58.593750
3182		-56.640625
3183		-60.546875
3184		-56.640625
3185		-58.593750
3186		-54.687500
3187		-56.640625
3188		-52.734375
3189		-54.687500
3190		-52.734375
3191		-54.687500
3192		-50.781250
3193		-52.734375
3194		-48.828125
3195		-50.781250
3196		-46.875000
3197		-48.828125
3198		-44.921875
3199		-46.875000
3200		-41.015625
3201		-44.921875
3202		-39.062500
3203		-41.015625
3204		-37.109375
3205		-39.062500
3206		-33.203125
3207		-35.156250
3208		-31.250000
3209		-35.156250
3210		-27.343750
3211		-31.250000
3212		-25.390625
3213		-27.343750
3214		-23.437500
3215		-25.390625
3216		-19.531250
3217		-21.484375
3218		-17.578125
3219		-19.531250
3220		-13.671875
3221		-15.625000
3222		-9.765625
3223		-11.718750
3224		-7.812500
3225		-7.812500
3226		-3.906250
3227		-5.859375
3228		0.000000
3229		-1.953125
3230		1.953125
3231		1.953125
3232		5.859375
3233		5.859375
3234		9.765625
3235		7.812500
3236		13.671875
3237		11.718750
3238		17.578125
3239		13.671875
3240		19.531250
3241		17.578125
3242		23.437500
3243		21.484375
3244		25.390625
3245		23.437500
3246		29.296875
3247		27.343750
3248		31.250000
3249		31.250000
3250		37.109375
3251		33.203125
3252		37.109375
3253		37.109375
3254		41.015625
3255		39.062500
3256		42.968750
3257		42.968750
3258		46.875000
3259		44.921875
3260		48.828125
3261		46.875000
3262		50.781250
3263		50.781250
3264		54.687500
3265		52.734375
3266		56.640625
3267		54.687500
3268		58.593750
3269		56.640625
3270		60.546875
3271		58.593750
3272		62.500000
3273		60.546875
3274		64.453125
3275		62.500000
3276		66.406250
3277		64.453125
3278		68.359375
3279		64.453125
3280		68.359375
3281		66.406250
3282		70.312500
3283		68.359375
3284		72.265625
3285		68.359375
3286		72.265625
3287		70.312500
3288		72.265625
3289		70.312500
3290		74.218750
3291		70.312500
3292		74.218750
3293		70.312500
3294		74.218750
3295		70.312500
3296		76.171875
3297		72.265625
3298		74.218750
3299		72.265625
3300		74.218750
3301		72.265625
3302		76.171875
3303		72.265625
3304		74.218750
3305		70.312500
3306		74.218750
3307		70.312500
3308		72.265625
3309		68.359375
3310		72.265625
3311		68.359375
3312		72.265625
3313		66.406250
3314		70.312500
3315		66.406250
3316		70.312500
3317		64.453125
3318		68.359375
3319		62.500000
3320		66.406250
3321		60.546875
3322		66.406250
3323		60.546875
3324		64.453125
3325		56.640625
3326		60.546875
3327		56.640625
3328		60.546875
3329		52.734375
3330		56.640625
3331		50.781250
3332		54.687500
3333		46.875000
3334		52.734375
3335		44.921875
3336		50.781250
3337		42.968750
3338		48.828125
3339		41.015625
3340		44.921875
3341		37.109375
3342		42.968750
3343		35.156250
3344		39.062500
3345		31.250000
3346		37.109375
3347		29.296875
3348		33.203125
3349		25.390625
3350		31.250000
3351		21.484375
3352		27.343750
3353		19.531250
3354		23.437500
3355		15.625000
3356		21.484375
3357		11.718750
3358		17.578125
3359		9.765625
3360		13.671875
3361		5.859375
3362		11.718750
3363		1.953125
3364		7.812500
3365		-1.953125
3366		3.906250
3367		-3.906250
3368		0.000000
3369		-7.812500
3370		-1.953125
3371		-11.718750
3372		-5.859375
3373		-15.625000
3374		-9.765625
3375		-17.578125
3376		-11.718750
3377		-21.484375
3378		-15.625000
3379		-23.437500
3380		-19.531250
3381		-27.343750
3382		-21.484375
3383		-29.296875
3384		-23.437500
3385		-33.203125
3386		-27.343750
3387		-35.156250
3388		-31.250000
3389		-37.109375
3390		-33.203125
3391		-41.015625
3392		-37.109375
3393		-42.968750
3394		-39.062500
3395		-44.921875
3396		-41.015625
3397		-46.875000
3398		-42.968750
3399		-48.828125
3400		-46.875000
3401		-52.734375
3402		-46.875000
3403		-54.687500
3404		-48.828125
3405		-54.687500
3406		-50.781250
3407		-56.640625
3408		-52.734375
3409		-58.593750
3410		-54.687500
3411		-58.593750
3412		-56.640625
3413		-60.546875
3414		-56.640625
3415		-60.546875
3416		-56.640625
3417		-62.500000
3418		-56.640625
3419		-62.500000
3420		-58.593750
3421		-62.500000
3422		-58.593750
3423		-62.500000
3424		-58.593750
3425		-62.500000
3426		-58.593750
3427		-62.500000
3428		-58.593750
3429		-62.500000
3430		-58.593750
3431		-60.546875
3432		-58.593750
3433		-60.546875
3434		-56.640625
3435		-60.546875
3436		-54.687500
3437		-58.593750
3438		-54.687500
3439		-58.593750
3440		-52.734375
3441		-56.640625
3442		-52.734375
3443		-54.687500
3444		-50.781250
3445		-52.734375
3446		-48.828125
3447		-50.781250
3448		-46.875000
3449		-48.828125
3450		-44.921875
3451		-46.875000
3452		-42.968750
3453		-42.968750
3454		-41.015625
3455		-41.015625
3456		-37.109375
3457		-39.062500
3458		-35.156250
3459		-37.109375
3460		-33.203125
3461		-33.203125
3462		-29.296875
3463		-31.250000
3464		-27.343750
3465		-27.343750
3466		-23.437500
3467		-25.390625
3468		-21.484375
3469		-23.437500
3470		-17.578125
3471		-19.531250
3472		-13.671875
3473		-15.625000
3474		-11.718750
3475		-11.718750
3476		-7.812500
3477		-9.765625
3478		-3.906250
3479		-5.859375
3480		-1.953125
3481		-3.906250
3482		1.953125
3483		0.000000
3484		5.859375
3485		3.906250
3486		9.765625
3487		7.812500
3488		13.671875
3489		11.718750
3490		15.625000
3491		13.671875
3492		19.531250
3493		17.578125
3494		21.484375
3495		19.531250
3496		25.390625
3497		23.437500
3498		29.296875
3499		27.343750
3500		31.250000
3501		31.250000
3502		35.156250
3503		33.203125
3504		39.062500
3505		37.109375
3506		41.015625
3507		39.062500
3508		42.968750
3509		41.015625
3510		46.875000
3511		42.968750
3512		48.828125
3513		46.875000
3514		52.734375
3515		50.781250
3516		52.734375
3517		52.734375
3518		56.640625
3519		52.734375
3520		58.593750
3521		56.640625
3522		60.546875
3523		58.593750
3524		62.500000
3525		60.546875
3526		64.453125
3527		60.546875
3528		64.453125
3529		62.500000
3530		66.406250
3531		64.453125
3532		68.359375
3533		66.406250
3534		70.312500
3535		66.406250
3536		72.265625
3537		68.359375
3538		72.265625
3539		68.359375
3540		74.218750
3541		70.312500
3542		72.265625
3543		70.312500
3544		74.218750
3545		72.265625
3546		74.218750
3547		72.265625
3548		74.218750
3549		72.265625
3550		74.218750
3551		72.265625
3552		76.171875
3553		72.265625
3554		76.171875
3555		70.312500
3556		74.218750
3557		72.265625
3558		74.218750
3559		70.312500
3560		74.218750
3561		70.312500
3562		72.265625
3563		68.359375
3564		72.265625
3565		68.359375
3566		72.265625
3567		66.406250
3568		70.312500
3569		64.453125
3570		70.312500
3571		64.453125
3572		66.406250
3573		62.500000
3574		66.406250
3575		60.546875
3576		64.453125
3577		58.593750
3578		62.500000
3579		56.640625
3580		60.546875
3581		54.687500
3582		58.593750
3583		50.781250
3584		54.687500
3585		48.828125
3586		52.734375
3587		46.875000
3588		50.781250
3589		44.921875
3590		48.828125
3591		41.015625
3592		46.875000
3593		39.062500
3594		42.968750
3595		35.156250
3596		39.062500
3597		33.203125
3598		37.109375
3599		29.296875
3600		33.203125
3601		27.343750
3602		31.250000
3603		23.437500
3604		29.296875
3605		19.531250
3606		25.390625
3607		17.578125
3608		21.484375
3609		13.671875
3610		17.578125
3611		9.765625
3612		15.625000
3613		7.812500
3614		11.718750
3615		3.906250
3616		7.812500
3617		-1.953125
3618		3.906250
3619		-3.906250
3620		1.953125
3621		-5.859375
3622		-1.953125
3623		-9.765625
3624		-5.859375
3625		-13.671875
3626		-7.812500
3627		-15.625000
3628		-11.718750
3629		-19.531250
3630		-15.625000
3631		-23.437500
3632		-17.578125
3633		-25.390625
3634		-21.484375
3635		-29.296875
3636		-23.437500
3637		-31.250000
3638		-27.343750
3639		-35.156250
3640		-29.296875
3641		-37.109375
3642		-33.203125
3643		-39.062500
3644		-35.156250
3645		-42.968750
3646		-39.062500
3647		-44.921875
3648		-39.062500
3649		-46.875000
3650		-41.015625
3651		-48.828125
3652		-44.921875
3653		-50.781250
3654		-46.875000
3655		-52.734375
3656		-48.828125
3657		-54.687500
3658		-50.781250
3659		-56.640625
3660		-52.734375
3661		-56.640625
3662		-52.734375
3663		-58.593750
3664		-54.687500
3665		-58.593750
3666		-56.640625
3667		-60.546875
3668		-56.640625
3669		-62.500000
3670		-58.593750
3671		-62.500000
3672		-58.593750
3673		-62.500000
3674		-58.593750
3675		-62.500000
3676		-58.593750
3677		-62.500000
3678		-58.593750
3679		-62.500000
3680		-58.593750
3681		-62.500000
3682		-56.640625
3683		-60.546875
3684		-58.593750
3685		-58.593750
3686		-56.640625
3687		-60.546875
3688		-54.687500
3689		-58.593750
3690		-54.687500
3691		-58.593750
3692		-52.734375
3693		-54.687500
3694		-50.781250
3695		-54.687500
3696		-50.781250
3697		-52.734375
3698		-48.828125
3699		-50.781250
3700		-46.875000
3701		-48.828125
3702		-44.921875
3703		-46.875000
3704		-41.015625
3705		-44.921875
3706		-41.015625
3707		-41.015625
3708		-37.109375
3709		-39.062500
3710		-35.156250
3711		-37.109375
3712		-33.203125
3713		-33.203125
3714		-29.296875
3715		-31.250000
3716		-27.343750
3717		-27.343750
3718		-23.437500
3719		-25.390625
3720		-21.484375
3721		-23.437500
3722		-17.578125
3723		-19.531250
3724		-13.671875
3725		-15.625000
3726		-11.718750
3727		-11.718750
3728		-7.812500
3729		-9.765625
3730		-3.906250
3731		-5.859375
3732		-1.953125
3733		-3.906250
3734		1.953125
3735		1.953125
3736		5.859375
3737		3.906250
3738		9.765625
3739		7.812500
3740		11.718750
3741		11.718750
3742		15.625000
3743		13.671875
3744		19.531250
3745		17.578125
3746		21.484375
3747		21.484375
3748		25.390625
3749		23.437500
3750		29.296875
3751		27.343750
3752		31.250000
3753		31.250000
3754		35.156250
3755		33.203125
3756		37.109375
3757		37.109375
3758		41.015625
3759		39.062500
3760		42.968750
3761		41.015625
3762		46.875000
3763		44.921875
3764		48.828125
3765		46.875000
3766		52.734375
3767		48.828125
3768		52.734375
3769		52.734375
3770		56.640625
3771		54.687500
3772		58.593750
3773		56.640625
3774		60.546875
3775		58.593750
3776		62.500000
3777		58.593750
3778		64.453125
3779		62.500000
3780		66.406250
3781		64.453125
3782		66.406250
3783		64.453125
3784		68.359375
3785		66.406250
3786		70.312500
3787		68.359375
3788		70.312500
3789		68.359375
3790		72.265625
3791		70.312500
3792		74.218750
3793		70.312500
3794		74.218750
3795		70.312500
3796		74.218750
3797		72.265625
3798		74.218750
3799		72.265625
3800		76.171875
3801		72.265625
3802		74.218750
3803		72.265625
3804		74.218750
3805		72.265625
3806		76.171875
3807		72.265625
3808		76.171875
3809		70.312500
3810		74.218750
3811		70.312500
3812		74.218750
3813		70.312500
3814		72.265625
3815		68.359375
3816		72.265625
3817		68.359375
3818		72.265625
3819		66.406250
3820		70.312500
3821		64.453125
3822		70.312500
3823		64.453125
3824		68.359375
3825		62.500000
3826		66.406250
3827		60.546875
3828		64.453125
3829		58.593750
3830		62.500000
3831		56.640625
3832		60.546875
3833		54.687500
3834		58.593750
3835		52.734375
3836		56.640625
3837		48.828125
3838		54.687500
3839		48.828125
3840		50.781250
3841		44.921875
3842		50.781250
3843		42.968750
3844		46.875000
3845		39.062500
3846		42.968750
3847		35.156250
3848		41.015625
3849		31.250000
3850		37.109375
3851		31.250000
3852		35.156250
3853		27.343750
3854		31.250000
3855		23.437500
3856		29.296875
3857		21.484375
3858		25.390625
3859		17.578125
3860		21.484375
3861		13.671875
3862		19.531250
3863		9.765625
3864		15.625000
3865		7.812500
3866		11.718750
3867		3.906250
3868		9.765625
3869		1.953125
3870		5.859375
3871		-3.906250
3872		3.906250
3873		-5.859375
3874		0.000000
3875		-9.765625
3876		-3.906250
3877		-11.718750
3878		-7.812500
3879		-15.625000
3880		-11.718750
3881		-19.531250
3882		-13.671875
3883		-21.484375
3884		-17.578125
3885		-25.390625
3886		-19.531250
3887		-27.343750
3888		-23.437500
3889		-31.250000
3890		-25.390625
3891		-33.203125
3892		-29.296875
3893		-37.109375
3894		-31.250000
3895		-39.062500
3896		-35.156250
3897		-41.015625
3898		-37.109375
3899		-44.921875
3900		-39.062500
3901		-46.875000
3902		-41.015625
3903		-48.828125
3904		-44.921875
3905		-50.781250
3906		-46.875000
3907		-52.734375
3908		-48.828125
3909		-54.687500
3910		-50.781250
3911		-56.640625
3912		-50.781250
3913		-56.640625
3914		-52.734375
3915		-58.593750
3916		-54.687500
3917		-60.546875
3918		-54.687500
3919		-58.593750
3920		-56.640625
3921		-60.546875
3922		-56.640625
3923		-60.546875
3924		-56.640625
3925		-62.500000
3926		-58.593750
3927		-62.500000
3928		-58.593750
3929		-60.546875
3930		-58.593750
3931		-60.546875
3932		-58.593750
3933		-60.546875
3934		-56.640625
3935		-60.546875
3936		-58.593750
3937		-60.546875
3938		-56.640625
3939		-58.593750
3940		-56.640625
3941		-58.593750
3942		-54.687500
3943		-56.640625
3944		-52.734375
3945		-56.640625
3946		-50.781250
3947		-54.687500
3948		-50.781250
3949		-52.734375
3950		-48.828125
3951		-50.781250
3952		-46.875000
3953		-48.828125
3954		-44.921875
3955		-46.875000
3956		-41.015625
3957		-44.921875
3958		-39.062500
3959		-41.015625
3960		-37.109375
3961		-39.062500
3962		-35.156250
3963		-37.109375
3964		-31.250000
3965		-33.203125
3966		-29.296875
3967		-31.250000
3968		-27.343750
3969		-27.343750
3970		-23.437500
3971		-25.390625
3972		-21.484375
3973		-23.437500
3974		-17.578125
3975		-19.531250
3976		-13.671875
3977		-17.578125
3978		-11.718750
3979		-13.671875
3980		-7.812500
3981		-9.765625
3982		-3.906250
3983		-5.859375
3984		0.000000
3985		-3.906250
3986		1.953125
3987		0.000000
3988		5.859375
3989		3.906250
3990		9.765625
3991		7.812500
3992		11.718750
3993		9.765625
3994		15.625000
3995		13.671875
3996		19.531250
3997		15.625000
3998		21.484375
3999		19.531250
4000		25.390625
4001		23.437500
4002		27.343750
4003		27.343750
4004		31.250000
4005		29.296875
4006		35.156250
4007		31.250000
4008		37.109375
4009		35.156250
4010		41.015625
4011		39.062500
4012		42.968750
4013		41.015625
4014		46.875000
4015		44.921875
4016		48.828125
4017		46.875000
4018		52.734375
4019		48.828125
4020		52.734375
4021		50.781250
4022		54.687500
4023		54.687500
4024		58.593750
4025		56.640625
4026		60.546875
4027		58.593750
4028		62.500000
4029		60.546875
4030		64.453125
4031		62.500000
4032		66.406250
4033		64.453125
4034		68.359375
4035		64.453125
4036		68.359375
4037		66.406250
4038		70.312500
4039		68.359375
4040		72.265625
4041		68.359375
4042		72.265625
4043		70.312500
4044		74.218750
4045		70.312500
4046		74.218750
4047		70.312500
4048		74.218750
4049		72.265625
4050		74.218750
4051		72.265625
4052		76.171875
4053		72.265625
4054		74.218750
4055		72.265625
4056		74.218750
4057		72.265625
4058		76.171875
4059		72.265625
4060		76.171875
4061		72.265625
4062		74.218750
4063		72.265625
4064		74.218750
4065		70.312500
4066		74.218750
4067		68.359375
4068		74.218750
4069		68.359375
4070		72.265625
4071		66.406250
4072		70.312500
4073		64.453125
4074		68.359375
4075		64.453125
4076		68.359375
4077		62.500000
4078		66.406250
4079		60.546875
4080		64.453125
4081		58.593750
4082		62.500000
4083		56.640625
4084		60.546875
4085		54.687500
4086		58.593750
4087		52.734375
4088		56.640625
4089		50.781250
4090		54.687500
4091		48.828125
4092		52.734375
4093		44.921875
4094		50.781250
4095		42.968750
4096		46.875000
4097		39.062500
4098		44.921875
4099		37.109375
4100		41.015625
4101		33.203125
4102		39.062500
4103		31.250000
4104		35.156250
4105		27.343750
4106		33.203125
4107		25.390625
4108		29.296875
4109		21.484375
4110		27.343750
4111		17.578125
4112		23.437500
4113		13.671875
4114		19.531250
4115		11.718750
4116		15.625000
4117		7.812500
4118		13.671875
4119		5.859375
4120		9.765625
4121		1.953125
4122		5.859375
4123		-1.953125
4124		3.906250
4125		-5.859375
4126		0.000000
4127		-7.812500
4128		-3.906250
4129		-11.718750
4130		-5.859375
4131		-15.625000
4132		-9.765625
4133		-17.578125
4134		-13.671875
4135		-21.484375
4136		-15.625000
4137		-23.437500
4138		-19.531250
4139		-27.343750
4140		-23.437500
4141		-31.250000
4142		-25.390625
4143		-33.203125
4144		-29.296875
4145		-37.109375
4146		-31.250000
4147		-39.062500
4148		-35.156250
4149		-41.015625
4150		-37.109375
4151		-42.968750
4152		-39.062500
4153		-44.921875
4154		-41.015625
4155		-46.875000
4156		-44.921875
4157		-50.781250
4158		-46.875000
4159		-52.734375
4160		-48.828125
4161		-52.734375
4162		-48.828125
4163		-54.687500
4164		-50.781250
4165		-56.640625
4166		-52.734375
4167		-56.640625
4168		-54.687500
4169		-58.593750
4170		-54.687500
4171		-58.593750
4172		-56.640625
4173		-60.546875
4174		-56.640625
4175		-62.500000
4176		-56.640625
4177		-60.546875
4178		-58.593750
4179		-60.546875
4180		-58.593750
4181		-60.546875
4182		-58.593750
4183		-62.500000
4184		-58.593750
4185		-60.546875
4186		-58.593750
4187		-62.500000
4188		-56.640625
4189		-58.593750
4190		-56.640625
4191		-58.593750
4192		-56.640625
4193		-58.593750
4194		-54.687500
4195		-56.640625
4196		-52.734375
4197		-54.687500
4198		-50.781250
4199		-54.687500
4200		-50.781250
4201		-52.734375
4202		-48.828125
4203		-50.781250
4204		-46.875000
4205		-48.828125
4206		-44.921875
4207		-46.875000
4208		-41.015625
4209		-44.921875
4210		-39.062500
4211		-41.015625
4212		-37.109375
4213		-41.015625
4214		-35.156250
4215		-37.109375
4216		-33.203125
4217		-35.156250
4218		-29.296875
4219		-31.250000
4220		-25.390625
4221		-29.296875
4222		-23.437500
4223		-25.390625
4224		-21.484375
4225		-23.437500
4226		-17.578125
4227		-19.531250
4228		-15.625000
4229		-15.625000
4230		-11.718750
4231		-13.671875
4232		-7.812500
4233		-9.765625
4234		-3.906250
4235		-5.859375
4236		-1.953125
4237		-3.906250
4238		1.953125
4239		0.000000
4240		3.906250
4241		3.906250
4242		7.812500
4243		5.859375
4244		11.718750
4245		9.765625
4246		15.625000
4247		13.671875
4248		17.578125
4249		15.625000
4250		21.484375
4251		19.531250
4252		25.390625
4253		23.437500
4254		27.343750
4255		27.343750
4256		31.250000
4257		29.296875
4258		33.203125
4259		33.203125
4260		37.109375
4261		35.156250
4262		41.015625
4263		39.062500
4264		42.968750
4265		41.015625
4266		44.921875
4267		44.921875
4268		48.828125
4269		46.875000
4270		50.781250
4271		46.875000
4272		52.734375
4273		52.734375
4274		56.640625
4275		54.687500
4276		58.593750
4277		54.687500
4278		60.546875
4279		58.593750
4280		62.500000
4281		60.546875
4282		64.453125
4283		62.500000
4284		66.406250
4285		62.500000
4286		66.406250
4287		64.453125
4288		68.359375
4289		66.406250
4290		70.312500
4291		68.359375
4292		70.312500
4293		68.359375
4294		72.265625
4295		70.312500
4296		72.265625
4297		70.312500
4298		74.218750
4299		72.265625
4300		74.218750
4301		72.265625
4302		76.171875
4303		72.265625
4304		76.171875
4305		72.265625
4306		74.218750
4307		72.265625
4308		74.218750
4309		72.265625
4310		76.171875
4311		72.265625
4312		74.218750
4313		72.265625
4314		76.171875
4315		70.312500
4316		74.218750
4317		70.312500
4318		74.218750
4319		70.312500
4320		72.265625
4321		68.359375
4322		72.265625
4323		68.359375
4324		70.312500
4325		66.406250
4326		70.312500
4327		64.453125
4328		68.359375
4329		62.500000
4330		66.406250
4331		60.546875
4332		64.453125
4333		58.593750
4334		64.453125
4335		56.640625
4336		62.500000
4337		54.687500
4338		60.546875
4339		52.734375
4340		56.640625
4341		50.781250
4342		54.687500
4343		46.875000
4344		52.734375
4345		44.921875
4346		50.781250
4347		42.968750
4348		48.828125
4349		39.062500
4350		44.921875
4351		37.109375
4352		42.968750
4353		33.203125
4354		41.015625
4355		31.250000
4356		37.109375
4357		29.296875
4358		33.203125
4359		25.390625
4360		29.296875
4361		19.531250
4362		27.343750
4363		19.531250
4364		23.437500
4365		15.625000
4366		21.484375
4367		11.718750
4368		17.578125
4369		7.812500
4370		15.625000
4371		5.859375
4372		9.765625
4373		1.953125
4374		5.859375
4375		-1.953125
4376		3.906250
4377		-5.859375
4378		1.953125
4379		-9.765625
4380		-1.953125
4381		-11.718750
4382		-5.859375
4383		-15.625000
4384		-7.812500
4385		-19.531250
4386		-11.718750
4387		-21.484375
4388		-15.625000
4389		-23.437500
4390		-19.531250
4391		-27.343750
4392		-23.437500
4393		-31.250000
4394		-25.390625
4395		-33.203125
4396		-27.343750
4397		-35.156250
4398		-29.296875
4399		-39.062500
4400		-33.203125
4401		-42.968750
4402		-35.156250
4403		-44.921875
4404		-37.109375
4405		-46.875000
4406		-41.015625
4407		-46.875000
4408		-42.968750
4409		-50.781250
4410		-46.875000
4411		-52.734375
4412		-46.875000
4413		-54.687500
4414		-48.828125
4415		-54.687500
4416		-50.781250
4417		-56.640625
4418		-50.781250
4419		-58.593750
4420		-52.734375
4421		-58.593750
4422		-54.687500
4423		-58.593750
4424		-56.640625
4425		-60.546875
4426		-56.640625
4427		-60.546875
4428		-56.640625
4429		-62.500000
4430		-56.640625
4431		-62.500000
4432		-56.640625
4433		-62.500000
4434		-56.640625
4435		-62.500000
4436		-56.640625
4437		-62.500000
4438		-56.640625
4439		-60.546875
4440		-56.640625
4441		-60.546875
4442		-56.640625
4443		-58.593750
4444		-56.640625
4445		-58.593750
4446		-54.687500
4447		-56.640625
4448		-54.687500
4449		-56.640625
4450		-52.734375
4451		-54.687500
4452		-50.781250
4453		-52.734375
4454		-48.828125
4455		-50.781250
4456		-46.875000
4457		-48.828125
4458		-44.921875
4459		-46.875000
4460		-42.968750
4461		-44.921875
4462		-41.015625
4463		-42.968750
4464		-39.062500
4465		-39.062500
4466		-35.156250
4467		-37.109375
4468		-33.203125
4469		-35.156250
4470		-31.250000
4471		-31.250000
4472		-27.343750
4473		-29.296875
4474		-25.390625
4475		-25.390625
4476		-21.484375
4477		-23.437500
4478		-19.531250
4479		-19.531250
4480		-15.625000
4481		-17.578125
4482		-11.718750
4483		-13.671875
4484		-9.765625
4485		-9.765625
4486		-5.859375
4487		-7.812500
4488		-1.953125
4489		-3.906250
4490		1.953125
4491		0.000000
4492		3.906250
4493		1.953125
4494		7.812500
4495		5.859375
4496		11.718750
4497		9.765625
4498		13.671875
4499		13.671875
4500		17.578125
4501		15.625000
4502		21.484375
4503		19.531250
4504		23.437500
4505		23.437500
4506		27.343750
4507		25.390625
4508		29.296875
4509		29.296875
4510		33.203125
4511		33.203125
4512		37.109375
4513		35.156250
4514		39.062500
4515		39.062500
4516		42.968750
4517		41.015625
4518		44.921875
4519		42.968750
4520		46.875000
4521		46.875000
4522		50.781250
4523		48.828125
4524		52.734375
4525		50.781250
4526		54.687500
4527		52.734375
4528		56.640625
4529		54.687500
4530		60.546875
4531		58.593750
4532		60.546875
4533		60.546875
4534		62.500000
4535		62.500000
4536		64.453125
4537		64.453125
4538		66.406250
4539		64.453125
4540		68.359375
4541		66.406250
4542		68.359375
4543		68.359375
4544		70.312500
4545		66.406250
4546		74.218750
4547		66.406250
4548		76.171875
4549		68.359375
4550		76.171875
4551		72.265625
4552		74.218750
4553		72.265625
4554		74.218750
4555		72.265625
4556		74.218750
4557		72.265625
4558		74.218750
4559		72.265625
4560		74.218750
4561		68.359375
4562		78.125000
4563		68.359375
4564		78.125000
4565		68.359375
4566		78.125000
4567		72.265625
4568		74.218750
4569		70.312500
4570		72.265625
4571		70.312500
4572		72.265625
4573		68.359375
4574		72.265625
4575		68.359375
4576		70.312500
4577		62.500000
4578		72.265625
4579		62.500000
4580		72.265625
4581		60.546875
4582		70.312500
4583		58.593750
4584		68.359375
4585		58.593750
4586		62.500000
4587		58.593750
4588		62.500000
4589		56.640625
4590		60.546875
4591		52.734375
4592		56.640625
4593		50.781250
4594		54.687500
4595		46.875000
4596		56.640625
4597		42.968750
4598		52.734375
4599		41.015625
4600		50.781250
4601		41.015625
4602		44.921875
4603		37.109375
4604		41.015625
4605		35.156250
4606		39.062500
4607		31.250000
4608		37.109375
4609		27.343750
4610		33.203125
4611		21.484375
4612		31.250000
4613		17.578125
4614		31.250000
4615		15.625000
4616		27.343750
4617		15.625000
4618		23.437500
4619		11.718750
4620		19.531250
4621		9.765625
4622		13.671875
4623		5.859375
4624		9.765625
4625		1.953125
4626		7.812500
4627		0.000000
4628		3.906250
4629		-7.812500
4630		3.906250
4631		-11.718750
4632		0.000000
4633		-13.671875
4634		-1.953125
4635		-13.671875
4636		-9.765625
4637		-17.578125
4638		-13.671875
4639		-21.484375
4640		-15.625000
4641		-25.390625
4642		-19.531250
4643		-27.343750
4644		-21.484375
4645		-33.203125
4646		-23.437500
4647		-37.109375
4648		-25.390625
4649		-39.062500
4650		-29.296875
4651		-37.109375
4652		-33.203125
4653		-41.015625
4654		-37.109375
4655		-42.968750
4656		-39.062500
4657		-44.921875
4658		-41.015625
4659		-46.875000
4660		-42.968750
4661		-52.734375
4662		-42.968750
4663		-54.687500
4664		-42.968750
4665		-56.640625
4666		-46.875000
4667		-56.640625
4668		-46.875000
4669		-56.640625
4670		-52.734375
4671		-56.640625
4672		-54.687500
4673		-58.593750
4674		-54.687500
4675		-60.546875
4676		-56.640625
4677		-60.546875
4678		-56.640625
4679		-64.453125
4680		-54.687500
4681		-64.453125
4682		-54.687500
4683		-64.453125
4684		-54.687500
4685		-62.500000
4686		-58.593750
4687		-62.500000
4688		-58.593750
4689		-60.546875
4690		-58.593750
4691		-60.546875
4692		-58.593750
4693		-60.546875
4694		-56.640625
4695		-62.500000
4696		-52.734375
4697		-62.500000
4698		-50.781250
4699		-60.546875
4700		-50.781250
4701		-58.593750
4702		-52.734375
4703		-54.687500
4704		-50.781250
4705		-52.734375
4706		-50.781250
4707		-50.781250
4708		-46.875000
4709		-48.828125
4710		-46.875000
4711		-46.875000
4712		-42.968750
4713		-48.828125
4714		-39.062500
4715		-46.875000
4716		-37.109375
4717		-44.921875
4718		-35.156250
4719		-37.109375
4720		-33.203125
4721		-35.156250
4722		-31.250000
4723		-33.203125
4724		-27.343750
4725		-29.296875
4726		-25.390625
4727		-27.343750
4728		-21.484375
4729		-23.437500
4730		-19.531250
4731		-21.484375
4732		-13.671875
4733		-19.531250
4734		-11.718750
4735		-13.671875
4736		-9.765625
4737		-11.718750
4738		-5.859375
4739		-7.812500
4740		-3.906250
4741		-3.906250
4742		0.000000
4743		-1.953125
4744		3.906250
4745		1.953125
4746		7.812500
4747		5.859375
4748		13.671875
4749		7.812500
4750		17.578125
4751		11.718750
4752		17.578125
4753		15.625000
4754		19.531250
4755		19.531250
4756		23.437500
4757		21.484375
4758		27.343750
4759		25.390625
4760		29.296875
4761		27.343750
4762		33.203125
4763		31.250000
4764		35.156250
4765		33.203125
4766		41.015625
4767		35.156250
4768		42.968750
4769		41.015625
4770		44.921875
4771		42.968750
4772		46.875000
4773		44.921875
4774		48.828125
4775		48.828125
4776		52.734375
4777		50.781250
4778		54.687500
4779		52.734375
4780		56.640625
4781		54.687500
4782		58.593750
4783		56.640625
4784		60.546875
4785		60.546875
4786		62.500000
4787		60.546875
4788		64.453125
4789		62.500000
4790		66.406250
4791		64.453125
4792		68.359375
4793		66.406250
4794		68.359375
4795		68.359375
4796		70.312500
4797		68.359375
4798		72.265625
4799		70.312500
4800		72.265625
4801		70.312500
4802		74.218750
4803		70.312500
4804		74.218750
4805		72.265625
4806		74.218750
4807		72.265625
4808		74.218750
4809		72.265625
4810		74.218750
4811		72.265625
4812		74.218750
4813		72.265625
4814		74.218750
4815		72.265625
4816		74.218750
4817		72.265625
4818		74.218750
4819		72.265625
4820		74.218750
4821		70.312500
4822		74.218750
4823		70.312500
4824		72.265625
4825		68.359375
4826		72.265625
4827		68.359375
4828		70.312500
4829		66.406250
4830		70.312500
4831		64.453125
4832		68.359375
4833		64.453125
4834		68.359375
4835		62.500000
4836		64.453125
4837		60.546875
4838		64.453125
4839		58.593750
4840		62.500000
4841		56.640625
4842		60.546875
4843		54.687500
4844		56.640625
4845		50.781250
4846		54.687500
4847		48.828125
4848		52.734375
4849		46.875000
4850		50.781250
4851		42.968750
4852		48.828125
4853		41.015625
4854		44.921875
4855		39.062500
4856		44.921875
4857		35.156250
4858		39.062500
4859		33.203125
4860		37.109375
4861		29.296875
4862		33.203125
4863		25.390625
4864		31.250000
4865		21.484375
4866		27.343750
4867		19.531250
4868		23.437500
4869		15.625000
4870		21.484375
4871		11.718750
4872		17.578125
4873		9.765625
4874		13.671875
4875		5.859375
4876		11.718750
4877		1.953125
4878		7.812500
4879		-1.953125
4880		3.906250
4881		-3.906250
4882		1.953125
4883		-7.812500
4884		-1.953125
4885		-9.765625
4886		-5.859375
4887		-13.671875
4888		-9.765625
4889		-17.578125
4890		-11.718750
4891		-19.531250
4892		-15.625000
4893		-23.437500
4894		-19.531250
4895		-25.390625
4896		-21.484375
4897		-29.296875
4898		-25.390625
4899		-33.203125
4900		-27.343750
4901		-35.156250
4902		-31.250000
4903		-39.062500
4904		-33.203125
4905		-41.015625
4906		-35.156250
4907		-42.968750
4908		-39.062500
4909		-44.921875
4910		-41.015625
4911		-46.875000
4912		-42.968750
4913		-50.781250
4914		-44.921875
4915		-50.781250
4916		-46.875000
4917		-52.734375
4918		-48.828125
4919		-54.687500
4920		-50.781250
4921		-56.640625
4922		-52.734375
4923		-56.640625
4924		-52.734375
4925		-58.593750
4926		-54.687500
4927		-58.593750
4928		-56.640625
4929		-60.546875
4930		-56.640625
4931		-62.500000
4932		-54.687500
4933		-60.546875
4934		-58.593750
4935		-60.546875
4936		-58.593750
4937		-62.500000
4938		-58.593750
4939		-62.500000
4940		-58.593750
4941		-60.546875
4942		-58.593750
4943		-60.546875
4944		-58.593750
4945		-60.546875
4946		-56.640625
4947		-60.546875
4948		-54.687500
4949		-58.593750
4950		-54.687500
4951		-56.640625
4952		-54.687500
4953		-56.640625
4954		-52.734375
4955		-54.687500
4956		-50.781250
4957		-52.734375
4958		-50.781250
4959		-50.781250
4960		-48.828125
4961		-50.781250
4962		-44.921875
4963		-48.828125
4964		-44.921875
4965		-46.875000
4966		-41.015625
4967		-42.968750
4968		-39.062500
4969		-41.015625
4970		-37.109375
4971		-39.062500
4972		-33.203125
4973		-37.109375
4974		-31.250000
4975		-33.203125
4976		-29.296875
4977		-31.250000
4978		-25.390625
4979		-27.343750
4980		-23.437500
4981		-23.437500
4982		-19.531250
4983		-21.484375
4984		-15.625000
4985		-17.578125
4986		-13.671875
4987		-15.625000
4988		-9.765625
4989		-11.718750
4990		-7.812500
4991		-7.812500
4992		-3.906250
4993		-3.906250
4994		0.000000
4995		-1.953125
4996		3.906250
4997		1.953125
4998		7.812500
4999		3.906250
5000		9.765625
5001		7.812500
5002		13.671875
5003		11.718750
5004		15.625000
5005		13.671875
5006		21.484375
5007		17.578125
5008		23.437500
5009		21.484375
5010		25.390625
5011		25.390625
5012		29.296875
5013		27.343750
5014		33.203125
5015		31.250000
5016		35.156250
5017		33.203125
5018		39.062500
5019		37.109375
5020		41.015625
5021		39.062500
5022		42.968750
5023		42.968750
5024		46.875000
5025		44.921875
5026		48.828125
5027		48.828125
5028		52.734375
5029		50.781250
5030		54.687500
5031		52.734375
5032		56.640625
5033		54.687500
5034		58.593750
5035		56.640625
5036		60.546875
5037		58.593750
5038		62.500000
5039		60.546875
5040		64.453125
5041		62.500000
5042		66.406250
5043		64.453125
5044		66.406250
5045		66.406250
5046		68.359375
5047		68.359375
5048		70.312500
5049		68.359375
5050		70.312500
5051		68.359375
5052		72.265625
5053		70.312500
5054		72.265625
5055		70.312500
5056		74.218750
5057		72.265625
5058		74.218750
5059		72.265625
5060		74.218750
5061		72.265625
5062		74.218750
5063		72.265625
5064		74.218750
5065		72.265625
5066		74.218750
5067		72.265625
5068		74.218750
5069		72.265625
5070		74.218750
5071		72.265625
5072		74.218750
5073		70.312500
5074		74.218750
5075		70.312500
5076		72.265625
5077		68.359375
5078		72.265625
5079		68.359375
5080		70.312500
5081		66.406250
5082		70.312500
5083		64.453125
5084		68.359375
5085		62.500000
5086		66.406250
5087		62.500000
5088		66.406250
5089		60.546875
5090		62.500000
5091		58.593750
5092		60.546875
5093		56.640625
5094		60.546875
5095		54.687500
5096		56.640625
5097		50.781250
5098		54.687500
5099		48.828125
5100		52.734375
5101		46.875000
5102		50.781250
5103		44.921875
5104		48.828125
5105		41.015625
5106		44.921875
5107		39.062500
5108		42.968750
5109		35.156250
5110		39.062500
5111		33.203125
5112		37.109375
5113		29.296875
5114		33.203125
5115		27.343750
5116		31.250000
5117		23.437500
5118		27.343750
5119		19.531250
5120		25.390625
5121		15.625000
5122		21.484375
5123		13.671875
5124		17.578125
5125		9.765625
5126		15.625000
5127		5.859375
5128		11.718750
5129		3.906250
5130		7.812500
5131		0.000000
5132		3.906250
5133		-3.906250
5134		1.953125
5135		-5.859375
5136		-1.953125
5137		-9.765625
5138		-5.859375
5139		-13.671875
5140		-9.765625
5141		-15.625000
5142		-11.718750
5143		-19.531250
5144		-15.625000
5145		-23.437500
5146		-17.578125
5147		-25.390625
5148		-21.484375
5149		-29.296875
5150		-23.437500
5151		-31.250000
5152		-27.343750
5153		-35.156250
5154		-31.250000
5155		-37.109375
5156		-33.203125
5157		-39.062500
5158		-35.156250
5159		-42.968750
5160		-39.062500
5161		-44.921875
5162		-41.015625
5163		-46.875000
5164		-42.968750
5165		-50.781250
5166		-44.921875
5167		-52.734375
5168		-44.921875
5169		-52.734375
5170		-46.875000
5171		-54.687500
5172		-50.781250
5173		-54.687500
5174		-52.734375
5175		-56.640625
5176		-54.687500
5177		-58.593750
5178		-54.687500
5179		-58.593750
5180		-56.640625
5181		-60.546875
5182		-56.640625
5183		-62.500000
5184		-56.640625
5185		-62.500000
5186		-56.640625
5187		-60.546875
5188		-58.593750
5189		-60.546875
5190		-58.593750
5191		-60.546875
5192		-58.593750
5193		-60.546875
5194		-58.593750
5195		-60.546875
5196		-58.593750
5197		-60.546875
5198		-58.593750
5199		-60.546875
5200		-54.687500
5201		-60.546875
5202		-54.687500
5203		-58.593750
5204		-54.687500
5205		-56.640625
5206		-52.734375
5207		-54.687500
5208		-52.734375
5209		-52.734375
5210		-50.781250
5211		-52.734375
5212		-48.828125
5213		-50.781250
5214		-46.875000
5215		-48.828125
5216		-44.921875
5217		-46.875000
5218		-41.015625
5219		-44.921875
5220		-39.062500
5221		-41.015625
5222		-37.109375
5223		-39.062500
5224		-35.156250
5225		-37.109375
5226		-31.250000
5227		-33.203125
5228		-29.296875
5229		-31.250000
5230		-25.390625
5231		-27.343750
5232		-23.437500
5233		-25.390625
5234		-17.578125
5235		-23.437500
5236		-15.625000
5237		-17.578125
5238		-13.671875
5239		-15.625000
5240		-9.765625
5241		-11.718750
5242		-7.812500
5243		-7.812500
5244		-3.906250
5245		-5.859375
5246		0.000000
5247		-1.953125
5248		1.953125
5249		1.953125
5250		7.812500
5251		3.906250
5252		11.718750
5253		5.859375
5254		11.718750
5255		11.718750
5256		15.625000
5257		13.671875
5258		19.531250
5259		17.578125
5260		23.437500
5261		21.484375
5262		25.390625
5263		23.437500
5264		29.296875
5265		27.343750
5266		31.250000
5267		29.296875
5268		35.156250
5269		33.203125
5270		39.062500
5271		37.109375
5272		41.015625
5273		39.062500
5274		42.968750
5275		42.968750
5276		46.875000
5277		44.921875
5278		48.828125
5279		46.875000
5280		50.781250
5281		50.781250
5282		54.687500
5283		52.734375
5284		58.593750
5285		52.734375
5286		60.546875
5287		56.640625
5288		60.546875
5289		58.593750
5290		62.500000
5291		60.546875
5292		64.453125
5293		62.500000
5294		66.406250
5295		64.453125
5296		68.359375
5297		66.406250
5298		68.359375
5299		66.406250
5300		70.312500
5301		66.406250
5302		72.265625
5303		68.359375
5304		74.218750
5305		70.312500
5306		72.265625
5307		70.312500
5308		74.218750
5309		72.265625
5310		74.218750
5311		72.265625
5312		74.218750
5313		72.265625
5314		74.218750
5315		72.265625
5316		74.218750
5317		70.312500
5318		76.171875
5319		70.312500
5320		76.171875
5321		72.265625
5322		74.218750
5323		72.265625
5324		74.218750
5325		70.312500
5326		74.218750
5327		70.312500
5328		72.265625
5329		68.359375
5330		72.265625
5331		68.359375
5332		70.312500
5333		66.406250
5334		70.312500
5335		64.453125
5336		70.312500
5337		64.453125
5338		68.359375
5339		62.500000
5340		66.406250
5341		60.546875
5342		64.453125
5343		58.593750
5344		62.500000
5345		56.640625
5346		60.546875
5347		54.687500
5348		58.593750
5349		52.734375
5350		56.640625
5351		48.828125
5352		54.687500
5353		46.875000
5354		50.781250
5355		44.921875
5356		48.828125
5357		41.015625
5358		46.875000
5359		39.062500
5360		42.968750
5361		35.156250
5362		41.015625
5363		33.203125
5364		37.109375
5365		31.250000
5366		35.156250
5367		25.390625
5368		31.250000
5369		23.437500
5370		29.296875
5371		21.484375
5372		25.390625
5373		17.578125
5374		21.484375
5375		13.671875
5376		17.578125
5377		9.765625
5378		15.625000
5379		7.812500
5380		11.718750
5381		3.906250
5382		9.765625
5383		0.000000
5384		5.859375
5385		-1.953125
5386		1.953125
5387		-5.859375
5388		-1.953125
5389		-9.765625
5390		-3.906250
5391		-11.718750
5392		-7.812500
5393		-15.625000
5394		-11.718750
5395		-19.531250
5396		-13.671875
5397		-21.484375
5398		-17.578125
5399		-25.390625
5400		-21.484375
5401		-29.296875
5402		-23.437500
5403		-31.250000
5404		-27.343750
5405		-33.203125
5406		-29.296875
5407		-37.109375
5408		-33.203125
5409		-39.062500
5410		-35.156250
5411		-41.015625
5412		-37.109375
5413		-44.921875
5414		-39.062500
5415		-46.875000
5416		-42.968750
5417		-48.828125
5418		-44.921875
5419		-50.781250
5420		-46.875000
5421		-52.734375
5422		-48.828125
5423		-54.687500
5424		-50.781250
5425		-54.687500
5426		-52.734375
5427		-56.640625
5428		-54.687500
5429		-58.593750
5430		-54.687500
5431		-58.593750
5432		-56.640625
5433		-60.546875
5434		-56.640625
5435		-60.546875
5436		-58.593750
5437		-60.546875
5438		-58.593750
5439		-60.546875
5440		-58.593750
5441		-60.546875
5442		-58.593750
5443		-60.546875
5444		-58.593750
5445		-60.546875
5446		-58.593750
5447		-60.546875
5448		-58.593750
5449		-60.546875
5450		-58.593750
5451		-60.546875
5452		-56.640625
5453		-58.593750
5454		-56.640625
5455		-58.593750
5456		-54.687500
5457		-56.640625
5458		-52.734375
5459		-54.687500
5460		-52.734375
5461		-52.734375
5462		-50.781250
5463		-52.734375
5464		-48.828125
5465		-50.781250
5466		-46.875000
5467		-48.828125
5468		-44.921875
5469		-46.875000
5470		-42.968750
5471		-44.921875
5472		-41.015625
5473		-41.015625
5474		-37.109375
5475		-39.062500
5476		-35.156250
5477		-37.109375
5478		-33.203125
5479		-33.203125
5480		-29.296875
5481		-31.250000
5482		-27.343750
5483		-27.343750
5484		-23.437500
5485		-25.390625
5486		-21.484375
5487		-21.484375
5488		-17.578125
5489		-19.531250
5490		-13.671875
5491		-15.625000
5492		-11.718750
5493		-11.718750
5494		-7.812500
5495		-9.765625
5496		-3.906250
5497		-5.859375
5498		-1.953125
5499		-3.906250
5500		1.953125
5501		0.000000
5502		5.859375
5503		3.906250
5504		9.765625
5505		7.812500
5506		11.718750
5507		9.765625
5508		15.625000
5509		13.671875
5510		19.531250
5511		17.578125
5512		21.484375
5513		19.531250
5514		25.390625
5515		23.437500
5516		27.343750
5517		27.343750
5518		31.250000
5519		29.296875
5520		35.156250
5521		33.203125
5522		37.109375
5523		35.156250
5524		41.015625
5525		39.062500
5526		42.968750
5527		41.015625
5528		46.875000
5529		44.921875
5530		48.828125
5531		46.875000
5532		50.781250
5533		50.781250
5534		52.734375
5535		52.734375
5536		54.687500
5537		54.687500
5538		58.593750
5539		56.640625
5540		60.546875
5541		58.593750
5542		62.500000
5543		60.546875
5544		62.500000
5545		62.500000
5546		66.406250
5547		64.453125
5548		66.406250
5549		64.453125
5550		68.359375
5551		66.406250
5552		70.312500
5553		68.359375
5554		70.312500
5555		68.359375
5556		72.265625
5557		70.312500
5558		72.265625
5559		70.312500
5560		74.218750
5561		70.312500
5562		74.218750
5563		72.265625
5564		74.218750
5565		72.265625
5566		74.218750
5567		72.265625
5568		74.218750
5569		72.265625
5570		74.218750
5571		72.265625
5572		74.218750
5573		72.265625
5574		74.218750
5575		72.265625
5576		74.218750
5577		70.312500
5578		74.218750
5579		70.312500
5580		72.265625
5581		68.359375
5582		72.265625
5583		68.359375
5584		70.312500
5585		66.406250
5586		70.312500
5587		66.406250
5588		68.359375
5589		64.453125
5590		68.359375
5591		62.500000
5592		66.406250
5593		60.546875
5594		64.453125
5595		58.593750
5596		62.500000
5597		56.640625
5598		60.546875
5599		54.687500
5600		58.593750
5601		52.734375
5602		56.640625
5603		50.781250
5604		52.734375
5605		46.875000
5606		50.781250
5607		44.921875
5608		48.828125
5609		42.968750
5610		46.875000
5611		39.062500
5612		42.968750
5613		37.109375
5614		41.015625
5615		33.203125
5616		37.109375
5617		31.250000
5618		35.156250
5619		27.343750
5620		31.250000
5621		23.437500
5622		29.296875
5623		21.484375
5624		25.390625
5625		17.578125
5626		21.484375
5627		13.671875
5628		19.531250
5629		11.718750
5630		15.625000
5631		7.812500
5632		11.718750
5633		3.906250
5634		7.812500
5635		0.000000
5636		5.859375
5637		-1.953125
5638		1.953125
5639		-5.859375
5640		-1.953125
5641		-9.765625
5642		-3.906250
5643		-11.718750
5644		-7.812500
5645		-15.625000
5646		-11.718750
5647		-19.531250
5648		-13.671875
5649		-21.484375
5650		-17.578125
5651		-25.390625
5652		-21.484375
5653		-27.343750
5654		-23.437500
5655		-31.250000
5656		-27.343750
5657		-33.203125
5658		-29.296875
5659		-37.109375
5660		-31.250000
5661		-39.062500
5662		-35.156250
5663		-41.015625
5664		-37.109375
5665		-44.921875
5666		-39.062500
5667		-46.875000
5668		-42.968750
5669		-48.828125
5670		-44.921875
5671		-50.781250
5672		-46.875000
5673		-52.734375
5674		-48.828125
5675		-54.687500
5676		-50.781250
5677		-54.687500
5678		-52.734375
5679		-56.640625
5680		-52.734375
5681		-58.593750
5682		-54.687500
5683		-58.593750
5684		-56.640625
5685		-60.546875
5686		-56.640625
5687		-60.546875
5688		-58.593750
5689		-60.546875
5690		-58.593750
5691		-60.546875
5692		-58.593750
5693		-60.546875
5694		-58.593750
5695		-60.546875
5696		-58.593750
5697		-60.546875
5698		-58.593750
5699		-60.546875
5700		-58.593750
5701		-60.546875
5702		-56.640625
5703		-60.546875
5704		-56.640625
5705		-58.593750
5706		-56.640625
5707		-58.593750
5708		-54.687500
5709		-56.640625
5710		-54.687500
5711		-54.687500
5712		-52.734375
5713		-54.687500
5714		-50.781250
5715		-52.734375
5716		-48.828125
5717		-50.781250
5718		-46.875000
5719		-48.828125
5720		-44.921875
5721		-46.875000
5722		-42.968750
5723		-44.921875
5724		-41.015625
5725		-41.015625
5726		-37.109375
5727		-39.062500
5728		-35.156250
5729		-37.109375
5730		-33.203125
5731		-33.203125
5732		-29.296875
5733		-31.250000
5734		-27.343750
5735		-29.296875
5736		-23.437500
5737		-25.390625
5738		-21.484375
5739		-21.484375
5740		-17.578125
5741		-19.531250
5742		-15.625000
5743		-15.625000
5744		-11.718750
5745		-13.671875
5746		-7.812500
5747		-9.765625
5748		-5.859375
5749		-5.859375
5750		-1.953125
5751		-3.906250
5752		1.953125
5753		0.000000
5754		5.859375
5755		3.906250
5756		7.812500
5757		5.859375
5758		11.718750
5759		9.765625
5760		15.625000
5761		13.671875
5762		17.578125
5763		17.578125
5764		21.484375
5765		21.484375
5766		25.390625
5767		23.437500
5768		27.343750
5769		27.343750
5770		31.250000
5771		29.296875
5772		35.156250
5773		33.203125
5774		37.109375
5775		35.156250
5776		39.062500
5777		39.062500
5778		42.968750
5779		41.015625
5780		44.921875
5781		44.921875
5782		48.828125
5783		46.875000
5784		50.781250
5785		48.828125
5786		52.734375
5787		52.734375
5788		54.687500
5789		54.687500
5790		56.640625
5791		56.640625
5792		60.546875
5793		58.593750
5794		62.500000
5795		60.546875
5796		64.453125
5797		62.500000
5798		64.453125
5799		64.453125
5800		66.406250
5801		64.453125
5802		68.359375
5803		66.406250
5804		70.312500
5805		68.359375
5806		70.312500
5807		68.359375
5808		72.265625
5809		70.312500
5810		72.265625
5811		70.312500
5812		74.218750
5813		72.265625
5814		74.218750
5815		72.265625
5816		74.218750
5817		72.265625
5818		74.218750
5819		72.265625
5820		74.218750
5821		72.265625
5822		74.218750
5823		72.265625
5824		74.218750
5825		72.265625
5826		74.218750
5827		72.265625
5828		74.218750
5829		72.265625
5830		74.218750
5831		70.312500
5832		74.218750
5833		70.312500
5834		72.265625
5835		68.359375
5836		70.312500
5837		66.406250
5838		70.312500
5839		66.406250
5840		68.359375
5841		64.453125
5842		68.359375
5843		62.500000
5844		66.406250
5845		60.546875
5846		64.453125
5847		58.593750
5848		62.500000
5849		56.640625
5850		60.546875
5851		54.687500
5852		58.593750
5853		52.734375
5854		56.640625
5855		50.781250
5856		54.687500
5857		48.828125
5858		52.734375
5859		44.921875
5860		48.828125
5861		42.968750
5862		46.875000
5863		39.062500
5864		44.921875
5865		37.109375
5866		41.015625
5867		33.203125
5868		39.062500
5869		31.250000
5870		35.156250
5871		27.343750
5872		33.203125
5873		25.390625
5874		29.296875
5875		21.484375
5876		25.390625
5877		17.578125
5878		23.437500
5879		15.625000
5880		19.531250
5881		11.718750
5882		15.625000
5883		7.812500
5884		13.671875
5885		5.859375
5886		9.765625
5887		1.953125
5888		5.859375
5889		-1.953125
5890		3.906250
5891		-5.859375
5892		0.000000
5893		-7.812500
5894		-3.906250
5895		-11.718750
5896		-7.812500
5897		-15.625000
5898		-9.765625
5899		-17.578125
5900		-13.671875
5901		-21.484375
5902		-17.578125
5903		-25.390625
5904		-19.531250
5905		-27.343750
5906		-23.437500
5907		-31.250000
5908		-25.390625
5909		-33.203125
5910		-29.296875
5911		-35.156250
5912		-31.250000
5913		-39.062500
5914		-35.156250
5915		-41.015625
5916		-37.109375
5917		-42.968750
5918		-39.062500
5919		-46.875000
5920		-42.968750
5921		-46.875000
5922		-44.921875
5923		-50.781250
5924		-46.875000
5925		-52.734375
5926		-48.828125
5927		-52.734375
5928		-50.781250
5929		-54.687500
5930		-52.734375
5931		-56.640625
5932		-52.734375
5933		-56.640625
5934		-54.687500
5935		-58.593750
5936		-56.640625
5937		-58.593750
5938		-56.640625
5939		-60.546875
5940		-56.640625
5941		-60.546875
5942		-58.593750
5943		-60.546875
5944		-58.593750
5945		-60.546875
5946		-58.593750
5947		-60.546875
5948		-58.593750
5949		-60.546875
5950		-58.593750
5951		-60.546875
5952		-58.593750
5953		-60.546875
5954		-58.593750
5955		-60.546875
5956		-56.640625
5957		-58.593750
5958		-56.640625
5959		-58.593750
5960		-54.687500
5961		-56.640625
5962		-54.687500
5963		-54.687500
5964		-52.734375
5965		-54.687500
5966		-50.781250
5967		-52.734375
5968		-48.828125
5969		-50.781250
5970		-46.875000
5971		-48.828125
5972		-44.921875
5973		-46.875000
5974		-42.968750
5975		-44.921875
5976		-41.015625
5977		-42.968750
5978		-39.062500
5979		-39.062500
5980		-35.156250
5981		-37.109375
5982		-33.203125
5983		-35.156250
5984		-31.250000
5985		-31.250000
5986		-27.343750
5987		-29.296875
5988		-25.390625
5989		-25.390625
5990		-21.484375
5991		-23.437500
5992		-17.578125
5993		-19.531250
5994		-15.625000
5995		-15.625000
5996		-11.718750
5997		-13.671875
5998		-9.765625
5999		-9.765625
6000		-5.859375
6001		-7.812500
6002		-1.953125
6003		-3.906250
6004		1.953125
6005		0.000000
6006		3.906250
6007		3.906250
6008		7.812500
6009		5.859375
6010		11.718750
6011		9.765625
6012		13.671875
6013		13.671875
6014		17.578125
6015		15.625000
6016		21.484375
6017		19.531250
6018		25.390625
6019		23.437500
6020		27.343750
6021		25.390625
6022		31.250000
6023		29.296875
6024		33.203125
6025		33.203125
6026		37.109375
6027		35.156250
6028		39.062500
6029		39.062500
6030		42.968750
6031		41.015625
6032		44.921875
6033		42.968750
6034		46.875000
6035		46.875000
6036		50.781250
6037		48.828125
6038		52.734375
6039		50.781250
6040		54.687500
6041		54.687500
6042		56.640625
6043		56.640625
6044		58.593750
6045		58.593750
6046		60.546875
6047		60.546875
6048		62.500000
6049		62.500000
6050		64.453125
6051		62.500000
6052		66.406250
6053		64.453125
6054		68.359375
6055		66.406250
6056		70.312500
6057		68.359375
6058		70.312500
6059		68.359375
6060		72.265625
6061		70.312500
6062		72.265625
6063		70.312500
6064		72.265625
6065		72.265625
6066		74.218750
6067		72.265625
6068		74.218750
6069		72.265625
6070		74.218750
6071		72.265625
6072		74.218750
6073		72.265625
6074		74.218750
6075		72.265625
6076		74.218750
6077		72.265625
6078		74.218750
6079		72.265625
6080		74.218750
6081		70.312500
6082		74.218750
6083		70.312500
6084		72.265625
6085		70.312500
6086		72.265625
6087		68.359375
6088		70.312500
6089		66.406250
6090		70.312500
6091		66.406250
6092		68.359375
6093		64.453125
6094		66.406250
6095		62.500000
6096		66.406250
6097		60.546875
6098		64.453125
6099		58.593750
6100		62.500000
6101		56.640625
6102		60.546875
6103		54.687500
6104		58.593750
6105		52.734375
6106		56.640625
6107		50.781250
6108		54.687500
6109		46.875000
6110		52.734375
6111		44.921875
6112		48.828125
6113		42.968750
6114		46.875000
6115		39.062500
6116		44.921875
6117		37.109375
6118		41.015625
6119		33.203125
6120		39.062500
6121		31.250000
6122		35.156250
6123		27.343750
6124		33.203125
6125		25.390625
6126		29.296875
6127		21.484375
6128		25.390625
6129		17.578125
6130		23.437500
6131		15.625000
6132		19.531250
6133		11.718750
6134		15.625000
6135		7.812500
6136		13.671875
6137		5.859375
6138		9.765625
6139		1.953125
6140		5.859375
6141		-1.953125
6142		3.906250
6143		-5.859375
6144		0.000000
6145		-7.812500
6146		-3.906250
6147		-11.718750
6148		-7.812500
6149		-15.625000
6150		-9.765625
6151		-17.578125
6152		-13.671875
6153		-21.484375
6154		-15.625000
6155		-23.437500
6156		-19.531250
6157		-27.343750
6158		-23.437500
6159		-31.250000
6160		-25.390625
6161		-33.203125
6162		-29.296875
6163		-35.156250
6164		-31.250000
6165		-39.062500
6166		-33.203125
6167		-41.015625
6168		-37.109375
6169		-42.968750
6170		-39.062500
6171		-44.921875
6172		-41.015625
6173		-46.875000
6174		-44.921875
6175		-48.828125
6176		-46.875000
6177		-50.781250
6178		-48.828125
6179		-52.734375
6180		-50.781250
6181		-54.687500
6182		-52.734375
6183		-56.640625
6184		-52.734375
6185		-58.593750
6186		-54.687500
6187		-58.593750
6188		-56.640625
6189		-58.593750
6190		-56.640625
6191		-62.500000
6192		-58.593750
6193		-60.546875
6194		-58.593750
6195		-62.500000
6196		-56.640625
6197		-62.500000
6198		-58.593750
6199		-62.500000
6200		-58.593750
6201		-60.546875
6202		-58.593750
6203		-60.546875
6204		-58.593750
6205		-60.546875
6206		-58.593750
6207		-60.546875
6208		-56.640625
6209		-58.593750
6210		-56.640625
6211		-58.593750
6212		-52.734375
6213		-58.593750
6214		-52.734375
6215		-56.640625
6216		-52.734375
6217		-56.640625
6218		-48.828125
6219		-52.734375
6220		-46.875000
6221		-50.781250
6222		-46.875000
6223		-48.828125
6224		-46.875000
6225		-46.875000
6226		-42.968750
6227		-44.921875
6228		-41.015625
6229		-42.968750
6230		-39.062500
6231		-41.015625
6232		-37.109375
6233		-39.062500
6234		-33.203125
6235		-35.156250
6236		-31.250000
6237		-35.156250
6238		-27.343750
6239		-29.296875
6240		-25.390625
6241		-27.343750
6242		-21.484375
6243		-25.390625
6244		-19.531250
6245		-21.484375
6246		-13.671875
6247		-17.578125
6248		-11.718750
6249		-13.671875
6250		-7.812500
6251		-13.671875
6252		-5.859375
6253		-7.812500
6254		0.000000
6255		-3.906250
6256		0.000000
6257		0.000000
6258		3.906250
6259		1.953125
6260		7.812500
6261		3.906250
6262		11.718750
6263		5.859375
6264		13.671875
6265		11.718750
6266		17.578125
6267		15.625000
6268		21.484375
6269		19.531250
6270		23.437500
6271		19.531250
6272		27.343750
6273		25.390625
6274		29.296875
6275		29.296875
6276		35.156250
6277		31.250000
6278		39.062500
6279		35.156250
6280		41.015625
6281		37.109375
6282		42.968750
6283		39.062500
6284		46.875000
6285		39.062500
6286		48.828125
6287		44.921875
6288		52.734375
6289		48.828125
6290		52.734375
6291		50.781250
6292		54.687500
6293		52.734375
6294		58.593750
6295		52.734375
6296		60.546875
6297		56.640625
6298		60.546875
6299		58.593750
6300		62.500000
6301		58.593750
6302		66.406250
6303		62.500000
6304		68.359375
6305		60.546875
6306		68.359375
6307		66.406250
6308		70.312500
6309		66.406250
6310		72.265625
6311		64.453125
6312		74.218750
6313		66.406250
6314		74.218750
6315		70.312500
6316		72.265625
6317		68.359375
6318		78.125000
6319		68.359375
6320		78.125000
6321		68.359375
6322		78.125000
6323		72.265625
6324		74.218750
6325		72.265625
6326		74.218750
6327		70.312500
6328		76.171875
6329		68.359375
6330		78.125000
6331		70.312500
6332		74.218750
6333		70.312500
6334		74.218750
6335		66.406250
6336		76.171875
6337		66.406250
6338		76.171875
6339		68.359375
6340		72.265625
6341		68.359375
6342		70.312500
6343		64.453125
6344		70.312500
6345		60.546875
6346		72.265625
6347		62.500000
6348		68.359375
6349		60.546875
6350		64.453125
6351		56.640625
6352		66.406250
6353		54.687500
6354		64.453125
6355		54.687500
6356		62.500000
6357		52.734375
6358		56.640625
6359		48.828125
6360		54.687500
6361		44.921875
6362		54.687500
6363		44.921875
6364		50.781250
6365		42.968750
6366		46.875000
6367		37.109375
6368		44.921875
6369		35.156250
6370		44.921875
6371		33.203125
6372		41.015625
6373		31.250000
6374		35.156250
6375		29.296875
6376		33.203125
6377		23.437500
6378		29.296875
6379		21.484375
6380		29.296875
6381		19.531250
6382		25.390625
6383		15.625000
6384		19.531250
6385		7.812500
6386		19.531250
6387		7.812500
6388		13.671875
6389		5.859375
6390		13.671875
6391		1.953125
6392		7.812500
6393		-1.953125
6394		3.906250
6395		-7.812500
6396		1.953125
6397		-9.765625
6398		-1.953125
6399		-11.718750
6400		-5.859375
6401		-17.578125
6402		-9.765625
6403		-19.531250
6404		-9.765625
6405		-23.437500
6406		-13.671875
6407		-23.437500
6408		-19.531250
6409		-27.343750
6410		-21.484375
6411		-31.250000
6412		-25.390625
6413		-35.156250
6414		-25.390625
6415		-35.156250
6416		-29.296875
6417		-39.062500
6418		-35.156250
6419		-42.968750
6420		-35.156250
6421		-44.921875
6422		-37.109375
6423		-44.921875
6424		-41.015625
6425		-48.828125
6426		-44.921875
6427		-50.781250
6428		-46.875000
6429		-54.687500
6430		-46.875000
6431		-54.687500
6432		-48.828125
6433		-54.687500
6434		-52.734375
6435		-58.593750
6436		-50.781250
6437		-60.546875
6438		-50.781250
6439		-58.593750
6440		-52.734375
6441		-58.593750
6442		-56.640625
6443		-60.546875
6444		-56.640625
6445		-62.500000
6446		-56.640625
6447		-64.453125
6448		-54.687500
6449		-62.500000
6450		-58.593750
6451		-64.453125
6452		-58.593750
6453		-64.453125
6454		-54.687500
6455		-64.453125
6456		-56.640625
6457		-62.500000
6458		-58.593750
6459		-60.546875
6460		-58.593750
6461		-60.546875
6462		-56.640625
6463		-62.500000
6464		-52.734375
6465		-60.546875
6466		-54.687500
6467		-56.640625
6468		-52.734375
6469		-56.640625
6470		-50.781250
6471		-52.734375
6472		-50.781250
6473		-54.687500
6474		-46.875000
6475		-50.781250
6476		-46.875000
6477		-46.875000
6478		-44.921875
6479		-46.875000
6480		-39.062500
6481		-44.921875
6482		-39.062500
6483		-41.015625
6484		-37.109375
6485		-39.062500
6486		-33.203125
6487		-35.156250
6488		-31.250000
6489		-33.203125
6490		-29.296875
6491		-31.250000
6492		-25.390625
6493		-27.343750
6494		-23.437500
6495		-23.437500
6496		-19.531250
6497		-21.484375
6498		-15.625000
6499		-17.578125
6500		-13.671875
6501		-15.625000
6502		-9.765625
6503		-11.718750
6504		-7.812500
6505		-7.812500
6506		-3.906250
6507		-5.859375
6508		0.000000
6509		-1.953125
6510		1.953125
6511		1.953125
6512		5.859375
6513		3.906250
6514		9.765625
6515		7.812500
6516		13.671875
6517		11.718750
6518		15.625000
6519		15.625000
6520		19.531250
6521		17.578125
6522		23.437500
6523		21.484375
6524		25.390625
6525		25.390625
6526		29.296875
6527		27.343750
6528		33.203125
6529		31.250000
6530		35.156250
6531		33.203125
6532		39.062500
6533		37.109375
6534		42.968750
6535		39.062500
6536		42.968750
6537		42.968750
6538		46.875000
6539		44.921875
6540		50.781250
6541		46.875000
6542		50.781250
6543		50.781250
6544		54.687500
6545		52.734375
6546		58.593750
6547		52.734375
6548		60.546875
6549		54.687500
6550		60.546875
6551		56.640625
6552		62.500000
6553		60.546875
6554		64.453125
6555		60.546875
6556		66.406250
6557		62.500000
6558		68.359375
6559		66.406250
6560		68.359375
6561		66.406250
6562		70.312500
6563		66.406250
6564		72.265625
6565		68.359375
6566		74.218750
6567		68.359375
6568		74.218750
6569		70.312500
6570		74.218750
6571		70.312500
6572		74.218750
6573		70.312500
6574		74.218750
6575		72.265625
6576		74.218750
6577		72.265625
6578		74.218750
6579		70.312500
6580		76.171875
6581		70.312500
6582		76.171875
6583		70.312500
6584		76.171875
6585		70.312500
6586		74.218750
6587		68.359375
6588		74.218750
6589		68.359375
6590		74.218750
6591		68.359375
6592		72.265625
6593		68.359375
6594		70.312500
6595		64.453125
6596		70.312500
6597		62.500000
6598		68.359375
6599		62.500000
6600		68.359375
6601		60.546875
6602		66.406250
6603		58.593750
6604		64.453125
6605		56.640625
6606		62.500000
6607		54.687500
6608		60.546875
6609		52.734375
6610		56.640625
6611		50.781250
6612		54.687500
6613		46.875000
6614		52.734375
6615		44.921875
6616		50.781250
6617		41.015625
6618		48.828125
6619		39.062500
6620		44.921875
6621		37.109375
6622		42.968750
6623		33.203125
6624		39.062500
6625		31.250000
6626		35.156250
6627		29.296875
6628		33.203125
6629		25.390625
6630		29.296875
6631		21.484375
6632		27.343750
6633		17.578125
6634		23.437500
6635		15.625000
6636		21.484375
6637		11.718750
6638		17.578125
6639		7.812500
6640		13.671875
6641		5.859375
6642		11.718750
6643		1.953125
6644		7.812500
6645		-1.953125
6646		3.906250
6647		-5.859375
6648		0.000000
6649		-7.812500
6650		-1.953125
6651		-13.671875
6652		-5.859375
6653		-15.625000
6654		-7.812500
6655		-17.578125
6656		-11.718750
6657		-21.484375
6658		-15.625000
6659		-23.437500
6660		-19.531250
6661		-27.343750
6662		-21.484375
6663		-29.296875
6664		-23.437500
6665		-33.203125
6666		-27.343750
6667		-35.156250
6668		-31.250000
6669		-39.062500
6670		-31.250000
6671		-41.015625
6672		-37.109375
6673		-42.968750
6674		-39.062500
6675		-44.921875
6676		-41.015625
6677		-46.875000
6678		-42.968750
6679		-48.828125
6680		-46.875000
6681		-52.734375
6682		-46.875000
6683		-52.734375
6684		-50.781250
6685		-56.640625
6686		-50.781250
6687		-56.640625
6688		-52.734375
6689		-58.593750
6690		-54.687500
6691		-60.546875
6692		-54.687500
6693		-58.593750
6694		-56.640625
6695		-60.546875
6696		-58.593750
6697		-60.546875
6698		-58.593750
6699		-62.500000
6700		-58.593750
6701		-64.453125
6702		-56.640625
6703		-62.500000
6704		-58.593750
6705		-62.500000
6706		-58.593750
6707		-62.500000
6708		-56.640625
6709		-60.546875
6710		-58.593750
6711		-60.546875
6712		-58.593750
6713		-60.546875
6714		-56.640625
6715		-58.593750
6716		-56.640625
6717		-58.593750
6718		-54.687500
6719		-58.593750
6720		-50.781250
6721		-56.640625
6722		-50.781250
6723		-54.687500
6724		-50.781250
6725		-52.734375
6726		-48.828125
6727		-50.781250
6728		-46.875000
6729		-48.828125
6730		-42.968750
6731		-46.875000
6732		-42.968750
6733		-44.921875
6734		-39.062500
6735		-41.015625
6736		-37.109375
6737		-39.062500
6738		-35.156250
6739		-37.109375
6740		-31.250000
6741		-33.203125
6742		-29.296875
6743		-31.250000
6744		-25.390625
6745		-27.343750
6746		-23.437500
6747		-25.390625
6748		-19.531250
6749		-21.484375
6750		-15.625000
6751		-17.578125
6752		-13.671875
6753		-17.578125
6754		-9.765625
6755		-11.718750
6756		-5.859375
6757		-9.765625
6758		-3.906250
6759		-7.812500
6760		0.000000
6761		-1.953125
6762		1.953125
6763		1.953125
6764		5.859375
6765		3.906250
6766		9.765625
6767		7.812500
6768		13.671875
6769		11.718750
6770		15.625000
6771		15.625000
6772		19.531250
6773		17.578125
6774		23.437500
6775		21.484375
6776		25.390625
6777		25.390625
6778		29.296875
6779		27.343750
6780		33.203125
6781		31.250000
6782		35.156250
6783		33.203125
6784		39.062500
6785		37.109375
6786		42.968750
6787		39.062500
6788		42.968750
6789		42.968750
6790		46.875000
6791		44.921875
6792		48.828125
6793		46.875000
6794		50.781250
6795		50.781250
6796		52.734375
6797		50.781250
6798		56.640625
6799		54.687500
6800		58.593750
6801		56.640625
6802		60.546875
6803		58.593750
6804		62.500000
6805		60.546875
6806		64.453125
6807		62.500000
6808		66.406250
6809		64.453125
6810		66.406250
6811		66.406250
6812		68.359375
6813		66.406250
6814		70.312500
6815		66.406250
6816		70.312500
6817		68.359375
6818		72.265625
6819		70.312500
6820		72.265625
6821		70.312500
6822		74.218750
6823		72.265625
6824		74.218750
6825		70.312500
6826		76.171875
6827		72.265625
6828		74.218750
6829		72.265625
6830		74.218750
6831		72.265625
6832		76.171875
6833		72.265625
6834		74.218750
6835		72.265625
6836		74.218750
6837		70.312500
6838		74.218750
6839		70.312500
6840		74.218750
6841		70.312500
6842		74.218750
6843		68.359375
6844		72.265625
6845		68.359375
6846		70.312500
6847		66.406250
6848		70.312500
6849		64.453125
6850		68.359375
6851		62.500000
6852		66.406250
6853		60.546875
6854		66.406250
6855		60.546875
6856		64.453125
6857		56.640625
6858		62.500000
6859		56.640625
6860		60.546875
6861		52.734375
6862		56.640625
6863		50.781250
6864		54.687500
6865		48.828125
6866		52.734375
6867		46.875000
6868		50.781250
6869		42.968750
6870		48.828125
6871		41.015625
6872		44.921875
6873		39.062500
6874		42.968750
6875		33.203125
6876		39.062500
6877		33.203125
6878		37.109375
6879		29.296875
6880		33.203125
6881		25.390625
6882		31.250000
6883		23.437500
6884		29.296875
6885		19.531250
6886		25.390625
6887		15.625000
6888		21.484375
6889		11.718750
6890		17.578125
6891		9.765625
6892		13.671875
6893		5.859375
6894		11.718750
6895		3.906250
6896		7.812500
6897		0.000000
6898		3.906250
6899		-3.906250
6900		1.953125
6901		-7.812500
6902		-1.953125
6903		-9.765625
6904		-5.859375
6905		-13.671875
6906		-9.765625
6907		-17.578125
6908		-11.718750
6909		-21.484375
6910		-15.625000
6911		-23.437500
6912		-19.531250
6913		-27.343750
6914		-21.484375
6915		-29.296875
6916		-23.437500
6917		-33.203125
6918		-27.343750
6919		-35.156250
6920		-29.296875
6921		-39.062500
6922		-33.203125
6923		-41.015625
6924		-35.156250
6925		-42.968750
6926		-39.062500
6927		-44.921875
6928		-39.062500
6929		-46.875000
6930		-42.968750
6931		-50.781250
6932		-44.921875
6933		-50.781250
6934		-46.875000
6935		-52.734375
6936		-48.828125
6937		-54.687500
6938		-50.781250
6939		-56.640625
6940		-52.734375
6941		-58.593750
6942		-54.687500
6943		-58.593750
6944		-54.687500
6945		-60.546875
6946		-56.640625
6947		-60.546875
6948		-56.640625
6949		-60.546875
6950		-58.593750
6951		-62.500000
6952		-58.593750
6953		-62.500000
6954		-58.593750
6955		-62.500000
6956		-58.593750
6957		-62.500000
6958		-58.593750
6959		-62.500000
6960		-58.593750
6961		-60.546875
6962		-58.593750
6963		-60.546875
6964		-58.593750
6965		-60.546875
6966		-56.640625
6967		-58.593750
6968		-56.640625
6969		-58.593750
6970		-54.687500
6971		-56.640625
6972		-52.734375
6973		-54.687500
6974		-52.734375
6975		-54.687500
6976		-50.781250
6977		-52.734375
6978		-48.828125
6979		-50.781250
6980		-46.875000
6981		-48.828125
6982		-44.921875
6983		-46.875000
6984		-42.968750
6985		-44.921875
6986		-41.015625
6987		-42.968750
6988		-37.109375
6989		-39.062500
6990		-35.156250
6991		-37.109375
6992		-33.203125
6993		-35.156250
6994		-29.296875
6995		-31.250000
6996		-27.343750
6997		-27.343750
6998		-23.437500
6999		-25.390625
7000		-21.484375
7001		-21.484375
7002		-17.578125
7003		-19.531250
7004		-13.671875
7005		-15.625000
7006		-9.765625
7007		-11.718750
7008		-7.812500
7009		-9.765625
7010		-3.906250
7011		-5.859375
7012		-1.953125
7013		-1.953125
7014		1.953125
7015		0.000000
7016		5.859375
7017		3.906250
7018		7.812500
7019		5.859375
7020		13.671875
7021		9.765625
7022		15.625000
7023		13.671875
7024		19.531250
7025		17.578125
7026		23.437500
7027		21.484375
7028		25.390625
7029		23.437500
7030		27.343750
7031		27.343750
7032		31.250000
7033		29.296875
7034		35.156250
7035		33.203125
7036		37.109375
7037		35.156250
7038		41.015625
7039		39.062500
7040		42.968750
7041		41.015625
7042		46.875000
7043		44.921875
7044		50.781250
7045		46.875000
7046		50.781250
7047		48.828125
7048		52.734375
7049		50.781250
7050		56.640625
7051		52.734375
7052		58.593750
7053		56.640625
7054		60.546875
7055		56.640625
7056		62.500000
7057		60.546875
7058		64.453125
7059		62.500000
7060		66.406250
7061		62.500000
7062		66.406250
7063		64.453125
7064		68.359375
7065		64.453125
7066		70.312500
7067		66.406250
7068		70.312500
7069		68.359375
7070		72.265625
7071		68.359375
7072		72.265625
7073		70.312500
7074		74.218750
7075		70.312500
7076		74.218750
7077		70.312500
7078		74.218750
7079		72.265625
7080		74.218750
7081		72.265625
7082		74.218750
7083		70.312500
7084		76.171875
7085		72.265625
7086		74.218750
7087		70.312500
7088		74.218750
7089		70.312500
7090		72.265625
7091		70.312500
7092		74.218750
7093		68.359375
7094		72.265625
7095		68.359375
7096		72.265625
7097		66.406250
7098		70.312500
7099		66.406250
7100		68.359375
7101		64.453125
7102		68.359375
7103		62.500000
7104		66.406250
7105		60.546875
7106		64.453125
7107		60.546875
7108		62.500000
7109		56.640625
7110		62.500000
7111		54.687500
7112		60.546875
7113		52.734375
7114		56.640625
7115		50.781250
7116		54.687500
7117		48.828125
7118		52.734375
7119		46.875000
7120		50.781250
7121		42.968750
7122		46.875000
7123		41.015625
7124		44.921875
7125		37.109375
7126		42.968750
7127		35.156250
7128		39.062500
7129		31.250000
7130		37.109375
7131		29.296875
7132		33.203125
7133		25.390625
7134		29.296875
7135		21.484375
7136		27.343750
7137		19.531250
7138		23.437500
7139		15.625000
7140		21.484375
7141		11.718750
7142		17.578125
7143		9.765625
7144		15.625000
7145		5.859375
7146		11.718750
7147		1.953125
7148		7.812500
7149		-1.953125
7150		3.906250
7151		-3.906250
7152		1.953125
7153		-7.812500
7154		-1.953125
7155		-9.765625
7156		-5.859375
7157		-13.671875
7158		-9.765625
7159		-17.578125
7160		-11.718750
7161		-21.484375
7162		-15.625000
7163		-23.437500
7164		-19.531250
7165		-25.390625
7166		-21.484375
7167		-29.296875
7168		-25.390625
7169		-31.250000
7170		-27.343750
7171		-35.156250
7172		-29.296875
7173		-37.109375
7174		-33.203125
7175		-41.015625
7176		-37.109375
7177		-42.968750
7178		-39.062500
7179		-44.921875
7180		-41.015625
7181		-46.875000
7182		-44.921875
7183		-50.781250
7184		-46.875000
7185		-52.734375
7186		-48.828125
7187		-54.687500
7188		-48.828125
7189		-54.687500
7190		-50.781250
7191		-56.640625
7192		-52.734375
7193		-58.593750
7194		-54.687500
7195		-58.593750
7196		-54.687500
7197		-60.546875
7198		-56.640625
7199		-60.546875
7200		-58.593750
7201		-62.500000
7202		-58.593750
7203		-62.500000
7204		-58.593750
7205		-62.500000
7206		-58.593750
7207		-62.500000
7208		-60.546875
7209		-62.500000
7210		-58.593750
7211		-62.500000
7212		-60.546875
7213		-62.500000
7214		-58.593750
7215		-60.546875
7216		-58.593750
7217		-60.546875
7218		-56.640625
7219		-60.546875
7220		-56.640625
7221		-58.593750
7222		-56.640625
7223		-58.593750
7224		-54.687500
7225		-56.640625
7226		-52.734375
7227		-54.687500
7228		-50.781250
7229		-52.734375
7230		-48.828125
7231		-50.781250
7232		-48.828125
7233		-48.828125
7234		-44.921875
7235		-46.875000
7236		-42.968750
7237		-44.921875
7238		-41.015625
7239		-42.968750
7240		-39.062500
7241		-41.015625
7242		-35.156250
7243		-39.062500
7244		-33.203125
7245		-35.156250
7246		-29.296875
7247		-31.250000
7248		-27.343750
7249		-29.296875
7250		-25.390625
7251		-25.390625
7252		-21.484375
7253		-23.437500
7254		-17.578125
7255		-19.531250
7256		-15.625000
7257		-17.578125
7258		-11.718750
7259		-13.671875
7260		-9.765625
7261		-9.765625
7262		-5.859375
7263		-7.812500
7264		-1.953125
7265		-3.906250
7266		1.953125
7267		0.000000
7268		5.859375
7269		3.906250
7270		7.812500
7271		5.859375
7272		11.718750
7273		9.765625
7274		13.671875
7275		13.671875
7276		19.531250
7277		15.625000
7278		21.484375
7279		19.531250
7280		25.390625
7281		23.437500
7282		27.343750
7283		25.390625
7284		31.250000
7285		27.343750
7286		33.203125
7287		33.203125
7288		37.109375
7289		35.156250
7290		39.062500
7291		39.062500
7292		42.968750
7293		41.015625
7294		44.921875
7295		42.968750
7296		48.828125
7297		44.921875
7298		50.781250
7299		48.828125
7300		52.734375
7301		50.781250
7302		54.687500
7303		52.734375
7304		56.640625
7305		54.687500
7306		58.593750
7307		56.640625
7308		62.500000
7309		60.546875
7310		62.500000
7311		60.546875
7312		64.453125
7313		62.500000
7314		66.406250
7315		64.453125
7316		68.359375
7317		64.453125
7318		70.312500
7319		66.406250
7320		70.312500
7321		68.359375
7322		70.312500
7323		68.359375
7324		72.265625
7325		70.312500
7326		72.265625
7327		70.312500
7328		74.218750
7329		70.312500
7330		74.218750
7331		72.265625
7332		74.218750
7333		72.265625
7334		74.218750
7335		70.312500
7336		74.218750
7337		70.312500
7338		74.218750
7339		70.312500
7340		74.218750
7341		70.312500
7342		72.265625
7343		70.312500
7344		74.218750
7345		68.359375
7346		72.265625
7347		68.359375
7348		72.265625
7349		68.359375
7350		70.312500
7351		64.453125
7352		68.359375
7353		64.453125
7354		68.359375
7355		62.500000
7356		66.406250
7357		62.500000
7358		64.453125
7359		58.593750
7360		64.453125
7361		58.593750
7362		60.546875
7363		54.687500
7364		60.546875
7365		52.734375
7366		56.640625
7367		50.781250
7368		54.687500
7369		48.828125
7370		54.687500
7371		46.875000
7372		50.781250
7373		44.921875
7374		48.828125
7375		41.015625
7376		44.921875
7377		39.062500
7378		42.968750
7379		35.156250
7380		41.015625
7381		33.203125
7382		37.109375
7383		29.296875
7384		33.203125
7385		25.390625
7386		31.250000
7387		23.437500
7388		27.343750
7389		19.531250
7390		25.390625
7391		15.625000
7392		21.484375
7393		13.671875
7394		17.578125
7395		9.765625
7396		13.671875
7397		5.859375
7398		11.718750
7399		3.906250
7400		7.812500
7401		-1.953125
7402		5.859375
7403		-3.906250
7404		1.953125
7405		-5.859375
7406		-1.953125
7407		-9.765625
7408		-5.859375
7409		-13.671875
7410		-7.812500
7411		-17.578125
7412		-11.718750
7413		-19.531250
7414		-15.625000
7415		-23.437500
7416		-17.578125
7417		-25.390625
7418		-21.484375
7419		-29.296875
7420		-23.437500
7421		-33.203125
7422		-27.343750
7423		-35.156250
7424		-31.250000
7425		-37.109375
7426		-33.203125
7427		-41.015625
7428		-35.156250
7429		-42.968750
7430		-39.062500
7431		-44.921875
7432		-41.015625
7433		-46.875000
7434		-42.968750
7435		-50.781250
7436		-46.875000
7437		-50.781250
7438		-46.875000
7439		-54.687500
7440		-48.828125
7441		-54.687500
7442		-50.781250
7443		-56.640625
7444		-52.734375
7445		-58.593750
7446		-54.687500
7447		-60.546875
7448		-54.687500
7449		-60.546875
7450		-56.640625
7451		-60.546875
7452		-58.593750
7453		-62.500000
7454		-58.593750
7455		-62.500000
7456		-58.593750
7457		-62.500000
7458		-60.546875
7459		-62.500000
7460		-60.546875
7461		-62.500000
7462		-60.546875
7463		-62.500000
7464		-60.546875
7465		-62.500000
7466		-58.593750
7467		-62.500000
7468		-58.593750
7469		-62.500000
7470		-58.593750
7471		-60.546875
7472		-56.640625
7473		-58.593750
7474		-56.640625
7475		-58.593750
7476		-54.687500
7477		-56.640625
7478		-52.734375
7479		-54.687500
7480		-50.781250
7481		-52.734375
7482		-50.781250
7483		-52.734375
7484		-48.828125
7485		-48.828125
7486		-44.921875
7487		-48.828125
7488		-42.968750
7489		-46.875000
7490		-41.015625
7491		-42.968750
7492		-39.062500
7493		-41.015625
7494		-37.109375
7495		-39.062500
7496		-33.203125
7497		-35.156250
7498		-31.250000
7499		-33.203125
7500		-27.343750
7501		-29.296875
7502		-25.390625
7503		-27.343750
7504		-21.484375
7505		-25.390625
7506		-19.531250
7507		-21.484375
7508		-15.625000
7509		-17.578125
7510		-11.718750
7511		-13.671875
7512		-9.765625
7513		-11.718750
7514		-5.859375
7515		-7.812500
7516		-1.953125
7517		-3.906250
7518		0.000000
7519		0.000000
7520		3.906250
7521		1.953125
7522		7.812500
7523		5.859375
7524		11.718750
7525		7.812500
7526		13.671875
7527		11.718750
7528		17.578125
7529		15.625000
7530		21.484375
7531		19.531250
7532		23.437500
7533		21.484375
7534		27.343750
7535		25.390625
7536		29.296875
7537		27.343750
7538		33.203125
7539		31.250000
7540		35.156250
7541		35.156250
7542		39.062500
7543		37.109375
7544		42.968750
7545		41.015625
7546		44.921875
7547		42.968750
7548		46.875000
7549		44.921875
7550		48.828125
7551		48.828125
7552		52.734375
7553		50.781250
7554		54.687500
7555		52.734375
7556		56.640625
7557		54.687500
7558		58.593750
7559		56.640625
7560		60.546875
7561		58.593750
7562		62.500000
7563		60.546875
7564		64.453125
7565		62.500000
7566		66.406250
7567		64.453125
7568		68.359375
7569		66.406250
7570		70.312500
7571		66.406250
7572		70.312500
7573		68.359375
7574		70.312500
7575		68.359375
7576		72.265625
7577		70.312500
7578		72.265625
7579		70.312500
7580		74.218750
7581		70.312500
7582		74.218750
7583		72.265625
7584		74.218750
7585		72.265625
7586		74.218750
7587		70.312500
7588		74.218750
7589		70.312500
7590		74.218750
7591		70.312500
7592		74.218750
7593		70.312500
7594		74.218750
7595		68.359375
7596		72.265625
7597		68.359375
7598		72.265625
7599		68.359375
7600		72.265625
7601		66.406250
7602		70.312500
7603		66.406250
7604		68.359375
7605		64.453125
7606		68.359375
7607		62.500000
7608		66.406250
7609		60.546875
7610		66.406250
7611		58.593750
7612		62.500000
7613		56.640625
7614		60.546875
7615		54.687500
7616		60.546875
7617		52.734375
7618		56.640625
7619		50.781250
7620		54.687500
7621		48.828125
7622		52.734375
7623		46.875000
7624		50.781250
7625		42.968750
7626		48.828125
7627		41.015625
7628		44.921875
7629		39.062500
7630		42.968750
7631		35.156250
7632		41.015625
7633		33.203125
7634		37.109375
7635		29.296875
7636		35.156250
7637		25.390625
7638		31.250000
7639		23.437500
7640		27.343750
7641		19.531250
7642		25.390625
7643		15.625000
7644		21.484375
7645		13.671875
7646		19.531250
7647		9.765625
7648		15.625000
7649		5.859375
7650		11.718750
7651		3.906250
7652		7.812500
7653		0.000000
7654		5.859375
7655		-3.906250
7656		1.953125
7657		-5.859375
7658		-1.953125
7659		-9.765625
7660		-5.859375
7661		-13.671875
7662		-9.765625
7663		-17.578125
7664		-11.718750
7665		-21.484375
7666		-15.625000
7667		-23.437500
7668		-17.578125
7669		-25.390625
7670		-21.484375
7671		-29.296875
7672		-25.390625
7673		-31.250000
7674		-27.343750
7675		-35.156250
7676		-31.250000
7677		-39.062500
7678		-33.203125
7679		-41.015625
7680		-35.156250
7681		-42.968750
7682		-39.062500
7683		-44.921875
7684		-41.015625
7685		-46.875000
7686		-42.968750
7687		-50.781250
7688		-44.921875
7689		-52.734375
7690		-46.875000
7691		-52.734375
7692		-48.828125
7693		-54.687500
7694		-50.781250
7695		-56.640625
7696		-52.734375
7697		-58.593750
7698		-54.687500
7699		-58.593750
7700		-56.640625
7701		-60.546875
7702		-56.640625
7703		-60.546875
7704		-58.593750
7705		-62.500000
7706		-58.593750
7707		-62.500000
7708		-60.546875
7709		-62.500000
7710		-60.546875
7711		-62.500000
7712		-60.546875
7713		-64.453125
7714		-60.546875
7715		-62.500000
7716		-58.593750
7717		-64.453125
7718		-58.593750
7719		-62.500000
7720		-58.593750
7721		-62.500000
7722		-58.593750
7723		-60.546875
7724		-56.640625
7725		-60.546875
7726		-56.640625
7727		-58.593750
7728		-54.687500
7729		-58.593750
7730		-54.687500
7731		-54.687500
7732		-50.781250
7733		-54.687500
7734		-50.781250
7735		-52.734375
7736		-48.828125
7737		-50.781250
7738		-46.875000
7739		-48.828125
7740		-44.921875
7741		-46.875000
7742		-41.015625
7743		-42.968750
7744		-39.062500
7745		-41.015625
7746		-37.109375
7747		-39.062500
7748		-33.203125
7749		-37.109375
7750		-31.250000
7751		-33.203125
7752		-29.296875
7753		-31.250000
7754		-25.390625
7755		-27.343750
7756		-23.437500
7757		-25.390625
7758		-19.531250
7759		-21.484375
7760		-15.625000
7761		-17.578125
7762		-13.671875
7763		-13.671875
7764		-9.765625
7765		-11.718750
7766		-5.859375
7767		-7.812500
7768		-3.906250
7769		-3.906250
7770		0.000000
7771		-1.953125
7772		3.906250
7773		1.953125
7774		5.859375
7775		5.859375
7776		9.765625
7777		7.812500
7778		13.671875
7779		11.718750
7780		17.578125
7781		15.625000
7782		19.531250
7783		17.578125
7784		23.437500
7785		21.484375
7786		27.343750
7787		25.390625
7788		29.296875
7789		27.343750
7790		33.203125
7791		31.250000
7792		35.156250
7793		33.203125
7794		39.062500
7795		37.109375
7796		41.015625
7797		39.062500
7798		44.921875
7799		42.968750
7800		46.875000
7801		44.921875
7802		48.828125
7803		46.875000
7804		50.781250
7805		50.781250
7806		54.687500
7807		52.734375
7808		56.640625
7809		54.687500
7810		58.593750
7811		56.640625
7812		60.546875
7813		58.593750
7814		62.500000
7815		60.546875
7816		64.453125
7817		60.546875
7818		66.406250
7819		64.453125
7820		66.406250
7821		64.453125
7822		68.359375
7823		64.453125
7824		70.312500
7825		66.406250
7826		70.312500
7827		68.359375
7828		72.265625
7829		70.312500
7830		72.265625
7831		70.312500
7832		72.265625
7833		70.312500
7834		74.218750
7835		70.312500
7836		74.218750
7837		72.265625
7838		74.218750
7839		70.312500
7840		74.218750
7841		70.312500
7842		74.218750
7843		70.312500
7844		74.218750
7845		70.312500
7846		74.218750
7847		70.312500
7848		72.265625
7849		68.359375
7850		72.265625
7851		68.359375
7852		72.265625
7853		68.359375
7854		70.312500
7855		66.406250
7856		70.312500
7857		64.453125
7858		68.359375
7859		62.500000
7860		66.406250
7861		62.500000
7862		64.453125
7863		60.546875
7864		64.453125
7865		56.640625
7866		62.500000
7867		54.687500
7868		60.546875
7869		54.687500
7870		58.593750
7871		50.781250
7872		54.687500
7873		48.828125
7874		52.734375
7875		46.875000
7876		50.781250
7877		42.968750
7878		48.828125
7879		41.015625
7880		46.875000
7881		39.062500
7882		44.921875
7883		35.156250
7884		41.015625
7885		33.203125
7886		39.062500
7887		29.296875
7888		35.156250
7889		25.390625
7890		31.250000
7891		23.437500
7892		29.296875
7893		19.531250
7894		25.390625
7895		17.578125
7896		21.484375
7897		13.671875
7898		19.531250
7899		9.765625
7900		15.625000
7901		7.812500
7902		13.671875
7903		3.906250
7904		7.812500
7905		0.000000
7906		5.859375
7907		-3.906250
7908		3.906250
7909		-5.859375
7910		-1.953125
7911		-9.765625
7912		-3.906250
7913		-13.671875
7914		-7.812500
7915		-15.625000
7916		-11.718750
7917		-19.531250
7918		-13.671875
7919		-21.484375
7920		-17.578125
7921		-25.390625
7922		-21.484375
7923		-29.296875
7924		-23.437500
7925		-31.250000
7926		-27.343750
7927		-35.156250
7928		-29.296875
7929		-37.109375
7930		-33.203125
7931		-39.062500
7932		-35.156250
7933		-42.968750
7934		-37.109375
7935		-44.921875
7936		-41.015625
7937		-46.875000
7938		-42.968750
7939		-50.781250
7940		-44.921875
7941		-52.734375
7942		-46.875000
7943		-52.734375
7944		-48.828125
7945		-54.687500
7946		-50.781250
7947		-56.640625
7948		-52.734375
7949		-58.593750
7950		-54.687500
7951		-58.593750
7952		-54.687500
7953		-60.546875
7954		-56.640625
7955		-60.546875
7956		-58.593750
7957		-62.500000
7958		-58.593750
7959		-62.500000
7960		-58.593750
7961		-62.500000
7962		-60.546875
7963		-62.500000
7964		-60.546875
7965		-62.500000
7966		-60.546875
7967		-62.500000
7968		-60.546875
7969		-62.500000
7970		-60.546875
7971		-62.500000
7972		-60.546875
7973		-62.500000
7974		-58.593750
7975		-60.546875
7976		-58.593750
7977		-60.546875
7978		-56.640625
7979		-58.593750
7980		-54.687500
7981		-56.640625
7982		-54.687500
7983		-56.640625
7984		-52.734375
7985		-54.687500
7986		-50.781250
7987		-52.734375
7988		-48.828125
7989		-50.781250
7990		-46.875000
7991		-48.828125
7992		-44.921875
7993		-46.875000
7994		-41.015625
7995		-42.968750
7996		-41.015625
7997		-41.015625
7998		-37.109375
7999		-39.062500
8000		-35.156250
8001		-37.109375
8002		-31.250000
8003		-35.156250
8004		-29.296875
8005		-31.250000
8006		-25.390625
8007		-27.343750
8008		-23.437500
8009		-25.390625
8010		-19.531250
8011		-21.484375
8012		-17.578125
8013		-19.531250
8014		-13.671875
8015		-15.625000
8016		-9.765625
8017		-11.718750
8018		-7.812500
8019		-7.812500
8020		-3.906250
8021		-5.859375
8022		0.000000
8023		-1.953125
8024		3.906250
8025		0.000000
8026		7.812500
8027		3.906250
8028		9.765625
8029		7.812500
8030		13.671875
8031		11.718750
8032		15.625000
8033		15.625000
8034		19.531250
8035		17.578125
8036		23.437500
8037		21.484375
8038		25.390625
8039		25.390625
8040		29.296875
8041		27.343750
8042		33.203125
8043		31.250000
8044		35.156250
8045		33.203125
8046		39.062500
8047		37.109375
8048		41.015625
8049		39.062500
8050		42.968750
8051		42.968750
8052		46.875000
8053		44.921875
8054		48.828125
8055		46.875000
8056		50.781250
8057		50.781250
8058		54.687500
8059		50.781250
8060		56.640625
8061		54.687500
8062		58.593750
8063		56.640625
8064		60.546875
8065		58.593750
8066		62.500000
8067		60.546875
8068		64.453125
8069		62.500000
8070		66.406250
8071		62.500000
8072		66.406250
8073		64.453125
8074		68.359375
8075		66.406250
8076		70.312500
8077		66.406250
8078		70.312500
8079		68.359375
8080		72.265625
8081		68.359375
8082		72.265625
8083		70.312500
8084		74.218750
8085		70.312500
8086		74.218750
8087		70.312500
8088		74.218750
8089		72.265625
8090		74.218750
8091		70.312500
8092		74.218750
8093		70.312500
8094		74.218750
8095		70.312500
8096		74.218750
8097		70.312500
8098		74.218750
8099		70.312500
8100		72.265625
8101		68.359375
8102		72.265625
8103		68.359375
8104		72.265625
8105		68.359375
8106		70.312500
8107		64.453125
8108		70.312500
8109		64.453125
8110		68.359375
8111		62.500000
8112		66.406250
8113		62.500000
8114		64.453125
8115		60.546875
8116		64.453125
8117		58.593750
8118		62.500000
8119		54.687500
8120		60.546875
8121		54.687500
8122		58.593750
8123		52.734375
8124		54.687500
8125		48.828125
8126		54.687500
8127		46.875000
8128		52.734375
8129		44.921875
8130		48.828125
8131		42.968750
8132		46.875000
8133		39.062500
8134		42.968750
8135		37.109375
8136		41.015625
8137		33.203125
8138		39.062500
8139		31.250000
8140		35.156250
8141		27.343750
8142		31.250000
8143		23.437500
8144		29.296875
8145		19.531250
8146		25.390625
8147		17.578125
8148		21.484375
8149		13.671875
8150		19.531250
8151		11.718750
8152		15.625000
8153		5.859375
8154		11.718750
8155		3.906250
8156		7.812500
8157		0.000000
8158		5.859375
8159		-1.953125
8160		1.953125
8161		-5.859375
8162		-1.953125
8163		-9.765625
8164		-3.906250
8165		-13.671875
8166		-7.812500
8167		-15.625000
8168		-11.718750
8169		-19.531250
8170		-13.671875
8171		-21.484375
8172		-17.578125
8173		-25.390625
8174		-19.531250
8175		-29.296875
8176		-23.437500
8177		-31.250000
8178		-27.343750
8179		-35.156250
8180		-29.296875
8181		-37.109375
8182		-33.203125
8183		-39.062500
8184		-35.156250
8185		-42.968750
8186		-37.109375
8187		-44.921875
8188		-41.015625
8189		-46.875000
8190		-42.968750
8191		-48.828125
8192		-44.921875
8193		-50.781250
8194		-46.875000
8195		-52.734375
8196		-48.828125
8197		-54.687500
8198		-50.781250
8199		-56.640625
8200		-52.734375
8201		-58.593750
8202		-54.687500
8203		-60.546875
8204		-56.640625
8205		-60.546875
8206		-56.640625
8207		-60.546875
8208		-58.593750
8209		-62.500000
8210		-58.593750
8211		-62.500000
8212		-58.593750
8213		-62.500000
8214		-60.546875
8215		-62.500000
8216		-60.546875
8217		-62.500000
8218		-60.546875
8219		-62.500000
8220		-60.546875
8221		-64.453125
8222		-58.593750
8223		-62.500000
8224		-58.593750
8225		-62.500000
8226		-58.593750
8227		-60.546875
8228		-58.593750
8229		-60.546875
8230		-56.640625
8231		-58.593750
8232		-56.640625
8233		-56.640625
8234		-54.687500
8235		-56.640625
8236		-52.734375
8237		-54.687500
8238		-50.781250
8239		-52.734375
8240		-48.828125
8241		-50.781250
8242		-46.875000
8243		-50.781250
8244		-44.921875
8245		-46.875000
8246		-42.968750
8247		-44.921875
8248		-41.015625
8249		-41.015625
8250		-37.109375
8251		-39.062500
8252		-35.156250
8253		-37.109375
8254		-33.203125
8255		-35.156250
8256		-29.296875
8257		-31.250000
8258		-27.343750
8259		-29.296875
8260		-23.437500
8261		-25.390625
8262		-21.484375
8263		-21.484375
8264		-17.578125
8265		-19.531250
8266		-13.671875
8267		-15.625000
8268		-11.718750
8269		-13.671875
8270		-7.812500
8271		-9.765625
8272		-3.906250
8273		-5.859375
8274		-1.953125
8275		-1.953125
8276		1.953125
8277		0.000000
8278		5.859375
8279		3.906250
8280		9.765625
8281		7.812500
8282		11.718750
8283		11.718750
8284		15.625000
8285		13.671875
8286		19.531250
8287		17.578125
8288		23.437500
8289		21.484375
8290		25.390625
8291		23.437500
8292		27.343750
8293		27.343750
8294		31.250000
8295		29.296875
8296		35.156250
8297		33.203125
8298		37.109375
8299		35.156250
8300		41.015625
8301		39.062500
8302		42.968750
8303		41.015625
8304		46.875000
8305		44.921875
8306		48.828125
8307		46.875000
8308		50.781250
8309		48.828125
8310		54.687500
8311		50.781250
8312		56.640625
8313		54.687500
8314		56.640625
8315		54.687500
8316		60.546875
8317		58.593750
8318		62.500000
8319		58.593750
8320		64.453125
8321		60.546875
8322		64.453125
8323		62.500000
8324		66.406250
8325		64.453125
8326		68.359375
8327		64.453125
8328		70.312500
8329		66.406250
8330		70.312500
8331		68.359375
8332		70.312500
8333		68.359375
8334		72.265625
8335		70.312500
8336		72.265625
8337		70.312500
8338		74.218750
8339		70.312500
8340		74.218750
8341		70.312500
8342		74.218750
8343		70.312500
8344		74.218750
8345		70.312500
8346		74.218750
8347		70.312500
8348		74.218750
8349		70.312500
8350		74.218750
8351		70.312500
8352		72.265625
8353		68.359375
8354		72.265625
8355		66.406250
8356		72.265625
8357		68.359375
8358		70.312500
8359		66.406250
8360		68.359375
8361		64.453125
8362		68.359375
8363		64.453125
8364		68.359375
8365		62.500000
8366		66.406250
8367		60.546875
8368		64.453125
8369		58.593750
8370		62.500000
8371		56.640625
8372		60.546875
8373		54.687500
8374		60.546875
8375		52.734375
8376		56.640625
8377		48.828125
8378		54.687500
8379		46.875000
8380		52.734375
8381		44.921875
8382		48.828125
8383		42.968750
8384		46.875000
8385		39.062500
8386		42.968750
8387		37.109375
8388		41.015625
8389		33.203125
8390		39.062500
8391		31.250000
8392		35.156250
8393		27.343750
8394		33.203125
8395		25.390625
8396		29.296875
8397		21.484375
8398		25.390625
8399		17.578125
8400		23.437500
8401		13.671875
8402		19.531250
8403		11.718750
8404		17.578125
8405		5.859375
8406		13.671875
8407		3.906250
8408		9.765625
8409		1.953125
8410		5.859375
8411		-1.953125
8412		1.953125
8413		-5.859375
8414		0.000000
8415		-9.765625
8416		-3.906250
8417		-11.718750
8418		-7.812500
8419		-15.625000
8420		-9.765625
8421		-19.531250
8422		-13.671875
8423		-21.484375
8424		-17.578125
8425		-25.390625
8426		-19.531250
8427		-27.343750
8428		-23.437500
8429		-31.250000
8430		-27.343750
8431		-35.156250
8432		-29.296875
8433		-37.109375
8434		-33.203125
8435		-39.062500
8436		-35.156250
8437		-42.968750
8438		-37.109375
8439		-44.921875
8440		-39.062500
8441		-46.875000
8442		-42.968750
8443		-48.828125
8444		-44.921875
8445		-50.781250
8446		-46.875000
8447		-52.734375
8448		-48.828125
8449		-54.687500
8450		-50.781250
8451		-56.640625
8452		-52.734375
8453		-58.593750
8454		-54.687500
8455		-58.593750
8456		-54.687500
8457		-60.546875
8458		-56.640625
8459		-60.546875
8460		-58.593750
8461		-62.500000
8462		-58.593750
8463		-62.500000
8464		-58.593750
8465		-62.500000
8466		-60.546875
8467		-62.500000
8468		-60.546875
8469		-62.500000
8470		-60.546875
8471		-62.500000
8472		-60.546875
8473		-64.453125
8474		-60.546875
8475		-62.500000
8476		-60.546875
8477		-62.500000
8478		-58.593750
8479		-60.546875
8480		-58.593750
8481		-60.546875
8482		-56.640625
8483		-60.546875
8484		-56.640625
8485		-58.593750
8486		-54.687500
8487		-56.640625
8488		-52.734375
8489		-54.687500
8490		-50.781250
8491		-52.734375
8492		-50.781250
8493		-50.781250
8494		-48.828125
8495		-48.828125
8496		-44.921875
8497		-46.875000
8498		-42.968750
8499		-44.921875
8500		-41.015625
8501		-42.968750
8502		-39.062500
8503		-41.015625
8504		-35.156250
8505		-37.109375
8506		-33.203125
8507		-35.156250
8508		-31.250000
8509		-31.250000
8510		-27.343750
8511		-29.296875
8512		-23.437500
8513		-25.390625
8514		-21.484375
8515		-23.437500
8516		-17.578125
8517		-19.531250
8518		-15.625000
8519		-15.625000
8520		-11.718750
8521		-13.671875
8522		-7.812500
8523		-11.718750
8524		-5.859375
8525		-5.859375
8526		-1.953125
8527		-3.906250
8528		1.953125
8529		0.000000
8530		5.859375
8531		3.906250
8532		9.765625
8533		5.859375
8534		11.718750
8535		9.765625
8536		15.625000
8537		13.671875
8538		17.578125
8539		15.625000
8540		21.484375
8541		19.531250
8542		25.390625
8543		23.437500
8544		27.343750
8545		27.343750
8546		31.250000
8547		29.296875
8548		33.203125
8549		33.203125
8550		37.109375
8551		35.156250
8552		41.015625
8553		39.062500
8554		42.968750
8555		41.015625
8556		44.921875
8557		42.968750
8558		46.875000
8559		46.875000
8560		50.781250
8561		48.828125
8562		54.687500
8563		50.781250
8564		54.687500
8565		52.734375
8566		56.640625
8567		54.687500
8568		60.546875
8569		56.640625
8570		60.546875
8571		58.593750
8572		62.500000
8573		60.546875
8574		64.453125
8575		62.500000
8576		66.406250
8577		64.453125
8578		66.406250
8579		64.453125
8580		70.312500
8581		64.453125
8582		72.265625
8583		68.359375
8584		72.265625
8585		68.359375
8586		72.265625
8587		68.359375
8588		72.265625
8589		70.312500
8590		74.218750
8591		70.312500
8592		74.218750
8593		70.312500
8594		72.265625
8595		68.359375
8596		74.218750
8597		68.359375
8598		76.171875
8599		68.359375
8600		76.171875
8601		70.312500
8602		74.218750
8603		70.312500
8604		72.265625
8605		68.359375
8606		72.265625
8607		66.406250
8608		72.265625
8609		68.359375
8610		70.312500
8611		66.406250
8612		68.359375
8613		62.500000
8614		70.312500
8615		60.546875
8616		68.359375
8617		60.546875
8618		68.359375
8619		58.593750
8620		64.453125
8621		58.593750
8622		62.500000
8623		54.687500
8624		62.500000
8625		54.687500
8626		58.593750
8627		52.734375
8628		56.640625
8629		48.828125
8630		54.687500
8631		44.921875
8632		52.734375
8633		42.968750
8634		50.781250
8635		41.015625
8636		48.828125
8637		39.062500
8638		44.921875
8639		35.156250
8640		42.968750
8641		33.203125
8642		39.062500
8643		31.250000
8644		35.156250
8645		27.343750
8646		33.203125
8647		23.437500
8648		33.203125
8649		19.531250
8650		27.343750
8651		15.625000
8652		25.390625
8653		13.671875
8654		21.484375
8655		9.765625
8656		17.578125
8657		5.859375
8658		15.625000
8659		3.906250
8660		9.765625
8661		1.953125
8662		5.859375
8663		-3.906250
8664		3.906250
8665		-7.812500
8666		1.953125
8667		-9.765625
8668		-1.953125
8669		-13.671875
8670		-3.906250
8671		-17.578125
8672		-7.812500
8673		-19.531250
8674		-11.718750
8675		-21.484375
8676		-15.625000
8677		-25.390625
8678		-19.531250
8679		-29.296875
8680		-23.437500
8681		-33.203125
8682		-23.437500
8683		-37.109375
8684		-27.343750
8685		-39.062500
8686		-31.250000
8687		-41.015625
8688		-33.203125
8689		-42.968750
8690		-35.156250
8691		-46.875000
8692		-37.109375
8693		-46.875000
8694		-42.968750
8695		-48.828125
8696		-44.921875
8697		-52.734375
8698		-44.921875
8699		-54.687500
8700		-46.875000
8701		-56.640625
8702		-48.828125
8703		-58.593750
8704		-50.781250
8705		-60.546875
8706		-52.734375
8707		-62.500000
8708		-52.734375
8709		-60.546875
8710		-56.640625
8711		-60.546875
8712		-58.593750
8713		-64.453125
8714		-58.593750
8715		-64.453125
8716		-58.593750
8717		-64.453125
8718		-58.593750
8719		-66.406250
8720		-58.593750
8721		-64.453125
8722		-58.593750
8723		-66.406250
8724		-58.593750
8725		-66.406250
8726		-58.593750
8727		-62.500000
8728		-60.546875
8729		-62.500000
8730		-58.593750
8731		-64.453125
8732		-56.640625
8733		-62.500000
8734		-56.640625
8735		-62.500000
8736		-54.687500
8737		-60.546875
8738		-52.734375
8739		-58.593750
8740		-50.781250
8741		-56.640625
8742		-50.781250
8743		-54.687500
8744		-50.781250
8745		-52.734375
8746		-48.828125
8747		-50.781250
8748		-44.921875
8749		-50.781250
8750		-42.968750
8751		-48.828125
8752		-41.015625
8753		-46.875000
8754		-37.109375
8755		-42.968750
8756		-35.156250
8757		-41.015625
8758		-31.250000
8759		-37.109375
8760		-31.250000
8761		-33.203125
8762		-29.296875
8763		-29.296875
8764		-21.484375
8765		-29.296875
8766		-19.531250
8767		-25.390625
8768		-17.578125
8769		-23.437500
8770		-13.671875
8771		-19.531250
8772		-9.765625
8773		-15.625000
8774		-7.812500
8775		-13.671875
8776		-3.906250
8777		-7.812500
8778		-1.953125
8779		-3.906250
8780		0.000000
8781		-1.953125
8782		5.859375
8783		0.000000
8784		9.765625
8785		3.906250
8786		13.671875
8787		5.859375
8788		15.625000
8789		9.765625
8790		19.531250
8791		13.671875
8792		23.437500
8793		17.578125
8794		23.437500
8795		23.437500
8796		27.343750
8797		25.390625
8798		33.203125
8799		27.343750
8800		35.156250
8801		31.250000
8802		37.109375
8803		33.203125
8804		41.015625
8805		35.156250
8806		44.921875
8807		39.062500
8808		46.875000
8809		41.015625
8810		48.828125
8811		44.921875
8812		48.828125
8813		48.828125
8814		52.734375
8815		48.828125
8816		56.640625
8817		50.781250
8818		58.593750
8819		52.734375
8820		60.546875
8821		54.687500
8822		62.500000
8823		56.640625
8824		64.453125
8825		58.593750
8826		66.406250
8827		62.500000
8828		64.453125
8829		64.453125
8830		66.406250
8831		62.500000
8832		70.312500
8833		64.453125
8834		72.265625
8835		64.453125
8836		72.265625
8837		66.406250
8838		74.218750
8839		66.406250
8840		74.218750
8841		68.359375
8842		74.218750
8843		68.359375
8844		74.218750
8845		70.312500
8846		72.265625
8847		68.359375
8848		76.171875
8849		68.359375
8850		76.171875
8851		68.359375
8852		76.171875
8853		68.359375
8854		74.218750
8855		68.359375
8856		76.171875
8857		66.406250
8858		74.218750
8859		64.453125
8860		74.218750
8861		68.359375
8862		70.312500
8863		66.406250
8864		68.359375
8865		62.500000
8866		70.312500
8867		60.546875
8868		68.359375
8869		60.546875
8870		68.359375
8871		58.593750
8872		66.406250
8873		56.640625
8874		64.453125
8875		54.687500
8876		62.500000
8877		54.687500
8878		60.546875
8879		52.734375
8880		56.640625
8881		46.875000
8882		54.687500
8883		44.921875
8884		52.734375
8885		42.968750
8886		50.781250
8887		41.015625
8888		48.828125
8889		37.109375
8890		46.875000
8891		35.156250
8892		42.968750
8893		33.203125
8894		41.015625
8895		31.250000
8896		35.156250
8897		29.296875
8898		33.203125
8899		23.437500
8900		31.250000
8901		19.531250
8902		29.296875
8903		17.578125
8904		25.390625
8905		13.671875
8906		21.484375
8907		9.765625
8908		19.531250
8909		5.859375
8910		15.625000
8911		5.859375
8912		11.718750
8913		1.953125
8914		5.859375
8915		-3.906250
8916		3.906250
8917		-7.812500
8918		1.953125
8919		-9.765625
8920		-1.953125
8921		-13.671875
8922		-3.906250
8923		-17.578125
8924		-7.812500
8925		-19.531250
8926		-11.718750
8927		-21.484375
8928		-13.671875
8929		-23.437500
8930		-19.531250
8931		-29.296875
8932		-23.437500
8933		-33.203125
8934		-23.437500
8935		-35.156250
8936		-27.343750
8937		-39.062500
8938		-29.296875
8939		-41.015625
8940		-33.203125
8941		-42.968750
8942		-35.156250
8943		-46.875000
8944		-37.109375
8945		-46.875000
8946		-42.968750
8947		-48.828125
8948		-44.921875
8949		-52.734375
8950		-44.921875
8951		-54.687500
8952		-46.875000
8953		-56.640625
8954		-48.828125
8955		-58.593750
8956		-50.781250
8957		-60.546875
8958		-52.734375
8959		-60.546875
8960		-54.687500
8961		-62.500000
8962		-54.687500
8963		-60.546875
8964		-58.593750
8965		-64.453125
8966		-58.593750
8967		-64.453125
8968		-56.640625
8969		-64.453125
8970		-58.593750
8971		-66.406250
8972		-58.593750
8973		-66.406250
8974		-58.593750
8975		-66.406250
8976		-58.593750
8977		-66.406250
8978		-58.593750
8979		-62.500000
8980		-60.546875
8981		-62.500000
8982		-58.593750
8983		-64.453125
8984		-56.640625
8985		-62.500000
8986		-56.640625
8987		-62.500000
8988		-54.687500
8989		-60.546875
8990		-52.734375
8991		-60.546875
8992		-50.781250
8993		-58.593750
8994		-50.781250
8995		-54.687500
8996		-50.781250
8997		-52.734375
8998		-48.828125
8999		-52.734375
9000		-44.921875
9001		-50.781250
9002		-42.968750
9003		-48.828125
9004		-41.015625
9005		-46.875000
9006		-37.109375
9007		-42.968750
9008		-35.156250
9009		-41.015625
9010		-31.250000
9011		-39.062500
9012		-31.250000
9013		-33.203125
9014		-27.343750
9015		-29.296875
9016		-23.437500
9017		-29.296875
9018		-19.531250
9019		-25.390625
9020		-17.578125
9021		-23.437500
9022		-13.671875
9023		-19.531250
9024		-9.765625
9025		-17.578125
9026		-7.812500
9027		-13.671875
9028		-5.859375
9029		-7.812500
9030		-3.906250
9031		-3.906250
9032		0.000000
9033		-1.953125
9034		5.859375
9035		0.000000
9036		9.765625
9037		3.906250
9038		13.671875
9039		5.859375
9040		15.625000
9041		9.765625
9042		19.531250
9043		13.671875
9044		21.484375
9045		17.578125
9046		23.437500
9047		21.484375
9048		27.343750
9049		25.390625
9050		33.203125
9051		27.343750
9052		35.156250
9053		29.296875
9054		39.062500
9055		33.203125
9056		41.015625
9057		35.156250
9058		44.921875
9059		39.062500
9060		46.875000
9061		41.015625
9062		48.828125
9063		44.921875
9064		48.828125
9065		48.828125
9066		50.781250
9067		48.828125
9068		54.687500
9069		50.781250
9070		58.593750
9071		52.734375
9072		58.593750
9073		54.687500
9074		60.546875
9075		56.640625
9076		62.500000
9077		58.593750
9078		66.406250
9079		60.546875
9080		66.406250
9081		64.453125
9082		66.406250
9083		62.500000
9084		70.312500
9085		64.453125
9086		72.265625
9087		66.406250
9088		72.265625
9089		66.406250
9090		74.218750
9091		66.406250
9092		74.218750
9093		68.359375
9094		74.218750
9095		68.359375
9096		76.171875
9097		70.312500
9098		72.265625
9099		68.359375
9100		74.218750
9101		68.359375
9102		76.171875
9103		68.359375
9104		76.171875
9105		68.359375
9106		74.218750
9107		68.359375
9108		74.218750
9109		66.406250
9110		74.218750
9111		66.406250
9112		74.218750
9113		68.359375
9114		70.312500
9115		66.406250
9116		70.312500
9117		64.453125
9118		70.312500
9119		62.500000
9120		70.312500
9121		60.546875
9122		68.359375
9123		58.593750
9124		66.406250
9125		56.640625
9126		64.453125
9127		54.687500
9128		62.500000
9129		54.687500
9130		60.546875
9131		52.734375
9132		56.640625
9133		48.828125
9134		54.687500
9135		44.921875
9136		54.687500
9137		42.968750
9138		50.781250
9139		41.015625
9140		48.828125
9141		37.109375
9142		46.875000
9143		35.156250
9144		42.968750
9145		33.203125
9146		41.015625
9147		31.250000
9148		37.109375
9149		29.296875
9150		33.203125
9151		23.437500
9152		31.250000
9153		19.531250
9154		29.296875
9155		17.578125
9156		25.390625
9157		13.671875
9158		23.437500
9159		9.765625
9160		19.531250
9161		7.812500
9162		15.625000
9163		5.859375
9164		11.718750
9165		1.953125
9166		7.812500
9167		-3.906250
9168		3.906250
9169		-5.859375
9170		1.953125
9171		-9.765625
9172		0.000000
9173		-13.671875
9174		-3.906250
9175		-15.625000
9176		-7.812500
9177		-19.531250
9178		-9.765625
9179		-21.484375
9180		-13.671875
9181		-23.437500
9182		-19.531250
9183		-29.296875
9184		-21.484375
9185		-33.203125
9186		-23.437500
9187		-35.156250
9188		-27.343750
9189		-37.109375
9190		-29.296875
9191		-41.015625
9192		-31.250000
9193		-42.968750
9194		-35.156250
9195		-44.921875
9196		-37.109375
9197		-44.921875
9198		-41.015625
9199		-48.828125
9200		-44.921875
9201		-52.734375
9202		-44.921875
9203		-54.687500
9204		-46.875000
9205		-56.640625
9206		-48.828125
9207		-58.593750
9208		-48.828125
9209		-58.593750
9210		-50.781250
9211		-60.546875
9212		-52.734375
9213		-60.546875
9214		-54.687500
9215		-60.546875
9216		-58.593750
9217		-62.500000
9218		-56.640625
9219		-64.453125
9220		-56.640625
9221		-64.453125
9222		-58.593750
9223		-64.453125
9224		-58.593750
9225		-66.406250
9226		-58.593750
9227		-66.406250
9228		-58.593750
9229		-66.406250
9230		-58.593750
9231		-62.500000
9232		-60.546875
9233		-62.500000
9234		-60.546875
9235		-64.453125
9236		-56.640625
9237		-62.500000
9238		-54.687500
9239		-62.500000
9240		-54.687500
9241		-60.546875
9242		-52.734375
9243		-58.593750
9244		-52.734375
9245		-58.593750
9246		-50.781250
9247		-54.687500
9248		-50.781250
9249		-52.734375
9250		-48.828125
9251		-50.781250
9252		-44.921875
9253		-50.781250
9254		-42.968750
9255		-46.875000
9256		-41.015625
9257		-44.921875
9258		-37.109375
9259		-42.968750
9260		-35.156250
9261		-41.015625
9262		-33.203125
9263		-37.109375
9264		-31.250000
9265		-33.203125
9266		-29.296875
9267		-29.296875
9268		-23.437500
9269		-29.296875
9270		-21.484375
9271		-27.343750
9272		-17.578125
9273		-23.437500
9274		-13.671875
9275		-19.531250
9276		-11.718750
9277		-17.578125
9278		-5.859375
9279		-13.671875
9280		-3.906250
9281		-7.812500
9282		-3.906250
9283		-3.906250
9284		0.000000
9285		-1.953125
9286		5.859375
9287		-1.953125
9288		9.765625
9289		3.906250
9290		11.718750
9291		7.812500
9292		15.625000
9293		9.765625
9294		19.531250
9295		13.671875
9296		23.437500
9297		17.578125
9298		23.437500
9299		21.484375
9300		27.343750
9301		25.390625
9302		31.250000
9303		25.390625
9304		35.156250
9305		29.296875
9306		37.109375
9307		31.250000
9308		41.015625
9309		35.156250
9310		42.968750
9311		37.109375
9312		46.875000
9313		41.015625
9314		48.828125
9315		44.921875
9316		48.828125
9317		48.828125
9318		52.734375
9319		48.828125
9320		56.640625
9321		50.781250
9322		58.593750
9323		52.734375
9324		60.546875
9325		54.687500
9326		62.500000
9327		56.640625
9328		64.453125
9329		58.593750
9330		66.406250
9331		60.546875
9332		66.406250
9333		62.500000
9334		66.406250
9335		64.453125
9336		70.312500
9337		64.453125
9338		72.265625
9339		64.453125
9340		72.265625
9341		66.406250
9342		74.218750
9343		66.406250
9344		74.218750
9345		68.359375
9346		76.171875
9347		68.359375
9348		76.171875
9349		70.312500
9350		72.265625
9351		70.312500
9352		74.218750
9353		68.359375
9354		76.171875
9355		68.359375
9356		76.171875
9357		68.359375
9358		76.171875
9359		68.359375
9360		76.171875
9361		66.406250
9362		74.218750
9363		66.406250
9364		74.218750
9365		68.359375
9366		70.312500
9367		66.406250
9368		70.312500
9369		64.453125
9370		70.312500
9371		62.500000
9372		70.312500
9373		60.546875
9374		68.359375
9375		58.593750
9376		66.406250
9377		56.640625
9378		64.453125
9379		54.687500
9380		62.500000
9381		54.687500
9382		60.546875
9383		54.687500
9384		56.640625
9385		48.828125
9386		54.687500
9387		46.875000
9388		54.687500
9389		44.921875
9390		52.734375
9391		41.015625
9392		50.781250
9393		39.062500
9394		46.875000
9395		37.109375
9396		44.921875
9397		33.203125
9398		41.015625
9399		33.203125
9400		37.109375
9401		29.296875
9402		33.203125
9403		23.437500
9404		33.203125
9405		21.484375
9406		29.296875
9407		17.578125
9408		27.343750
9409		13.671875
9410		23.437500
9411		11.718750
9412		19.531250
9413		7.812500
9414		17.578125
9415		5.859375
9416		13.671875
9417		3.906250
9418		7.812500
9419		-1.953125
9420		5.859375
9421		-5.859375
9422		3.906250
9423		-7.812500
9424		0.000000
9425		-11.718750
9426		-3.906250
9427		-15.625000
9428		-7.812500
9429		-19.531250
9430		-9.765625
9431		-21.484375
9432		-13.671875
9433		-23.437500
9434		-19.531250
9435		-27.343750
9436		-21.484375
9437		-31.250000
9438		-23.437500
9439		-35.156250
9440		-25.390625
9441		-37.109375
9442		-29.296875
9443		-39.062500
9444		-31.250000
9445		-42.968750
9446		-35.156250
9447		-44.921875
9448		-37.109375
9449		-44.921875
9450		-41.015625
9451		-46.875000
9452		-44.921875
9453		-50.781250
9454		-44.921875
9455		-54.687500
9456		-44.921875
9457		-54.687500
9458		-48.828125
9459		-56.640625
9460		-50.781250
9461		-60.546875
9462		-50.781250
9463		-60.546875
9464		-52.734375
9465		-60.546875
9466		-54.687500
9467		-60.546875
9468		-58.593750
9469		-64.453125
9470		-56.640625
9471		-64.453125
9472		-56.640625
9473		-64.453125
9474		-56.640625
9475		-64.453125
9476		-58.593750
9477		-66.406250
9478		-58.593750
9479		-66.406250
9480		-58.593750
9481		-64.453125
9482		-58.593750
9483		-62.500000
9484		-60.546875
9485		-62.500000
9486		-60.546875
9487		-64.453125
9488		-56.640625
9489		-62.500000
9490		-56.640625
9491		-62.500000
9492		-54.687500
9493		-60.546875
9494		-52.734375
9495		-60.546875
9496		-52.734375
9497		-58.593750
9498		-48.828125
9499		-56.640625
9500		-50.781250
9501		-52.734375
9502		-48.828125
9503		-50.781250
9504		-44.921875
9505		-50.781250
9506		-42.968750
9507		-48.828125
9508		-41.015625
9509		-46.875000
9510		-39.062500
9511		-44.921875
9512		-35.156250
9513		-41.015625
9514		-33.203125
9515		-39.062500
9516		-31.250000
9517		-33.203125
9518		-29.296875
9519		-31.250000
9520		-27.343750
9521		-29.296875
9522		-21.484375
9523		-27.343750
9524		-17.578125
9525		-23.437500
9526		-15.625000
9527		-19.531250
9528		-11.718750
9529		-17.578125
9530		-7.812500
9531		-15.625000
9532		-5.859375
9533		-9.765625
9534		-3.906250
9535		-5.859375
9536		0.000000
9537		-3.906250
9538		5.859375
9539		0.000000
9540		7.812500
9541		1.953125
9542		11.718750
9543		5.859375
9544		15.625000
9545		9.765625
9546		17.578125
9547		13.671875
9548		21.484375
9549		15.625000
9550		23.437500
9551		21.484375
9552		25.390625
9553		25.390625
9554		31.250000
9555		25.390625
9556		35.156250
9557		29.296875
9558		37.109375
9559		31.250000
9560		41.015625
9561		35.156250
9562		42.968750
9563		37.109375
9564		44.921875
9565		39.062500
9566		48.828125
9567		44.921875
9568		48.828125
9569		46.875000
9570		50.781250
9571		48.828125
9572		56.640625
9573		50.781250
9574		58.593750
9575		52.734375
9576		60.546875
9577		54.687500
9578		62.500000
9579		54.687500
9580		64.453125
9581		56.640625
9582		66.406250
9583		60.546875
9584		66.406250
9585		64.453125
9586		66.406250
9587		62.500000
9588		70.312500
9589		64.453125
9590		72.265625
9591		66.406250
9592		72.265625
9593		66.406250
9594		74.218750
9595		66.406250
9596		74.218750
9597		68.359375
9598		74.218750
9599		68.359375
9600		74.218750
9601		70.312500
9602		74.218750
9603		70.312500
9604		74.218750
9605		68.359375
9606		76.171875
9607		68.359375
9608		76.171875
9609		68.359375
9610		76.171875
9611		68.359375
9612		74.218750
9613		66.406250
9614		74.218750
9615		66.406250
9616		74.218750
9617		66.406250
9618		74.218750
9619		68.359375
9620		70.312500
9621		64.453125
9622		70.312500
9623		62.500000
9624		70.312500
9625		60.546875
9626		68.359375
9627		58.593750
9628		66.406250
9629		58.593750
9630		64.453125
9631		54.687500
9632		64.453125
9633		54.687500
9634		62.500000
9635		52.734375
9636		56.640625
9637		48.828125
9638		54.687500
9639		46.875000
9640		54.687500
9641		44.921875
9642		52.734375
9643		41.015625
9644		50.781250
9645		39.062500
9646		48.828125
9647		37.109375
9648		44.921875
9649		33.203125
9650		42.968750
9651		33.203125
9652		37.109375
9653		29.296875
9654		35.156250
9655		23.437500
9656		31.250000
9657		21.484375
9658		29.296875
9659		17.578125
9660		27.343750
9661		15.625000
9662		23.437500
9663		11.718750
9664		21.484375
9665		7.812500
9666		17.578125
9667		5.859375
9668		15.625000
9669		3.906250
9670		7.812500
9671		-1.953125
9672		5.859375
9673		-5.859375
9674		3.906250
9675		-7.812500
9676		0.000000
9677		-11.718750
9678		-3.906250
9679		-15.625000
9680		-5.859375
9681		-17.578125
9682		-9.765625
9683		-21.484375
9684		-11.718750
9685		-23.437500
9686		-17.578125
9687		-25.390625
9688		-21.484375
9689		-31.250000
9690		-21.484375
9691		-33.203125
9692		-25.390625
9693		-37.109375
9694		-29.296875
9695		-39.062500
9696		-31.250000
9697		-42.968750
9698		-33.203125
9699		-44.921875
9700		-37.109375
9701		-44.921875
9702		-39.062500
9703		-46.875000
9704		-42.968750
9705		-50.781250
9706		-44.921875
9707		-52.734375
9708		-44.921875
9709		-56.640625
9710		-48.828125
9711		-56.640625
9712		-48.828125
9713		-58.593750
9714		-50.781250
9715		-60.546875
9716		-52.734375
9717		-60.546875
9718		-54.687500
9719		-60.546875
9720		-56.640625
9721		-62.500000
9722		-56.640625
9723		-64.453125
9724		-56.640625
9725		-64.453125
9726		-58.593750
9727		-64.453125
9728		-58.593750
9729		-66.406250
9730		-58.593750
9731		-66.406250
9732		-58.593750
9733		-66.406250
9734		-58.593750
9735		-62.500000
9736		-60.546875
9737		-62.500000
9738		-60.546875
9739		-64.453125
9740		-56.640625
9741		-62.500000
9742		-56.640625
9743		-62.500000
9744		-54.687500
9745		-60.546875
9746		-52.734375
9747		-60.546875
9748		-52.734375
9749		-58.593750
9750		-50.781250
9751		-56.640625
9752		-50.781250
9753		-52.734375
9754		-48.828125
9755		-50.781250
9756		-44.921875
9757		-50.781250
9758		-42.968750
9759		-48.828125
9760		-41.015625
9761		-46.875000
9762		-37.109375
9763		-42.968750
9764		-35.156250
9765		-41.015625
9766		-33.203125
9767		-39.062500
9768		-31.250000
9769		-33.203125
9770		-29.296875
9771		-31.250000
9772		-27.343750
9773		-31.250000
9774		-21.484375
9775		-27.343750
9776		-19.531250
9777		-23.437500
9778		-15.625000
9779		-21.484375
9780		-11.718750
9781		-17.578125
9782		-7.812500
9783		-13.671875
9784		-5.859375
9785		-9.765625
9786		-3.906250
9787		-5.859375
9788		0.000000
9789		-1.953125
9790		5.859375
9791		0.000000
9792		7.812500
9793		1.953125
9794		11.718750
9795		5.859375
9796		15.625000
9797		9.765625
9798		17.578125
9799		11.718750
9800		21.484375
9801		15.625000
9802		23.437500
9803		21.484375
9804		25.390625
9805		23.437500
9806		31.250000
9807		25.390625
9808		33.203125
9809		27.343750
9810		37.109375
9811		31.250000
9812		39.062500
9813		35.156250
9814		42.968750
9815		37.109375
9816		46.875000
9817		41.015625
9818		48.828125
9819		44.921875
9820		48.828125
9821		46.875000
9822		50.781250
9823		48.828125
9824		56.640625
9825		50.781250
9826		58.593750
9827		52.734375
9828		60.546875
9829		52.734375
9830		62.500000
9831		54.687500
9832		64.453125
9833		58.593750
9834		66.406250
9835		58.593750
9836		66.406250
9837		64.453125
9838		66.406250
9839		64.453125
9840		70.312500
9841		64.453125
9842		72.265625
9843		64.453125
9844		72.265625
9845		66.406250
9846		74.218750
9847		66.406250
9848		74.218750
9849		68.359375
9850		74.218750
9851		68.359375
9852		76.171875
9853		70.312500
9854		74.218750
9855		70.312500
9856		74.218750
9857		68.359375
9858		76.171875
9859		68.359375
9860		76.171875
9861		68.359375
9862		76.171875
9863		68.359375
9864		76.171875
9865		68.359375
9866		74.218750
9867		66.406250
9868		74.218750
9869		66.406250
9870		74.218750
9871		66.406250
9872		70.312500
9873		64.453125
9874		70.312500
9875		62.500000
9876		70.312500
9877		60.546875
9878		68.359375
9879		58.593750
9880		66.406250
9881		56.640625
9882		66.406250
9883		56.640625
9884		64.453125
9885		54.687500
9886		62.500000
9887		54.687500
9888		58.593750
9889		48.828125
9890		56.640625
9891		46.875000
9892		54.687500
9893		44.921875
9894		52.734375
9895		42.968750
9896		50.781250
9897		39.062500
9898		48.828125
9899		37.109375
9900		44.921875
9901		33.203125
9902		42.968750
9903		33.203125
9904		37.109375
9905		31.250000
9906		35.156250
9907		25.390625
9908		31.250000
9909		21.484375
9910		29.296875
9911		17.578125
9912		27.343750
9913		15.625000
9914		25.390625
9915		11.718750
9916		21.484375
9917		9.765625
9918		17.578125
9919		7.812500
9920		13.671875
9921		3.906250
9922		9.765625
9923		-1.953125
9924		5.859375
9925		-3.906250
9926		3.906250
9927		-7.812500
9928		0.000000
9929		-11.718750
9930		-1.953125
9931		-13.671875
9932		-5.859375
9933		-17.578125
9934		-9.765625
9935		-21.484375
9936		-11.718750
9937		-21.484375
9938		-17.578125
9939		-25.390625
9940		-19.531250
9941		-31.250000
9942		-21.484375
9943		-33.203125
9944		-25.390625
9945		-37.109375
9946		-27.343750
9947		-39.062500
9948		-31.250000
9949		-41.015625
9950		-33.203125
9951		-44.921875
9952		-35.156250
9953		-44.921875
9954		-39.062500
9955		-46.875000
9956		-42.968750
9957		-50.781250
9958		-44.921875
9959		-52.734375
9960		-44.921875
9961		-54.687500
9962		-46.875000
9963		-56.640625
9964		-48.828125
9965		-58.593750
9966		-50.781250
9967		-60.546875
9968		-52.734375
9969		-60.546875
9970		-54.687500
9971		-60.546875
9972		-56.640625
9973		-62.500000
9974		-58.593750
9975		-64.453125
9976		-56.640625
9977		-64.453125
9978		-56.640625
9979		-64.453125
9980		-58.593750
9981		-66.406250
9982		-58.593750
9983		-64.453125
9984		-58.593750
9985		-66.406250
9986		-58.593750
9987		-62.500000
9988		-60.546875
9989		-62.500000
9990		-60.546875
9991		-64.453125
9992		-56.640625
9993		-64.453125
9994		-56.640625
9995		-62.500000
9996		-54.687500
9997		-62.500000
9998		-54.687500
9999		-60.546875
10000		-52.734375
