Channel              :		CH1
Frequency            :		  ?
Period               :		  ?
PK-PK                :		23.44mV
Probe attenuation    :		1X
Voltage per ADC value:		0.122070mV
Time interval        :		2.00000us

index		CH1_Voltage(mV)
1		17.578125
2		17.578125
3		13.671875
4		17.578125
5		13.671875
6		17.578125
7		13.671875
8		15.625000
9		13.671875
10		17.578125
11		11.718750
12		15.625000
13		13.671875
14		15.625000
15		11.718750
16		15.625000
17		11.718750
18		15.625000
19		11.718750
20		15.625000
21		11.718750
22		15.625000
23		11.718750
24		13.671875
25		9.765625
26		13.671875
27		9.765625
28		13.671875
29		9.765625
30		13.671875
31		9.765625
32		11.718750
33		7.812500
34		11.718750
35		7.812500
36		11.718750
37		7.812500
38		11.718750
39		7.812500
40		11.718750
41		7.812500
42		11.718750
43		7.812500
44		9.765625
45		7.812500
46		11.718750
47		7.812500
48		9.765625
49		5.859375
50		9.765625
51		5.859375
52		9.765625
53		5.859375
54		9.765625
55		5.859375
56		9.765625
57		5.859375
58		7.812500
59		5.859375
60		7.812500
61		3.906250
62		7.812500
63		3.906250
64		7.812500
65		5.859375
66		7.812500
67		3.906250
68		7.812500
69		3.906250
70		7.812500
71		3.906250
72		7.812500
73		3.906250
74		7.812500
75		3.906250
76		7.812500
77		3.906250
78		5.859375
79		3.906250
80		7.812500
81		3.906250
82		5.859375
83		3.906250
84		7.812500
85		3.906250
86		7.812500
87		3.906250
88		7.812500
89		3.906250
90		5.859375
91		3.906250
92		5.859375
93		3.906250
94		5.859375
95		3.906250
96		7.812500
97		3.906250
98		7.812500
99		3.906250
100		5.859375
101		3.906250
102		7.812500
103		3.906250
104		7.812500
105		3.906250
106		7.812500
107		3.906250
108		7.812500
109		3.906250
110		7.812500
111		3.906250
112		7.812500
113		5.859375
114		7.812500
115		5.859375
116		7.812500
117		3.906250
118		9.765625
119		5.859375
120		9.765625
121		5.859375
122		9.765625
123		5.859375
124		9.765625
125		5.859375
126		9.765625
127		5.859375
128		9.765625
129		5.859375
130		9.765625
131		5.859375
132		9.765625
133		7.812500
134		9.765625
135		7.812500
136		11.718750
137		7.812500
138		11.718750
139		7.812500
140		11.718750
141		7.812500
142		11.718750
143		7.812500
144		11.718750
145		7.812500
146		11.718750
147		9.765625
148		11.718750
149		9.765625
150		11.718750
151		9.765625
152		13.671875
153		9.765625
154		13.671875
155		9.765625
156		13.671875
157		9.765625
158		13.671875
159		11.718750
160		13.671875
161		11.718750
162		13.671875
163		9.765625
164		13.671875
165		11.718750
166		13.671875
167		11.718750
168		15.625000
169		11.718750
170		15.625000
171		11.718750
172		15.625000
173		11.718750
174		15.625000
175		11.718750
176		15.625000
177		11.718750
178		15.625000
179		11.718750
180		15.625000
181		13.671875
182		15.625000
183		13.671875
184		15.625000
185		11.718750
186		17.578125
187		13.671875
188		17.578125
189		13.671875
190		17.578125
191		13.671875
192		17.578125
193		13.671875
194		17.578125
195		13.671875
196		17.578125
197		13.671875
198		17.578125
199		15.625000
200		17.578125
201		13.671875
202		17.578125
203		15.625000
204		17.578125
205		15.625000
206		17.578125
207		15.625000
208		17.578125
209		15.625000
210		17.578125
211		15.625000
212		17.578125
213		13.671875
214		19.531250
215		15.625000
216		17.578125
217		15.625000
218		17.578125
219		15.625000
220		17.578125
221		15.625000
222		19.531250
223		15.625000
224		17.578125
225		15.625000
226		17.578125
227		15.625000
228		17.578125
229		15.625000
230		19.531250
231		15.625000
232		17.578125
233		15.625000
234		17.578125
235		15.625000
236		17.578125
237		15.625000
238		17.578125
239		15.625000
240		17.578125
241		15.625000
242		17.578125
243		13.671875
244		17.578125
245		13.671875
246		17.578125
247		13.671875
248		17.578125
249		13.671875
250		17.578125
251		13.671875
252		17.578125
253		13.671875
254		17.578125
255		13.671875
256		17.578125
257		13.671875
258		15.625000
259		13.671875
260		15.625000
261		11.718750
262		15.625000
263		11.718750
264		15.625000
265		13.671875
266		15.625000
267		11.718750
268		15.625000
269		11.718750
270		15.625000
271		11.718750
272		13.671875
273		9.765625
274		13.671875
275		9.765625
276		13.671875
277		9.765625
278		13.671875
279		9.765625
280		13.671875
281		9.765625
282		13.671875
283		9.765625
284		11.718750
285		9.765625
286		11.718750
287		7.812500
288		11.718750
289		7.812500
290		11.718750
291		7.812500
292		11.718750
293		7.812500
294		11.718750
295		7.812500
296		9.765625
297		5.859375
298		11.718750
299		7.812500
300		9.765625
301		5.859375
302		9.765625
303		5.859375
304		9.765625
305		5.859375
306		9.765625
307		5.859375
308		9.765625
309		3.906250
310		7.812500
311		3.906250
312		7.812500
313		3.906250
314		7.812500
315		5.859375
316		7.812500
317		3.906250
318		7.812500
319		1.953125
320		7.812500
321		3.906250
322		7.812500
323		3.906250
324		7.812500
325		1.953125
326		7.812500
327		3.906250
328		5.859375
329		3.906250
330		5.859375
331		1.953125
332		7.812500
333		3.906250
334		5.859375
335		1.953125
336		7.812500
337		1.953125
338		5.859375
339		1.953125
340		5.859375
341		3.906250
342		5.859375
343		3.906250
344		5.859375
345		3.906250
346		5.859375
347		1.953125
348		7.812500
349		3.906250
350		5.859375
351		3.906250
352		5.859375
353		3.906250
354		5.859375
355		3.906250
356		7.812500
357		3.906250
358		7.812500
359		3.906250
360		7.812500
361		3.906250
362		7.812500
363		3.906250
364		7.812500
365		3.906250
366		7.812500
367		5.859375
368		7.812500
369		3.906250
370		7.812500
371		5.859375
372		9.765625
373		5.859375
374		7.812500
375		5.859375
376		9.765625
377		5.859375
378		9.765625
379		5.859375
380		9.765625
381		5.859375
382		9.765625
383		7.812500
384		9.765625
385		5.859375
386		9.765625
387		7.812500
388		9.765625
389		7.812500
390		9.765625
391		7.812500
392		11.718750
393		7.812500
394		11.718750
395		7.812500
396		11.718750
397		7.812500
398		11.718750
399		9.765625
400		11.718750
401		9.765625
402		11.718750
403		9.765625
404		13.671875
405		9.765625
406		11.718750
407		9.765625
408		13.671875
409		9.765625
410		13.671875
411		9.765625
412		13.671875
413		9.765625
414		13.671875
415		9.765625
416		13.671875
417		11.718750
418		13.671875
419		11.718750
420		15.625000
421		11.718750
422		15.625000
423		11.718750
424		15.625000
425		11.718750
426		15.625000
427		11.718750
428		15.625000
429		11.718750
430		15.625000
431		11.718750
432		15.625000
433		13.671875
434		15.625000
435		13.671875
436		15.625000
437		13.671875
438		17.578125
439		13.671875
440		17.578125
441		13.671875
442		17.578125
443		13.671875
444		17.578125
445		13.671875
446		17.578125
447		13.671875
448		17.578125
449		13.671875
450		17.578125
451		15.625000
452		17.578125
453		13.671875
454		17.578125
455		15.625000
456		17.578125
457		15.625000
458		17.578125
459		13.671875
460		17.578125
461		13.671875
462		17.578125
463		13.671875
464		17.578125
465		15.625000
466		17.578125
467		15.625000
468		17.578125
469		13.671875
470		17.578125
471		13.671875
472		17.578125
473		15.625000
474		17.578125
475		15.625000
476		19.531250
477		15.625000
478		17.578125
479		15.625000
480		17.578125
481		15.625000
482		19.531250
483		15.625000
484		17.578125
485		15.625000
486		17.578125
487		15.625000
488		19.531250
489		15.625000
490		17.578125
491		15.625000
492		17.578125
493		15.625000
494		17.578125
495		15.625000
496		17.578125
497		13.671875
498		17.578125
499		13.671875
500		19.531250
501		15.625000
502		17.578125
503		13.671875
504		17.578125
505		13.671875
506		17.578125
507		13.671875
508		17.578125
509		13.671875
510		15.625000
511		13.671875
512		15.625000
513		13.671875
514		15.625000
515		11.718750
516		17.578125
517		13.671875
518		15.625000
519		11.718750
520		15.625000
521		11.718750
522		15.625000
523		11.718750
524		15.625000
525		11.718750
526		15.625000
527		9.765625
528		13.671875
529		11.718750
530		13.671875
531		9.765625
532		13.671875
533		9.765625
534		13.671875
535		9.765625
536		11.718750
537		9.765625
538		13.671875
539		7.812500
540		13.671875
541		7.812500
542		11.718750
543		7.812500
544		11.718750
545		7.812500
546		11.718750
547		7.812500
548		11.718750
549		5.859375
550		11.718750
551		7.812500
552		9.765625
553		5.859375
554		9.765625
555		5.859375
556		9.765625
557		5.859375
558		9.765625
559		5.859375
560		9.765625
561		5.859375
562		7.812500
563		5.859375
564		7.812500
565		3.906250
566		9.765625
567		5.859375
568		7.812500
569		3.906250
570		7.812500
571		3.906250
572		7.812500
573		3.906250
574		5.859375
575		3.906250
576		7.812500
577		3.906250
578		5.859375
579		3.906250
580		5.859375
581		3.906250
582		5.859375
583		3.906250
584		5.859375
585		3.906250
586		5.859375
587		1.953125
588		5.859375
589		1.953125
590		7.812500
591		1.953125
592		5.859375
593		3.906250
594		5.859375
595		1.953125
596		5.859375
597		3.906250
598		5.859375
599		3.906250
600		5.859375
601		3.906250
602		5.859375
603		3.906250
604		5.859375
605		1.953125
606		7.812500
607		3.906250
608		7.812500
609		3.906250
610		7.812500
611		3.906250
612		7.812500
613		3.906250
614		7.812500
615		3.906250
616		7.812500
617		3.906250
618		7.812500
619		5.859375
620		7.812500
621		3.906250
622		9.765625
623		3.906250
624		7.812500
625		3.906250
626		9.765625
627		5.859375
628		9.765625
629		5.859375
630		7.812500
631		5.859375
632		9.765625
633		5.859375
634		9.765625
635		7.812500
636		9.765625
637		5.859375
638		9.765625
639		7.812500
640		9.765625
641		5.859375
642		11.718750
643		7.812500
644		9.765625
645		7.812500
646		11.718750
647		7.812500
648		11.718750
649		7.812500
650		11.718750
651		9.765625
652		11.718750
653		9.765625
654		11.718750
655		7.812500
656		13.671875
657		9.765625
658		11.718750
659		9.765625
660		13.671875
661		9.765625
662		13.671875
663		9.765625
664		13.671875
665		9.765625
666		13.671875
667		11.718750
668		13.671875
669		11.718750
670		13.671875
671		9.765625
672		13.671875
673		11.718750
674		15.625000
675		11.718750
676		15.625000
677		11.718750
678		15.625000
679		11.718750
680		15.625000
681		11.718750
682		15.625000
683		11.718750
684		15.625000
685		13.671875
686		15.625000
687		13.671875
688		15.625000
689		11.718750
690		15.625000
691		13.671875
692		15.625000
693		13.671875
694		15.625000
695		13.671875
696		17.578125
697		13.671875
698		17.578125
699		13.671875
700		17.578125
701		11.718750
702		17.578125
703		13.671875
704		15.625000
705		13.671875
706		17.578125
707		13.671875
708		17.578125
709		13.671875
710		17.578125
711		13.671875
712		17.578125
713		13.671875
714		17.578125
715		13.671875
716		17.578125
717		13.671875
718		17.578125
719		15.625000
720		17.578125
721		15.625000
722		17.578125
723		13.671875
724		19.531250
725		13.671875
726		19.531250
727		15.625000
728		17.578125
729		15.625000
730		17.578125
731		13.671875
732		17.578125
733		15.625000
734		19.531250
735		15.625000
736		17.578125
737		15.625000
738		17.578125
739		15.625000
740		19.531250
741		15.625000
742		17.578125
743		15.625000
744		17.578125
745		13.671875
746		17.578125
747		15.625000
748		17.578125
749		13.671875
750		17.578125
751		13.671875
752		19.531250
753		13.671875
754		17.578125
755		13.671875
756		17.578125
757		13.671875
758		17.578125
759		13.671875
760		17.578125
761		13.671875
762		17.578125
763		13.671875
764		15.625000
765		13.671875
766		15.625000
767		11.718750
768		15.625000
769		13.671875
770		15.625000
771		13.671875
772		15.625000
773		11.718750
774		15.625000
775		11.718750
776		13.671875
777		11.718750
778		15.625000
779		9.765625
780		13.671875
781		9.765625
782		13.671875
783		9.765625
784		13.671875
785		9.765625
786		13.671875
787		9.765625
788		11.718750
789		9.765625
790		13.671875
791		9.765625
792		11.718750
793		9.765625
794		11.718750
795		7.812500
796		11.718750
797		7.812500
798		11.718750
799		7.812500
800		11.718750
801		7.812500
802		11.718750
803		7.812500
804		9.765625
805		7.812500
806		9.765625
807		5.859375
808		9.765625
809		5.859375
810		9.765625
811		5.859375
812		9.765625
813		5.859375
814		7.812500
815		3.906250
816		7.812500
817		3.906250
818		7.812500
819		3.906250
820		7.812500
821		3.906250
822		7.812500
823		3.906250
824		7.812500
825		3.906250
826		7.812500
827		3.906250
828		7.812500
829		3.906250
830		5.859375
831		3.906250
832		7.812500
833		3.906250
834		5.859375
835		1.953125
836		7.812500
837		3.906250
838		5.859375
839		1.953125
840		5.859375
841		3.906250
842		5.859375
843		3.906250
844		5.859375
845		3.906250
846		5.859375
847		3.906250
848		5.859375
849		3.906250
850		5.859375
851		1.953125
852		5.859375
853		3.906250
854		5.859375
855		3.906250
856		5.859375
857		1.953125
858		7.812500
859		3.906250
860		7.812500
861		3.906250
862		7.812500
863		3.906250
864		7.812500
865		3.906250
866		7.812500
867		3.906250
868		7.812500
869		3.906250
870		7.812500
871		5.859375
872		7.812500
873		3.906250
874		7.812500
875		5.859375
876		7.812500
877		5.859375
878		7.812500
879		5.859375
880		7.812500
881		5.859375
882		9.765625
883		5.859375
884		9.765625
885		5.859375
886		9.765625
887		7.812500
888		9.765625
889		7.812500
890		9.765625
891		5.859375
892		9.765625
893		7.812500
894		9.765625
895		7.812500
896		9.765625
897		7.812500
898		11.718750
899		7.812500
900		11.718750
901		7.812500
902		11.718750
903		7.812500
904		11.718750
905		9.765625
906		11.718750
907		7.812500
908		13.671875
909		9.765625
910		13.671875
911		9.765625
912		13.671875
913		9.765625
914		13.671875
915		9.765625
916		13.671875
917		9.765625
918		13.671875
919		9.765625
920		13.671875
921		11.718750
922		13.671875
923		11.718750
924		15.625000
925		11.718750
926		15.625000
927		11.718750
928		15.625000
929		11.718750
930		15.625000
931		11.718750
932		15.625000
933		11.718750
934		15.625000
935		11.718750
936		15.625000
937		13.671875
938		15.625000
939		13.671875
940		15.625000
941		11.718750
942		17.578125
943		13.671875
944		15.625000
945		13.671875
946		17.578125
947		13.671875
948		15.625000
949		13.671875
950		17.578125
951		13.671875
952		17.578125
953		13.671875
954		17.578125
955		13.671875
956		17.578125
957		13.671875
958		17.578125
959		13.671875
960		17.578125
961		13.671875
962		17.578125
963		15.625000
964		17.578125
965		15.625000
966		17.578125
967		13.671875
968		17.578125
969		13.671875
970		19.531250
971		15.625000
972		17.578125
973		15.625000
974		17.578125
975		15.625000
976		19.531250
977		15.625000
978		17.578125
979		15.625000
980		19.531250
981		13.671875
982		19.531250
983		15.625000
984		19.531250
985		15.625000
986		19.531250
987		15.625000
988		19.531250
989		15.625000
990		17.578125
991		15.625000
992		19.531250
993		15.625000
994		17.578125
995		15.625000
996		19.531250
997		13.671875
998		19.531250
999		15.625000
1000		17.578125
1001		15.625000
1002		17.578125
1003		13.671875
1004		19.531250
1005		15.625000
1006		17.578125
1007		13.671875
1008		17.578125
1009		13.671875
1010		17.578125
1011		13.671875
1012		17.578125
1013		11.718750
1014		17.578125
1015		13.671875
1016		17.578125
1017		11.718750
1018		19.531250
1019		11.718750
1020		17.578125
1021		13.671875
1022		15.625000
1023		13.671875
1024		15.625000
1025		11.718750
1026		15.625000
1027		11.718750
1028		15.625000
1029		11.718750
1030		15.625000
1031		9.765625
1032		15.625000
1033		9.765625
1034		15.625000
1035		9.765625
1036		13.671875
1037		9.765625
1038		13.671875
1039		9.765625
1040		13.671875
1041		9.765625
1042		13.671875
1043		7.812500
1044		13.671875
1045		7.812500
1046		13.671875
1047		7.812500
1048		13.671875
1049		5.859375
1050		13.671875
1051		5.859375
1052		13.671875
1053		5.859375
1054		11.718750
1055		7.812500
1056		9.765625
1057		7.812500
1058		9.765625
1059		3.906250
1060		11.718750
1061		3.906250
1062		11.718750
1063		3.906250
1064		11.718750
1065		3.906250
1066		9.765625
1067		3.906250
1068		9.765625
1069		3.906250
1070		9.765625
1071		3.906250
1072		7.812500
1073		5.859375
1074		7.812500
1075		1.953125
1076		7.812500
1077		1.953125
1078		9.765625
1079		1.953125
1080		9.765625
1081		1.953125
1082		7.812500
1083		1.953125
1084		7.812500
1085		1.953125
1086		9.765625
1087		1.953125
1088		7.812500
1089		3.906250
1090		5.859375
1091		1.953125
1092		7.812500
1093		0.000000
1094		7.812500
1095		1.953125
1096		7.812500
1097		1.953125
1098		7.812500
1099		0.000000
1100		7.812500
1101		1.953125
1102		7.812500
1103		1.953125
1104		7.812500
1105		1.953125
1106		7.812500
1107		3.906250
1108		5.859375
1109		1.953125
1110		7.812500
1111		1.953125
1112		9.765625
1113		1.953125
1114		7.812500
1115		1.953125
1116		9.765625
1117		1.953125
1118		7.812500
1119		1.953125
1120		7.812500
1121		1.953125
1122		7.812500
1123		3.906250
1124		7.812500
1125		1.953125
1126		7.812500
1127		1.953125
1128		9.765625
1129		3.906250
1130		9.765625
1131		1.953125
1132		9.765625
1133		3.906250
1134		11.718750
1135		3.906250
1136		9.765625
1137		3.906250
1138		9.765625
1139		5.859375
1140		7.812500
1141		5.859375
1142		9.765625
1143		5.859375
1144		11.718750
1145		5.859375
1146		11.718750
1147		5.859375
1148		13.671875
1149		5.859375
1150		11.718750
1151		5.859375
1152		13.671875
1153		5.859375
1154		13.671875
1155		7.812500
1156		11.718750
1157		9.765625
1158		11.718750
1159		5.859375
1160		13.671875
1161		5.859375
1162		13.671875
1163		7.812500
1164		13.671875
1165		7.812500
1166		15.625000
1167		7.812500
1168		15.625000
1169		7.812500
1170		15.625000
1171		7.812500
1172		15.625000
1173		11.718750
1174		13.671875
1175		9.765625
1176		13.671875
1177		7.812500
1178		15.625000
1179		9.765625
1180		15.625000
1181		9.765625
1182		17.578125
1183		9.765625
1184		17.578125
1185		9.765625
1186		17.578125
1187		9.765625
1188		17.578125
1189		11.718750
1190		15.625000
1191		13.671875
1192		15.625000
1193		9.765625
1194		17.578125
1195		9.765625
1196		17.578125
1197		11.718750
1198		17.578125
1199		11.718750
1200		17.578125
1201		11.718750
1202		19.531250
1203		11.718750
1204		19.531250
1205		11.718750
1206		17.578125
1207		13.671875
1208		15.625000
1209		11.718750
1210		19.531250
1211		11.718750
1212		19.531250
1213		11.718750
1214		19.531250
1215		11.718750
1216		19.531250
1217		11.718750
1218		19.531250
1219		11.718750
1220		19.531250
1221		11.718750
1222		19.531250
1223		15.625000
1224		17.578125
1225		15.625000
1226		17.578125
1227		11.718750
1228		19.531250
1229		13.671875
1230		19.531250
1231		11.718750
1232		19.531250
1233		13.671875
1234		19.531250
1235		13.671875
1236		19.531250
1237		13.671875
1238		19.531250
1239		13.671875
1240		19.531250
1241		15.625000
1242		17.578125
1243		13.671875
1244		19.531250
1245		13.671875
1246		19.531250
1247		11.718750
1248		21.484375
1249		13.671875
1250		19.531250
1251		11.718750
1252		19.531250
1253		11.718750
1254		19.531250
1255		11.718750
1256		19.531250
1257		15.625000
1258		17.578125
1259		13.671875
1260		17.578125
1261		11.718750
1262		19.531250
1263		11.718750
1264		19.531250
1265		11.718750
1266		19.531250
1267		11.718750
1268		19.531250
1269		11.718750
1270		19.531250
1271		11.718750
1272		17.578125
1273		13.671875
1274		15.625000
1275		13.671875
1276		15.625000
1277		9.765625
1278		17.578125
1279		9.765625
1280		17.578125
1281		9.765625
1282		17.578125
1283		9.765625
1284		17.578125
1285		9.765625
1286		17.578125
1287		9.765625
1288		15.625000
1289		9.765625
1290		15.625000
1291		9.765625
1292		13.671875
1293		7.812500
1294		13.671875
1295		7.812500
1296		15.625000
1297		7.812500
1298		13.671875
1299		5.859375
1300		13.671875
1301		5.859375
1302		13.671875
1303		5.859375
1304		13.671875
1305		5.859375
1306		13.671875
1307		7.812500
1308		9.765625
1309		7.812500
1310		9.765625
1311		3.906250
1312		11.718750
1313		3.906250
1314		11.718750
1315		3.906250
1316		11.718750
1317		3.906250
1318		9.765625
1319		3.906250
1320		9.765625
1321		1.953125
1322		9.765625
1323		3.906250
1324		9.765625
1325		5.859375
1326		7.812500
1327		1.953125
1328		9.765625
1329		1.953125
1330		9.765625
1331		1.953125
1332		9.765625
1333		3.906250
1334		9.765625
1335		1.953125
1336		9.765625
1337		1.953125
1338		9.765625
1339		1.953125
1340		7.812500
1341		3.906250
1342		5.859375
1343		3.906250
1344		5.859375
1345		1.953125
1346		7.812500
1347		1.953125
1348		7.812500
1349		1.953125
1350		7.812500
1351		1.953125
1352		7.812500
1353		1.953125
1354		7.812500
1355		1.953125
1356		7.812500
1357		3.906250
1358		5.859375
1359		3.906250
1360		5.859375
1361		1.953125
1362		7.812500
1363		1.953125
1364		7.812500
1365		3.906250
1366		5.859375
1367		3.906250
1368		7.812500
1369		1.953125
1370		9.765625
1371		3.906250
1372		7.812500
1373		3.906250
1374		9.765625
1375		3.906250
1376		7.812500
1377		3.906250
1378		9.765625
1379		1.953125
1380		9.765625
1381		5.859375
1382		7.812500
1383		5.859375
1384		7.812500
1385		5.859375
1386		9.765625
1387		5.859375
1388		11.718750
1389		3.906250
1390		9.765625
1391		5.859375
1392		9.765625
1393		5.859375
1394		9.765625
1395		3.906250
1396		11.718750
1397		5.859375
1398		11.718750
1399		5.859375
1400		11.718750
1401		5.859375
1402		11.718750
1403		7.812500
1404		11.718750
1405		7.812500
1406		11.718750
1407		7.812500
1408		13.671875
1409		9.765625
1410		11.718750
1411		7.812500
1412		13.671875
1413		7.812500
1414		13.671875
1415		7.812500
1416		13.671875
1417		7.812500
1418		13.671875
1419		7.812500
1420		13.671875
1421		9.765625
1422		13.671875
1423		9.765625
1424		13.671875
1425		11.718750
1426		13.671875
1427		11.718750
1428		13.671875
1429		9.765625
1430		15.625000
1431		9.765625
1432		15.625000
1433		11.718750
1434		15.625000
1435		11.718750
1436		15.625000
1437		11.718750
1438		15.625000
1439		11.718750
1440		15.625000
1441		11.718750
1442		15.625000
1443		13.671875
1444		15.625000
1445		11.718750
1446		15.625000
1447		11.718750
1448		17.578125
1449		13.671875
1450		17.578125
1451		13.671875
1452		17.578125
1453		13.671875
1454		17.578125
1455		13.671875
1456		17.578125
1457		13.671875
1458		17.578125
1459		13.671875
1460		17.578125
1461		13.671875
1462		17.578125
1463		13.671875
1464		17.578125
1465		13.671875
1466		17.578125
1467		13.671875
1468		17.578125
1469		15.625000
1470		17.578125
1471		13.671875
1472		17.578125
1473		13.671875
1474		19.531250
1475		15.625000
1476		17.578125
1477		15.625000
1478		17.578125
1479		15.625000
1480		19.531250
1481		13.671875
1482		19.531250
1483		15.625000
1484		19.531250
1485		15.625000
1486		19.531250
1487		15.625000
1488		19.531250
1489		15.625000
1490		19.531250
1491		15.625000
1492		17.578125
1493		15.625000
1494		17.578125
1495		13.671875
1496		19.531250
1497		15.625000
1498		19.531250
1499		15.625000
1500		17.578125
1501		15.625000
1502		19.531250
1503		15.625000
1504		19.531250
1505		15.625000
1506		19.531250
1507		13.671875
1508		17.578125
1509		15.625000
1510		17.578125
1511		15.625000
1512		17.578125
1513		13.671875
1514		17.578125
1515		13.671875
1516		17.578125
1517		13.671875
1518		17.578125
1519		13.671875
1520		17.578125
1521		13.671875
1522		17.578125
1523		13.671875
1524		17.578125
1525		11.718750
1526		17.578125
1527		11.718750
1528		15.625000
1529		11.718750
1530		15.625000
1531		13.671875
1532		15.625000
1533		11.718750
1534		15.625000
1535		11.718750
1536		15.625000
1537		11.718750
1538		15.625000
1539		11.718750
1540		15.625000
1541		9.765625
1542		15.625000
1543		11.718750
1544		13.671875
1545		9.765625
1546		13.671875
1547		9.765625
1548		13.671875
1549		9.765625
1550		11.718750
1551		9.765625
1552		11.718750
1553		7.812500
1554		11.718750
1555		7.812500
1556		11.718750
1557		7.812500
1558		11.718750
1559		7.812500
1560		9.765625
1561		7.812500
1562		9.765625
1563		5.859375
1564		11.718750
1565		5.859375
1566		9.765625
1567		5.859375
1568		9.765625
1569		5.859375
1570		9.765625
1571		5.859375
1572		9.765625
1573		5.859375
1574		9.765625
1575		3.906250
1576		9.765625
1577		5.859375
1578		7.812500
1579		3.906250
1580		9.765625
1581		3.906250
1582		7.812500
1583		3.906250
1584		7.812500
1585		3.906250
1586		7.812500
1587		3.906250
1588		7.812500
1589		3.906250
1590		5.859375
1591		1.953125
1592		7.812500
1593		3.906250
1594		5.859375
1595		3.906250
1596		5.859375
1597		3.906250
1598		7.812500
1599		1.953125
1600		5.859375
1601		3.906250
1602		5.859375
1603		3.906250
1604		5.859375
1605		3.906250
1606		5.859375
1607		3.906250
1608		5.859375
1609		1.953125
1610		5.859375
1611		3.906250
1612		5.859375
1613		1.953125
1614		7.812500
1615		3.906250
1616		7.812500
1617		3.906250
1618		7.812500
1619		3.906250
1620		7.812500
1621		3.906250
1622		7.812500
1623		3.906250
1624		7.812500
1625		3.906250
1626		7.812500
1627		3.906250
1628		7.812500
1629		3.906250
1630		7.812500
1631		3.906250
1632		7.812500
1633		3.906250
1634		7.812500
1635		5.859375
1636		7.812500
1637		5.859375
1638		7.812500
1639		5.859375
1640		7.812500
1641		5.859375
1642		9.765625
1643		5.859375
1644		7.812500
1645		5.859375
1646		9.765625
1647		5.859375
1648		9.765625
1649		5.859375
1650		9.765625
1651		5.859375
1652		9.765625
1653		7.812500
1654		11.718750
1655		7.812500
1656		9.765625
1657		7.812500
1658		11.718750
1659		7.812500
1660		11.718750
1661		7.812500
1662		11.718750
1663		7.812500
1664		11.718750
1665		9.765625
1666		11.718750
1667		7.812500
1668		13.671875
1669		9.765625
1670		11.718750
1671		9.765625
1672		13.671875
1673		9.765625
1674		13.671875
1675		9.765625
1676		13.671875
1677		11.718750
1678		13.671875
1679		11.718750
1680		13.671875
1681		11.718750
1682		13.671875
1683		9.765625
1684		13.671875
1685		11.718750
1686		15.625000
1687		11.718750
1688		15.625000
1689		11.718750
1690		15.625000
1691		11.718750
1692		15.625000
1693		11.718750
1694		15.625000
1695		13.671875
1696		15.625000
1697		11.718750
1698		15.625000
1699		11.718750
1700		15.625000
1701		13.671875
1702		15.625000
1703		13.671875
1704		15.625000
1705		13.671875
1706		17.578125
1707		13.671875
1708		17.578125
1709		13.671875
1710		17.578125
1711		13.671875
1712		15.625000
1713		13.671875
1714		17.578125
1715		13.671875
1716		17.578125
1717		13.671875
1718		17.578125
1719		13.671875
1720		17.578125
1721		13.671875
1722		17.578125
1723		13.671875
1724		17.578125
1725		13.671875
1726		17.578125
1727		15.625000
1728		17.578125
1729		15.625000
1730		17.578125
1731		15.625000
1732		17.578125
1733		15.625000
1734		17.578125
1735		15.625000
1736		17.578125
1737		15.625000
1738		17.578125
1739		15.625000
1740		19.531250
1741		15.625000
1742		17.578125
1743		15.625000
1744		19.531250
1745		15.625000
1746		17.578125
1747		13.671875
1748		19.531250
1749		13.671875
1750		19.531250
1751		15.625000
1752		17.578125
1753		15.625000
1754		17.578125
1755		15.625000
1756		17.578125
1757		15.625000
1758		17.578125
1759		13.671875
1760		19.531250
1761		15.625000
1762		17.578125
1763		15.625000
1764		17.578125
1765		13.671875
1766		17.578125
1767		15.625000
1768		17.578125
1769		13.671875
1770		17.578125
1771		13.671875
1772		17.578125
1773		13.671875
1774		17.578125
1775		13.671875
1776		17.578125
1777		13.671875
1778		17.578125
1779		13.671875
1780		15.625000
1781		11.718750
1782		15.625000
1783		11.718750
1784		15.625000
1785		11.718750
1786		15.625000
1787		11.718750
1788		15.625000
1789		11.718750
1790		15.625000
1791		11.718750
1792		15.625000
1793		9.765625
1794		15.625000
1795		11.718750
1796		13.671875
1797		9.765625
1798		13.671875
1799		9.765625
1800		13.671875
1801		9.765625
1802		13.671875
1803		9.765625
1804		13.671875
1805		9.765625
1806		11.718750
1807		7.812500
1808		11.718750
1809		7.812500
1810		11.718750
1811		7.812500
1812		11.718750
1813		7.812500
1814		11.718750
1815		7.812500
1816		11.718750
1817		5.859375
1818		11.718750
1819		5.859375
1820		9.765625
1821		5.859375
1822		9.765625
1823		5.859375
1824		9.765625
1825		5.859375
1826		9.765625
1827		5.859375
1828		9.765625
1829		5.859375
1830		7.812500
1831		3.906250
1832		7.812500
1833		5.859375
1834		7.812500
1835		5.859375
1836		7.812500
1837		3.906250
1838		7.812500
1839		3.906250
1840		7.812500
1841		3.906250
1842		7.812500
1843		3.906250
1844		7.812500
1845		3.906250
1846		5.859375
1847		3.906250
1848		5.859375
1849		3.906250
1850		7.812500
1851		3.906250
1852		7.812500
1853		3.906250
1854		7.812500
1855		3.906250
1856		7.812500
1857		3.906250
1858		7.812500
1859		3.906250
1860		7.812500
1861		3.906250
1862		7.812500
1863		3.906250
1864		5.859375
1865		3.906250
1866		7.812500
1867		3.906250
1868		5.859375
1869		3.906250
1870		7.812500
1871		3.906250
1872		7.812500
1873		3.906250
1874		7.812500
1875		3.906250
1876		7.812500
1877		3.906250
1878		7.812500
1879		5.859375
1880		7.812500
1881		5.859375
1882		7.812500
1883		5.859375
1884		7.812500
1885		5.859375
1886		7.812500
1887		5.859375
1888		7.812500
1889		5.859375
1890		9.765625
1891		5.859375
1892		9.765625
1893		5.859375
1894		9.765625
1895		5.859375
1896		9.765625
1897		7.812500
1898		9.765625
1899		5.859375
1900		9.765625
1901		7.812500
1902		9.765625
1903		7.812500
1904		9.765625
1905		7.812500
1906		9.765625
1907		7.812500
1908		11.718750
1909		7.812500
1910		11.718750
1911		7.812500
1912		11.718750
1913		9.765625
1914		11.718750
1915		7.812500
1916		13.671875
1917		9.765625
1918		11.718750
1919		9.765625
1920		13.671875
1921		9.765625
1922		13.671875
1923		9.765625
1924		13.671875
1925		9.765625
1926		13.671875
1927		9.765625
1928		13.671875
1929		11.718750
1930		13.671875
1931		11.718750
1932		13.671875
1933		9.765625
1934		15.625000
1935		11.718750
1936		15.625000
1937		11.718750
1938		15.625000
1939		11.718750
1940		15.625000
1941		11.718750
1942		15.625000
1943		11.718750
1944		15.625000
1945		11.718750
1946		17.578125
1947		13.671875
1948		15.625000
1949		11.718750
1950		17.578125
1951		13.671875
1952		15.625000
1953		13.671875
1954		17.578125
1955		13.671875
1956		17.578125
1957		13.671875
1958		17.578125
1959		13.671875
1960		17.578125
1961		13.671875
1962		17.578125
1963		15.625000
1964		17.578125
1965		13.671875
1966		17.578125
1967		13.671875
1968		17.578125
1969		13.671875
1970		17.578125
1971		15.625000
1972		17.578125
1973		15.625000
1974		17.578125
1975		15.625000
1976		19.531250
1977		15.625000
1978		19.531250
1979		15.625000
1980		17.578125
1981		15.625000
1982		17.578125
1983		13.671875
1984		21.484375
1985		15.625000
1986		19.531250
1987		15.625000
1988		19.531250
1989		15.625000
1990		19.531250
1991		15.625000
1992		19.531250
1993		15.625000
1994		19.531250
1995		15.625000
1996		19.531250
1997		15.625000
1998		19.531250
1999		13.671875
2000		19.531250
2001		15.625000
2002		19.531250
2003		15.625000
2004		19.531250
2005		15.625000
2006		19.531250
2007		15.625000
2008		19.531250
2009		15.625000
2010		19.531250
2011		15.625000
2012		19.531250
2013		15.625000
2014		17.578125
2015		15.625000
2016		17.578125
2017		13.671875
2018		19.531250
2019		15.625000
2020		17.578125
2021		13.671875
2022		19.531250
2023		13.671875
2024		17.578125
2025		13.671875
2026		17.578125
2027		13.671875
2028		17.578125
2029		13.671875
2030		17.578125
2031		13.671875
2032		15.625000
2033		11.718750
2034		17.578125
2035		13.671875
2036		15.625000
2037		13.671875
2038		15.625000
2039		13.671875
2040		15.625000
2041		11.718750
2042		15.625000
2043		11.718750
2044		15.625000
2045		11.718750
2046		15.625000
2047		11.718750
2048		13.671875
2049		9.765625
2050		15.625000
2051		9.765625
2052		13.671875
2053		9.765625
2054		13.671875
2055		9.765625
2056		13.671875
2057		9.765625
2058		13.671875
2059		9.765625
2060		11.718750
2061		9.765625
2062		11.718750
2063		7.812500
2064		11.718750
2065		7.812500
2066		11.718750
2067		5.859375
2068		11.718750
2069		7.812500
2070		11.718750
2071		7.812500
2072		11.718750
2073		5.859375
2074		9.765625
2075		5.859375
2076		9.765625
2077		5.859375
2078		9.765625
2079		5.859375
2080		9.765625
2081		5.859375
2082		7.812500
2083		5.859375
2084		9.765625
2085		5.859375
2086		7.812500
2087		5.859375
2088		7.812500
2089		3.906250
2090		7.812500
2091		5.859375
2092		7.812500
2093		3.906250
2094		7.812500
2095		3.906250
2096		7.812500
2097		3.906250
2098		5.859375
2099		3.906250
2100		5.859375
2101		3.906250
2102		7.812500
2103		3.906250
2104		5.859375
2105		3.906250
2106		7.812500
2107		3.906250
2108		7.812500
2109		3.906250
2110		7.812500
2111		3.906250
2112		7.812500
2113		3.906250
2114		7.812500
2115		3.906250
2116		5.859375
2117		1.953125
2118		7.812500
2119		3.906250
2120		5.859375
2121		3.906250
2122		7.812500
2123		3.906250
2124		7.812500
2125		3.906250
2126		7.812500
2127		3.906250
2128		7.812500
2129		3.906250
2130		7.812500
2131		3.906250
2132		7.812500
2133		5.859375
2134		7.812500
2135		3.906250
2136		9.765625
2137		3.906250
2138		7.812500
2139		5.859375
2140		7.812500
2141		5.859375
2142		7.812500
2143		5.859375
2144		7.812500
2145		5.859375
2146		9.765625
2147		5.859375
2148		9.765625
2149		5.859375
2150		9.765625
2151		5.859375
2152		9.765625
2153		5.859375
2154		9.765625
2155		5.859375
2156		9.765625
2157		7.812500
2158		9.765625
2159		7.812500
2160		11.718750
2161		7.812500
2162		11.718750
2163		7.812500
2164		11.718750
2165		7.812500
2166		11.718750
2167		7.812500
2168		11.718750
2169		7.812500
2170		11.718750
2171		7.812500
2172		11.718750
2173		9.765625
2174		11.718750
2175		9.765625
2176		13.671875
2177		9.765625
2178		13.671875
2179		9.765625
2180		13.671875
2181		9.765625
2182		13.671875
2183		11.718750
2184		13.671875
2185		9.765625
2186		13.671875
2187		11.718750
2188		13.671875
2189		11.718750
2190		13.671875
2191		11.718750
2192		13.671875
2193		11.718750
2194		15.625000
2195		11.718750
2196		15.625000
2197		11.718750
2198		15.625000
2199		13.671875
2200		15.625000
2201		11.718750
2202		15.625000
2203		13.671875
2204		15.625000
2205		11.718750
2206		15.625000
2207		13.671875
2208		15.625000
2209		13.671875
2210		15.625000
2211		13.671875
2212		17.578125
2213		13.671875
2214		17.578125
2215		13.671875
2216		15.625000
2217		13.671875
2218		17.578125
2219		13.671875
2220		17.578125
2221		13.671875
2222		17.578125
2223		13.671875
2224		17.578125
2225		13.671875
2226		17.578125
2227		15.625000
2228		17.578125
2229		15.625000
2230		17.578125
2231		13.671875
2232		19.531250
2233		15.625000
2234		17.578125
2235		15.625000
2236		19.531250
2237		15.625000
2238		17.578125
2239		15.625000
2240		19.531250
2241		15.625000
2242		17.578125
2243		15.625000
2244		19.531250
2245		15.625000
2246		19.531250
2247		15.625000
2248		19.531250
2249		15.625000
2250		17.578125
2251		15.625000
2252		17.578125
2253		15.625000
2254		17.578125
2255		15.625000
2256		17.578125
2257		15.625000
2258		19.531250
2259		15.625000
2260		17.578125
2261		15.625000
2262		17.578125
2263		15.625000
2264		19.531250
2265		15.625000
2266		17.578125
2267		15.625000
2268		17.578125
2269		13.671875
2270		19.531250
2271		15.625000
2272		17.578125
2273		13.671875
2274		17.578125
2275		13.671875
2276		17.578125
2277		13.671875
2278		17.578125
2279		13.671875
2280		17.578125
2281		13.671875
2282		17.578125
2283		13.671875
2284		17.578125
2285		13.671875
2286		17.578125
2287		13.671875
2288		15.625000
2289		11.718750
2290		15.625000
2291		11.718750
2292		15.625000
2293		11.718750
2294		15.625000
2295		11.718750
2296		15.625000
2297		11.718750
2298		15.625000
2299		11.718750
2300		13.671875
2301		11.718750
2302		13.671875
2303		9.765625
2304		13.671875
2305		9.765625
2306		13.671875
2307		9.765625
2308		13.671875
2309		9.765625
2310		13.671875
2311		9.765625
2312		13.671875
2313		9.765625
2314		11.718750
2315		9.765625
2316		13.671875
2317		9.765625
2318		11.718750
2319		7.812500
2320		11.718750
2321		7.812500
2322		11.718750
2323		7.812500
2324		11.718750
2325		7.812500
2326		11.718750
2327		7.812500
2328		9.765625
2329		5.859375
2330		9.765625
2331		5.859375
2332		9.765625
2333		5.859375
2334		7.812500
2335		5.859375
2336		9.765625
2337		5.859375
2338		9.765625
2339		3.906250
2340		7.812500
2341		5.859375
2342		7.812500
2343		5.859375
2344		7.812500
2345		5.859375
2346		7.812500
2347		3.906250
2348		7.812500
2349		5.859375
2350		7.812500
2351		3.906250
2352		7.812500
2353		3.906250
2354		7.812500
2355		3.906250
2356		7.812500
2357		3.906250
2358		7.812500
2359		3.906250
2360		7.812500
2361		3.906250
2362		7.812500
2363		3.906250
2364		7.812500
2365		3.906250
2366		7.812500
2367		3.906250
2368		5.859375
2369		3.906250
2370		7.812500
2371		3.906250
2372		7.812500
2373		3.906250
2374		7.812500
2375		3.906250
2376		7.812500
2377		3.906250
2378		7.812500
2379		3.906250
2380		7.812500
2381		3.906250
2382		9.765625
2383		5.859375
2384		7.812500
2385		5.859375
2386		7.812500
2387		3.906250
2388		7.812500
2389		5.859375
2390		9.765625
2391		5.859375
2392		7.812500
2393		5.859375
2394		9.765625
2395		5.859375
2396		9.765625
2397		5.859375
2398		9.765625
2399		5.859375
2400		9.765625
2401		7.812500
2402		9.765625
2403		5.859375
2404		11.718750
2405		7.812500
2406		9.765625
2407		7.812500
2408		11.718750
2409		7.812500
2410		11.718750
2411		7.812500
2412		11.718750
2413		7.812500
2414		11.718750
2415		7.812500
2416		11.718750
2417		9.765625
2418		11.718750
2419		9.765625
2420		13.671875
2421		7.812500
2422		13.671875
2423		9.765625
2424		11.718750
2425		9.765625
2426		13.671875
2427		9.765625
2428		13.671875
2429		9.765625
2430		13.671875
2431		9.765625
2432		13.671875
2433		11.718750
2434		13.671875
2435		11.718750
2436		13.671875
2437		11.718750
2438		15.625000
2439		11.718750
2440		13.671875
2441		11.718750
2442		15.625000
2443		11.718750
2444		15.625000
2445		11.718750
2446		15.625000
2447		11.718750
2448		15.625000
2449		11.718750
2450		15.625000
2451		13.671875
2452		15.625000
2453		11.718750
2454		17.578125
2455		13.671875
2456		15.625000
2457		13.671875
2458		17.578125
2459		13.671875
2460		17.578125
2461		13.671875
2462		17.578125
2463		13.671875
2464		17.578125
2465		13.671875
2466		17.578125
2467		15.625000
2468		17.578125
2469		15.625000
2470		17.578125
2471		13.671875
2472		19.531250
2473		13.671875
2474		17.578125
2475		15.625000
2476		17.578125
2477		15.625000
2478		19.531250
2479		15.625000
2480		19.531250
2481		15.625000
2482		17.578125
2483		15.625000
2484		19.531250
2485		15.625000
2486		19.531250
2487		15.625000
2488		19.531250
2489		15.625000
2490		19.531250
2491		15.625000
2492		19.531250
2493		15.625000
2494		19.531250
2495		15.625000
2496		19.531250
2497		15.625000
2498		19.531250
2499		15.625000
2500		19.531250
2501		15.625000
2502		19.531250
2503		17.578125
2504		19.531250
2505		15.625000
2506		19.531250
2507		15.625000
2508		19.531250
2509		15.625000
2510		19.531250
2511		15.625000
2512		19.531250
2513		15.625000
2514		19.531250
2515		15.625000
2516		19.531250
2517		15.625000
2518		19.531250
2519		15.625000
2520		17.578125
2521		15.625000
2522		19.531250
2523		15.625000
2524		19.531250
2525		15.625000
2526		19.531250
2527		15.625000
2528		19.531250
2529		15.625000
2530		17.578125
2531		13.671875
2532		17.578125
2533		15.625000
2534		19.531250
2535		15.625000
2536		17.578125
2537		13.671875
2538		17.578125
2539		13.671875
2540		17.578125
2541		13.671875
2542		17.578125
2543		13.671875
2544		17.578125
2545		13.671875
2546		15.625000
2547		13.671875
2548		15.625000
2549		11.718750
2550		15.625000
2551		11.718750
2552		15.625000
2553		11.718750
2554		13.671875
2555		11.718750
2556		15.625000
2557		9.765625
2558		13.671875
2559		9.765625
2560		13.671875
2561		9.765625
2562		13.671875
2563		9.765625
2564		13.671875
2565		9.765625
2566		13.671875
2567		7.812500
2568		11.718750
2569		9.765625
2570		11.718750
2571		9.765625
2572		11.718750
2573		7.812500
2574		11.718750
2575		7.812500
2576		11.718750
2577		7.812500
2578		9.765625
2579		7.812500
2580		9.765625
2581		7.812500
2582		9.765625
2583		5.859375
2584		9.765625
2585		7.812500
2586		9.765625
2587		5.859375
2588		9.765625
2589		5.859375
2590		9.765625
2591		5.859375
2592		7.812500
2593		5.859375
2594		9.765625
2595		5.859375
2596		7.812500
2597		5.859375
2598		7.812500
2599		3.906250
2600		7.812500
2601		5.859375
2602		7.812500
2603		3.906250
2604		7.812500
2605		3.906250
2606		7.812500
2607		3.906250
2608		7.812500
2609		3.906250
2610		7.812500
2611		3.906250
2612		7.812500
2613		3.906250
2614		7.812500
2615		3.906250
2616		7.812500
2617		3.906250
2618		7.812500
2619		3.906250
2620		7.812500
2621		3.906250
2622		7.812500
2623		3.906250
2624		7.812500
2625		3.906250
2626		7.812500
2627		3.906250
2628		7.812500
2629		3.906250
2630		7.812500
2631		3.906250
2632		7.812500
2633		3.906250
2634		7.812500
2635		3.906250
2636		7.812500
2637		5.859375
2638		7.812500
2639		3.906250
2640		7.812500
2641		5.859375
2642		7.812500
2643		5.859375
2644		9.765625
2645		5.859375
2646		9.765625
2647		5.859375
2648		9.765625
2649		5.859375
2650		9.765625
2651		5.859375
2652		9.765625
2653		5.859375
2654		9.765625
2655		7.812500
2656		9.765625
2657		5.859375
2658		9.765625
2659		7.812500
2660		11.718750
2661		7.812500
2662		11.718750
2663		7.812500
2664		11.718750
2665		7.812500
2666		11.718750
2667		7.812500
2668		11.718750
2669		9.765625
2670		11.718750
2671		9.765625
2672		11.718750
2673		7.812500
2674		13.671875
2675		9.765625
2676		11.718750
2677		9.765625
2678		13.671875
2679		9.765625
2680		13.671875
2681		9.765625
2682		13.671875
2683		9.765625
2684		13.671875
2685		9.765625
2686		13.671875
2687		11.718750
2688		13.671875
2689		11.718750
2690		15.625000
2691		11.718750
2692		13.671875
2693		11.718750
2694		15.625000
2695		11.718750
2696		15.625000
2697		11.718750
2698		15.625000
2699		11.718750
2700		15.625000
2701		11.718750
2702		15.625000
2703		13.671875
2704		15.625000
2705		13.671875
2706		17.578125
2707		13.671875
2708		15.625000
2709		13.671875
2710		17.578125
2711		13.671875
2712		15.625000
2713		13.671875
2714		17.578125
2715		13.671875
2716		17.578125
2717		13.671875
2718		17.578125
2719		13.671875
2720		17.578125
2721		15.625000
2722		17.578125
2723		15.625000
2724		17.578125
2725		13.671875
2726		17.578125
2727		13.671875
2728		17.578125
2729		15.625000
2730		17.578125
2731		15.625000
2732		19.531250
2733		15.625000
2734		19.531250
2735		13.671875
2736		19.531250
2737		15.625000
2738		17.578125
2739		13.671875
2740		19.531250
2741		15.625000
2742		19.531250
2743		15.625000
2744		19.531250
2745		15.625000
2746		19.531250
2747		15.625000
2748		19.531250
2749		15.625000
2750		19.531250
2751		15.625000
2752		19.531250
2753		15.625000
2754		19.531250
2755		17.578125
2756		19.531250
2757		15.625000
2758		19.531250
2759		15.625000
2760		19.531250
2761		15.625000
2762		19.531250
2763		15.625000
2764		19.531250
2765		15.625000
2766		19.531250
2767		15.625000
2768		19.531250
2769		15.625000
2770		19.531250
2771		15.625000
2772		19.531250
2773		15.625000
2774		19.531250
2775		15.625000
2776		19.531250
2777		15.625000
2778		19.531250
2779		15.625000
2780		17.578125
2781		15.625000
2782		17.578125
2783		15.625000
2784		19.531250
2785		13.671875
2786		19.531250
2787		13.671875
2788		17.578125
2789		15.625000
2790		17.578125
2791		13.671875
2792		17.578125
2793		13.671875
2794		17.578125
2795		13.671875
2796		17.578125
2797		13.671875
2798		17.578125
2799		13.671875
2800		15.625000
2801		11.718750
2802		17.578125
2803		13.671875
2804		15.625000
2805		11.718750
2806		15.625000
2807		9.765625
2808		15.625000
2809		11.718750
2810		15.625000
2811		11.718750
2812		13.671875
2813		11.718750
2814		13.671875
2815		9.765625
2816		13.671875
2817		9.765625
2818		13.671875
2819		9.765625
2820		13.671875
2821		9.765625
2822		11.718750
2823		7.812500
2824		13.671875
2825		7.812500
2826		11.718750
2827		7.812500
2828		11.718750
2829		7.812500
2830		11.718750
2831		7.812500
2832		11.718750
2833		7.812500
2834		11.718750
2835		5.859375
2836		11.718750
2837		7.812500
2838		9.765625
2839		7.812500
2840		9.765625
2841		5.859375
2842		9.765625
2843		5.859375
2844		9.765625
2845		5.859375
2846		9.765625
2847		5.859375
2848		9.765625
2849		5.859375
2850		9.765625
2851		5.859375
2852		9.765625
2853		3.906250
2854		7.812500
2855		5.859375
2856		7.812500
2857		5.859375
2858		7.812500
2859		3.906250
2860		7.812500
2861		3.906250
2862		7.812500
2863		3.906250
2864		7.812500
2865		3.906250
2866		7.812500
2867		3.906250
2868		7.812500
2869		3.906250
2870		7.812500
2871		5.859375
2872		7.812500
2873		3.906250
2874		7.812500
2875		3.906250
2876		7.812500
2877		3.906250
2878		7.812500
2879		3.906250
2880		7.812500
2881		5.859375
2882		7.812500
2883		3.906250
2884		7.812500
2885		5.859375
2886		9.765625
2887		5.859375
2888		7.812500
2889		5.859375
2890		7.812500
2891		3.906250
2892		9.765625
2893		5.859375
2894		7.812500
2895		5.859375
2896		9.765625
2897		5.859375
2898		9.765625
2899		5.859375
2900		9.765625
2901		7.812500
2902		9.765625
2903		5.859375
2904		9.765625
2905		7.812500
2906		9.765625
2907		7.812500
2908		11.718750
2909		7.812500
2910		11.718750
2911		7.812500
2912		11.718750
2913		7.812500
2914		11.718750
2915		7.812500
2916		11.718750
2917		7.812500
2918		11.718750
2919		7.812500
2920		13.671875
2921		9.765625
2922		11.718750
2923		9.765625
2924		11.718750
2925		7.812500
2926		13.671875
2927		9.765625
2928		13.671875
2929		9.765625
2930		13.671875
2931		9.765625
2932		13.671875
2933		11.718750
2934		13.671875
2935		9.765625
2936		13.671875
2937		9.765625
2938		13.671875
2939		11.718750
2940		13.671875
2941		11.718750
2942		13.671875
2943		11.718750
2944		15.625000
2945		11.718750
2946		15.625000
2947		11.718750
2948		15.625000
2949		11.718750
2950		15.625000
2951		13.671875
2952		15.625000
2953		13.671875
2954		15.625000
2955		13.671875
2956		15.625000
2957		13.671875
2958		17.578125
2959		13.671875
2960		17.578125
2961		13.671875
2962		17.578125
2963		13.671875
2964		17.578125
2965		13.671875
2966		17.578125
2967		13.671875
2968		17.578125
2969		13.671875
2970		17.578125
2971		13.671875
2972		17.578125
2973		15.625000
2974		17.578125
2975		15.625000
2976		19.531250
2977		15.625000
2978		17.578125
2979		15.625000
2980		19.531250
2981		15.625000
2982		19.531250
2983		15.625000
2984		19.531250
2985		15.625000
2986		19.531250
2987		15.625000
2988		19.531250
2989		17.578125
2990		19.531250
2991		15.625000
2992		19.531250
2993		15.625000
2994		19.531250
2995		15.625000
2996		19.531250
2997		15.625000
2998		19.531250
2999		15.625000
3000		19.531250
3001		17.578125
3002		19.531250
3003		17.578125
3004		19.531250
3005		17.578125
3006		19.531250
3007		17.578125
3008		19.531250
3009		15.625000
3010		19.531250
3011		17.578125
3012		21.484375
3013		17.578125
3014		19.531250
3015		17.578125
3016		19.531250
3017		15.625000
3018		19.531250
3019		17.578125
3020		19.531250
3021		15.625000
3022		19.531250
3023		17.578125
3024		19.531250
3025		15.625000
3026		19.531250
3027		15.625000
3028		19.531250
3029		15.625000
3030		19.531250
3031		15.625000
3032		19.531250
3033		15.625000
3034		19.531250
3035		15.625000
3036		17.578125
3037		13.671875
3038		19.531250
3039		15.625000
3040		17.578125
3041		15.625000
3042		19.531250
3043		15.625000
3044		19.531250
3045		13.671875
3046		17.578125
3047		13.671875
3048		17.578125
3049		13.671875
3050		17.578125
3051		13.671875
3052		17.578125
3053		11.718750
3054		17.578125
3055		13.671875
3056		15.625000
3057		13.671875
3058		15.625000
3059		11.718750
3060		15.625000
3061		11.718750
3062		15.625000
3063		11.718750
3064		15.625000
3065		9.765625
3066		13.671875
3067		11.718750
3068		13.671875
3069		9.765625
3070		13.671875
3071		9.765625
3072		13.671875
3073		9.765625
3074		13.671875
3075		9.765625
3076		13.671875
3077		9.765625
3078		11.718750
3079		7.812500
3080		11.718750
3081		9.765625
3082		11.718750
3083		7.812500
3084		11.718750
3085		7.812500
3086		11.718750
3087		7.812500
3088		11.718750
3089		7.812500
3090		9.765625
3091		7.812500
3092		9.765625
3093		5.859375
3094		9.765625
3095		7.812500
3096		9.765625
3097		5.859375
3098		9.765625
3099		5.859375
3100		7.812500
3101		5.859375
3102		7.812500
3103		5.859375
3104		7.812500
3105		5.859375
3106		7.812500
3107		5.859375
3108		7.812500
3109		3.906250
3110		9.765625
3111		3.906250
3112		7.812500
3113		3.906250
3114		7.812500
3115		3.906250
3116		7.812500
3117		3.906250
3118		7.812500
3119		3.906250
3120		7.812500
3121		1.953125
3122		7.812500
3123		5.859375
3124		7.812500
3125		3.906250
3126		7.812500
3127		3.906250
3128		7.812500
3129		3.906250
3130		7.812500
3131		3.906250
3132		7.812500
3133		3.906250
3134		7.812500
3135		3.906250
3136		7.812500
3137		3.906250
3138		9.765625
3139		5.859375
3140		7.812500
3141		5.859375
3142		7.812500
3143		5.859375
3144		7.812500
3145		5.859375
3146		7.812500
3147		5.859375
3148		7.812500
3149		5.859375
3150		9.765625
3151		5.859375
3152		9.765625
3153		5.859375
3154		9.765625
3155		5.859375
3156		11.718750
3157		7.812500
3158		9.765625
3159		5.859375
3160		9.765625
3161		7.812500
3162		9.765625
3163		7.812500
3164		9.765625
3165		7.812500
3166		11.718750
3167		7.812500
3168		11.718750
3169		7.812500
3170		11.718750
3171		7.812500
3172		11.718750
3173		7.812500
3174		11.718750
3175		9.765625
3176		11.718750
3177		7.812500
3178		13.671875
3179		9.765625
3180		11.718750
3181		9.765625
3182		13.671875
3183		9.765625
3184		13.671875
3185		9.765625
3186		13.671875
3187		9.765625
3188		13.671875
3189		9.765625
3190		13.671875
3191		11.718750
3192		13.671875
3193		11.718750
3194		15.625000
3195		11.718750
3196		13.671875
3197		11.718750
3198		15.625000
3199		11.718750
3200		15.625000
3201		11.718750
3202		15.625000
3203		11.718750
3204		15.625000
3205		11.718750
3206		15.625000
3207		13.671875
3208		15.625000
3209		11.718750
3210		15.625000
3211		13.671875
3212		17.578125
3213		13.671875
3214		15.625000
3215		13.671875
3216		17.578125
3217		13.671875
3218		17.578125
3219		13.671875
3220		17.578125
3221		13.671875
3222		17.578125
3223		15.625000
3224		17.578125
3225		15.625000
3226		17.578125
3227		13.671875
3228		17.578125
3229		15.625000
3230		17.578125
3231		13.671875
3232		17.578125
3233		15.625000
3234		17.578125
3235		15.625000
3236		19.531250
3237		15.625000
3238		19.531250
3239		15.625000
3240		19.531250
3241		15.625000
3242		19.531250
3243		15.625000
3244		19.531250
3245		15.625000
3246		19.531250
3247		15.625000
3248		19.531250
3249		15.625000
3250		19.531250
3251		15.625000
3252		19.531250
3253		15.625000
3254		19.531250
3255		15.625000
3256		19.531250
3257		15.625000
3258		19.531250
3259		17.578125
3260		19.531250
3261		15.625000
3262		19.531250
3263		15.625000
3264		19.531250
3265		15.625000
3266		19.531250
3267		15.625000
3268		19.531250
3269		15.625000
3270		19.531250
3271		15.625000
3272		19.531250
3273		15.625000
3274		19.531250
3275		15.625000
3276		19.531250
3277		15.625000
3278		19.531250
3279		15.625000
3280		19.531250
3281		15.625000
3282		19.531250
3283		15.625000
3284		19.531250
3285		15.625000
3286		19.531250
3287		15.625000
3288		19.531250
3289		13.671875
3290		19.531250
3291		15.625000
3292		17.578125
3293		15.625000
3294		17.578125
3295		13.671875
3296		19.531250
3297		13.671875
3298		17.578125
3299		13.671875
3300		17.578125
3301		13.671875
3302		17.578125
3303		13.671875
3304		17.578125
3305		13.671875
3306		15.625000
3307		13.671875
3308		17.578125
3309		13.671875
3310		15.625000
3311		11.718750
3312		15.625000
3313		11.718750
3314		15.625000
3315		11.718750
3316		15.625000
3317		11.718750
3318		13.671875
3319		11.718750
3320		13.671875
3321		11.718750
3322		13.671875
3323		9.765625
3324		13.671875
3325		9.765625
3326		13.671875
3327		9.765625
3328		13.671875
3329		9.765625
3330		11.718750
3331		9.765625
3332		11.718750
3333		7.812500
3334		11.718750
3335		7.812500
3336		11.718750
3337		7.812500
3338		11.718750
3339		7.812500
3340		9.765625
3341		7.812500
3342		9.765625
3343		7.812500
3344		9.765625
3345		7.812500
3346		9.765625
3347		5.859375
3348		9.765625
3349		5.859375
3350		9.765625
3351		5.859375
3352		9.765625
3353		5.859375
3354		9.765625
3355		5.859375
3356		9.765625
3357		5.859375
3358		9.765625
3359		5.859375
3360		7.812500
3361		3.906250
3362		9.765625
3363		5.859375
3364		7.812500
3365		3.906250
3366		7.812500
3367		3.906250
3368		7.812500
3369		5.859375
3370		7.812500
3371		5.859375
3372		7.812500
3373		3.906250
3374		7.812500
3375		3.906250
3376		7.812500
3377		5.859375
3378		7.812500
3379		3.906250
3380		7.812500
3381		3.906250
3382		7.812500
3383		3.906250
3384		7.812500
3385		3.906250
3386		7.812500
3387		3.906250
3388		7.812500
3389		3.906250
3390		7.812500
3391		3.906250
3392		7.812500
3393		5.859375
3394		7.812500
3395		5.859375
3396		9.765625
3397		5.859375
3398		9.765625
3399		5.859375
3400		9.765625
3401		5.859375
3402		7.812500
3403		5.859375
3404		9.765625
3405		5.859375
3406		9.765625
3407		5.859375
3408		9.765625
3409		5.859375
3410		9.765625
3411		5.859375
3412		9.765625
3413		7.812500
3414		9.765625
3415		7.812500
3416		9.765625
3417		7.812500
3418		9.765625
3419		7.812500
3420		11.718750
3421		7.812500
3422		11.718750
3423		7.812500
3424		11.718750
3425		9.765625
3426		11.718750
3427		9.765625
3428		11.718750
3429		7.812500
3430		11.718750
3431		9.765625
3432		13.671875
3433		9.765625
3434		13.671875
3435		9.765625
3436		13.671875
3437		9.765625
3438		13.671875
3439		9.765625
3440		13.671875
3441		9.765625
3442		13.671875
3443		11.718750
3444		13.671875
3445		9.765625
3446		13.671875
3447		11.718750
3448		15.625000
3449		11.718750
3450		15.625000
3451		11.718750
3452		15.625000
3453		11.718750
3454		15.625000
3455		11.718750
3456		15.625000
3457		11.718750
3458		15.625000
3459		13.671875
3460		15.625000
3461		13.671875
3462		15.625000
3463		13.671875
3464		17.578125
3465		13.671875
3466		17.578125
3467		13.671875
3468		17.578125
3469		13.671875
3470		17.578125
3471		13.671875
3472		17.578125
3473		13.671875
3474		17.578125
3475		13.671875
3476		17.578125
3477		15.625000
3478		17.578125
3479		15.625000
3480		19.531250
3481		13.671875
3482		19.531250
3483		15.625000
3484		17.578125
3485		15.625000
3486		19.531250
3487		15.625000
3488		19.531250
3489		15.625000
3490		19.531250
3491		15.625000
3492		19.531250
3493		15.625000
3494		19.531250
3495		15.625000
3496		19.531250
3497		15.625000
3498		19.531250
3499		15.625000
3500		19.531250
3501		17.578125
3502		19.531250
3503		15.625000
3504		19.531250
3505		17.578125
3506		19.531250
3507		15.625000
3508		19.531250
3509		17.578125
3510		19.531250
3511		17.578125
3512		19.531250
3513		15.625000
3514		21.484375
3515		17.578125
3516		19.531250
3517		15.625000
3518		19.531250
3519		17.578125
3520		19.531250
3521		15.625000
3522		19.531250
3523		17.578125
3524		19.531250
3525		15.625000
3526		21.484375
3527		17.578125
3528		19.531250
3529		15.625000
3530		19.531250
3531		15.625000
3532		19.531250
3533		15.625000
3534		19.531250
3535		15.625000
3536		19.531250
3537		15.625000
3538		19.531250
3539		15.625000
3540		19.531250
3541		15.625000
3542		19.531250
3543		15.625000
3544		17.578125
3545		15.625000
3546		17.578125
3547		13.671875
3548		17.578125
3549		15.625000
3550		17.578125
3551		13.671875
3552		17.578125
3553		13.671875
3554		17.578125
3555		13.671875
3556		17.578125
3557		13.671875
3558		17.578125
3559		11.718750
3560		17.578125
3561		13.671875
3562		15.625000
3563		11.718750
3564		15.625000
3565		11.718750
3566		15.625000
3567		11.718750
3568		15.625000
3569		11.718750
3570		15.625000
3571		11.718750
3572		15.625000
3573		9.765625
3574		15.625000
3575		9.765625
3576		15.625000
3577		11.718750
3578		13.671875
3579		9.765625
3580		13.671875
3581		9.765625
3582		13.671875
3583		9.765625
3584		11.718750
3585		9.765625
3586		11.718750
3587		7.812500
3588		11.718750
3589		7.812500
3590		11.718750
3591		7.812500
3592		11.718750
3593		7.812500
3594		9.765625
3595		7.812500
3596		9.765625
3597		5.859375
3598		11.718750
3599		5.859375
3600		9.765625
3601		5.859375
3602		9.765625
3603		5.859375
3604		9.765625
3605		5.859375
3606		9.765625
3607		5.859375
3608		9.765625
3609		5.859375
3610		9.765625
3611		5.859375
3612		7.812500
3613		5.859375
3614		9.765625
3615		3.906250
3616		9.765625
3617		3.906250
3618		7.812500
3619		5.859375
3620		7.812500
3621		5.859375
3622		7.812500
3623		3.906250
3624		7.812500
3625		3.906250
3626		7.812500
3627		3.906250
3628		7.812500
3629		5.859375
3630		7.812500
3631		3.906250
3632		7.812500
3633		3.906250
3634		7.812500
3635		3.906250
3636		7.812500
3637		5.859375
3638		7.812500
3639		5.859375
3640		7.812500
3641		3.906250
3642		7.812500
3643		5.859375
3644		7.812500
3645		5.859375
3646		7.812500
3647		3.906250
3648		7.812500
3649		5.859375
3650		9.765625
3651		5.859375
3652		7.812500
3653		5.859375
3654		7.812500
3655		5.859375
3656		9.765625
3657		5.859375
3658		9.765625
3659		5.859375
3660		9.765625
3661		7.812500
3662		9.765625
3663		5.859375
3664		9.765625
3665		7.812500
3666		9.765625
3667		7.812500
3668		9.765625
3669		7.812500
3670		11.718750
3671		7.812500
3672		9.765625
3673		7.812500
3674		11.718750
3675		7.812500
3676		11.718750
3677		9.765625
3678		11.718750
3679		9.765625
3680		11.718750
3681		7.812500
3682		11.718750
3683		9.765625
3684		13.671875
3685		9.765625
3686		13.671875
3687		9.765625
3688		13.671875
3689		9.765625
3690		13.671875
3691		9.765625
3692		13.671875
3693		9.765625
3694		13.671875
3695		11.718750
3696		13.671875
3697		11.718750
3698		15.625000
3699		11.718750
3700		15.625000
3701		11.718750
3702		15.625000
3703		11.718750
3704		15.625000
3705		11.718750
3706		15.625000
3707		11.718750
3708		15.625000
3709		11.718750
3710		15.625000
3711		13.671875
3712		15.625000
3713		13.671875
3714		15.625000
3715		11.718750
3716		15.625000
3717		13.671875
3718		17.578125
3719		13.671875
3720		17.578125
3721		13.671875
3722		17.578125
3723		13.671875
3724		17.578125
3725		13.671875
3726		17.578125
3727		13.671875
3728		17.578125
3729		15.625000
3730		17.578125
3731		13.671875
3732		19.531250
3733		15.625000
3734		17.578125
3735		15.625000
3736		19.531250
3737		15.625000
3738		17.578125
3739		15.625000
3740		17.578125
3741		15.625000
3742		19.531250
3743		15.625000
3744		19.531250
3745		15.625000
3746		19.531250
3747		15.625000
3748		19.531250
3749		15.625000
3750		19.531250
3751		15.625000
3752		19.531250
3753		15.625000
3754		19.531250
3755		15.625000
3756		19.531250
3757		15.625000
3758		19.531250
3759		15.625000
3760		21.484375
3761		17.578125
3762		19.531250
3763		17.578125
3764		19.531250
3765		17.578125
3766		19.531250
3767		17.578125
3768		19.531250
3769		17.578125
3770		19.531250
3771		17.578125
3772		19.531250
3773		17.578125
3774		21.484375
3775		15.625000
3776		19.531250
3777		17.578125
3778		21.484375
3779		17.578125
3780		19.531250
3781		15.625000
3782		19.531250
3783		15.625000
3784		19.531250
3785		15.625000
3786		19.531250
3787		15.625000
3788		19.531250
3789		15.625000
3790		19.531250
3791		15.625000
3792		19.531250
3793		15.625000
3794		19.531250
3795		15.625000
3796		17.578125
3797		15.625000
3798		17.578125
3799		13.671875
3800		19.531250
3801		15.625000
3802		17.578125
3803		15.625000
3804		17.578125
3805		15.625000
3806		17.578125
3807		13.671875
3808		17.578125
3809		13.671875
3810		17.578125
3811		13.671875
3812		17.578125
3813		13.671875
3814		15.625000
3815		13.671875
3816		17.578125
3817		11.718750
3818		15.625000
3819		11.718750
3820		15.625000
3821		11.718750
3822		15.625000
3823		11.718750
3824		15.625000
3825		11.718750
3826		15.625000
3827		9.765625
3828		15.625000
3829		11.718750
3830		13.671875
3831		9.765625
3832		13.671875
3833		9.765625
3834		13.671875
3835		9.765625
3836		13.671875
3837		9.765625
3838		13.671875
3839		9.765625
3840		11.718750
3841		9.765625
3842		11.718750
3843		7.812500
3844		11.718750
3845		7.812500
3846		11.718750
3847		7.812500
3848		9.765625
3849		7.812500
3850		11.718750
3851		7.812500
3852		9.765625
3853		5.859375
3854		9.765625
3855		7.812500
3856		9.765625
3857		5.859375
3858		9.765625
3859		5.859375
3860		9.765625
3861		5.859375
3862		9.765625
3863		5.859375
3864		9.765625
3865		5.859375
3866		9.765625
3867		5.859375
3868		9.765625
3869		5.859375
3870		9.765625
3871		5.859375
3872		7.812500
3873		3.906250
3874		7.812500
3875		5.859375
3876		7.812500
3877		3.906250
3878		7.812500
3879		5.859375
3880		7.812500
3881		5.859375
3882		7.812500
3883		3.906250
3884		7.812500
3885		5.859375
3886		7.812500
3887		5.859375
3888		7.812500
3889		5.859375
3890		7.812500
3891		5.859375
3892		7.812500
3893		5.859375
3894		7.812500
3895		3.906250
3896		9.765625
3897		5.859375
3898		7.812500
3899		5.859375
3900		7.812500
3901		5.859375
3902		9.765625
3903		5.859375
3904		9.765625
3905		5.859375
3906		9.765625
3907		5.859375
3908		9.765625
3909		5.859375
3910		9.765625
3911		5.859375
3912		9.765625
3913		7.812500
3914		9.765625
3915		7.812500
3916		9.765625
3917		5.859375
3918		9.765625
3919		7.812500
3920		9.765625
3921		7.812500
3922		11.718750
3923		7.812500
3924		11.718750
3925		7.812500
3926		11.718750
3927		7.812500
3928		11.718750
3929		7.812500
3930		13.671875
3931		9.765625
3932		11.718750
3933		9.765625
3934		13.671875
3935		9.765625
3936		11.718750
3937		9.765625
3938		13.671875
3939		9.765625
3940		13.671875
3941		11.718750
3942		13.671875
3943		11.718750
3944		13.671875
3945		11.718750
3946		13.671875
3947		11.718750
3948		13.671875
3949		11.718750
3950		15.625000
3951		11.718750
3952		15.625000
3953		11.718750
3954		15.625000
3955		11.718750
3956		15.625000
3957		11.718750
3958		15.625000
3959		11.718750
3960		15.625000
3961		11.718750
3962		17.578125
3963		13.671875
3964		15.625000
3965		13.671875
3966		15.625000
3967		13.671875
3968		17.578125
3969		13.671875
3970		17.578125
3971		13.671875
3972		17.578125
3973		13.671875
3974		17.578125
3975		13.671875
3976		17.578125
3977		13.671875
3978		17.578125
3979		11.718750
3980		17.578125
3981		15.625000
3982		17.578125
3983		15.625000
3984		19.531250
3985		15.625000
3986		19.531250
3987		15.625000
3988		17.578125
3989		15.625000
3990		19.531250
3991		15.625000
3992		19.531250
3993		15.625000
3994		19.531250
3995		15.625000
3996		19.531250
3997		17.578125
3998		19.531250
3999		15.625000
4000		19.531250
4001		15.625000
4002		19.531250
4003		17.578125
4004		19.531250
4005		17.578125
4006		19.531250
4007		17.578125
4008		19.531250
4009		15.625000
4010		19.531250
4011		17.578125
4012		21.484375
4013		15.625000
4014		21.484375
4015		17.578125
4016		19.531250
4017		17.578125
4018		21.484375
4019		17.578125
4020		21.484375
4021		17.578125
4022		21.484375
4023		17.578125
4024		19.531250
4025		17.578125
4026		19.531250
4027		17.578125
4028		19.531250
4029		15.625000
4030		21.484375
4031		17.578125
4032		19.531250
4033		17.578125
4034		19.531250
4035		17.578125
4036		19.531250
4037		17.578125
4038		19.531250
4039		15.625000
4040		19.531250
4041		17.578125
4042		19.531250
4043		15.625000
4044		19.531250
4045		15.625000
4046		19.531250
4047		15.625000
4048		19.531250
4049		15.625000
4050		19.531250
4051		15.625000
4052		19.531250
4053		15.625000
4054		19.531250
4055		15.625000
4056		17.578125
4057		15.625000
4058		17.578125
4059		15.625000
4060		17.578125
4061		13.671875
4062		17.578125
4063		13.671875
4064		17.578125
4065		13.671875
4066		15.625000
4067		13.671875
4068		17.578125
4069		13.671875
4070		15.625000
4071		11.718750
4072		15.625000
4073		13.671875
4074		15.625000
4075		11.718750
4076		15.625000
4077		11.718750
4078		15.625000
4079		11.718750
4080		15.625000
4081		11.718750
4082		13.671875
4083		9.765625
4084		13.671875
4085		9.765625
4086		13.671875
4087		9.765625
4088		13.671875
4089		9.765625
4090		13.671875
4091		9.765625
4092		11.718750
4093		9.765625
4094		13.671875
4095		7.812500
4096		11.718750
4097		7.812500
4098		11.718750
4099		7.812500
4100		11.718750
4101		7.812500
4102		11.718750
4103		7.812500
4104		9.765625
4105		5.859375
4106		9.765625
4107		5.859375
4108		11.718750
4109		5.859375
4110		9.765625
4111		5.859375
4112		9.765625
4113		5.859375
4114		9.765625
4115		5.859375
4116		9.765625
4117		3.906250
4118		9.765625
4119		5.859375
4120		9.765625
4121		5.859375
4122		7.812500
4123		5.859375
4124		7.812500
4125		5.859375
4126		9.765625
4127		5.859375
4128		7.812500
4129		3.906250
4130		9.765625
4131		5.859375
4132		7.812500
4133		5.859375
4134		7.812500
4135		3.906250
4136		9.765625
4137		5.859375
4138		7.812500
4139		3.906250
4140		7.812500
4141		5.859375
4142		7.812500
4143		5.859375
4144		7.812500
4145		3.906250
4146		7.812500
4147		3.906250
4148		9.765625
4149		5.859375
4150		7.812500
4151		3.906250
4152		9.765625
4153		5.859375
4154		9.765625
4155		5.859375
4156		9.765625
4157		5.859375
4158		7.812500
4159		5.859375
4160		9.765625
4161		5.859375
4162		9.765625
4163		5.859375
4164		9.765625
4165		7.812500
4166		9.765625
4167		7.812500
4168		9.765625
4169		7.812500
4170		11.718750
4171		7.812500
4172		11.718750
4173		7.812500
4174		11.718750
4175		7.812500
4176		11.718750
4177		7.812500
4178		11.718750
4179		7.812500
4180		11.718750
4181		7.812500
4182		11.718750
4183		9.765625
4184		11.718750
4185		9.765625
4186		11.718750
4187		9.765625
4188		13.671875
4189		9.765625
4190		13.671875
4191		9.765625
4192		13.671875
4193		9.765625
4194		13.671875
4195		11.718750
4196		13.671875
4197		11.718750
4198		13.671875
4199		11.718750
4200		13.671875
4201		9.765625
4202		15.625000
4203		11.718750
4204		13.671875
4205		11.718750
4206		15.625000
4207		11.718750
4208		15.625000
4209		11.718750
4210		15.625000
4211		11.718750
4212		15.625000
4213		13.671875
4214		15.625000
4215		13.671875
4216		15.625000
4217		13.671875
4218		15.625000
4219		13.671875
4220		17.578125
4221		13.671875
4222		17.578125
4223		13.671875
4224		17.578125
4225		13.671875
4226		17.578125
4227		13.671875
4228		17.578125
4229		15.625000
4230		17.578125
4231		13.671875
4232		19.531250
4233		15.625000
4234		17.578125
4235		15.625000
4236		19.531250
4237		15.625000
4238		19.531250
4239		15.625000
4240		19.531250
4241		15.625000
4242		19.531250
4243		15.625000
4244		19.531250
4245		15.625000
4246		19.531250
4247		13.671875
4248		19.531250
4249		17.578125
4250		19.531250
4251		17.578125
4252		19.531250
4253		17.578125
4254		19.531250
4255		17.578125
4256		19.531250
4257		17.578125
4258		19.531250
4259		17.578125
4260		21.484375
4261		17.578125
4262		19.531250
4263		17.578125
4264		21.484375
4265		15.625000
4266		21.484375
4267		17.578125
4268		19.531250
4269		17.578125
4270		19.531250
4271		17.578125
4272		21.484375
4273		17.578125
4274		21.484375
4275		17.578125
4276		21.484375
4277		17.578125
4278		21.484375
4279		17.578125
4280		21.484375
4281		17.578125
4282		21.484375
4283		17.578125
4284		19.531250
4285		17.578125
4286		21.484375
4287		15.625000
4288		21.484375
4289		17.578125
4290		19.531250
4291		17.578125
4292		19.531250
4293		17.578125
4294		19.531250
4295		15.625000
4296		19.531250
4297		15.625000
4298		19.531250
4299		17.578125
4300		19.531250
4301		17.578125
4302		19.531250
4303		15.625000
4304		19.531250
4305		15.625000
4306		19.531250
4307		15.625000
4308		19.531250
4309		15.625000
4310		19.531250
4311		15.625000
4312		17.578125
4313		15.625000
4314		17.578125
4315		13.671875
4316		17.578125
4317		15.625000
4318		17.578125
4319		13.671875
4320		17.578125
4321		13.671875
4322		17.578125
4323		13.671875
4324		17.578125
4325		13.671875
4326		15.625000
4327		13.671875
4328		17.578125
4329		11.718750
4330		15.625000
4331		11.718750
4332		15.625000
4333		11.718750
4334		13.671875
4335		11.718750
4336		13.671875
4337		9.765625
4338		13.671875
4339		9.765625
4340		13.671875
4341		9.765625
4342		13.671875
4343		9.765625
4344		13.671875
4345		9.765625
4346		13.671875
4347		9.765625
4348		13.671875
4349		9.765625
4350		11.718750
4351		9.765625
4352		11.718750
4353		7.812500
4354		11.718750
4355		7.812500
4356		11.718750
4357		7.812500
4358		11.718750
4359		7.812500
4360		9.765625
4361		7.812500
4362		9.765625
4363		7.812500
4364		9.765625
4365		5.859375
4366		9.765625
4367		7.812500
4368		9.765625
4369		7.812500
4370		9.765625
4371		5.859375
4372		9.765625
4373		5.859375
4374		9.765625
4375		5.859375
4376		9.765625
4377		5.859375
4378		9.765625
4379		5.859375
4380		9.765625
4381		3.906250
4382		9.765625
4383		5.859375
4384		7.812500
4385		5.859375
4386		7.812500
4387		5.859375
4388		9.765625
4389		5.859375
4390		9.765625
4391		5.859375
4392		9.765625
4393		5.859375
4394		7.812500
4395		5.859375
4396		9.765625
4397		5.859375
4398		7.812500
4399		5.859375
4400		9.765625
4401		5.859375
4402		7.812500
4403		5.859375
4404		9.765625
4405		5.859375
4406		9.765625
4407		5.859375
4408		9.765625
4409		5.859375
4410		9.765625
4411		5.859375
4412		9.765625
4413		5.859375
4414		9.765625
4415		5.859375
4416		9.765625
4417		7.812500
4418		11.718750
4419		7.812500
4420		9.765625
4421		5.859375
4422		11.718750
4423		7.812500
4424		11.718750
4425		7.812500
4426		11.718750
4427		7.812500
4428		11.718750
4429		7.812500
4430		11.718750
4431		7.812500
4432		11.718750
4433		7.812500
4434		11.718750
4435		9.765625
4436		11.718750
4437		9.765625
4438		13.671875
4439		9.765625
4440		13.671875
4441		9.765625
4442		13.671875
4443		9.765625
4444		13.671875
4445		9.765625
4446		13.671875
4447		9.765625
4448		13.671875
4449		9.765625
4450		13.671875
4451		11.718750
4452		13.671875
4453		11.718750
4454		15.625000
4455		11.718750
4456		15.625000
4457		11.718750
4458		15.625000
4459		11.718750
4460		15.625000
4461		13.671875
4462		15.625000
4463		13.671875
4464		15.625000
4465		13.671875
4466		17.578125
4467		13.671875
4468		15.625000
4469		13.671875
4470		15.625000
4471		13.671875
4472		17.578125
4473		13.671875
4474		17.578125
4475		13.671875
4476		17.578125
4477		13.671875
4478		17.578125
4479		13.671875
4480		17.578125
4481		15.625000
4482		17.578125
4483		15.625000
4484		19.531250
4485		15.625000
4486		17.578125
4487		15.625000
4488		19.531250
4489		15.625000
4490		19.531250
4491		15.625000
4492		19.531250
4493		15.625000
4494		19.531250
4495		15.625000
4496		19.531250
4497		15.625000
4498		19.531250
4499		15.625000
4500		19.531250
4501		17.578125
4502		19.531250
4503		17.578125
4504		19.531250
4505		17.578125
4506		19.531250
4507		17.578125
4508		21.484375
4509		17.578125
4510		19.531250
4511		17.578125
4512		19.531250
4513		17.578125
4514		19.531250
4515		17.578125
4516		21.484375
4517		15.625000
4518		21.484375
4519		17.578125
4520		19.531250
4521		17.578125
4522		21.484375
4523		17.578125
4524		21.484375
4525		17.578125
4526		21.484375
4527		17.578125
4528		21.484375
4529		17.578125
4530		21.484375
4531		17.578125
4532		21.484375
4533		17.578125
4534		21.484375
4535		17.578125
4536		19.531250
4537		17.578125
4538		21.484375
4539		15.625000
4540		21.484375
4541		17.578125
4542		21.484375
4543		17.578125
4544		21.484375
4545		17.578125
4546		21.484375
4547		17.578125
4548		19.531250
4549		17.578125
4550		21.484375
4551		17.578125
4552		21.484375
4553		17.578125
4554		19.531250
4555		15.625000
4556		19.531250
4557		15.625000
4558		19.531250
4559		15.625000
4560		19.531250
4561		15.625000
4562		19.531250
4563		15.625000
4564		19.531250
4565		15.625000
4566		19.531250
4567		13.671875
4568		17.578125
4569		15.625000
4570		17.578125
4571		13.671875
4572		17.578125
4573		13.671875
4574		17.578125
4575		13.671875
4576		17.578125
4577		13.671875
4578		17.578125
4579		13.671875
4580		15.625000
4581		13.671875
4582		15.625000
4583		11.718750
4584		15.625000
4585		11.718750
4586		15.625000
4587		11.718750
4588		13.671875
4589		11.718750
4590		15.625000
4591		11.718750
4592		13.671875
4593		9.765625
4594		13.671875
4595		9.765625
4596		13.671875
4597		9.765625
4598		13.671875
4599		9.765625
4600		13.671875
4601		9.765625
4602		13.671875
4603		9.765625
4604		11.718750
4605		7.812500
4606		11.718750
4607		7.812500
4608		11.718750
4609		7.812500
4610		11.718750
4611		7.812500
4612		11.718750
4613		7.812500
4614		11.718750
4615		7.812500
4616		11.718750
4617		5.859375
4618		9.765625
4619		7.812500
4620		9.765625
4621		7.812500
4622		9.765625
4623		5.859375
4624		9.765625
4625		5.859375
4626		9.765625
4627		5.859375
4628		9.765625
4629		5.859375
4630		9.765625
4631		5.859375
4632		9.765625
4633		5.859375
4634		9.765625
4635		5.859375
4636		9.765625
4637		5.859375
4638		7.812500
4639		3.906250
4640		9.765625
4641		5.859375
4642		9.765625
4643		5.859375
4644		9.765625
4645		5.859375
4646		9.765625
4647		5.859375
4648		9.765625
4649		5.859375
4650		9.765625
4651		5.859375
4652		9.765625
4653		5.859375
4654		9.765625
4655		5.859375
4656		9.765625
4657		5.859375
4658		9.765625
4659		5.859375
4660		9.765625
4661		5.859375
4662		9.765625
4663		5.859375
4664		9.765625
4665		5.859375
4666		11.718750
4667		5.859375
4668		11.718750
4669		7.812500
4670		9.765625
4671		7.812500
4672		9.765625
4673		5.859375
4674		11.718750
4675		7.812500
4676		11.718750
4677		7.812500
4678		11.718750
4679		7.812500
4680		11.718750
4681		7.812500
4682		11.718750
4683		7.812500
4684		11.718750
4685		9.765625
4686		11.718750
4687		9.765625
4688		11.718750
4689		7.812500
4690		13.671875
4691		9.765625
4692		13.671875
4693		9.765625
4694		13.671875
4695		9.765625
4696		13.671875
4697		9.765625
4698		13.671875
4699		11.718750
4700		13.671875
4701		9.765625
4702		15.625000
4703		11.718750
4704		13.671875
4705		11.718750
4706		15.625000
4707		11.718750
4708		17.578125
4709		11.718750
4710		15.625000
4711		11.718750
4712		17.578125
4713		11.718750
4714		17.578125
4715		11.718750
4716		17.578125
4717		11.718750
4718		17.578125
4719		11.718750
4720		17.578125
4721		13.671875
4722		17.578125
4723		13.671875
4724		17.578125
4725		13.671875
4726		19.531250
4727		13.671875
4728		17.578125
4729		13.671875
4730		19.531250
4731		13.671875
4732		19.531250
4733		13.671875
4734		19.531250
4735		13.671875
4736		19.531250
4737		15.625000
4738		17.578125
4739		15.625000
4740		19.531250
4741		15.625000
4742		19.531250
4743		15.625000
4744		19.531250
4745		15.625000
4746		21.484375
4747		15.625000
4748		21.484375
4749		15.625000
4750		21.484375
4751		15.625000
4752		21.484375
4753		17.578125
4754		19.531250
4755		17.578125
4756		19.531250
4757		15.625000
4758		21.484375
4759		15.625000
4760		21.484375
4761		17.578125
4762		21.484375
4763		15.625000
4764		21.484375
4765		17.578125
4766		21.484375
4767		17.578125
4768		21.484375
4769		17.578125
4770		21.484375
4771		17.578125
4772		21.484375
4773		17.578125
4774		21.484375
4775		17.578125
4776		21.484375
4777		17.578125
4778		21.484375
4779		19.531250
4780		21.484375
4781		19.531250
4782		21.484375
4783		19.531250
4784		21.484375
4785		17.578125
4786		21.484375
4787		17.578125
4788		21.484375
4789		17.578125
4790		21.484375
4791		17.578125
4792		21.484375
4793		17.578125
4794		21.484375
4795		17.578125
4796		21.484375
4797		17.578125
4798		19.531250
4799		17.578125
4800		19.531250
4801		17.578125
4802		19.531250
4803		17.578125
4804		19.531250
4805		17.578125
4806		19.531250
4807		17.578125
4808		19.531250
4809		17.578125
4810		19.531250
4811		17.578125
4812		19.531250
4813		17.578125
4814		19.531250
4815		17.578125
4816		19.531250
4817		15.625000
4818		19.531250
4819		15.625000
4820		19.531250
4821		15.625000
4822		17.578125
4823		15.625000
4824		17.578125
4825		15.625000
4826		17.578125
4827		15.625000
4828		17.578125
4829		13.671875
4830		17.578125
4831		13.671875
4832		17.578125
4833		13.671875
4834		15.625000
4835		13.671875
4836		15.625000
4837		13.671875
4838		15.625000
4839		11.718750
4840		15.625000
4841		11.718750
4842		15.625000
4843		11.718750
4844		13.671875
4845		11.718750
4846		13.671875
4847		11.718750
4848		13.671875
4849		11.718750
4850		13.671875
4851		11.718750
4852		13.671875
4853		9.765625
4854		13.671875
4855		9.765625
4856		11.718750
4857		9.765625
4858		11.718750
4859		9.765625
4860		11.718750
4861		9.765625
4862		11.718750
4863		9.765625
4864		11.718750
4865		9.765625
4866		11.718750
4867		7.812500
4868		9.765625
4869		7.812500
4870		11.718750
4871		7.812500
4872		9.765625
4873		7.812500
4874		9.765625
4875		3.906250
4876		13.671875
4877		3.906250
4878		13.671875
4879		3.906250
4880		13.671875
4881		7.812500
4882		9.765625
4883		7.812500
4884		9.765625
4885		7.812500
4886		9.765625
4887		5.859375
4888		9.765625
4889		7.812500
4890		9.765625
4891		3.906250
4892		11.718750
4893		3.906250
4894		11.718750
4895		1.953125
4896		11.718750
4897		5.859375
4898		9.765625
4899		5.859375
4900		9.765625
4901		5.859375
4902		9.765625
4903		7.812500
4904		9.765625
4905		7.812500
4906		9.765625
4907		5.859375
4908		11.718750
4909		3.906250
4910		11.718750
4911		3.906250
4912		13.671875
4913		3.906250
4914		13.671875
4915		7.812500
4916		9.765625
4917		7.812500
4918		9.765625
4919		7.812500
4920		9.765625
4921		7.812500
4922		9.765625
4923		7.812500
4924		9.765625
4925		5.859375
4926		13.671875
4927		3.906250
4928		15.625000
4929		5.859375
4930		15.625000
4931		7.812500
4932		11.718750
4933		9.765625
4934		11.718750
4935		9.765625
4936		11.718750
4937		9.765625
4938		11.718750
4939		9.765625
4940		11.718750
4941		7.812500
4942		15.625000
4943		7.812500
4944		17.578125
4945		7.812500
4946		17.578125
4947		7.812500
4948		17.578125
4949		11.718750
4950		13.671875
4951		11.718750
4952		13.671875
4953		11.718750
4954		13.671875
4955		11.718750
4956		13.671875
4957		11.718750
4958		13.671875
4959		9.765625
4960		19.531250
4961		9.765625
4962		19.531250
4963		9.765625
4964		19.531250
4965		13.671875
4966		15.625000
4967		13.671875
4968		15.625000
4969		13.671875
4970		15.625000
4971		13.671875
4972		15.625000
4973		13.671875
4974		15.625000
4975		9.765625
4976		21.484375
4977		11.718750
4978		19.531250
4979		11.718750
4980		19.531250
4981		13.671875
4982		17.578125
4983		15.625000
4984		17.578125
4985		15.625000
4986		17.578125
4987		15.625000
4988		17.578125
4989		15.625000
4990		17.578125
4991		15.625000
4992		17.578125
4993		11.718750
4994		21.484375
4995		11.718750
4996		23.437500
4997		13.671875
4998		23.437500
4999		17.578125
5000		19.531250
5001		15.625000
5002		19.531250
5003		17.578125
5004		19.531250
5005		17.578125
5006		19.531250
5007		17.578125
5008		19.531250
5009		13.671875
5010		25.390625
5011		13.671875
5012		23.437500
5013		13.671875
5014		23.437500
5015		17.578125
5016		19.531250
5017		17.578125
5018		19.531250
5019		17.578125
5020		21.484375
5021		17.578125
5022		21.484375
5023		17.578125
5024		21.484375
5025		15.625000
5026		25.390625
5027		15.625000
5028		25.390625
5029		13.671875
5030		25.390625
5031		15.625000
5032		23.437500
5033		17.578125
5034		21.484375
5035		17.578125
5036		21.484375
5037		17.578125
5038		21.484375
5039		17.578125
5040		21.484375
5041		17.578125
5042		21.484375
5043		13.671875
5044		25.390625
5045		13.671875
5046		23.437500
5047		13.671875
5048		23.437500
5049		17.578125
5050		19.531250
5051		17.578125
5052		19.531250
5053		17.578125
5054		19.531250
5055		17.578125
5056		19.531250
5057		17.578125
5058		19.531250
5059		17.578125
5060		19.531250
5061		15.625000
5062		21.484375
5063		13.671875
5064		21.484375
5065		15.625000
5066		19.531250
5067		15.625000
5068		19.531250
5069		15.625000
5070		19.531250
5071		15.625000
5072		19.531250
5073		15.625000
5074		17.578125
5075		15.625000
5076		17.578125
5077		11.718750
5078		19.531250
5079		13.671875
5080		19.531250
5081		11.718750
5082		19.531250
5083		13.671875
5084		15.625000
5085		13.671875
5086		15.625000
5087		13.671875
5088		15.625000
5089		13.671875
5090		15.625000
5091		13.671875
5092		15.625000
5093		11.718750
5094		15.625000
5095		11.718750
5096		15.625000
5097		11.718750
5098		15.625000
5099		11.718750
5100		13.671875
5101		9.765625
5102		13.671875
5103		9.765625
5104		13.671875
5105		9.765625
5106		11.718750
5107		9.765625
5108		11.718750
5109		9.765625
5110		11.718750
5111		9.765625
5112		11.718750
5113		9.765625
5114		11.718750
5115		7.812500
5116		11.718750
5117		7.812500
5118		11.718750
5119		7.812500
5120		9.765625
5121		7.812500
5122		11.718750
5123		7.812500
5124		9.765625
5125		7.812500
5126		9.765625
5127		7.812500
5128		9.765625
5129		7.812500
5130		9.765625
5131		5.859375
5132		9.765625
5133		5.859375
5134		9.765625
5135		5.859375
5136		9.765625
5137		5.859375
5138		9.765625
5139		5.859375
5140		9.765625
5141		5.859375
5142		7.812500
5143		5.859375
5144		7.812500
5145		5.859375
5146		9.765625
5147		5.859375
5148		7.812500
5149		5.859375
5150		7.812500
5151		5.859375
5152		9.765625
5153		5.859375
5154		7.812500
5155		5.859375
5156		7.812500
5157		5.859375
5158		7.812500
5159		5.859375
5160		9.765625
5161		5.859375
5162		9.765625
5163		5.859375
5164		9.765625
5165		5.859375
5166		9.765625
5167		5.859375
5168		9.765625
5169		7.812500
5170		9.765625
5171		7.812500
5172		9.765625
5173		7.812500
5174		9.765625
5175		7.812500
5176		9.765625
5177		5.859375
5178		11.718750
5179		7.812500
5180		11.718750
5181		7.812500
5182		9.765625
5183		7.812500
5184		11.718750
5185		7.812500
5186		11.718750
5187		9.765625
5188		11.718750
5189		9.765625
5190		11.718750
5191		9.765625
5192		11.718750
5193		7.812500
5194		13.671875
5195		9.765625
5196		13.671875
5197		9.765625
5198		13.671875
5199		9.765625
5200		13.671875
5201		9.765625
5202		13.671875
5203		9.765625
5204		13.671875
5205		11.718750
5206		13.671875
5207		11.718750
5208		13.671875
5209		9.765625
5210		13.671875
5211		11.718750
5212		15.625000
5213		11.718750
5214		15.625000
5215		11.718750
5216		15.625000
5217		11.718750
5218		15.625000
5219		11.718750
5220		15.625000
5221		13.671875
5222		15.625000
5223		13.671875
5224		15.625000
5225		13.671875
5226		15.625000
5227		13.671875
5228		17.578125
5229		13.671875
5230		17.578125
5231		15.625000
5232		17.578125
5233		15.625000
5234		17.578125
5235		13.671875
5236		17.578125
5237		15.625000
5238		17.578125
5239		15.625000
5240		17.578125
5241		15.625000
5242		17.578125
5243		15.625000
5244		17.578125
5245		15.625000
5246		19.531250
5247		15.625000
5248		19.531250
5249		15.625000
5250		19.531250
5251		15.625000
5252		19.531250
5253		15.625000
5254		19.531250
5255		17.578125
5256		19.531250
5257		17.578125
5258		19.531250
5259		17.578125
5260		19.531250
5261		15.625000
5262		21.484375
5263		17.578125
5264		19.531250
5265		17.578125
5266		19.531250
5267		17.578125
5268		21.484375
5269		17.578125
5270		21.484375
5271		17.578125
5272		19.531250
5273		17.578125
5274		19.531250
5275		17.578125
5276		19.531250
5277		17.578125
5278		21.484375
5279		17.578125
5280		21.484375
5281		17.578125
5282		21.484375
5283		17.578125
5284		21.484375
5285		17.578125
5286		21.484375
5287		17.578125
5288		21.484375
5289		17.578125
5290		21.484375
5291		17.578125
5292		21.484375
5293		17.578125
5294		21.484375
5295		17.578125
5296		23.437500
5297		17.578125
5298		21.484375
5299		17.578125
5300		21.484375
5301		17.578125
5302		21.484375
5303		17.578125
5304		21.484375
5305		17.578125
5306		19.531250
5307		17.578125
5308		19.531250
5309		17.578125
5310		19.531250
5311		15.625000
5312		23.437500
5313		15.625000
5314		21.484375
5315		17.578125
5316		19.531250
5317		15.625000
5318		19.531250
5319		15.625000
5320		19.531250
5321		17.578125
5322		19.531250
5323		15.625000
5324		19.531250
5325		15.625000
5326		19.531250
5327		15.625000
5328		19.531250
5329		13.671875
5330		19.531250
5331		15.625000
5332		19.531250
5333		15.625000
5334		17.578125
5335		13.671875
5336		17.578125
5337		13.671875
5338		17.578125
5339		13.671875
5340		15.625000
5341		13.671875
5342		15.625000
5343		13.671875
5344		15.625000
5345		13.671875
5346		15.625000
5347		13.671875
5348		15.625000
5349		11.718750
5350		15.625000
5351		11.718750
5352		15.625000
5353		11.718750
5354		13.671875
5355		11.718750
5356		13.671875
5357		11.718750
5358		13.671875
5359		9.765625
5360		13.671875
5361		9.765625
5362		13.671875
5363		9.765625
5364		11.718750
5365		9.765625
5366		11.718750
5367		9.765625
5368		11.718750
5369		9.765625
5370		11.718750
5371		9.765625
5372		11.718750
5373		9.765625
5374		11.718750
5375		7.812500
5376		11.718750
5377		7.812500
5378		9.765625
5379		7.812500
5380		9.765625
5381		7.812500
5382		9.765625
5383		7.812500
5384		9.765625
5385		7.812500
5386		9.765625
5387		7.812500
5388		9.765625
5389		7.812500
5390		9.765625
5391		5.859375
5392		9.765625
5393		7.812500
5394		9.765625
5395		7.812500
5396		9.765625
5397		5.859375
5398		9.765625
5399		5.859375
5400		9.765625
5401		5.859375
5402		9.765625
5403		5.859375
5404		9.765625
5405		5.859375
5406		9.765625
5407		5.859375
5408		9.765625
5409		5.859375
5410		9.765625
5411		5.859375
5412		9.765625
5413		5.859375
5414		9.765625
5415		7.812500
5416		9.765625
5417		7.812500
5418		9.765625
5419		7.812500
5420		9.765625
5421		7.812500
5422		9.765625
5423		7.812500
5424		9.765625
5425		7.812500
5426		9.765625
5427		7.812500
5428		9.765625
5429		7.812500
5430		9.765625
5431		7.812500
5432		9.765625
5433		7.812500
5434		11.718750
5435		7.812500
5436		11.718750
5437		9.765625
5438		11.718750
5439		9.765625
5440		11.718750
5441		9.765625
5442		11.718750
5443		9.765625
5444		11.718750
5445		9.765625
5446		11.718750
5447		9.765625
5448		11.718750
5449		9.765625
5450		11.718750
5451		9.765625
5452		13.671875
5453		11.718750
5454		13.671875
5455		11.718750
5456		13.671875
5457		11.718750
5458		13.671875
5459		11.718750
5460		13.671875
5461		11.718750
5462		13.671875
5463		9.765625
5464		15.625000
5465		11.718750
5466		15.625000
5467		13.671875
5468		15.625000
5469		13.671875
5470		15.625000
5471		13.671875
5472		15.625000
5473		13.671875
5474		15.625000
5475		13.671875
5476		15.625000
5477		13.671875
5478		15.625000
5479		13.671875
5480		17.578125
5481		13.671875
5482		17.578125
5483		13.671875
5484		17.578125
5485		15.625000
5486		17.578125
5487		15.625000
5488		17.578125
5489		15.625000
5490		17.578125
5491		15.625000
5492		17.578125
5493		15.625000
5494		17.578125
5495		15.625000
5496		17.578125
5497		13.671875
5498		19.531250
5499		13.671875
5500		19.531250
5501		15.625000
5502		17.578125
5503		15.625000
5504		19.531250
5505		17.578125
5506		19.531250
5507		15.625000
5508		19.531250
5509		17.578125
5510		19.531250
5511		17.578125
5512		19.531250
5513		15.625000
5514		21.484375
5515		15.625000
5516		21.484375
5517		17.578125
5518		19.531250
5519		17.578125
5520		19.531250
5521		17.578125
5522		19.531250
5523		17.578125
5524		19.531250
5525		17.578125
5526		19.531250
5527		17.578125
5528		19.531250
5529		15.625000
5530		21.484375
5531		17.578125
5532		21.484375
5533		17.578125
5534		21.484375
5535		17.578125
5536		19.531250
5537		17.578125
5538		21.484375
5539		17.578125
5540		19.531250
5541		17.578125
5542		19.531250
5543		17.578125
5544		21.484375
5545		17.578125
5546		19.531250
5547		15.625000
5548		23.437500
5549		15.625000
5550		21.484375
5551		17.578125
5552		19.531250
5553		17.578125
5554		19.531250
5555		17.578125
5556		19.531250
5557		17.578125
5558		19.531250
5559		17.578125
5560		19.531250
5561		17.578125
5562		19.531250
5563		15.625000
5564		21.484375
5565		15.625000
5566		21.484375
5567		17.578125
5568		19.531250
5569		17.578125
5570		19.531250
5571		15.625000
5572		19.531250
5573		15.625000
5574		17.578125
5575		15.625000
5576		17.578125
5577		15.625000
5578		17.578125
5579		15.625000
5580		17.578125
5581		13.671875
5582		19.531250
5583		13.671875
5584		19.531250
5585		13.671875
5586		17.578125
5587		13.671875
5588		17.578125
5589		13.671875
5590		15.625000
5591		13.671875
5592		15.625000
5593		13.671875
5594		15.625000
5595		13.671875
5596		15.625000
5597		9.765625
5598		17.578125
5599		9.765625
5600		15.625000
5601		11.718750
5602		13.671875
5603		11.718750
5604		13.671875
5605		11.718750
5606		13.671875
5607		11.718750
5608		13.671875
5609		11.718750
5610		13.671875
5611		9.765625
5612		11.718750
5613		7.812500
5614		13.671875
5615		7.812500
5616		13.671875
5617		7.812500
5618		13.671875
5619		9.765625
5620		11.718750
5621		7.812500
5622		11.718750
5623		7.812500
5624		9.765625
5625		7.812500
5626		9.765625
5627		7.812500
5628		9.765625
5629		7.812500
5630		9.765625
5631		5.859375
5632		11.718750
5633		5.859375
5634		11.718750
5635		5.859375
5636		9.765625
5637		5.859375
5638		9.765625
5639		5.859375
5640		9.765625
5641		5.859375
5642		9.765625
5643		5.859375
5644		9.765625
5645		5.859375
5646		7.812500
5647		3.906250
5648		9.765625
5649		3.906250
5650		9.765625
5651		5.859375
5652		7.812500
5653		5.859375
5654		7.812500
5655		5.859375
5656		7.812500
5657		5.859375
5658		7.812500
5659		5.859375
5660		7.812500
5661		5.859375
5662		7.812500
5663		5.859375
5664		7.812500
5665		3.906250
5666		9.765625
5667		3.906250
5668		11.718750
5669		5.859375
5670		7.812500
5671		5.859375
5672		9.765625
5673		5.859375
5674		9.765625
5675		5.859375
5676		9.765625
5677		7.812500
5678		9.765625
5679		7.812500
5680		9.765625
5681		5.859375
5682		9.765625
5683		7.812500
5684		9.765625
5685		7.812500
5686		9.765625
5687		7.812500
5688		9.765625
5689		7.812500
5690		9.765625
5691		7.812500
5692		11.718750
5693		9.765625
5694		11.718750
5695		7.812500
5696		11.718750
5697		7.812500
5698		11.718750
5699		7.812500
5700		11.718750
5701		9.765625
5702		11.718750
5703		9.765625
5704		11.718750
5705		9.765625
5706		13.671875
5707		9.765625
5708		13.671875
5709		11.718750
5710		13.671875
5711		11.718750
5712		13.671875
5713		11.718750
5714		13.671875
5715		9.765625
5716		15.625000
5717		11.718750
5718		13.671875
5719		11.718750
5720		13.671875
5721		11.718750
5722		15.625000
5723		11.718750
5724		15.625000
5725		13.671875
5726		15.625000
5727		13.671875
5728		15.625000
5729		13.671875
5730		15.625000
5731		13.671875
5732		17.578125
5733		13.671875
5734		15.625000
5735		13.671875
5736		15.625000
5737		13.671875
5738		15.625000
5739		13.671875
5740		17.578125
5741		15.625000
5742		17.578125
5743		15.625000
5744		17.578125
5745		15.625000
5746		17.578125
5747		15.625000
5748		17.578125
5749		15.625000
5750		17.578125
5751		15.625000
5752		17.578125
5753		15.625000
5754		17.578125
5755		15.625000
5756		17.578125
5757		15.625000
5758		19.531250
5759		17.578125
5760		19.531250
5761		17.578125
5762		19.531250
5763		17.578125
5764		19.531250
5765		15.625000
5766		19.531250
5767		17.578125
5768		19.531250
5769		17.578125
5770		19.531250
5771		17.578125
5772		19.531250
5773		17.578125
5774		19.531250
5775		17.578125
5776		19.531250
5777		17.578125
5778		19.531250
5779		17.578125
5780		19.531250
5781		17.578125
5782		19.531250
5783		17.578125
5784		19.531250
5785		17.578125
5786		19.531250
5787		17.578125
5788		21.484375
5789		17.578125
5790		21.484375
5791		17.578125
5792		21.484375
5793		17.578125
5794		19.531250
5795		17.578125
5796		21.484375
5797		17.578125
5798		21.484375
5799		17.578125
5800		21.484375
5801		17.578125
5802		21.484375
5803		17.578125
5804		19.531250
5805		17.578125
5806		19.531250
5807		17.578125
5808		19.531250
5809		17.578125
5810		19.531250
5811		17.578125
5812		19.531250
5813		17.578125
5814		19.531250
5815		17.578125
5816		19.531250
5817		17.578125
5818		19.531250
5819		17.578125
5820		19.531250
5821		17.578125
5822		19.531250
5823		15.625000
5824		19.531250
5825		17.578125
5826		19.531250
5827		15.625000
5828		19.531250
5829		15.625000
5830		19.531250
5831		15.625000
5832		17.578125
5833		15.625000
5834		17.578125
5835		15.625000
5836		17.578125
5837		15.625000
5838		17.578125
5839		15.625000
5840		17.578125
5841		13.671875
5842		17.578125
5843		13.671875
5844		15.625000
5845		13.671875
5846		15.625000
5847		13.671875
5848		15.625000
5849		13.671875
5850		15.625000
5851		13.671875
5852		15.625000
5853		11.718750
5854		15.625000
5855		11.718750
5856		13.671875
5857		11.718750
5858		13.671875
5859		11.718750
5860		13.671875
5861		11.718750
5862		13.671875
5863		9.765625
5864		13.671875
5865		9.765625
5866		11.718750
5867		9.765625
5868		11.718750
5869		9.765625
5870		11.718750
5871		9.765625
5872		11.718750
5873		9.765625
5874		11.718750
5875		9.765625
5876		11.718750
5877		7.812500
5878		11.718750
5879		7.812500
5880		9.765625
5881		7.812500
5882		9.765625
5883		7.812500
5884		9.765625
5885		7.812500
5886		9.765625
5887		7.812500
5888		9.765625
5889		7.812500
5890		9.765625
5891		5.859375
5892		9.765625
5893		5.859375
5894		9.765625
5895		5.859375
5896		9.765625
5897		5.859375
5898		9.765625
5899		5.859375
5900		7.812500
5901		5.859375
5902		7.812500
5903		5.859375
5904		9.765625
5905		5.859375
5906		7.812500
5907		5.859375
5908		7.812500
5909		5.859375
5910		7.812500
5911		5.859375
5912		7.812500
5913		5.859375
5914		7.812500
5915		5.859375
5916		9.765625
5917		5.859375
5918		7.812500
5919		5.859375
5920		9.765625
5921		5.859375
5922		9.765625
5923		5.859375
5924		9.765625
5925		7.812500
5926		9.765625
5927		5.859375
5928		9.765625
5929		7.812500
5930		9.765625
5931		7.812500
5932		9.765625
5933		7.812500
5934		9.765625
5935		7.812500
5936		9.765625
5937		7.812500
5938		9.765625
5939		7.812500
5940		9.765625
5941		7.812500
5942		9.765625
5943		7.812500
5944		11.718750
5945		9.765625
5946		11.718750
5947		9.765625
5948		11.718750
5949		9.765625
5950		11.718750
5951		9.765625
5952		11.718750
5953		9.765625
5954		11.718750
5955		9.765625
5956		11.718750
5957		9.765625
5958		13.671875
5959		9.765625
5960		13.671875
5961		9.765625
5962		13.671875
5963		11.718750
5964		13.671875
5965		11.718750
5966		13.671875
5967		11.718750
5968		13.671875
5969		11.718750
5970		13.671875
5971		11.718750
5972		13.671875
5973		11.718750
5974		15.625000
5975		11.718750
5976		15.625000
5977		13.671875
5978		15.625000
5979		13.671875
5980		15.625000
5981		13.671875
5982		15.625000
5983		13.671875
5984		15.625000
5985		13.671875
5986		15.625000
5987		13.671875
5988		15.625000
5989		13.671875
5990		15.625000
5991		13.671875
5992		15.625000
5993		13.671875
5994		17.578125
5995		15.625000
5996		17.578125
5997		15.625000
5998		17.578125
5999		15.625000
6000		17.578125
6001		15.625000
6002		17.578125
6003		15.625000
6004		17.578125
6005		15.625000
6006		17.578125
6007		15.625000
6008		17.578125
6009		15.625000
6010		17.578125
6011		15.625000
6012		19.531250
6013		17.578125
6014		19.531250
6015		17.578125
6016		19.531250
6017		17.578125
6018		19.531250
6019		17.578125
6020		19.531250
6021		17.578125
6022		19.531250
6023		17.578125
6024		19.531250
6025		17.578125
6026		19.531250
6027		17.578125
6028		19.531250
6029		17.578125
6030		19.531250
6031		17.578125
6032		19.531250
6033		17.578125
6034		19.531250
6035		17.578125
6036		19.531250
6037		17.578125
6038		19.531250
6039		17.578125
6040		19.531250
6041		17.578125
6042		19.531250
6043		17.578125
6044		19.531250
6045		17.578125
6046		19.531250
6047		17.578125
6048		21.484375
6049		17.578125
6050		21.484375
6051		17.578125
6052		19.531250
6053		17.578125
6054		19.531250
6055		17.578125
6056		19.531250
6057		17.578125
6058		19.531250
6059		17.578125
6060		19.531250
6061		17.578125
6062		19.531250
6063		17.578125
6064		19.531250
6065		17.578125
6066		19.531250
6067		17.578125
6068		19.531250
6069		17.578125
6070		19.531250
6071		17.578125
6072		19.531250
6073		17.578125
6074		19.531250
6075		15.625000
6076		19.531250
6077		15.625000
6078		19.531250
6079		15.625000
6080		17.578125
6081		15.625000
6082		17.578125
6083		15.625000
6084		17.578125
6085		15.625000
6086		17.578125
6087		15.625000
6088		17.578125
6089		15.625000
6090		17.578125
6091		13.671875
6092		17.578125
6093		13.671875
6094		15.625000
6095		13.671875
6096		15.625000
6097		13.671875
6098		15.625000
6099		13.671875
6100		15.625000
6101		13.671875
6102		15.625000
6103		11.718750
6104		15.625000
6105		11.718750
6106		13.671875
6107		11.718750
6108		13.671875
6109		11.718750
6110		13.671875
6111		11.718750
6112		13.671875
6113		9.765625
6114		13.671875
6115		9.765625
6116		13.671875
6117		9.765625
6118		11.718750
6119		9.765625
6120		11.718750
6121		9.765625
6122		11.718750
6123		9.765625
6124		11.718750
6125		9.765625
6126		11.718750
6127		7.812500
6128		11.718750
6129		7.812500
6130		9.765625
6131		7.812500
6132		9.765625
6133		7.812500
6134		9.765625
6135		7.812500
6136		9.765625
6137		7.812500
6138		9.765625
6139		7.812500
6140		9.765625
6141		7.812500
6142		9.765625
6143		5.859375
6144		9.765625
6145		5.859375
6146		7.812500
6147		5.859375
6148		7.812500
6149		5.859375
6150		7.812500
6151		5.859375
6152		7.812500
6153		5.859375
6154		7.812500
6155		5.859375
6156		7.812500
6157		5.859375
6158		7.812500
6159		5.859375
6160		7.812500
6161		5.859375
6162		7.812500
6163		5.859375
6164		7.812500
6165		5.859375
6166		7.812500
6167		5.859375
6168		7.812500
6169		5.859375
6170		7.812500
6171		5.859375
6172		7.812500
6173		5.859375
6174		7.812500
6175		5.859375
6176		7.812500
6177		5.859375
6178		7.812500
6179		5.859375
6180		9.765625
6181		5.859375
6182		9.765625
6183		5.859375
6184		9.765625
6185		7.812500
6186		9.765625
6187		7.812500
6188		9.765625
6189		7.812500
6190		9.765625
6191		7.812500
6192		9.765625
6193		7.812500
6194		9.765625
6195		7.812500
6196		9.765625
6197		7.812500
6198		11.718750
6199		7.812500
6200		11.718750
6201		9.765625
6202		11.718750
6203		9.765625
6204		11.718750
6205		9.765625
6206		11.718750
6207		9.765625
6208		11.718750
6209		9.765625
6210		11.718750
6211		9.765625
6212		13.671875
6213		9.765625
6214		11.718750
6215		11.718750
6216		13.671875
6217		11.718750
6218		13.671875
6219		11.718750
6220		13.671875
6221		11.718750
6222		13.671875
6223		11.718750
6224		13.671875
6225		11.718750
6226		13.671875
6227		11.718750
6228		13.671875
6229		11.718750
6230		15.625000
6231		11.718750
6232		15.625000
6233		13.671875
6234		15.625000
6235		13.671875
6236		15.625000
6237		13.671875
6238		15.625000
6239		13.671875
6240		15.625000
6241		13.671875
6242		15.625000
6243		13.671875
6244		15.625000
6245		13.671875
6246		17.578125
6247		13.671875
6248		17.578125
6249		15.625000
6250		17.578125
6251		15.625000
6252		17.578125
6253		15.625000
6254		17.578125
6255		15.625000
6256		17.578125
6257		15.625000
6258		17.578125
6259		15.625000
6260		17.578125
6261		15.625000
6262		17.578125
6263		15.625000
6264		17.578125
6265		15.625000
6266		19.531250
6267		15.625000
6268		19.531250
6269		17.578125
6270		19.531250
6271		17.578125
6272		19.531250
6273		17.578125
6274		19.531250
6275		17.578125
6276		19.531250
6277		17.578125
6278		19.531250
6279		17.578125
6280		19.531250
6281		17.578125
6282		19.531250
6283		17.578125
6284		19.531250
6285		17.578125
6286		19.531250
6287		17.578125
6288		19.531250
6289		17.578125
6290		19.531250
6291		17.578125
6292		21.484375
6293		17.578125
6294		19.531250
6295		17.578125
6296		19.531250
6297		17.578125
6298		21.484375
6299		17.578125
6300		19.531250
6301		17.578125
6302		21.484375
6303		17.578125
6304		19.531250
6305		17.578125
6306		21.484375
6307		17.578125
6308		19.531250
6309		17.578125
6310		21.484375
6311		17.578125
6312		19.531250
6313		17.578125
6314		19.531250
6315		17.578125
6316		19.531250
6317		17.578125
6318		19.531250
6319		17.578125
6320		19.531250
6321		17.578125
6322		19.531250
6323		17.578125
6324		19.531250
6325		17.578125
6326		19.531250
6327		17.578125
6328		19.531250
6329		17.578125
6330		19.531250
6331		15.625000
6332		19.531250
6333		15.625000
6334		19.531250
6335		15.625000
6336		17.578125
6337		15.625000
6338		19.531250
6339		15.625000
6340		17.578125
6341		15.625000
6342		17.578125
6343		15.625000
6344		17.578125
6345		15.625000
6346		17.578125
6347		13.671875
6348		17.578125
6349		13.671875
6350		17.578125
6351		13.671875
6352		15.625000
6353		13.671875
6354		15.625000
6355		13.671875
6356		15.625000
6357		13.671875
6358		15.625000
6359		11.718750
6360		15.625000
6361		11.718750
6362		13.671875
6363		11.718750
6364		13.671875
6365		11.718750
6366		13.671875
6367		11.718750
6368		13.671875
6369		11.718750
6370		13.671875
6371		9.765625
6372		13.671875
6373		9.765625
6374		11.718750
6375		9.765625
6376		11.718750
6377		9.765625
6378		11.718750
6379		9.765625
6380		11.718750
6381		9.765625
6382		11.718750
6383		9.765625
6384		11.718750
6385		7.812500
6386		9.765625
6387		7.812500
6388		11.718750
6389		7.812500
6390		9.765625
6391		7.812500
6392		9.765625
6393		7.812500
6394		9.765625
6395		7.812500
6396		9.765625
6397		7.812500
6398		9.765625
6399		7.812500
6400		9.765625
6401		7.812500
6402		9.765625
6403		7.812500
6404		9.765625
6405		5.859375
6406		9.765625
6407		5.859375
6408		7.812500
6409		5.859375
6410		9.765625
6411		5.859375
6412		9.765625
6413		5.859375
6414		7.812500
6415		5.859375
6416		7.812500
6417		5.859375
6418		7.812500
6419		5.859375
6420		9.765625
6421		5.859375
6422		7.812500
6423		5.859375
6424		7.812500
6425		5.859375
6426		7.812500
6427		5.859375
6428		9.765625
6429		7.812500
6430		9.765625
6431		5.859375
6432		9.765625
6433		7.812500
6434		9.765625
6435		7.812500
6436		9.765625
6437		7.812500
6438		9.765625
6439		7.812500
6440		9.765625
6441		7.812500
6442		9.765625
6443		7.812500
6444		9.765625
6445		7.812500
6446		9.765625
6447		7.812500
6448		11.718750
6449		7.812500
6450		11.718750
6451		7.812500
6452		11.718750
6453		9.765625
6454		11.718750
6455		9.765625
6456		11.718750
6457		9.765625
6458		11.718750
6459		9.765625
6460		11.718750
6461		9.765625
6462		11.718750
6463		9.765625
6464		13.671875
6465		9.765625
6466		13.671875
6467		11.718750
6468		13.671875
6469		11.718750
6470		13.671875
6471		11.718750
6472		13.671875
6473		11.718750
6474		13.671875
6475		11.718750
6476		13.671875
6477		11.718750
6478		13.671875
6479		11.718750
6480		13.671875
6481		11.718750
6482		15.625000
6483		13.671875
6484		15.625000
6485		13.671875
6486		15.625000
6487		13.671875
6488		15.625000
6489		13.671875
6490		15.625000
6491		13.671875
6492		15.625000
6493		13.671875
6494		15.625000
6495		13.671875
6496		15.625000
6497		13.671875
6498		17.578125
6499		15.625000
6500		17.578125
6501		15.625000
6502		17.578125
6503		15.625000
6504		17.578125
6505		15.625000
6506		17.578125
6507		15.625000
6508		17.578125
6509		15.625000
6510		17.578125
6511		15.625000
6512		17.578125
6513		15.625000
6514		17.578125
6515		15.625000
6516		17.578125
6517		15.625000
6518		19.531250
6519		17.578125
6520		19.531250
6521		15.625000
6522		19.531250
6523		17.578125
6524		19.531250
6525		15.625000
6526		21.484375
6527		15.625000
6528		19.531250
6529		17.578125
6530		21.484375
6531		15.625000
6532		21.484375
6533		17.578125
6534		19.531250
6535		17.578125
6536		19.531250
6537		17.578125
6538		19.531250
6539		17.578125
6540		19.531250
6541		17.578125
6542		19.531250
6543		15.625000
6544		21.484375
6545		17.578125
6546		19.531250
6547		15.625000
6548		21.484375
6549		17.578125
6550		21.484375
6551		17.578125
6552		23.437500
6553		17.578125
6554		19.531250
6555		17.578125
6556		21.484375
6557		17.578125
6558		21.484375
6559		15.625000
6560		21.484375
6561		17.578125
6562		21.484375
6563		15.625000
6564		21.484375
6565		17.578125
6566		19.531250
6567		15.625000
6568		23.437500
6569		17.578125
6570		19.531250
6571		17.578125
6572		19.531250
6573		15.625000
6574		21.484375
6575		13.671875
6576		21.484375
6577		15.625000
6578		19.531250
6579		15.625000
6580		19.531250
6581		13.671875
6582		21.484375
6583		13.671875
6584		21.484375
6585		15.625000
6586		19.531250
6587		15.625000
6588		19.531250
6589		15.625000
6590		19.531250
6591		11.718750
6592		21.484375
6593		13.671875
6594		19.531250
6595		13.671875
6596		17.578125
6597		13.671875
6598		19.531250
6599		13.671875
6600		17.578125
6601		11.718750
6602		19.531250
6603		13.671875
6604		15.625000
6605		13.671875
6606		15.625000
6607		9.765625
6608		17.578125
6609		9.765625
6610		17.578125
6611		11.718750
6612		15.625000
6613		9.765625
6614		15.625000
6615		7.812500
6616		17.578125
6617		7.812500
6618		15.625000
6619		11.718750
6620		13.671875
6621		11.718750
6622		13.671875
6623		9.765625
6624		13.671875
6625		7.812500
6626		15.625000
6627		7.812500
6628		13.671875
6629		7.812500
6630		11.718750
6631		5.859375
6632		15.625000
6633		7.812500
6634		11.718750
6635		3.906250
6636		15.625000
6637		7.812500
6638		9.765625
6639		7.812500
6640		11.718750
6641		1.953125
6642		13.671875
6643		5.859375
6644		11.718750
6645		7.812500
6646		9.765625
6647		3.906250
6648		11.718750
6649		3.906250
6650		13.671875
6651		3.906250
6652		13.671875
6653		5.859375
6654		9.765625
6655		5.859375
6656		9.765625
6657		3.906250
6658		9.765625
6659		1.953125
6660		11.718750
6661		5.859375
6662		9.765625
6663		5.859375
6664		7.812500
6665		1.953125
6666		13.671875
6667		1.953125
6668		13.671875
6669		5.859375
6670		9.765625
6671		5.859375
6672		7.812500
6673		3.906250
6674		9.765625
6675		1.953125
6676		11.718750
6677		5.859375
6678		9.765625
6679		5.859375
6680		9.765625
6681		3.906250
6682		11.718750
6683		3.906250
6684		13.671875
6685		3.906250
6686		11.718750
6687		5.859375
6688		9.765625
6689		5.859375
6690		9.765625
6691		3.906250
6692		11.718750
6693		3.906250
6694		13.671875
6695		7.812500
6696		9.765625
6697		7.812500
6698		9.765625
6699		5.859375
6700		13.671875
6701		5.859375
6702		13.671875
6703		7.812500
6704		11.718750
6705		9.765625
6706		11.718750
6707		7.812500
6708		11.718750
6709		5.859375
6710		13.671875
6711		7.812500
6712		13.671875
6713		9.765625
6714		11.718750
6715		5.859375
6716		15.625000
6717		5.859375
6718		15.625000
6719		7.812500
6720		15.625000
6721		11.718750
6722		13.671875
6723		9.765625
6724		13.671875
6725		7.812500
6726		17.578125
6727		9.765625
6728		15.625000
6729		11.718750
6730		13.671875
6731		9.765625
6732		15.625000
6733		7.812500
6734		19.531250
6735		9.765625
6736		17.578125
6737		11.718750
6738		15.625000
6739		13.671875
6740		15.625000
6741		11.718750
6742		17.578125
6743		9.765625
6744		19.531250
6745		11.718750
6746		17.578125
6747		13.671875
6748		15.625000
6749		11.718750
6750		21.484375
6751		13.671875
6752		21.484375
6753		13.671875
6754		17.578125
6755		15.625000
6756		17.578125
6757		13.671875
6758		17.578125
6759		11.718750
6760		21.484375
6761		13.671875
6762		19.531250
6763		15.625000
6764		17.578125
6765		13.671875
6766		21.484375
6767		13.671875
6768		21.484375
6769		15.625000
6770		21.484375
6771		17.578125
6772		19.531250
6773		17.578125
6774		19.531250
6775		15.625000
6776		19.531250
6777		13.671875
6778		23.437500
6779		15.625000
6780		19.531250
6781		15.625000
6782		21.484375
6783		13.671875
6784		23.437500
6785		15.625000
6786		23.437500
6787		17.578125
6788		19.531250
6789		17.578125
6790		19.531250
6791		17.578125
6792		21.484375
6793		15.625000
6794		23.437500
6795		15.625000
6796		21.484375
6797		17.578125
6798		21.484375
6799		15.625000
6800		21.484375
6801		17.578125
6802		19.531250
6803		15.625000
6804		23.437500
6805		17.578125
6806		19.531250
6807		17.578125
6808		21.484375
6809		15.625000
6810		23.437500
6811		17.578125
6812		21.484375
6813		17.578125
6814		21.484375
6815		17.578125
6816		21.484375
6817		17.578125
6818		19.531250
6819		17.578125
6820		19.531250
6821		17.578125
6822		19.531250
6823		17.578125
6824		19.531250
6825		17.578125
6826		19.531250
6827		17.578125
6828		19.531250
6829		15.625000
6830		21.484375
6831		17.578125
6832		19.531250
6833		15.625000
6834		21.484375
6835		17.578125
6836		19.531250
6837		15.625000
6838		19.531250
6839		15.625000
6840		19.531250
6841		15.625000
6842		19.531250
6843		15.625000
6844		17.578125
6845		15.625000
6846		17.578125
6847		15.625000
6848		17.578125
6849		15.625000
6850		17.578125
6851		15.625000
6852		17.578125
6853		13.671875
6854		17.578125
6855		13.671875
6856		15.625000
6857		13.671875
6858		15.625000
6859		13.671875
6860		15.625000
6861		13.671875
6862		15.625000
6863		11.718750
6864		15.625000
6865		11.718750
6866		15.625000
6867		11.718750
6868		13.671875
6869		9.765625
6870		15.625000
6871		11.718750
6872		13.671875
6873		11.718750
6874		13.671875
6875		9.765625
6876		13.671875
6877		9.765625
6878		13.671875
6879		9.765625
6880		13.671875
6881		7.812500
6882		13.671875
6883		7.812500
6884		13.671875
6885		7.812500
6886		13.671875
6887		7.812500
6888		11.718750
6889		7.812500
6890		11.718750
6891		7.812500
6892		11.718750
6893		5.859375
6894		11.718750
6895		5.859375
6896		11.718750
6897		5.859375
6898		11.718750
6899		5.859375
6900		11.718750
6901		5.859375
6902		9.765625
6903		5.859375
6904		9.765625
6905		5.859375
6906		9.765625
6907		5.859375
6908		9.765625
6909		5.859375
6910		9.765625
6911		3.906250
6912		9.765625
6913		5.859375
6914		9.765625
6915		3.906250
6916		9.765625
6917		3.906250
6918		9.765625
6919		5.859375
6920		9.765625
6921		5.859375
6922		9.765625
6923		5.859375
6924		7.812500
6925		5.859375
6926		9.765625
6927		5.859375
6928		9.765625
6929		5.859375
6930		9.765625
6931		3.906250
6932		9.765625
6933		5.859375
6934		9.765625
6935		5.859375
6936		9.765625
6937		5.859375
6938		9.765625
6939		7.812500
6940		9.765625
6941		5.859375
6942		9.765625
6943		5.859375
6944		9.765625
6945		5.859375
6946		9.765625
6947		5.859375
6948		11.718750
6949		5.859375
6950		11.718750
6951		5.859375
6952		11.718750
6953		7.812500
6954		11.718750
6955		7.812500
6956		11.718750
6957		7.812500
6958		11.718750
6959		7.812500
6960		11.718750
6961		7.812500
6962		11.718750
6963		7.812500
6964		11.718750
6965		7.812500
6966		13.671875
6967		7.812500
6968		13.671875
6969		7.812500
6970		13.671875
6971		9.765625
6972		13.671875
6973		9.765625
6974		13.671875
6975		9.765625
6976		13.671875
6977		9.765625
6978		13.671875
6979		9.765625
6980		15.625000
6981		9.765625
6982		15.625000
6983		11.718750
6984		15.625000
6985		11.718750
6986		15.625000
6987		11.718750
6988		15.625000
6989		11.718750
6990		15.625000
6991		13.671875
6992		15.625000
6993		11.718750
6994		15.625000
6995		13.671875
6996		15.625000
6997		11.718750
6998		15.625000
6999		11.718750
7000		17.578125
7001		13.671875
7002		15.625000
7003		13.671875
7004		17.578125
7005		13.671875
7006		17.578125
7007		13.671875
7008		17.578125
7009		13.671875
7010		17.578125
7011		13.671875
7012		17.578125
7013		13.671875
7014		17.578125
7015		13.671875
7016		19.531250
7017		15.625000
7018		17.578125
7019		15.625000
7020		19.531250
7021		15.625000
7022		19.531250
7023		15.625000
7024		17.578125
7025		15.625000
7026		19.531250
7027		15.625000
7028		19.531250
7029		15.625000
7030		19.531250
7031		15.625000
7032		19.531250
7033		13.671875
7034		21.484375
7035		17.578125
7036		19.531250
7037		17.578125
7038		19.531250
7039		17.578125
7040		19.531250
7041		17.578125
7042		19.531250
7043		15.625000
7044		21.484375
7045		17.578125
7046		19.531250
7047		17.578125
7048		19.531250
7049		15.625000
7050		21.484375
7051		17.578125
7052		19.531250
7053		17.578125
7054		21.484375
7055		17.578125
7056		21.484375
7057		17.578125
7058		19.531250
7059		17.578125
7060		21.484375
7061		17.578125
7062		21.484375
7063		17.578125
7064		21.484375
7065		17.578125
7066		21.484375
7067		17.578125
7068		21.484375
7069		17.578125
7070		21.484375
7071		17.578125
7072		21.484375
7073		17.578125
7074		19.531250
7075		17.578125
7076		19.531250
7077		17.578125
7078		21.484375
7079		15.625000
7080		19.531250
7081		15.625000
7082		19.531250
7083		15.625000
7084		21.484375
7085		15.625000
7086		19.531250
7087		15.625000
7088		19.531250
7089		15.625000
7090		19.531250
7091		15.625000
7092		19.531250
7093		13.671875
7094		19.531250
7095		15.625000
7096		19.531250
7097		13.671875
7098		19.531250
7099		13.671875
7100		19.531250
7101		13.671875
7102		17.578125
7103		13.671875
7104		17.578125
7105		13.671875
7106		17.578125
7107		13.671875
7108		15.625000
7109		13.671875
7110		15.625000
7111		11.718750
7112		17.578125
7113		11.718750
7114		15.625000
7115		11.718750
7116		15.625000
7117		11.718750
7118		15.625000
7119		11.718750
7120		15.625000
7121		11.718750
7122		13.671875
7123		11.718750
7124		15.625000
7125		9.765625
7126		13.671875
7127		9.765625
7128		13.671875
7129		9.765625
7130		13.671875
7131		9.765625
7132		11.718750
7133		9.765625
7134		11.718750
7135		9.765625
7136		11.718750
7137		7.812500
7138		11.718750
7139		7.812500
7140		11.718750
7141		7.812500
7142		9.765625
7143		7.812500
7144		11.718750
7145		7.812500
7146		9.765625
7147		5.859375
7148		9.765625
7149		5.859375
7150		9.765625
7151		5.859375
7152		9.765625
7153		5.859375
7154		9.765625
7155		5.859375
7156		9.765625
7157		5.859375
7158		9.765625
7159		5.859375
7160		7.812500
7161		5.859375
7162		9.765625
7163		5.859375
7164		9.765625
7165		5.859375
7166		9.765625
7167		5.859375
7168		7.812500
7169		5.859375
7170		9.765625
7171		5.859375
7172		7.812500
7173		5.859375
7174		9.765625
7175		5.859375
7176		7.812500
7177		5.859375
7178		9.765625
7179		5.859375
7180		7.812500
7181		5.859375
7182		7.812500
7183		5.859375
7184		7.812500
7185		5.859375
7186		9.765625
7187		5.859375
7188		9.765625
7189		5.859375
7190		9.765625
7191		5.859375
7192		7.812500
7193		5.859375
7194		9.765625
7195		5.859375
7196		9.765625
7197		5.859375
7198		9.765625
7199		7.812500
7200		9.765625
7201		5.859375
7202		9.765625
7203		5.859375
7204		9.765625
7205		7.812500
7206		11.718750
7207		5.859375
7208		9.765625
7209		7.812500
7210		9.765625
7211		7.812500
7212		11.718750
7213		7.812500
7214		11.718750
7215		7.812500
7216		11.718750
7217		9.765625
7218		11.718750
7219		9.765625
7220		11.718750
7221		7.812500
7222		13.671875
7223		9.765625
7224		13.671875
7225		9.765625
7226		11.718750
7227		9.765625
7228		13.671875
7229		9.765625
7230		13.671875
7231		9.765625
7232		13.671875
7233		9.765625
7234		13.671875
7235		11.718750
7236		13.671875
7237		11.718750
7238		15.625000
7239		11.718750
7240		15.625000
7241		11.718750
7242		13.671875
7243		11.718750
7244		15.625000
7245		11.718750
7246		15.625000
7247		11.718750
7248		15.625000
7249		13.671875
7250		15.625000
7251		13.671875
7252		15.625000
7253		11.718750
7254		17.578125
7255		13.671875
7256		17.578125
7257		11.718750
7258		17.578125
7259		13.671875
7260		17.578125
7261		13.671875
7262		17.578125
7263		13.671875
7264		17.578125
7265		13.671875
7266		17.578125
7267		15.625000
7268		17.578125
7269		15.625000
7270		17.578125
7271		15.625000
7272		17.578125
7273		15.625000
7274		19.531250
7275		15.625000
7276		17.578125
7277		15.625000
7278		17.578125
7279		15.625000
7280		19.531250
7281		15.625000
7282		19.531250
7283		15.625000
7284		19.531250
7285		15.625000
7286		19.531250
7287		15.625000
7288		19.531250
7289		17.578125
7290		19.531250
7291		15.625000
7292		21.484375
7293		17.578125
7294		19.531250
7295		17.578125
7296		21.484375
7297		17.578125
7298		19.531250
7299		17.578125
7300		19.531250
7301		17.578125
7302		19.531250
7303		17.578125
7304		21.484375
7305		17.578125
7306		19.531250
7307		17.578125
7308		21.484375
7309		17.578125
7310		19.531250
7311		17.578125
7312		21.484375
7313		17.578125
7314		21.484375
7315		17.578125
7316		19.531250
7317		17.578125
7318		21.484375
7319		17.578125
7320		21.484375
7321		17.578125
7322		21.484375
7323		17.578125
7324		21.484375
7325		17.578125
7326		19.531250
7327		17.578125
7328		19.531250
7329		15.625000
7330		21.484375
7331		17.578125
7332		21.484375
7333		15.625000
7334		19.531250
7335		17.578125
7336		19.531250
7337		15.625000
7338		19.531250
7339		15.625000
7340		19.531250
7341		15.625000
7342		19.531250
7343		15.625000
7344		17.578125
7345		15.625000
7346		19.531250
7347		15.625000
7348		19.531250
7349		15.625000
7350		19.531250
7351		15.625000
7352		17.578125
7353		13.671875
7354		17.578125
7355		13.671875
7356		17.578125
7357		13.671875
7358		17.578125
7359		13.671875
7360		15.625000
7361		13.671875
7362		15.625000
7363		13.671875
7364		15.625000
7365		13.671875
7366		15.625000
7367		11.718750
7368		15.625000
7369		11.718750
7370		15.625000
7371		11.718750
7372		15.625000
7373		11.718750
7374		13.671875
7375		11.718750
7376		13.671875
7377		11.718750
7378		13.671875
7379		9.765625
7380		13.671875
7381		9.765625
7382		13.671875
7383		9.765625
7384		13.671875
7385		9.765625
7386		13.671875
7387		9.765625
7388		13.671875
7389		7.812500
7390		11.718750
7391		7.812500
7392		11.718750
7393		7.812500
7394		11.718750
7395		7.812500
7396		11.718750
7397		5.859375
7398		11.718750
7399		7.812500
7400		9.765625
7401		7.812500
7402		9.765625
7403		5.859375
7404		9.765625
7405		5.859375
7406		9.765625
7407		5.859375
7408		9.765625
7409		5.859375
7410		9.765625
7411		5.859375
7412		7.812500
7413		5.859375
7414		9.765625
7415		5.859375
7416		9.765625
7417		5.859375
7418		9.765625
7419		5.859375
7420		7.812500
7421		5.859375
7422		7.812500
7423		5.859375
7424		7.812500
7425		3.906250
7426		7.812500
7427		5.859375
7428		7.812500
7429		5.859375
7430		9.765625
7431		5.859375
7432		7.812500
7433		5.859375
7434		7.812500
7435		5.859375
7436		7.812500
7437		5.859375
7438		7.812500
7439		5.859375
7440		9.765625
7441		5.859375
7442		9.765625
7443		5.859375
7444		7.812500
7445		5.859375
7446		7.812500
7447		5.859375
7448		9.765625
7449		5.859375
7450		9.765625
7451		5.859375
7452		9.765625
7453		5.859375
7454		9.765625
7455		5.859375
7456		9.765625
7457		5.859375
7458		9.765625
7459		7.812500
7460		9.765625
7461		7.812500
7462		9.765625
7463		5.859375
7464		11.718750
7465		7.812500
7466		11.718750
7467		7.812500
7468		11.718750
7469		7.812500
7470		11.718750
7471		7.812500
7472		11.718750
7473		9.765625
7474		11.718750
7475		7.812500
7476		13.671875
7477		9.765625
7478		13.671875
7479		9.765625
7480		11.718750
7481		9.765625
7482		13.671875
7483		9.765625
7484		13.671875
7485		9.765625
7486		13.671875
7487		9.765625
7488		13.671875
7489		9.765625
7490		13.671875
7491		9.765625
7492		15.625000
7493		11.718750
7494		13.671875
7495		11.718750
7496		13.671875
7497		11.718750
7498		15.625000
7499		11.718750
7500		15.625000
7501		11.718750
7502		15.625000
7503		11.718750
7504		15.625000
7505		13.671875
7506		15.625000
7507		13.671875
7508		15.625000
7509		13.671875
7510		17.578125
7511		13.671875
7512		15.625000
7513		13.671875
7514		17.578125
7515		13.671875
7516		17.578125
7517		13.671875
7518		17.578125
7519		13.671875
7520		17.578125
7521		13.671875
7522		17.578125
7523		15.625000
7524		17.578125
7525		13.671875
7526		17.578125
7527		15.625000
7528		17.578125
7529		15.625000
7530		17.578125
7531		15.625000
7532		19.531250
7533		15.625000
7534		19.531250
7535		15.625000
7536		19.531250
7537		15.625000
7538		19.531250
7539		15.625000
7540		19.531250
7541		15.625000
7542		19.531250
7543		15.625000
7544		19.531250
7545		17.578125
7546		19.531250
7547		15.625000
7548		21.484375
7549		15.625000
7550		19.531250
7551		15.625000
7552		19.531250
7553		15.625000
7554		19.531250
7555		17.578125
7556		19.531250
7557		17.578125
7558		19.531250
7559		15.625000
7560		21.484375
7561		17.578125
7562		19.531250
7563		17.578125
7564		19.531250
7565		17.578125
7566		21.484375
7567		17.578125
7568		19.531250
7569		17.578125
7570		19.531250
7571		17.578125
7572		19.531250
7573		17.578125
7574		19.531250
7575		17.578125
7576		19.531250
7577		17.578125
7578		21.484375
7579		17.578125
7580		19.531250
7581		15.625000
7582		19.531250
7583		15.625000
7584		19.531250
7585		17.578125
7586		19.531250
7587		15.625000
7588		19.531250
7589		15.625000
7590		19.531250
7591		15.625000
7592		19.531250
7593		15.625000
7594		19.531250
7595		15.625000
7596		17.578125
7597		13.671875
7598		17.578125
7599		15.625000
7600		19.531250
7601		15.625000
7602		17.578125
7603		15.625000
7604		17.578125
7605		13.671875
7606		17.578125
7607		13.671875
7608		17.578125
7609		13.671875
7610		17.578125
7611		13.671875
7612		17.578125
7613		13.671875
7614		15.625000
7615		11.718750
7616		17.578125
7617		13.671875
7618		15.625000
7619		11.718750
7620		15.625000
7621		11.718750
7622		15.625000
7623		11.718750
7624		15.625000
7625		11.718750
7626		13.671875
7627		9.765625
7628		13.671875
7629		11.718750
7630		13.671875
7631		9.765625
7632		13.671875
7633		9.765625
7634		13.671875
7635		9.765625
7636		13.671875
7637		9.765625
7638		11.718750
7639		9.765625
7640		11.718750
7641		7.812500
7642		11.718750
7643		7.812500
7644		11.718750
7645		7.812500
7646		11.718750
7647		7.812500
7648		9.765625
7649		7.812500
7650		9.765625
7651		5.859375
7652		9.765625
7653		5.859375
7654		9.765625
7655		5.859375
7656		9.765625
7657		5.859375
7658		9.765625
7659		5.859375
7660		9.765625
7661		5.859375
7662		9.765625
7663		5.859375
7664		9.765625
7665		5.859375
7666		9.765625
7667		5.859375
7668		9.765625
7669		5.859375
7670		9.765625
7671		5.859375
7672		7.812500
7673		5.859375
7674		7.812500
7675		5.859375
7676		7.812500
7677		3.906250
7678		7.812500
7679		5.859375
7680		7.812500
7681		3.906250
7682		7.812500
7683		5.859375
7684		7.812500
7685		5.859375
7686		7.812500
7687		5.859375
7688		7.812500
7689		5.859375
7690		7.812500
7691		5.859375
7692		9.765625
7693		5.859375
7694		9.765625
7695		5.859375
7696		7.812500
7697		5.859375
7698		7.812500
7699		5.859375
7700		9.765625
7701		5.859375
7702		9.765625
7703		5.859375
7704		9.765625
7705		5.859375
7706		9.765625
7707		5.859375
7708		9.765625
7709		5.859375
7710		9.765625
7711		5.859375
7712		11.718750
7713		7.812500
7714		9.765625
7715		7.812500
7716		9.765625
7717		7.812500
7718		9.765625
7719		7.812500
7720		9.765625
7721		7.812500
7722		11.718750
7723		7.812500
7724		11.718750
7725		9.765625
7726		11.718750
7727		9.765625
7728		11.718750
7729		9.765625
7730		11.718750
7731		9.765625
7732		11.718750
7733		9.765625
7734		13.671875
7735		9.765625
7736		13.671875
7737		9.765625
7738		13.671875
7739		11.718750
7740		13.671875
7741		9.765625
7742		13.671875
7743		9.765625
7744		13.671875
7745		11.718750
7746		13.671875
7747		11.718750
7748		13.671875
7749		9.765625
7750		15.625000
7751		11.718750
7752		15.625000
7753		11.718750
7754		15.625000
7755		11.718750
7756		15.625000
7757		11.718750
7758		15.625000
7759		11.718750
7760		15.625000
7761		11.718750
7762		17.578125
7763		13.671875
7764		15.625000
7765		13.671875
7766		17.578125
7767		13.671875
7768		17.578125
7769		13.671875
7770		17.578125
7771		13.671875
7772		17.578125
7773		13.671875
7774		17.578125
7775		13.671875
7776		17.578125
7777		13.671875
7778		17.578125
7779		15.625000
7780		17.578125
7781		15.625000
7782		17.578125
7783		15.625000
7784		19.531250
7785		15.625000
7786		19.531250
7787		15.625000
7788		19.531250
7789		15.625000
7790		19.531250
7791		15.625000
7792		19.531250
7793		15.625000
7794		19.531250
7795		15.625000
7796		19.531250
7797		17.578125
7798		19.531250
7799		15.625000
7800		19.531250
7801		17.578125
7802		19.531250
7803		17.578125
7804		19.531250
7805		17.578125
7806		19.531250
7807		15.625000
7808		19.531250
7809		17.578125
7810		19.531250
7811		17.578125
7812		19.531250
7813		17.578125
7814		19.531250
7815		17.578125
7816		19.531250
7817		15.625000
7818		21.484375
7819		17.578125
7820		21.484375
7821		17.578125
7822		19.531250
7823		17.578125
7824		19.531250
7825		17.578125
7826		19.531250
7827		17.578125
7828		19.531250
7829		15.625000
7830		21.484375
7831		17.578125
7832		19.531250
7833		17.578125
7834		21.484375
7835		15.625000
7836		19.531250
7837		15.625000
7838		19.531250
7839		15.625000
7840		19.531250
7841		15.625000
7842		19.531250
7843		15.625000
7844		19.531250
7845		15.625000
7846		19.531250
7847		15.625000
7848		17.578125
7849		15.625000
7850		19.531250
7851		15.625000
7852		17.578125
7853		15.625000
7854		17.578125
7855		15.625000
7856		17.578125
7857		13.671875
7858		17.578125
7859		13.671875
7860		17.578125
7861		13.671875
7862		17.578125
7863		13.671875
7864		17.578125
7865		13.671875
7866		15.625000
7867		11.718750
7868		17.578125
7869		11.718750
7870		15.625000
7871		11.718750
7872		15.625000
7873		11.718750
7874		15.625000
7875		11.718750
7876		15.625000
7877		11.718750
7878		13.671875
7879		11.718750
7880		13.671875
7881		11.718750
7882		13.671875
7883		9.765625
7884		13.671875
7885		9.765625
7886		13.671875
7887		9.765625
7888		13.671875
7889		7.812500
7890		11.718750
7891		7.812500
7892		11.718750
7893		7.812500
7894		11.718750
7895		7.812500
7896		11.718750
7897		7.812500
7898		9.765625
7899		7.812500
7900		9.765625
7901		7.812500
7902		9.765625
7903		7.812500
7904		9.765625
7905		5.859375
7906		9.765625
7907		5.859375
7908		9.765625
7909		5.859375
7910		9.765625
7911		5.859375
7912		9.765625
7913		5.859375
7914		9.765625
7915		5.859375
7916		7.812500
7917		3.906250
7918		9.765625
7919		5.859375
7920		7.812500
7921		5.859375
7922		7.812500
7923		3.906250
7924		7.812500
7925		3.906250
7926		7.812500
7927		3.906250
7928		7.812500
7929		3.906250
7930		7.812500
7931		3.906250
7932		7.812500
7933		3.906250
7934		7.812500
7935		3.906250
7936		7.812500
7937		3.906250
7938		7.812500
7939		3.906250
7940		7.812500
7941		3.906250
7942		7.812500
7943		3.906250
7944		7.812500
7945		3.906250
7946		7.812500
7947		5.859375
7948		7.812500
7949		5.859375
7950		7.812500
7951		3.906250
7952		7.812500
7953		5.859375
7954		7.812500
7955		5.859375
7956		7.812500
7957		5.859375
7958		7.812500
7959		5.859375
7960		9.765625
7961		5.859375
7962		9.765625
7963		5.859375
7964		9.765625
7965		7.812500
7966		9.765625
7967		5.859375
7968		9.765625
7969		5.859375
7970		9.765625
7971		5.859375
7972		9.765625
7973		7.812500
7974		9.765625
7975		7.812500
7976		9.765625
7977		7.812500
7978		9.765625
7979		7.812500
7980		11.718750
7981		7.812500
7982		11.718750
7983		9.765625
7984		11.718750
7985		7.812500
7986		13.671875
7987		9.765625
7988		11.718750
7989		9.765625
7990		13.671875
7991		9.765625
7992		13.671875
7993		9.765625
7994		13.671875
7995		9.765625
7996		13.671875
7997		9.765625
7998		13.671875
7999		9.765625
8000		13.671875
8001		9.765625
8002		13.671875
8003		11.718750
8004		13.671875
8005		11.718750
8006		13.671875
8007		11.718750
8008		15.625000
8009		11.718750
8010		15.625000
8011		11.718750
8012		15.625000
8013		11.718750
8014		15.625000
8015		13.671875
8016		15.625000
8017		13.671875
8018		15.625000
8019		11.718750
8020		15.625000
8021		11.718750
8022		15.625000
8023		13.671875
8024		15.625000
8025		13.671875
8026		17.578125
8027		13.671875
8028		17.578125
8029		13.671875
8030		17.578125
8031		13.671875
8032		15.625000
8033		15.625000
8034		17.578125
8035		13.671875
8036		17.578125
8037		13.671875
8038		17.578125
8039		15.625000
8040		17.578125
8041		13.671875
8042		17.578125
8043		15.625000
8044		17.578125
8045		15.625000
8046		17.578125
8047		13.671875
8048		19.531250
8049		15.625000
8050		17.578125
8051		15.625000
8052		19.531250
8053		15.625000
8054		19.531250
8055		15.625000
8056		19.531250
8057		15.625000
8058		19.531250
8059		15.625000
8060		19.531250
8061		15.625000
8062		19.531250
8063		15.625000
8064		19.531250
8065		15.625000
8066		19.531250
8067		17.578125
8068		19.531250
8069		15.625000
8070		19.531250
8071		15.625000
8072		19.531250
8073		15.625000
8074		19.531250
8075		15.625000
8076		19.531250
8077		15.625000
8078		19.531250
8079		15.625000
8080		19.531250
8081		15.625000
8082		19.531250
8083		15.625000
8084		19.531250
8085		15.625000
8086		19.531250
8087		15.625000
8088		19.531250
8089		15.625000
8090		19.531250
8091		15.625000
8092		17.578125
8093		15.625000
8094		19.531250
8095		15.625000
8096		17.578125
8097		13.671875
8098		17.578125
8099		15.625000
8100		17.578125
8101		15.625000
8102		17.578125
8103		13.671875
8104		17.578125
8105		13.671875
8106		17.578125
8107		13.671875
8108		17.578125
8109		13.671875
8110		17.578125
8111		13.671875
8112		17.578125
8113		11.718750
8114		17.578125
8115		13.671875
8116		15.625000
8117		13.671875
8118		15.625000
8119		13.671875
8120		15.625000
8121		11.718750
8122		15.625000
8123		11.718750
8124		15.625000
8125		11.718750
8126		15.625000
8127		11.718750
8128		13.671875
8129		9.765625
8130		13.671875
8131		9.765625
8132		13.671875
8133		9.765625
8134		13.671875
8135		9.765625
8136		11.718750
8137		9.765625
8138		11.718750
8139		7.812500
8140		11.718750
8141		7.812500
8142		11.718750
8143		7.812500
8144		11.718750
8145		7.812500
8146		11.718750
8147		7.812500
8148		11.718750
8149		7.812500
8150		9.765625
8151		7.812500
8152		9.765625
8153		5.859375
8154		9.765625
8155		5.859375
8156		9.765625
8157		5.859375
8158		9.765625
8159		5.859375
8160		9.765625
8161		5.859375
8162		9.765625
8163		5.859375
8164		9.765625
8165		3.906250
8166		7.812500
8167		5.859375
8168		7.812500
8169		3.906250
8170		7.812500
8171		3.906250
8172		7.812500
8173		3.906250
8174		7.812500
8175		5.859375
8176		7.812500
8177		3.906250
8178		7.812500
8179		3.906250
8180		7.812500
8181		3.906250
8182		7.812500
8183		3.906250
8184		7.812500
8185		3.906250
8186		7.812500
8187		3.906250
8188		7.812500
8189		3.906250
8190		7.812500
8191		3.906250
8192		7.812500
8193		3.906250
8194		7.812500
8195		3.906250
8196		7.812500
8197		3.906250
8198		7.812500
8199		3.906250
8200		7.812500
8201		5.859375
8202		7.812500
8203		3.906250
8204		7.812500
8205		5.859375
8206		7.812500
8207		5.859375
8208		7.812500
8209		5.859375
8210		7.812500
8211		5.859375
8212		9.765625
8213		5.859375
8214		9.765625
8215		5.859375
8216		9.765625
8217		5.859375
8218		9.765625
8219		5.859375
8220		9.765625
8221		5.859375
8222		9.765625
8223		5.859375
8224		9.765625
8225		7.812500
8226		9.765625
8227		7.812500
8228		9.765625
8229		7.812500
8230		9.765625
8231		7.812500
8232		11.718750
8233		7.812500
8234		11.718750
8235		7.812500
8236		11.718750
8237		7.812500
8238		11.718750
8239		9.765625
8240		11.718750
8241		9.765625
8242		11.718750
8243		9.765625
8244		11.718750
8245		9.765625
8246		13.671875
8247		9.765625
8248		13.671875
8249		9.765625
8250		13.671875
8251		11.718750
8252		13.671875
8253		11.718750
8254		15.625000
8255		9.765625
8256		13.671875
8257		11.718750
8258		15.625000
8259		11.718750
8260		13.671875
8261		11.718750
8262		15.625000
8263		11.718750
8264		15.625000
8265		11.718750
8266		15.625000
8267		13.671875
8268		15.625000
8269		13.671875
8270		15.625000
8271		11.718750
8272		15.625000
8273		13.671875
8274		15.625000
8275		13.671875
8276		15.625000
8277		13.671875
8278		17.578125
8279		13.671875
8280		17.578125
8281		13.671875
8282		17.578125
8283		13.671875
8284		17.578125
8285		15.625000
8286		17.578125
8287		13.671875
8288		17.578125
8289		13.671875
8290		17.578125
8291		15.625000
8292		17.578125
8293		13.671875
8294		19.531250
8295		15.625000
8296		17.578125
8297		15.625000
8298		19.531250
8299		15.625000
8300		19.531250
8301		15.625000
8302		17.578125
8303		15.625000
8304		19.531250
8305		15.625000
8306		19.531250
8307		15.625000
8308		19.531250
8309		15.625000
8310		19.531250
8311		15.625000
8312		19.531250
8313		15.625000
8314		19.531250
8315		15.625000
8316		19.531250
8317		15.625000
8318		19.531250
8319		17.578125
8320		19.531250
8321		15.625000
8322		19.531250
8323		15.625000
8324		19.531250
8325		17.578125
8326		19.531250
8327		15.625000
8328		19.531250
8329		15.625000
8330		19.531250
8331		15.625000
8332		19.531250
8333		15.625000
8334		19.531250
8335		17.578125
8336		19.531250
8337		15.625000
8338		19.531250
8339		15.625000
8340		19.531250
8341		15.625000
8342		19.531250
8343		15.625000
8344		19.531250
8345		15.625000
8346		19.531250
8347		15.625000
8348		19.531250
8349		15.625000
8350		19.531250
8351		15.625000
8352		17.578125
8353		15.625000
8354		17.578125
8355		13.671875
8356		17.578125
8357		15.625000
8358		17.578125
8359		13.671875
8360		17.578125
8361		13.671875
8362		17.578125
8363		13.671875
8364		17.578125
8365		13.671875
8366		17.578125
8367		11.718750
8368		17.578125
8369		13.671875
8370		15.625000
8371		11.718750
8372		15.625000
8373		11.718750
8374		15.625000
8375		11.718750
8376		15.625000
8377		11.718750
8378		15.625000
8379		11.718750
8380		13.671875
8381		11.718750
8382		13.671875
8383		9.765625
8384		13.671875
8385		9.765625
8386		13.671875
8387		9.765625
8388		13.671875
8389		9.765625
8390		13.671875
8391		9.765625
8392		13.671875
8393		7.812500
8394		11.718750
8395		9.765625
8396		11.718750
8397		7.812500
8398		11.718750
8399		7.812500
8400		11.718750
8401		7.812500
8402		9.765625
8403		7.812500
8404		9.765625
8405		7.812500
8406		9.765625
8407		5.859375
8408		9.765625
8409		5.859375
8410		9.765625
8411		5.859375
8412		9.765625
8413		5.859375
8414		9.765625
8415		5.859375
8416		9.765625
8417		5.859375
8418		7.812500
8419		5.859375
8420		7.812500
8421		3.906250
8422		9.765625
8423		5.859375
8424		7.812500
8425		3.906250
8426		7.812500
8427		3.906250
8428		7.812500
8429		3.906250
8430		7.812500
8431		3.906250
8432		7.812500
8433		3.906250
8434		7.812500
8435		3.906250
8436		7.812500
8437		3.906250
8438		7.812500
8439		3.906250
8440		7.812500
8441		3.906250
8442		7.812500
8443		3.906250
8444		7.812500
8445		3.906250
8446		7.812500
8447		3.906250
8448		7.812500
8449		3.906250
8450		7.812500
8451		3.906250
8452		7.812500
8453		5.859375
8454		7.812500
8455		3.906250
8456		7.812500
8457		3.906250
8458		7.812500
8459		3.906250
8460		7.812500
8461		3.906250
8462		7.812500
8463		5.859375
8464		7.812500
8465		5.859375
8466		9.765625
8467		3.906250
8468		9.765625
8469		5.859375
8470		7.812500
8471		5.859375
8472		9.765625
8473		5.859375
8474		9.765625
8475		5.859375
8476		9.765625
8477		5.859375
8478		9.765625
8479		5.859375
8480		9.765625
8481		7.812500
8482		9.765625
8483		7.812500
8484		11.718750
8485		7.812500
8486		9.765625
8487		7.812500
8488		11.718750
8489		7.812500
8490		11.718750
8491		7.812500
8492		11.718750
8493		7.812500
8494		11.718750
8495		9.765625
8496		11.718750
8497		7.812500
8498		13.671875
8499		9.765625
8500		11.718750
8501		9.765625
8502		13.671875
8503		9.765625
8504		13.671875
8505		9.765625
8506		13.671875
8507		9.765625
8508		13.671875
8509		9.765625
8510		13.671875
8511		11.718750
8512		13.671875
8513		9.765625
8514		13.671875
8515		11.718750
8516		13.671875
8517		11.718750
8518		15.625000
8519		11.718750
8520		13.671875
8521		11.718750
8522		15.625000
8523		11.718750
8524		15.625000
8525		11.718750
8526		15.625000
8527		11.718750
8528		15.625000
8529		13.671875
8530		17.578125
8531		13.671875
8532		15.625000
8533		13.671875
8534		17.578125
8535		11.718750
8536		17.578125
8537		13.671875
8538		17.578125
8539		13.671875
8540		17.578125
8541		13.671875
8542		17.578125
8543		13.671875
8544		17.578125
8545		13.671875
8546		17.578125
8547		13.671875
8548		17.578125
8549		13.671875
8550		17.578125
8551		13.671875
8552		17.578125
8553		15.625000
8554		17.578125
8555		13.671875
8556		17.578125
8557		15.625000
8558		17.578125
8559		15.625000
8560		17.578125
8561		15.625000
8562		17.578125
8563		15.625000
8564		17.578125
8565		15.625000
8566		17.578125
8567		15.625000
8568		19.531250
8569		15.625000
8570		19.531250
8571		15.625000
8572		17.578125
8573		15.625000
8574		19.531250
8575		15.625000
8576		19.531250
8577		15.625000
8578		19.531250
8579		15.625000
8580		19.531250
8581		15.625000
8582		19.531250
8583		15.625000
8584		19.531250
8585		15.625000
8586		19.531250
8587		15.625000
8588		19.531250
8589		15.625000
8590		19.531250
8591		15.625000
8592		19.531250
8593		15.625000
8594		19.531250
8595		15.625000
8596		17.578125
8597		15.625000
8598		17.578125
8599		15.625000
8600		17.578125
8601		13.671875
8602		19.531250
8603		15.625000
8604		17.578125
8605		15.625000
8606		17.578125
8607		13.671875
8608		17.578125
8609		13.671875
8610		17.578125
8611		13.671875
8612		17.578125
8613		13.671875
8614		17.578125
8615		13.671875
8616		17.578125
8617		13.671875
8618		17.578125
8619		13.671875
8620		17.578125
8621		13.671875
8622		15.625000
8623		11.718750
8624		15.625000
8625		11.718750
8626		15.625000
8627		11.718750
8628		15.625000
8629		11.718750
8630		15.625000
8631		11.718750
8632		13.671875
8633		9.765625
8634		13.671875
8635		9.765625
8636		13.671875
8637		9.765625
8638		13.671875
8639		9.765625
8640		11.718750
8641		9.765625
8642		13.671875
8643		9.765625
8644		11.718750
8645		9.765625
8646		11.718750
8647		7.812500
8648		11.718750
8649		7.812500
8650		11.718750
8651		7.812500
8652		11.718750
8653		7.812500
8654		9.765625
8655		7.812500
8656		9.765625
8657		5.859375
8658		11.718750
8659		5.859375
8660		9.765625
8661		5.859375
8662		9.765625
8663		5.859375
8664		9.765625
8665		5.859375
8666		9.765625
8667		5.859375
8668		7.812500
8669		3.906250
8670		7.812500
8671		5.859375
8672		7.812500
8673		3.906250
8674		7.812500
8675		3.906250
8676		7.812500
8677		3.906250
8678		7.812500
8679		3.906250
8680		7.812500
8681		3.906250
8682		7.812500
8683		3.906250
8684		7.812500
8685		3.906250
8686		7.812500
8687		3.906250
8688		5.859375
8689		3.906250
8690		7.812500
8691		3.906250
8692		7.812500
8693		3.906250
8694		7.812500
8695		3.906250
8696		7.812500
8697		3.906250
8698		7.812500
8699		3.906250
8700		7.812500
8701		3.906250
8702		7.812500
8703		3.906250
8704		7.812500
8705		3.906250
8706		7.812500
8707		3.906250
8708		7.812500
8709		3.906250
8710		7.812500
8711		3.906250
8712		7.812500
8713		3.906250
8714		7.812500
8715		3.906250
8716		7.812500
8717		3.906250
8718		7.812500
8719		3.906250
8720		7.812500
8721		5.859375
8722		7.812500
8723		5.859375
8724		7.812500
8725		5.859375
8726		9.765625
8727		5.859375
8728		9.765625
8729		5.859375
8730		9.765625
8731		5.859375
8732		9.765625
8733		5.859375
8734		9.765625
8735		5.859375
8736		9.765625
8737		7.812500
8738		9.765625
8739		7.812500
8740		9.765625
8741		7.812500
8742		11.718750
8743		7.812500
8744		11.718750
8745		7.812500
8746		11.718750
8747		9.765625
8748		11.718750
8749		9.765625
8750		11.718750
8751		9.765625
8752		11.718750
8753		9.765625
8754		13.671875
8755		9.765625
8756		11.718750
8757		9.765625
8758		13.671875
8759		9.765625
8760		13.671875
8761		9.765625
8762		13.671875
8763		11.718750
8764		13.671875
8765		11.718750
8766		13.671875
8767		11.718750
8768		13.671875
8769		11.718750
8770		15.625000
8771		11.718750
8772		13.671875
8773		11.718750
8774		15.625000
8775		11.718750
8776		15.625000
8777		11.718750
8778		15.625000
8779		11.718750
8780		15.625000
8781		13.671875
8782		15.625000
8783		13.671875
8784		15.625000
8785		13.671875
8786		17.578125
8787		13.671875
8788		17.578125
8789		13.671875
8790		17.578125
8791		13.671875
8792		17.578125
8793		13.671875
8794		17.578125
8795		13.671875
8796		17.578125
8797		15.625000
8798		17.578125
8799		13.671875
8800		17.578125
8801		15.625000
8802		17.578125
8803		13.671875
8804		17.578125
8805		15.625000
8806		17.578125
8807		15.625000
8808		17.578125
8809		15.625000
8810		19.531250
8811		15.625000
8812		19.531250
8813		15.625000
8814		19.531250
8815		15.625000
8816		19.531250
8817		15.625000
8818		19.531250
8819		15.625000
8820		19.531250
8821		15.625000
8822		19.531250
8823		15.625000
8824		19.531250
8825		15.625000
8826		19.531250
8827		15.625000
8828		19.531250
8829		15.625000
8830		19.531250
8831		15.625000
8832		19.531250
8833		15.625000
8834		19.531250
8835		15.625000
8836		19.531250
8837		15.625000
8838		19.531250
8839		15.625000
8840		19.531250
8841		15.625000
8842		19.531250
8843		15.625000
8844		19.531250
8845		15.625000
8846		19.531250
8847		15.625000
8848		19.531250
8849		15.625000
8850		17.578125
8851		15.625000
8852		19.531250
8853		15.625000
8854		19.531250
8855		15.625000
8856		17.578125
8857		15.625000
8858		17.578125
8859		13.671875
8860		17.578125
8861		15.625000
8862		17.578125
8863		13.671875
8864		17.578125
8865		13.671875
8866		17.578125
8867		13.671875
8868		17.578125
8869		13.671875
8870		17.578125
8871		13.671875
8872		17.578125
8873		13.671875
8874		15.625000
8875		13.671875
8876		15.625000
8877		13.671875
8878		15.625000
8879		11.718750
8880		15.625000
8881		11.718750
8882		15.625000
8883		11.718750
8884		15.625000
8885		11.718750
8886		13.671875
8887		9.765625
8888		13.671875
8889		11.718750
8890		13.671875
8891		9.765625
8892		13.671875
8893		9.765625
8894		13.671875
8895		9.765625
8896		13.671875
8897		9.765625
8898		11.718750
8899		7.812500
8900		11.718750
8901		7.812500
8902		11.718750
8903		7.812500
8904		11.718750
8905		7.812500
8906		11.718750
8907		7.812500
8908		9.765625
8909		5.859375
8910		11.718750
8911		5.859375
8912		11.718750
8913		5.859375
8914		9.765625
8915		5.859375
8916		9.765625
8917		5.859375
8918		9.765625
8919		5.859375
8920		9.765625
8921		3.906250
8922		7.812500
8923		5.859375
8924		7.812500
8925		3.906250
8926		7.812500
8927		3.906250
8928		7.812500
8929		3.906250
8930		7.812500
8931		3.906250
8932		7.812500
8933		3.906250
8934		7.812500
8935		3.906250
8936		7.812500
8937		3.906250
8938		7.812500
8939		3.906250
8940		5.859375
8941		3.906250
8942		5.859375
8943		3.906250
8944		7.812500
8945		3.906250
8946		7.812500
8947		3.906250
8948		7.812500
8949		3.906250
8950		7.812500
8951		3.906250
8952		7.812500
8953		3.906250
8954		7.812500
8955		3.906250
8956		7.812500
8957		3.906250
8958		5.859375
8959		3.906250
8960		7.812500
8961		3.906250
8962		7.812500
8963		3.906250
8964		7.812500
8965		3.906250
8966		7.812500
8967		3.906250
8968		7.812500
8969		3.906250
8970		7.812500
8971		3.906250
8972		7.812500
8973		5.859375
8974		7.812500
8975		5.859375
8976		7.812500
8977		5.859375
8978		9.765625
8979		5.859375
8980		9.765625
8981		5.859375
8982		9.765625
8983		5.859375
8984		9.765625
8985		5.859375
8986		9.765625
8987		5.859375
8988		9.765625
8989		5.859375
8990		9.765625
8991		7.812500
8992		9.765625
8993		5.859375
8994		11.718750
8995		7.812500
8996		11.718750
8997		7.812500
8998		11.718750
8999		7.812500
9000		11.718750
9001		7.812500
9002		11.718750
9003		7.812500
9004		11.718750
9005		7.812500
9006		11.718750
9007		9.765625
9008		11.718750
9009		9.765625
9010		13.671875
9011		9.765625
9012		13.671875
9013		9.765625
9014		13.671875
9015		9.765625
9016		13.671875
9017		9.765625
9018		13.671875
9019		11.718750
9020		13.671875
9021		9.765625
9022		15.625000
9023		11.718750
9024		13.671875
9025		11.718750
9026		13.671875
9027		11.718750
9028		15.625000
9029		11.718750
9030		15.625000
9031		11.718750
9032		15.625000
9033		11.718750
9034		15.625000
9035		13.671875
9036		15.625000
9037		13.671875
9038		15.625000
9039		13.671875
9040		15.625000
9041		13.671875
9042		15.625000
9043		13.671875
9044		17.578125
9045		13.671875
9046		17.578125
9047		13.671875
9048		17.578125
9049		13.671875
9050		17.578125
9051		13.671875
9052		17.578125
9053		13.671875
9054		17.578125
9055		13.671875
9056		17.578125
9057		15.625000
9058		17.578125
9059		15.625000
9060		17.578125
9061		15.625000
9062		17.578125
9063		13.671875
9064		17.578125
9065		15.625000
9066		17.578125
9067		15.625000
9068		19.531250
9069		15.625000
9070		19.531250
9071		15.625000
9072		19.531250
9073		15.625000
9074		19.531250
9075		15.625000
9076		17.578125
9077		15.625000
9078		19.531250
9079		15.625000
9080		19.531250
9081		15.625000
9082		19.531250
9083		15.625000
9084		19.531250
9085		15.625000
9086		19.531250
9087		15.625000
9088		19.531250
9089		15.625000
9090		19.531250
9091		15.625000
9092		17.578125
9093		15.625000
9094		19.531250
9095		15.625000
9096		19.531250
9097		15.625000
9098		19.531250
9099		15.625000
9100		19.531250
9101		15.625000
9102		19.531250
9103		15.625000
9104		17.578125
9105		15.625000
9106		19.531250
9107		15.625000
9108		17.578125
9109		15.625000
9110		17.578125
9111		13.671875
9112		17.578125
9113		13.671875
9114		17.578125
9115		13.671875
9116		17.578125
9117		13.671875
9118		17.578125
9119		13.671875
9120		17.578125
9121		13.671875
9122		17.578125
9123		13.671875
9124		17.578125
9125		13.671875
9126		15.625000
9127		13.671875
9128		15.625000
9129		11.718750
9130		15.625000
9131		11.718750
9132		15.625000
9133		11.718750
9134		15.625000
9135		11.718750
9136		15.625000
9137		11.718750
9138		13.671875
9139		9.765625
9140		13.671875
9141		11.718750
9142		13.671875
9143		9.765625
9144		13.671875
9145		9.765625
9146		13.671875
9147		9.765625
9148		13.671875
9149		9.765625
9150		13.671875
9151		9.765625
9152		11.718750
9153		7.812500
9154		11.718750
9155		7.812500
9156		11.718750
9157		7.812500
9158		11.718750
9159		7.812500
9160		9.765625
9161		5.859375
9162		9.765625
9163		5.859375
9164		9.765625
9165		5.859375
9166		9.765625
9167		5.859375
9168		9.765625
9169		5.859375
9170		9.765625
9171		5.859375
9172		9.765625
9173		5.859375
9174		9.765625
9175		5.859375
9176		7.812500
9177		3.906250
9178		7.812500
9179		3.906250
9180		7.812500
9181		5.859375
9182		7.812500
9183		3.906250
9184		7.812500
9185		3.906250
9186		7.812500
9187		3.906250
9188		7.812500
9189		3.906250
9190		7.812500
9191		3.906250
9192		7.812500
9193		3.906250
9194		7.812500
9195		1.953125
9196		7.812500
9197		3.906250
9198		7.812500
9199		3.906250
9200		7.812500
9201		3.906250
9202		7.812500
9203		3.906250
9204		7.812500
9205		3.906250
9206		7.812500
9207		3.906250
9208		7.812500
9209		3.906250
9210		7.812500
9211		3.906250
9212		7.812500
9213		3.906250
9214		7.812500
9215		3.906250
9216		7.812500
9217		3.906250
9218		7.812500
9219		3.906250
9220		7.812500
9221		3.906250
9222		7.812500
9223		5.859375
9224		9.765625
9225		5.859375
9226		7.812500
9227		5.859375
9228		7.812500
9229		5.859375
9230		9.765625
9231		5.859375
9232		9.765625
9233		5.859375
9234		9.765625
9235		5.859375
9236		9.765625
9237		5.859375
9238		9.765625
9239		7.812500
9240		9.765625
9241		7.812500
9242		11.718750
9243		7.812500
9244		9.765625
9245		7.812500
9246		11.718750
9247		7.812500
9248		11.718750
9249		7.812500
9250		11.718750
9251		7.812500
9252		11.718750
9253		7.812500
9254		11.718750
9255		9.765625
9256		11.718750
9257		9.765625
9258		13.671875
9259		9.765625
9260		11.718750
9261		9.765625
9262		13.671875
9263		9.765625
9264		13.671875
9265		9.765625
9266		13.671875
9267		11.718750
9268		13.671875
9269		11.718750
9270		13.671875
9271		11.718750
9272		13.671875
9273		11.718750
9274		15.625000
9275		11.718750
9276		15.625000
9277		11.718750
9278		13.671875
9279		11.718750
9280		15.625000
9281		11.718750
9282		15.625000
9283		11.718750
9284		15.625000
9285		13.671875
9286		15.625000
9287		13.671875
9288		15.625000
9289		13.671875
9290		15.625000
9291		11.718750
9292		17.578125
9293		13.671875
9294		15.625000
9295		13.671875
9296		17.578125
9297		13.671875
9298		17.578125
9299		13.671875
9300		17.578125
9301		13.671875
9302		17.578125
9303		13.671875
9304		17.578125
9305		13.671875
9306		17.578125
9307		13.671875
9308		19.531250
9309		15.625000
9310		17.578125
9311		15.625000
9312		17.578125
9313		13.671875
9314		19.531250
9315		15.625000
9316		19.531250
9317		15.625000
9318		19.531250
9319		15.625000
9320		19.531250
9321		15.625000
9322		19.531250
9323		15.625000
9324		19.531250
9325		15.625000
9326		19.531250
9327		15.625000
9328		19.531250
9329		15.625000
9330		19.531250
9331		15.625000
9332		19.531250
9333		15.625000
9334		19.531250
9335		15.625000
9336		19.531250
9337		15.625000
9338		19.531250
9339		15.625000
9340		19.531250
9341		15.625000
9342		19.531250
9343		15.625000
9344		19.531250
9345		15.625000
9346		19.531250
9347		15.625000
9348		19.531250
9349		15.625000
9350		19.531250
9351		15.625000
9352		19.531250
9353		15.625000
9354		19.531250
9355		15.625000
9356		19.531250
9357		15.625000
9358		19.531250
9359		13.671875
9360		17.578125
9361		15.625000
9362		19.531250
9363		15.625000
9364		17.578125
9365		13.671875
9366		17.578125
9367		13.671875
9368		17.578125
9369		13.671875
9370		17.578125
9371		13.671875
9372		17.578125
9373		13.671875
9374		17.578125
9375		13.671875
9376		17.578125
9377		13.671875
9378		15.625000
9379		11.718750
9380		15.625000
9381		13.671875
9382		15.625000
9383		11.718750
9384		15.625000
9385		11.718750
9386		15.625000
9387		11.718750
9388		15.625000
9389		11.718750
9390		15.625000
9391		11.718750
9392		15.625000
9393		11.718750
9394		13.671875
9395		9.765625
9396		13.671875
9397		9.765625
9398		13.671875
9399		9.765625
9400		11.718750
9401		9.765625
9402		11.718750
9403		9.765625
9404		11.718750
9405		9.765625
9406		11.718750
9407		7.812500
9408		11.718750
9409		7.812500
9410		11.718750
9411		7.812500
9412		9.765625
9413		7.812500
9414		9.765625
9415		5.859375
9416		9.765625
9417		5.859375
9418		9.765625
9419		5.859375
9420		9.765625
9421		5.859375
9422		9.765625
9423		5.859375
9424		9.765625
9425		3.906250
9426		9.765625
9427		5.859375
9428		7.812500
9429		5.859375
9430		7.812500
9431		3.906250
9432		9.765625
9433		3.906250
9434		7.812500
9435		3.906250
9436		7.812500
9437		3.906250
9438		7.812500
9439		3.906250
9440		7.812500
9441		3.906250
9442		7.812500
9443		3.906250
9444		7.812500
9445		3.906250
9446		5.859375
9447		1.953125
9448		7.812500
9449		3.906250
9450		7.812500
9451		3.906250
9452		5.859375
9453		3.906250
9454		7.812500
9455		3.906250
9456		7.812500
9457		3.906250
9458		7.812500
9459		3.906250
9460		7.812500
9461		3.906250
9462		5.859375
9463		3.906250
9464		7.812500
9465		3.906250
9466		7.812500
9467		3.906250
9468		7.812500
9469		3.906250
9470		7.812500
9471		3.906250
9472		7.812500
9473		3.906250
9474		7.812500
9475		3.906250
9476		7.812500
9477		5.859375
9478		7.812500
9479		5.859375
9480		7.812500
9481		5.859375
9482		9.765625
9483		5.859375
9484		7.812500
9485		5.859375
9486		9.765625
9487		5.859375
9488		9.765625
9489		5.859375
9490		9.765625
9491		5.859375
9492		9.765625
9493		5.859375
9494		9.765625
9495		7.812500
9496		9.765625
9497		7.812500
9498		9.765625
9499		7.812500
9500		11.718750
9501		5.859375
9502		11.718750
9503		7.812500
9504		11.718750
9505		7.812500
9506		11.718750
9507		7.812500
9508		11.718750
9509		7.812500
9510		11.718750
9511		9.765625
9512		11.718750
9513		9.765625
9514		11.718750
9515		9.765625
9516		13.671875
9517		9.765625
9518		11.718750
9519		9.765625
9520		13.671875
9521		9.765625
9522		13.671875
9523		9.765625
9524		13.671875
9525		9.765625
9526		13.671875
9527		9.765625
9528		13.671875
9529		11.718750
9530		13.671875
9531		9.765625
9532		13.671875
9533		11.718750
9534		15.625000
9535		11.718750
9536		15.625000
9537		11.718750
9538		15.625000
9539		11.718750
9540		15.625000
9541		11.718750
9542		15.625000
9543		11.718750
9544		15.625000
9545		11.718750
9546		15.625000
9547		11.718750
9548		15.625000
9549		13.671875
9550		15.625000
9551		13.671875
9552		17.578125
9553		13.671875
9554		15.625000
9555		13.671875
9556		17.578125
9557		13.671875
9558		17.578125
9559		13.671875
9560		17.578125
9561		15.625000
9562		17.578125
9563		15.625000
9564		17.578125
9565		13.671875
9566		17.578125
9567		13.671875
9568		17.578125
9569		13.671875
9570		17.578125
9571		13.671875
9572		19.531250
9573		13.671875
9574		17.578125
9575		15.625000
9576		19.531250
9577		13.671875
9578		17.578125
9579		15.625000
9580		17.578125
9581		15.625000
9582		19.531250
9583		15.625000
9584		17.578125
9585		15.625000
9586		19.531250
9587		15.625000
9588		17.578125
9589		15.625000
9590		19.531250
9591		15.625000
9592		19.531250
9593		15.625000
9594		19.531250
9595		15.625000
9596		17.578125
9597		15.625000
9598		17.578125
9599		15.625000
9600		19.531250
9601		15.625000
9602		19.531250
9603		15.625000
9604		17.578125
9605		15.625000
9606		17.578125
9607		15.625000
9608		17.578125
9609		15.625000
9610		17.578125
9611		13.671875
9612		19.531250
9613		15.625000
9614		17.578125
9615		13.671875
9616		17.578125
9617		13.671875
9618		17.578125
9619		13.671875
9620		17.578125
9621		13.671875
9622		17.578125
9623		13.671875
9624		17.578125
9625		13.671875
9626		15.625000
9627		11.718750
9628		17.578125
9629		13.671875
9630		15.625000
9631		11.718750
9632		15.625000
9633		11.718750
9634		15.625000
9635		11.718750
9636		15.625000
9637		11.718750
9638		15.625000
9639		11.718750
9640		15.625000
9641		11.718750
9642		15.625000
9643		9.765625
9644		13.671875
9645		11.718750
9646		13.671875
9647		9.765625
9648		13.671875
9649		9.765625
9650		13.671875
9651		9.765625
9652		13.671875
9653		9.765625
9654		11.718750
9655		9.765625
9656		11.718750
9657		7.812500
9658		11.718750
9659		7.812500
9660		11.718750
9661		7.812500
9662		11.718750
9663		7.812500
9664		9.765625
9665		5.859375
9666		9.765625
9667		5.859375
9668		9.765625
9669		5.859375
9670		9.765625
9671		5.859375
9672		9.765625
9673		5.859375
9674		9.765625
9675		5.859375
9676		7.812500
9677		5.859375
9678		9.765625
9679		5.859375
9680		7.812500
9681		5.859375
9682		7.812500
9683		3.906250
9684		7.812500
9685		3.906250
9686		7.812500
9687		3.906250
9688		7.812500
9689		3.906250
9690		7.812500
9691		3.906250
9692		7.812500
9693		3.906250
9694		7.812500
9695		1.953125
9696		7.812500
9697		3.906250
9698		5.859375
9699		3.906250
9700		7.812500
9701		3.906250
9702		5.859375
9703		3.906250
9704		7.812500
9705		3.906250
9706		5.859375
9707		3.906250
9708		5.859375
9709		3.906250
9710		5.859375
9711		1.953125
9712		7.812500
9713		3.906250
9714		5.859375
9715		3.906250
9716		7.812500
9717		3.906250
9718		5.859375
9719		3.906250
9720		7.812500
9721		3.906250
9722		7.812500
9723		3.906250
9724		7.812500
9725		3.906250
9726		7.812500
9727		3.906250
9728		7.812500
9729		3.906250
9730		7.812500
9731		5.859375
9732		7.812500
9733		3.906250
9734		9.765625
9735		3.906250
9736		7.812500
9737		5.859375
9738		7.812500
9739		5.859375
9740		7.812500
9741		5.859375
9742		9.765625
9743		5.859375
9744		9.765625
9745		5.859375
9746		9.765625
9747		5.859375
9748		9.765625
9749		5.859375
9750		11.718750
9751		5.859375
9752		9.765625
9753		7.812500
9754		9.765625
9755		7.812500
9756		11.718750
9757		7.812500
9758		11.718750
9759		7.812500
9760		11.718750
9761		7.812500
9762		11.718750
9763		9.765625
9764		11.718750
9765		9.765625
9766		11.718750
9767		7.812500
9768		13.671875
9769		9.765625
9770		11.718750
9771		9.765625
9772		11.718750
9773		9.765625
9774		13.671875
9775		9.765625
9776		13.671875
9777		9.765625
9778		13.671875
9779		9.765625
9780		13.671875
9781		11.718750
9782		13.671875
9783		11.718750
9784		15.625000
9785		11.718750
9786		13.671875
9787		11.718750
9788		15.625000
9789		11.718750
9790		15.625000
9791		11.718750
9792		15.625000
9793		11.718750
9794		15.625000
9795		11.718750
9796		15.625000
9797		13.671875
9798		15.625000
9799		11.718750
9800		15.625000
9801		13.671875
9802		15.625000
9803		11.718750
9804		17.578125
9805		11.718750
9806		17.578125
9807		13.671875
9808		17.578125
9809		13.671875
9810		17.578125
9811		13.671875
9812		17.578125
9813		13.671875
9814		17.578125
9815		13.671875
9816		17.578125
9817		13.671875
9818		19.531250
9819		13.671875
9820		17.578125
9821		13.671875
9822		17.578125
9823		13.671875
9824		19.531250
9825		15.625000
9826		17.578125
9827		15.625000
9828		17.578125
9829		13.671875
9830		17.578125
9831		15.625000
9832		17.578125
9833		15.625000
9834		19.531250
9835		15.625000
9836		17.578125
9837		15.625000
9838		17.578125
9839		13.671875
9840		19.531250
9841		15.625000
9842		19.531250
9843		13.671875
9844		19.531250
9845		15.625000
9846		19.531250
9847		15.625000
9848		17.578125
9849		15.625000
9850		17.578125
9851		15.625000
9852		19.531250
9853		15.625000
9854		19.531250
9855		15.625000
9856		17.578125
9857		13.671875
9858		19.531250
9859		13.671875
9860		19.531250
9861		15.625000
9862		17.578125
9863		13.671875
9864		17.578125
9865		13.671875
9866		17.578125
9867		13.671875
9868		19.531250
9869		11.718750
9870		19.531250
9871		11.718750
9872		19.531250
9873		11.718750
9874		19.531250
9875		11.718750
9876		17.578125
9877		11.718750
9878		17.578125
9879		13.671875
9880		17.578125
9881		13.671875
9882		15.625000
9883		11.718750
9884		15.625000
9885		9.765625
9886		17.578125
9887		9.765625
9888		17.578125
9889		9.765625
9890		17.578125
9891		9.765625
9892		17.578125
9893		9.765625
9894		17.578125
9895		9.765625
9896		13.671875
9897		9.765625
9898		13.671875
9899		9.765625
9900		13.671875
9901		7.812500
9902		15.625000
9903		7.812500
9904		13.671875
9905		7.812500
9906		13.671875
9907		5.859375
9908		13.671875
9909		5.859375
9910		13.671875
9911		5.859375
9912		13.671875
9913		7.812500
9914		11.718750
9915		7.812500
9916		9.765625
9917		3.906250
9918		11.718750
9919		5.859375
9920		11.718750
9921		3.906250
9922		11.718750
9923		3.906250
9924		11.718750
9925		3.906250
9926		11.718750
9927		3.906250
9928		9.765625
9929		3.906250
9930		9.765625
9931		5.859375
9932		7.812500
9933		5.859375
9934		7.812500
9935		1.953125
9936		9.765625
9937		1.953125
9938		9.765625
9939		1.953125
9940		9.765625
9941		1.953125
9942		9.765625
9943		1.953125
9944		7.812500
9945		1.953125
9946		7.812500
9947		1.953125
9948		9.765625
9949		3.906250
9950		5.859375
9951		1.953125
9952		7.812500
9953		1.953125
9954		7.812500
9955		1.953125
9956		7.812500
9957		1.953125
9958		7.812500
9959		1.953125
9960		7.812500
9961		1.953125
9962		7.812500
9963		1.953125
9964		7.812500
9965		3.906250
9966		5.859375
9967		3.906250
9968		5.859375
9969		0.000000
9970		7.812500
9971		1.953125
9972		9.765625
9973		1.953125
9974		9.765625
9975		1.953125
9976		9.765625
9977		1.953125
9978		9.765625
9979		1.953125
9980		9.765625
9981		3.906250
9982		7.812500
9983		3.906250
9984		7.812500
9985		3.906250
9986		9.765625
9987		1.953125
9988		9.765625
9989		3.906250
9990		9.765625
9991		3.906250
9992		9.765625
9993		1.953125
9994		11.718750
9995		3.906250
9996		11.718750
9997		3.906250
9998		11.718750
9999		5.859375
10000		9.765625
