Channel              :		CH1
Frequency            :		1.987kHz
Period               :		0.503ms
PK-PK                :		121.1mV
Probe attenuation    :		1X
Voltage per ADC value:		0.122070mV
Time interval        :		2.00000us

index		CH1_Voltage(mV)
1		46.875000
2		46.875000
3		50.781250
4		48.828125
5		52.734375
6		50.781250
7		54.687500
8		52.734375
9		54.687500
10		52.734375
11		56.640625
12		54.687500
13		58.593750
14		54.687500
15		58.593750
16		56.640625
17		60.546875
18		58.593750
19		60.546875
20		58.593750
21		60.546875
22		58.593750
23		62.500000
24		60.546875
25		62.500000
26		60.546875
27		62.500000
28		60.546875
29		62.500000
30		60.546875
31		62.500000
32		60.546875
33		62.500000
34		60.546875
35		62.500000
36		60.546875
37		62.500000
38		58.593750
39		62.500000
40		58.593750
41		62.500000
42		58.593750
43		62.500000
44		56.640625
45		60.546875
46		56.640625
47		60.546875
48		56.640625
49		58.593750
50		54.687500
51		58.593750
52		54.687500
53		56.640625
54		52.734375
55		56.640625
56		50.781250
57		54.687500
58		48.828125
59		52.734375
60		46.875000
61		52.734375
62		46.875000
63		48.828125
64		44.921875
65		48.828125
66		41.015625
67		44.921875
68		41.015625
69		44.921875
70		39.062500
71		41.015625
72		35.156250
73		41.015625
74		33.203125
75		37.109375
76		31.250000
77		35.156250
78		29.296875
79		33.203125
80		25.390625
81		31.250000
82		23.437500
83		27.343750
84		21.484375
85		25.390625
86		17.578125
87		23.437500
88		15.625000
89		19.531250
90		13.671875
91		17.578125
92		9.765625
93		15.625000
94		7.812500
95		11.718750
96		3.906250
97		9.765625
98		1.953125
99		5.859375
100		-1.953125
101		3.906250
102		-3.906250
103		1.953125
104		-5.859375
105		-1.953125
106		-9.765625
107		-3.906250
108		-11.718750
109		-7.812500
110		-13.671875
111		-9.765625
112		-17.578125
113		-13.671875
114		-19.531250
115		-15.625000
116		-21.484375
117		-17.578125
118		-23.437500
119		-19.531250
120		-27.343750
121		-23.437500
122		-29.296875
123		-25.390625
124		-31.250000
125		-27.343750
126		-33.203125
127		-29.296875
128		-35.156250
129		-31.250000
130		-37.109375
131		-33.203125
132		-39.062500
133		-35.156250
134		-41.015625
135		-37.109375
136		-41.015625
137		-37.109375
138		-42.968750
139		-39.062500
140		-44.921875
141		-41.015625
142		-44.921875
143		-42.968750
144		-46.875000
145		-42.968750
146		-48.828125
147		-44.921875
148		-48.828125
149		-44.921875
150		-48.828125
151		-44.921875
152		-48.828125
153		-46.875000
154		-48.828125
155		-46.875000
156		-50.781250
157		-46.875000
158		-50.781250
159		-46.875000
160		-50.781250
161		-46.875000
162		-48.828125
163		-46.875000
164		-48.828125
165		-44.921875
166		-48.828125
167		-44.921875
168		-46.875000
169		-42.968750
170		-46.875000
171		-42.968750
172		-46.875000
173		-42.968750
174		-44.921875
175		-41.015625
176		-42.968750
177		-39.062500
178		-41.015625
179		-39.062500
180		-41.015625
181		-37.109375
182		-39.062500
183		-35.156250
184		-37.109375
185		-33.203125
186		-35.156250
187		-31.250000
188		-33.203125
189		-29.296875
190		-31.250000
191		-27.343750
192		-29.296875
193		-23.437500
194		-27.343750
195		-23.437500
196		-25.390625
197		-19.531250
198		-21.484375
199		-17.578125
200		-19.531250
201		-15.625000
202		-17.578125
203		-11.718750
204		-13.671875
205		-9.765625
206		-11.718750
207		-7.812500
208		-9.765625
209		-3.906250
210		-5.859375
211		-1.953125
212		-3.906250
213		1.953125
214		0.000000
215		3.906250
216		1.953125
217		5.859375
218		3.906250
219		7.812500
220		7.812500
221		11.718750
222		9.765625
223		15.625000
224		13.671875
225		17.578125
226		15.625000
227		19.531250
228		17.578125
229		21.484375
230		21.484375
231		25.390625
232		23.437500
233		27.343750
234		25.390625
235		31.250000
236		29.296875
237		33.203125
238		31.250000
239		35.156250
240		33.203125
241		37.109375
242		35.156250
243		39.062500
244		37.109375
245		42.968750
246		39.062500
247		42.968750
248		41.015625
249		44.921875
250		42.968750
251		46.875000
252		44.921875
253		48.828125
254		46.875000
255		50.781250
256		48.828125
257		52.734375
258		50.781250
259		54.687500
260		50.781250
261		54.687500
262		52.734375
263		56.640625
264		54.687500
265		58.593750
266		54.687500
267		58.593750
268		56.640625
269		60.546875
270		58.593750
271		60.546875
272		58.593750
273		60.546875
274		58.593750
275		62.500000
276		58.593750
277		62.500000
278		58.593750
279		62.500000
280		60.546875
281		62.500000
282		60.546875
283		64.453125
284		60.546875
285		62.500000
286		58.593750
287		62.500000
288		60.546875
289		62.500000
290		58.593750
291		62.500000
292		58.593750
293		62.500000
294		58.593750
295		60.546875
296		56.640625
297		60.546875
298		56.640625
299		58.593750
300		54.687500
301		58.593750
302		54.687500
303		58.593750
304		52.734375
305		56.640625
306		48.828125
307		54.687500
308		48.828125
309		54.687500
310		48.828125
311		52.734375
312		46.875000
313		50.781250
314		44.921875
315		48.828125
316		42.968750
317		48.828125
318		41.015625
319		44.921875
320		39.062500
321		42.968750
322		37.109375
323		41.015625
324		35.156250
325		39.062500
326		33.203125
327		37.109375
328		29.296875
329		35.156250
330		27.343750
331		31.250000
332		25.390625
333		29.296875
334		23.437500
335		27.343750
336		19.531250
337		25.390625
338		17.578125
339		21.484375
340		13.671875
341		19.531250
342		11.718750
343		15.625000
344		9.765625
345		13.671875
346		5.859375
347		9.765625
348		3.906250
349		7.812500
350		0.000000
351		5.859375
352		-1.953125
353		1.953125
354		-3.906250
355		0.000000
356		-7.812500
357		-1.953125
358		-9.765625
359		-5.859375
360		-13.671875
361		-7.812500
362		-15.625000
363		-11.718750
364		-19.531250
365		-13.671875
366		-19.531250
367		-15.625000
368		-23.437500
369		-17.578125
370		-25.390625
371		-21.484375
372		-27.343750
373		-23.437500
374		-31.250000
375		-25.390625
376		-33.203125
377		-27.343750
378		-33.203125
379		-29.296875
380		-37.109375
381		-31.250000
382		-37.109375
383		-33.203125
384		-39.062500
385		-35.156250
386		-41.015625
387		-37.109375
388		-42.968750
389		-39.062500
390		-44.921875
391		-41.015625
392		-44.921875
393		-41.015625
394		-46.875000
395		-42.968750
396		-46.875000
397		-44.921875
398		-48.828125
399		-44.921875
400		-48.828125
401		-44.921875
402		-50.781250
403		-44.921875
404		-48.828125
405		-46.875000
406		-50.781250
407		-46.875000
408		-50.781250
409		-46.875000
410		-50.781250
411		-46.875000
412		-50.781250
413		-46.875000
414		-48.828125
415		-46.875000
416		-48.828125
417		-44.921875
418		-48.828125
419		-44.921875
420		-48.828125
421		-44.921875
422		-46.875000
423		-42.968750
424		-44.921875
425		-41.015625
426		-44.921875
427		-41.015625
428		-42.968750
429		-39.062500
430		-41.015625
431		-39.062500
432		-41.015625
433		-37.109375
434		-39.062500
435		-35.156250
436		-37.109375
437		-33.203125
438		-35.156250
439		-31.250000
440		-33.203125
441		-29.296875
442		-31.250000
443		-27.343750
444		-29.296875
445		-23.437500
446		-27.343750
447		-21.484375
448		-23.437500
449		-19.531250
450		-21.484375
451		-17.578125
452		-19.531250
453		-13.671875
454		-17.578125
455		-11.718750
456		-13.671875
457		-9.765625
458		-11.718750
459		-5.859375
460		-7.812500
461		-3.906250
462		-7.812500
463		-1.953125
464		-3.906250
465		1.953125
466		0.000000
467		3.906250
468		1.953125
469		7.812500
470		5.859375
471		9.765625
472		7.812500
473		11.718750
474		9.765625
475		15.625000
476		11.718750
477		17.578125
478		15.625000
479		19.531250
480		17.578125
481		23.437500
482		21.484375
483		25.390625
484		23.437500
485		29.296875
486		27.343750
487		31.250000
488		29.296875
489		33.203125
490		31.250000
491		35.156250
492		33.203125
493		37.109375
494		35.156250
495		39.062500
496		37.109375
497		42.968750
498		41.015625
499		44.921875
500		42.968750
501		46.875000
502		42.968750
503		46.875000
504		44.921875
505		48.828125
506		46.875000
507		50.781250
508		48.828125
509		52.734375
510		50.781250
511		54.687500
512		52.734375
513		54.687500
514		52.734375
515		56.640625
516		54.687500
517		58.593750
518		56.640625
519		58.593750
520		56.640625
521		60.546875
522		58.593750
523		60.546875
524		58.593750
525		60.546875
526		58.593750
527		62.500000
528		58.593750
529		62.500000
530		60.546875
531		62.500000
532		58.593750
533		62.500000
534		58.593750
535		62.500000
536		60.546875
537		62.500000
538		58.593750
539		64.453125
540		60.546875
541		62.500000
542		58.593750
543		62.500000
544		58.593750
545		62.500000
546		58.593750
547		60.546875
548		56.640625
549		60.546875
550		54.687500
551		58.593750
552		54.687500
553		58.593750
554		52.734375
555		58.593750
556		52.734375
557		56.640625
558		50.781250
559		54.687500
560		50.781250
561		54.687500
562		48.828125
563		52.734375
564		46.875000
565		50.781250
566		44.921875
567		48.828125
568		41.015625
569		46.875000
570		39.062500
571		44.921875
572		39.062500
573		42.968750
574		37.109375
575		41.015625
576		33.203125
577		37.109375
578		31.250000
579		37.109375
580		29.296875
581		33.203125
582		27.343750
583		31.250000
584		23.437500
585		29.296875
586		21.484375
587		27.343750
588		19.531250
589		23.437500
590		17.578125
591		21.484375
592		11.718750
593		17.578125
594		9.765625
595		15.625000
596		7.812500
597		11.718750
598		5.859375
599		9.765625
600		1.953125
601		7.812500
602		0.000000
603		3.906250
604		-1.953125
605		1.953125
606		-5.859375
607		-1.953125
608		-7.812500
609		-3.906250
610		-11.718750
611		-5.859375
612		-13.671875
613		-9.765625
614		-15.625000
615		-11.718750
616		-19.531250
617		-13.671875
618		-21.484375
619		-17.578125
620		-23.437500
621		-19.531250
622		-25.390625
623		-21.484375
624		-29.296875
625		-25.390625
626		-31.250000
627		-27.343750
628		-33.203125
629		-29.296875
630		-35.156250
631		-31.250000
632		-37.109375
633		-33.203125
634		-39.062500
635		-33.203125
636		-41.015625
637		-37.109375
638		-42.968750
639		-37.109375
640		-42.968750
641		-41.015625
642		-44.921875
643		-41.015625
644		-46.875000
645		-41.015625
646		-46.875000
647		-42.968750
648		-46.875000
649		-44.921875
650		-48.828125
651		-44.921875
652		-48.828125
653		-44.921875
654		-50.781250
655		-46.875000
656		-50.781250
657		-46.875000
658		-48.828125
659		-46.875000
660		-50.781250
661		-46.875000
662		-50.781250
663		-46.875000
664		-48.828125
665		-46.875000
666		-48.828125
667		-46.875000
668		-48.828125
669		-44.921875
670		-48.828125
671		-44.921875
672		-48.828125
673		-44.921875
674		-46.875000
675		-42.968750
676		-46.875000
677		-41.015625
678		-44.921875
679		-41.015625
680		-42.968750
681		-39.062500
682		-41.015625
683		-39.062500
684		-39.062500
685		-37.109375
686		-39.062500
687		-35.156250
688		-37.109375
689		-33.203125
690		-35.156250
691		-31.250000
692		-33.203125
693		-29.296875
694		-31.250000
695		-25.390625
696		-27.343750
697		-25.390625
698		-27.343750
699		-21.484375
700		-23.437500
701		-19.531250
702		-21.484375
703		-17.578125
704		-19.531250
705		-13.671875
706		-17.578125
707		-11.718750
708		-13.671875
709		-9.765625
710		-11.718750
711		-5.859375
712		-7.812500
713		-3.906250
714		-5.859375
715		0.000000
716		-3.906250
717		1.953125
718		0.000000
719		3.906250
720		1.953125
721		7.812500
722		3.906250
723		9.765625
724		7.812500
725		11.718750
726		11.718750
727		15.625000
728		11.718750
729		17.578125
730		15.625000
731		21.484375
732		19.531250
733		23.437500
734		21.484375
735		27.343750
736		23.437500
737		27.343750
738		25.390625
739		31.250000
740		29.296875
741		33.203125
742		31.250000
743		35.156250
744		33.203125
745		37.109375
746		35.156250
747		41.015625
748		37.109375
749		41.015625
750		39.062500
751		44.921875
752		42.968750
753		44.921875
754		42.968750
755		48.828125
756		44.921875
757		48.828125
758		46.875000
759		50.781250
760		48.828125
761		52.734375
762		50.781250
763		54.687500
764		52.734375
765		56.640625
766		52.734375
767		56.640625
768		54.687500
769		56.640625
770		54.687500
771		58.593750
772		56.640625
773		60.546875
774		56.640625
775		60.546875
776		58.593750
777		60.546875
778		58.593750
779		62.500000
780		58.593750
781		60.546875
782		58.593750
783		62.500000
784		58.593750
785		62.500000
786		58.593750
787		62.500000
788		58.593750
789		62.500000
790		58.593750
791		62.500000
792		58.593750
793		60.546875
794		58.593750
795		60.546875
796		58.593750
797		60.546875
798		56.640625
799		60.546875
800		56.640625
801		60.546875
802		54.687500
803		58.593750
804		54.687500
805		58.593750
806		52.734375
807		56.640625
808		52.734375
809		54.687500
810		50.781250
811		52.734375
812		48.828125
813		52.734375
814		46.875000
815		50.781250
816		44.921875
817		48.828125
818		42.968750
819		46.875000
820		41.015625
821		44.921875
822		39.062500
823		42.968750
824		37.109375
825		41.015625
826		35.156250
827		39.062500
828		33.203125
829		37.109375
830		31.250000
831		35.156250
832		27.343750
833		33.203125
834		25.390625
835		29.296875
836		23.437500
837		27.343750
838		19.531250
839		25.390625
840		17.578125
841		21.484375
842		15.625000
843		19.531250
844		11.718750
845		15.625000
846		7.812500
847		13.671875
848		7.812500
849		11.718750
850		3.906250
851		9.765625
852		1.953125
853		5.859375
854		-1.953125
855		3.906250
856		-3.906250
857		0.000000
858		-5.859375
859		-1.953125
860		-9.765625
861		-5.859375
862		-11.718750
863		-7.812500
864		-15.625000
865		-11.718750
866		-17.578125
867		-13.671875
868		-19.531250
869		-15.625000
870		-23.437500
871		-17.578125
872		-25.390625
873		-21.484375
874		-27.343750
875		-23.437500
876		-29.296875
877		-25.390625
878		-33.203125
879		-27.343750
880		-33.203125
881		-29.296875
882		-35.156250
883		-31.250000
884		-37.109375
885		-33.203125
886		-39.062500
887		-35.156250
888		-41.015625
889		-37.109375
890		-42.968750
891		-37.109375
892		-44.921875
893		-41.015625
894		-44.921875
895		-42.968750
896		-46.875000
897		-42.968750
898		-46.875000
899		-42.968750
900		-46.875000
901		-44.921875
902		-48.828125
903		-46.875000
904		-50.781250
905		-46.875000
906		-50.781250
907		-46.875000
908		-50.781250
909		-46.875000
910		-50.781250
911		-48.828125
912		-50.781250
913		-46.875000
914		-50.781250
915		-46.875000
916		-50.781250
917		-46.875000
918		-48.828125
919		-46.875000
920		-48.828125
921		-46.875000
922		-48.828125
923		-44.921875
924		-48.828125
925		-42.968750
926		-46.875000
927		-42.968750
928		-44.921875
929		-42.968750
930		-44.921875
931		-41.015625
932		-42.968750
933		-39.062500
934		-42.968750
935		-37.109375
936		-39.062500
937		-37.109375
938		-39.062500
939		-33.203125
940		-37.109375
941		-31.250000
942		-33.203125
943		-31.250000
944		-31.250000
945		-27.343750
946		-31.250000
947		-25.390625
948		-27.343750
949		-23.437500
950		-27.343750
951		-21.484375
952		-23.437500
953		-19.531250
954		-21.484375
955		-15.625000
956		-17.578125
957		-13.671875
958		-15.625000
959		-11.718750
960		-13.671875
961		-9.765625
962		-9.765625
963		-5.859375
964		-7.812500
965		-3.906250
966		-3.906250
967		0.000000
968		-1.953125
969		1.953125
970		0.000000
971		5.859375
972		3.906250
973		7.812500
974		5.859375
975		9.765625
976		7.812500
977		13.671875
978		11.718750
979		15.625000
980		13.671875
981		19.531250
982		17.578125
983		21.484375
984		19.531250
985		23.437500
986		21.484375
987		27.343750
988		25.390625
989		29.296875
990		27.343750
991		31.250000
992		29.296875
993		33.203125
994		33.203125
995		35.156250
996		33.203125
997		39.062500
998		37.109375
999		41.015625
1000		39.062500
1001		42.968750
1002		41.015625
1003		44.921875
1004		42.968750
1005		46.875000
1006		44.921875
1007		48.828125
1008		46.875000
1009		50.781250
1010		48.828125
1011		50.781250
1012		48.828125
1013		54.687500
1014		50.781250
1015		54.687500
1016		52.734375
1017		56.640625
1018		52.734375
1019		56.640625
1020		54.687500
1021		58.593750
1022		56.640625
1023		60.546875
1024		56.640625
1025		60.546875
1026		58.593750
1027		60.546875
1028		58.593750
1029		60.546875
1030		58.593750
1031		62.500000
1032		58.593750
1033		62.500000
1034		58.593750
1035		62.500000
1036		58.593750
1037		62.500000
1038		58.593750
1039		62.500000
1040		58.593750
1041		62.500000
1042		58.593750
1043		62.500000
1044		60.546875
1045		62.500000
1046		58.593750
1047		62.500000
1048		58.593750
1049		60.546875
1050		56.640625
1051		60.546875
1052		56.640625
1053		58.593750
1054		54.687500
1055		58.593750
1056		54.687500
1057		58.593750
1058		52.734375
1059		56.640625
1060		52.734375
1061		54.687500
1062		50.781250
1063		52.734375
1064		48.828125
1065		52.734375
1066		46.875000
1067		50.781250
1068		44.921875
1069		48.828125
1070		42.968750
1071		46.875000
1072		41.015625
1073		44.921875
1074		39.062500
1075		42.968750
1076		37.109375
1077		42.968750
1078		35.156250
1079		39.062500
1080		31.250000
1081		37.109375
1082		31.250000
1083		35.156250
1084		27.343750
1085		33.203125
1086		25.390625
1087		29.296875
1088		23.437500
1089		27.343750
1090		19.531250
1091		25.390625
1092		17.578125
1093		21.484375
1094		15.625000
1095		19.531250
1096		11.718750
1097		15.625000
1098		9.765625
1099		13.671875
1100		5.859375
1101		11.718750
1102		3.906250
1103		7.812500
1104		1.953125
1105		5.859375
1106		-1.953125
1107		1.953125
1108		-5.859375
1109		0.000000
1110		-7.812500
1111		-3.906250
1112		-9.765625
1113		-5.859375
1114		-11.718750
1115		-7.812500
1116		-15.625000
1117		-9.765625
1118		-17.578125
1119		-13.671875
1120		-19.531250
1121		-15.625000
1122		-23.437500
1123		-19.531250
1124		-25.390625
1125		-19.531250
1126		-27.343750
1127		-23.437500
1128		-29.296875
1129		-25.390625
1130		-33.203125
1131		-27.343750
1132		-35.156250
1133		-29.296875
1134		-35.156250
1135		-31.250000
1136		-37.109375
1137		-33.203125
1138		-39.062500
1139		-35.156250
1140		-41.015625
1141		-37.109375
1142		-42.968750
1143		-39.062500
1144		-42.968750
1145		-41.015625
1146		-44.921875
1147		-42.968750
1148		-46.875000
1149		-42.968750
1150		-46.875000
1151		-44.921875
1152		-48.828125
1153		-44.921875
1154		-48.828125
1155		-46.875000
1156		-48.828125
1157		-46.875000
1158		-50.781250
1159		-46.875000
1160		-50.781250
1161		-46.875000
1162		-50.781250
1163		-46.875000
1164		-52.734375
1165		-46.875000
1166		-50.781250
1167		-46.875000
1168		-50.781250
1169		-46.875000
1170		-48.828125
1171		-46.875000
1172		-48.828125
1173		-44.921875
1174		-48.828125
1175		-44.921875
1176		-48.828125
1177		-42.968750
1178		-46.875000
1179		-42.968750
1180		-44.921875
1181		-42.968750
1182		-44.921875
1183		-41.015625
1184		-42.968750
1185		-39.062500
1186		-41.015625
1187		-37.109375
1188		-39.062500
1189		-35.156250
1190		-39.062500
1191		-33.203125
1192		-35.156250
1193		-31.250000
1194		-33.203125
1195		-29.296875
1196		-31.250000
1197		-27.343750
1198		-29.296875
1199		-25.390625
1200		-27.343750
1201		-23.437500
1202		-25.390625
1203		-21.484375
1204		-23.437500
1205		-17.578125
1206		-21.484375
1207		-15.625000
1208		-17.578125
1209		-13.671875
1210		-15.625000
1211		-11.718750
1212		-11.718750
1213		-7.812500
1214		-9.765625
1215		-3.906250
1216		-7.812500
1217		-1.953125
1218		-3.906250
1219		0.000000
1220		-1.953125
1221		1.953125
1222		1.953125
1223		5.859375
1224		3.906250
1225		7.812500
1226		5.859375
1227		11.718750
1228		9.765625
1229		13.671875
1230		11.718750
1231		15.625000
1232		13.671875
1233		19.531250
1234		17.578125
1235		21.484375
1236		19.531250
1237		25.390625
1238		23.437500
1239		27.343750
1240		25.390625
1241		29.296875
1242		27.343750
1243		33.203125
1244		29.296875
1245		35.156250
1246		33.203125
1247		37.109375
1248		35.156250
1249		39.062500
1250		37.109375
1251		41.015625
1252		39.062500
1253		42.968750
1254		41.015625
1255		44.921875
1256		42.968750
1257		46.875000
1258		44.921875
1259		48.828125
1260		46.875000
1261		50.781250
1262		48.828125
1263		52.734375
1264		50.781250
1265		52.734375
1266		50.781250
1267		54.687500
1268		52.734375
1269		56.640625
1270		54.687500
1271		58.593750
1272		54.687500
1273		58.593750
1274		56.640625
1275		60.546875
1276		56.640625
1277		60.546875
1278		56.640625
1279		60.546875
1280		58.593750
1281		60.546875
1282		58.593750
1283		62.500000
1284		58.593750
1285		62.500000
1286		58.593750
1287		62.500000
1288		60.546875
1289		62.500000
1290		60.546875
1291		62.500000
1292		58.593750
1293		62.500000
1294		58.593750
1295		62.500000
1296		58.593750
1297		60.546875
1298		56.640625
1299		60.546875
1300		56.640625
1301		60.546875
1302		56.640625
1303		60.546875
1304		56.640625
1305		58.593750
1306		54.687500
1307		58.593750
1308		52.734375
1309		58.593750
1310		52.734375
1311		56.640625
1312		50.781250
1313		54.687500
1314		48.828125
1315		52.734375
1316		46.875000
1317		52.734375
1318		46.875000
1319		50.781250
1320		44.921875
1321		48.828125
1322		42.968750
1323		46.875000
1324		41.015625
1325		44.921875
1326		39.062500
1327		42.968750
1328		37.109375
1329		41.015625
1330		35.156250
1331		37.109375
1332		31.250000
1333		35.156250
1334		29.296875
1335		33.203125
1336		27.343750
1337		31.250000
1338		25.390625
1339		29.296875
1340		21.484375
1341		27.343750
1342		19.531250
1343		23.437500
1344		17.578125
1345		21.484375
1346		13.671875
1347		19.531250
1348		11.718750
1349		15.625000
1350		9.765625
1351		13.671875
1352		5.859375
1353		11.718750
1354		3.906250
1355		7.812500
1356		0.000000
1357		3.906250
1358		-1.953125
1359		1.953125
1360		-5.859375
1361		0.000000
1362		-7.812500
1363		-1.953125
1364		-9.765625
1365		-5.859375
1366		-13.671875
1367		-9.765625
1368		-17.578125
1369		-11.718750
1370		-17.578125
1371		-13.671875
1372		-21.484375
1373		-15.625000
1374		-23.437500
1375		-19.531250
1376		-25.390625
1377		-21.484375
1378		-27.343750
1379		-23.437500
1380		-29.296875
1381		-27.343750
1382		-33.203125
1383		-29.296875
1384		-37.109375
1385		-29.296875
1386		-37.109375
1387		-31.250000
1388		-39.062500
1389		-33.203125
1390		-41.015625
1391		-35.156250
1392		-41.015625
1393		-37.109375
1394		-44.921875
1395		-39.062500
1396		-44.921875
1397		-41.015625
1398		-46.875000
1399		-42.968750
1400		-46.875000
1401		-42.968750
1402		-48.828125
1403		-42.968750
1404		-48.828125
1405		-44.921875
1406		-48.828125
1407		-46.875000
1408		-50.781250
1409		-44.921875
1410		-50.781250
1411		-46.875000
1412		-50.781250
1413		-46.875000
1414		-50.781250
1415		-48.828125
1416		-50.781250
1417		-46.875000
1418		-52.734375
1419		-44.921875
1420		-52.734375
1421		-44.921875
1422		-50.781250
1423		-44.921875
1424		-48.828125
1425		-44.921875
1426		-48.828125
1427		-42.968750
1428		-46.875000
1429		-42.968750
1430		-44.921875
1431		-42.968750
1432		-44.921875
1433		-41.015625
1434		-44.921875
1435		-39.062500
1436		-42.968750
1437		-37.109375
1438		-42.968750
1439		-35.156250
1440		-39.062500
1441		-33.203125
1442		-37.109375
1443		-33.203125
1444		-37.109375
1445		-31.250000
1446		-33.203125
1447		-29.296875
1448		-31.250000
1449		-27.343750
1450		-29.296875
1451		-23.437500
1452		-29.296875
1453		-19.531250
1454		-27.343750
1455		-17.578125
1456		-23.437500
1457		-15.625000
1458		-21.484375
1459		-13.671875
1460		-17.578125
1461		-11.718750
1462		-15.625000
1463		-9.765625
1464		-11.718750
1465		-5.859375
1466		-9.765625
1467		-1.953125
1468		-7.812500
1469		0.000000
1470		-5.859375
1471		1.953125
1472		-1.953125
1473		5.859375
1474		0.000000
1475		9.765625
1476		1.953125
1477		9.765625
1478		5.859375
1479		13.671875
1480		9.765625
1481		13.671875
1482		13.671875
1483		17.578125
1484		13.671875
1485		21.484375
1486		15.625000
1487		25.390625
1488		19.531250
1489		27.343750
1490		21.484375
1491		29.296875
1492		23.437500
1493		31.250000
1494		27.343750
1495		35.156250
1496		29.296875
1497		35.156250
1498		33.203125
1499		37.109375
1500		35.156250
1501		42.968750
1502		35.156250
1503		42.968750
1504		37.109375
1505		46.875000
1506		41.015625
1507		48.828125
1508		41.015625
1509		50.781250
1510		42.968750
1511		50.781250
1512		44.921875
1513		52.734375
1514		48.828125
1515		52.734375
1516		50.781250
1517		52.734375
1518		50.781250
1519		56.640625
1520		50.781250
1521		58.593750
1522		52.734375
1523		58.593750
1524		52.734375
1525		60.546875
1526		54.687500
1527		62.500000
1528		54.687500
1529		62.500000
1530		56.640625
1531		60.546875
1532		58.593750
1533		60.546875
1534		56.640625
1535		64.453125
1536		56.640625
1537		64.453125
1538		58.593750
1539		64.453125
1540		58.593750
1541		64.453125
1542		58.593750
1543		64.453125
1544		56.640625
1545		64.453125
1546		56.640625
1547		64.453125
1548		58.593750
1549		60.546875
1550		56.640625
1551		60.546875
1552		54.687500
1553		62.500000
1554		54.687500
1555		62.500000
1556		52.734375
1557		60.546875
1558		52.734375
1559		60.546875
1560		50.781250
1561		58.593750
1562		50.781250
1563		56.640625
1564		50.781250
1565		54.687500
1566		48.828125
1567		52.734375
1568		44.921875
1569		52.734375
1570		44.921875
1571		52.734375
1572		41.015625
1573		50.781250
1574		41.015625
1575		48.828125
1576		37.109375
1577		44.921875
1578		37.109375
1579		42.968750
1580		35.156250
1581		42.968750
1582		33.203125
1583		37.109375
1584		29.296875
1585		35.156250
1586		27.343750
1587		35.156250
1588		23.437500
1589		33.203125
1590		21.484375
1591		31.250000
1592		19.531250
1593		27.343750
1594		15.625000
1595		25.390625
1596		13.671875
1597		23.437500
1598		13.671875
1599		17.578125
1600		11.718750
1601		15.625000
1602		5.859375
1603		13.671875
1604		3.906250
1605		11.718750
1606		0.000000
1607		7.812500
1608		-3.906250
1609		5.859375
1610		-5.859375
1611		3.906250
1612		-9.765625
1613		0.000000
1614		-7.812500
1615		-3.906250
1616		-11.718750
1617		-7.812500
1618		-15.625000
1619		-9.765625
1620		-19.531250
1621		-9.765625
1622		-21.484375
1623		-11.718750
1624		-23.437500
1625		-15.625000
1626		-25.390625
1627		-17.578125
1628		-29.296875
1629		-21.484375
1630		-29.296875
1631		-23.437500
1632		-31.250000
1633		-27.343750
1634		-35.156250
1635		-29.296875
1636		-37.109375
1637		-29.296875
1638		-41.015625
1639		-31.250000
1640		-41.015625
1641		-33.203125
1642		-42.968750
1643		-35.156250
1644		-44.921875
1645		-37.109375
1646		-44.921875
1647		-39.062500
1648		-44.921875
1649		-41.015625
1650		-44.921875
1651		-42.968750
1652		-48.828125
1653		-42.968750
1654		-50.781250
1655		-42.968750
1656		-50.781250
1657		-42.968750
1658		-52.734375
1659		-42.968750
1660		-52.734375
1661		-44.921875
1662		-52.734375
1663		-44.921875
1664		-52.734375
1665		-46.875000
1666		-50.781250
1667		-48.828125
1668		-52.734375
1669		-46.875000
1670		-52.734375
1671		-44.921875
1672		-52.734375
1673		-44.921875
1674		-52.734375
1675		-44.921875
1676		-50.781250
1677		-42.968750
1678		-50.781250
1679		-42.968750
1680		-48.828125
1681		-42.968750
1682		-46.875000
1683		-42.968750
1684		-44.921875
1685		-41.015625
1686		-44.921875
1687		-37.109375
1688		-44.921875
1689		-37.109375
1690		-42.968750
1691		-35.156250
1692		-41.015625
1693		-33.203125
1694		-39.062500
1695		-31.250000
1696		-37.109375
1697		-29.296875
1698		-33.203125
1699		-29.296875
1700		-31.250000
1701		-27.343750
1702		-29.296875
1703		-23.437500
1704		-27.343750
1705		-21.484375
1706		-25.390625
1707		-19.531250
1708		-23.437500
1709		-15.625000
1710		-21.484375
1711		-13.671875
1712		-17.578125
1713		-11.718750
1714		-15.625000
1715		-9.765625
1716		-11.718750
1717		-7.812500
1718		-7.812500
1719		-3.906250
1720		-7.812500
1721		0.000000
1722		-5.859375
1723		1.953125
1724		-1.953125
1725		5.859375
1726		0.000000
1727		7.812500
1728		3.906250
1729		11.718750
1730		5.859375
1731		13.671875
1732		9.765625
1733		15.625000
1734		13.671875
1735		17.578125
1736		15.625000
1737		21.484375
1738		17.578125
1739		25.390625
1740		17.578125
1741		27.343750
1742		21.484375
1743		31.250000
1744		23.437500
1745		33.203125
1746		25.390625
1747		35.156250
1748		29.296875
1749		35.156250
1750		33.203125
1751		37.109375
1752		35.156250
1753		41.015625
1754		35.156250
1755		42.968750
1756		39.062500
1757		44.921875
1758		39.062500
1759		46.875000
1760		41.015625
1761		48.828125
1762		42.968750
1763		50.781250
1764		44.921875
1765		52.734375
1766		48.828125
1767		52.734375
1768		50.781250
1769		52.734375
1770		50.781250
1771		56.640625
1772		50.781250
1773		58.593750
1774		52.734375
1775		60.546875
1776		52.734375
1777		60.546875
1778		54.687500
1779		62.500000
1780		54.687500
1781		62.500000
1782		56.640625
1783		62.500000
1784		58.593750
1785		60.546875
1786		56.640625
1787		64.453125
1788		56.640625
1789		64.453125
1790		56.640625
1791		64.453125
1792		56.640625
1793		64.453125
1794		56.640625
1795		64.453125
1796		56.640625
1797		64.453125
1798		56.640625
1799		64.453125
1800		58.593750
1801		60.546875
1802		58.593750
1803		60.546875
1804		54.687500
1805		62.500000
1806		54.687500
1807		62.500000
1808		52.734375
1809		60.546875
1810		52.734375
1811		60.546875
1812		50.781250
1813		58.593750
1814		48.828125
1815		56.640625
1816		50.781250
1817		54.687500
1818		48.828125
1819		52.734375
1820		44.921875
1821		52.734375
1822		42.968750
1823		50.781250
1824		42.968750
1825		48.828125
1826		39.062500
1827		46.875000
1828		37.109375
1829		44.921875
1830		35.156250
1831		42.968750
1832		35.156250
1833		42.968750
1834		33.203125
1835		37.109375
1836		29.296875
1837		35.156250
1838		25.390625
1839		35.156250
1840		23.437500
1841		33.203125
1842		21.484375
1843		29.296875
1844		19.531250
1845		27.343750
1846		15.625000
1847		25.390625
1848		13.671875
1849		21.484375
1850		13.671875
1851		17.578125
1852		9.765625
1853		13.671875
1854		5.859375
1855		13.671875
1856		1.953125
1857		9.765625
1858		0.000000
1859		7.812500
1860		-3.906250
1861		5.859375
1862		-5.859375
1863		1.953125
1864		-9.765625
1865		0.000000
1866		-9.765625
1867		-1.953125
1868		-11.718750
1869		-7.812500
1870		-17.578125
1871		-9.765625
1872		-19.531250
1873		-11.718750
1874		-21.484375
1875		-13.671875
1876		-23.437500
1877		-15.625000
1878		-27.343750
1879		-19.531250
1880		-29.296875
1881		-19.531250
1882		-31.250000
1883		-21.484375
1884		-31.250000
1885		-27.343750
1886		-33.203125
1887		-29.296875
1888		-37.109375
1889		-29.296875
1890		-39.062500
1891		-31.250000
1892		-41.015625
1893		-33.203125
1894		-42.968750
1895		-35.156250
1896		-44.921875
1897		-37.109375
1898		-46.875000
1899		-37.109375
1900		-44.921875
1901		-41.015625
1902		-46.875000
1903		-42.968750
1904		-48.828125
1905		-42.968750
1906		-50.781250
1907		-42.968750
1908		-50.781250
1909		-44.921875
1910		-50.781250
1911		-44.921875
1912		-52.734375
1913		-44.921875
1914		-52.734375
1915		-44.921875
1916		-52.734375
1917		-44.921875
1918		-50.781250
1919		-46.875000
1920		-50.781250
1921		-44.921875
1922		-52.734375
1923		-44.921875
1924		-52.734375
1925		-44.921875
1926		-50.781250
1927		-42.968750
1928		-50.781250
1929		-42.968750
1930		-50.781250
1931		-42.968750
1932		-48.828125
1933		-41.015625
1934		-44.921875
1935		-42.968750
1936		-42.968750
1937		-41.015625
1938		-44.921875
1939		-37.109375
1940		-42.968750
1941		-35.156250
1942		-42.968750
1943		-35.156250
1944		-39.062500
1945		-33.203125
1946		-39.062500
1947		-31.250000
1948		-37.109375
1949		-29.296875
1950		-33.203125
1951		-27.343750
1952		-29.296875
1953		-27.343750
1954		-29.296875
1955		-21.484375
1956		-27.343750
1957		-19.531250
1958		-25.390625
1959		-17.578125
1960		-23.437500
1961		-13.671875
1962		-19.531250
1963		-11.718750
1964		-17.578125
1965		-9.765625
1966		-15.625000
1967		-5.859375
1968		-9.765625
1969		-5.859375
1970		-7.812500
1971		-3.906250
1972		-7.812500
1973		1.953125
1974		-3.906250
1975		3.906250
1976		-1.953125
1977		7.812500
1978		0.000000
1979		9.765625
1980		3.906250
1981		11.718750
1982		5.859375
1983		15.625000
1984		9.765625
1985		15.625000
1986		13.671875
1987		17.578125
1988		17.578125
1989		23.437500
1990		17.578125
1991		25.390625
1992		19.531250
1993		29.296875
1994		21.484375
1995		31.250000
1996		25.390625
1997		33.203125
1998		27.343750
1999		35.156250
2000		31.250000
2001		37.109375
2002		35.156250
2003		39.062500
2004		37.109375
2005		42.968750
2006		37.109375
2007		44.921875
2008		39.062500
2009		46.875000
2010		41.015625
2011		48.828125
2012		42.968750
2013		50.781250
2014		44.921875
2015		52.734375
2016		46.875000
2017		52.734375
2018		48.828125
2019		52.734375
2020		50.781250
2021		54.687500
2022		50.781250
2023		56.640625
2024		50.781250
2025		58.593750
2026		52.734375
2027		60.546875
2028		54.687500
2029		60.546875
2030		54.687500
2031		62.500000
2032		54.687500
2033		62.500000
2034		56.640625
2035		62.500000
2036		58.593750
2037		62.500000
2038		58.593750
2039		64.453125
2040		56.640625
2041		64.453125
2042		56.640625
2043		64.453125
2044		58.593750
2045		64.453125
2046		58.593750
2047		64.453125
2048		56.640625
2049		64.453125
2050		56.640625
2051		64.453125
2052		58.593750
2053		60.546875
2054		56.640625
2055		62.500000
2056		54.687500
2057		62.500000
2058		54.687500
2059		62.500000
2060		52.734375
2061		60.546875
2062		52.734375
2063		58.593750
2064		50.781250
2065		58.593750
2066		48.828125
2067		56.640625
2068		50.781250
2069		56.640625
2070		48.828125
2071		52.734375
2072		44.921875
2073		52.734375
2074		42.968750
2075		50.781250
2076		41.015625
2077		48.828125
2078		39.062500
2079		46.875000
2080		37.109375
2081		44.921875
2082		35.156250
2083		42.968750
2084		33.203125
2085		41.015625
2086		33.203125
2087		37.109375
2088		27.343750
2089		35.156250
2090		25.390625
2091		33.203125
2092		23.437500
2093		31.250000
2094		21.484375
2095		29.296875
2096		17.578125
2097		27.343750
2098		13.671875
2099		23.437500
2100		11.718750
2101		21.484375
2102		11.718750
2103		17.578125
2104		9.765625
2105		13.671875
2106		3.906250
2107		11.718750
2108		1.953125
2109		9.765625
2110		-1.953125
2111		7.812500
2112		-3.906250
2113		5.859375
2114		-7.812500
2115		1.953125
2116		-9.765625
2117		-1.953125
2118		-9.765625
2119		-3.906250
2120		-11.718750
2121		-7.812500
2122		-17.578125
2123		-9.765625
2124		-19.531250
2125		-11.718750
2126		-23.437500
2127		-13.671875
2128		-25.390625
2129		-15.625000
2130		-27.343750
2131		-19.531250
2132		-29.296875
2133		-21.484375
2134		-31.250000
2135		-23.437500
2136		-31.250000
2137		-27.343750
2138		-33.203125
2139		-29.296875
2140		-37.109375
2141		-31.250000
2142		-41.015625
2143		-31.250000
2144		-41.015625
2145		-33.203125
2146		-44.921875
2147		-35.156250
2148		-44.921875
2149		-37.109375
2150		-46.875000
2151		-39.062500
2152		-46.875000
2153		-41.015625
2154		-46.875000
2155		-42.968750
2156		-48.828125
2157		-42.968750
2158		-50.781250
2159		-42.968750
2160		-50.781250
2161		-42.968750
2162		-50.781250
2163		-44.921875
2164		-52.734375
2165		-44.921875
2166		-52.734375
2167		-44.921875
2168		-52.734375
2169		-44.921875
2170		-50.781250
2171		-48.828125
2172		-52.734375
2173		-46.875000
2174		-52.734375
2175		-44.921875
2176		-52.734375
2177		-44.921875
2178		-50.781250
2179		-44.921875
2180		-50.781250
2181		-42.968750
2182		-48.828125
2183		-42.968750
2184		-48.828125
2185		-41.015625
2186		-46.875000
2187		-41.015625
2188		-42.968750
2189		-41.015625
2190		-44.921875
2191		-37.109375
2192		-42.968750
2193		-35.156250
2194		-41.015625
2195		-33.203125
2196		-39.062500
2197		-31.250000
2198		-39.062500
2199		-29.296875
2200		-37.109375
2201		-27.343750
2202		-35.156250
2203		-27.343750
2204		-29.296875
2205		-25.390625
2206		-27.343750
2207		-21.484375
2208		-27.343750
2209		-19.531250
2210		-25.390625
2211		-17.578125
2212		-21.484375
2213		-13.671875
2214		-19.531250
2215		-11.718750
2216		-17.578125
2217		-9.765625
2218		-15.625000
2219		-7.812500
2220		-9.765625
2221		-5.859375
2222		-7.812500
2223		-1.953125
2224		-5.859375
2225		1.953125
2226		-3.906250
2227		3.906250
2228		-1.953125
2229		7.812500
2230		1.953125
2231		9.765625
2232		3.906250
2233		13.671875
2234		7.812500
2235		15.625000
2236		9.765625
2237		15.625000
2238		15.625000
2239		19.531250
2240		15.625000
2241		23.437500
2242		17.578125
2243		25.390625
2244		19.531250
2245		29.296875
2246		23.437500
2247		31.250000
2248		25.390625
2249		33.203125
2250		27.343750
2251		37.109375
2252		31.250000
2253		37.109375
2254		35.156250
2255		39.062500
2256		37.109375
2257		42.968750
2258		37.109375
2259		44.921875
2260		39.062500
2261		48.828125
2262		41.015625
2263		48.828125
2264		42.968750
2265		50.781250
2266		44.921875
2267		52.734375
2268		46.875000
2269		54.687500
2270		50.781250
2271		52.734375
2272		50.781250
2273		54.687500
2274		50.781250
2275		58.593750
2276		50.781250
2277		58.593750
2278		52.734375
2279		60.546875
2280		52.734375
2281		60.546875
2282		54.687500
2283		62.500000
2284		54.687500
2285		62.500000
2286		54.687500
2287		62.500000
2288		58.593750
2289		60.546875
2290		56.640625
2291		62.500000
2292		56.640625
2293		64.453125
2294		56.640625
2295		64.453125
2296		58.593750
2297		64.453125
2298		56.640625
2299		64.453125
2300		56.640625
2301		64.453125
2302		56.640625
2303		62.500000
2304		58.593750
2305		60.546875
2306		58.593750
2307		60.546875
2308		54.687500
2309		62.500000
2310		52.734375
2311		60.546875
2312		52.734375
2313		60.546875
2314		50.781250
2315		58.593750
2316		50.781250
2317		58.593750
2318		48.828125
2319		56.640625
2320		48.828125
2321		54.687500
2322		48.828125
2323		50.781250
2324		44.921875
2325		50.781250
2326		42.968750
2327		50.781250
2328		41.015625
2329		48.828125
2330		39.062500
2331		46.875000
2332		37.109375
2333		44.921875
2334		35.156250
2335		42.968750
2336		33.203125
2337		41.015625
2338		31.250000
2339		35.156250
2340		29.296875
2341		33.203125
2342		25.390625
2343		33.203125
2344		21.484375
2345		31.250000
2346		19.531250
2347		27.343750
2348		15.625000
2349		25.390625
2350		15.625000
2351		23.437500
2352		11.718750
2353		21.484375
2354		11.718750
2355		15.625000
2356		9.765625
2357		11.718750
2358		3.906250
2359		11.718750
2360		1.953125
2361		9.765625
2362		-1.953125
2363		5.859375
2364		-5.859375
2365		3.906250
2366		-7.812500
2367		1.953125
2368		-11.718750
2369		-1.953125
2370		-11.718750
2371		-3.906250
2372		-13.671875
2373		-9.765625
2374		-19.531250
2375		-11.718750
2376		-21.484375
2377		-11.718750
2378		-23.437500
2379		-15.625000
2380		-25.390625
2381		-17.578125
2382		-27.343750
2383		-19.531250
2384		-31.250000
2385		-21.484375
2386		-33.203125
2387		-25.390625
2388		-31.250000
2389		-29.296875
2390		-35.156250
2391		-31.250000
2392		-39.062500
2393		-31.250000
2394		-41.015625
2395		-33.203125
2396		-41.015625
2397		-33.203125
2398		-44.921875
2399		-37.109375
2400		-44.921875
2401		-37.109375
2402		-46.875000
2403		-39.062500
2404		-46.875000
2405		-41.015625
2406		-46.875000
2407		-42.968750
2408		-50.781250
2409		-42.968750
2410		-50.781250
2411		-42.968750
2412		-50.781250
2413		-42.968750
2414		-50.781250
2415		-44.921875
2416		-52.734375
2417		-44.921875
2418		-52.734375
2419		-44.921875
2420		-52.734375
2421		-44.921875
2422		-50.781250
2423		-48.828125
2424		-50.781250
2425		-46.875000
2426		-52.734375
2427		-44.921875
2428		-50.781250
2429		-44.921875
2430		-50.781250
2431		-42.968750
2432		-50.781250
2433		-42.968750
2434		-48.828125
2435		-41.015625
2436		-48.828125
2437		-41.015625
2438		-44.921875
2439		-41.015625
2440		-42.968750
2441		-41.015625
2442		-42.968750
2443		-37.109375
2444		-42.968750
2445		-35.156250
2446		-41.015625
2447		-33.203125
2448		-39.062500
2449		-31.250000
2450		-37.109375
2451		-29.296875
2452		-35.156250
2453		-27.343750
2454		-33.203125
2455		-27.343750
2456		-29.296875
2457		-25.390625
2458		-27.343750
2459		-19.531250
2460		-25.390625
2461		-17.578125
2462		-23.437500
2463		-15.625000
2464		-21.484375
2465		-13.671875
2466		-19.531250
2467		-11.718750
2468		-15.625000
2469		-7.812500
2470		-13.671875
2471		-5.859375
2472		-9.765625
2473		-5.859375
2474		-5.859375
2475		-1.953125
2476		-5.859375
2477		1.953125
2478		-1.953125
2479		5.859375
2480		0.000000
2481		9.765625
2482		1.953125
2483		11.718750
2484		5.859375
2485		13.671875
2486		7.812500
2487		17.578125
2488		11.718750
2489		17.578125
2490		15.625000
2491		19.531250
2492		17.578125
2493		25.390625
2494		19.531250
2495		27.343750
2496		21.484375
2497		29.296875
2498		23.437500
2499		31.250000
2500		25.390625
2501		35.156250
2502		29.296875
2503		37.109375
2504		31.250000
2505		39.062500
2506		35.156250
2507		39.062500
2508		37.109375
2509		41.015625
2510		37.109375
2511		44.921875
2512		39.062500
2513		46.875000
2514		42.968750
2515		50.781250
2516		42.968750
2517		50.781250
2518		44.921875
2519		52.734375
2520		46.875000
2521		54.687500
2522		48.828125
2523		54.687500
2524		52.734375
2525		54.687500
2526		50.781250
2527		58.593750
2528		52.734375
2529		58.593750
2530		52.734375
2531		60.546875
2532		54.687500
2533		62.500000
2534		54.687500
2535		62.500000
2536		54.687500
2537		62.500000
2538		56.640625
2539		62.500000
2540		60.546875
2541		62.500000
2542		58.593750
2543		62.500000
2544		58.593750
2545		64.453125
2546		56.640625
2547		64.453125
2548		56.640625
2549		64.453125
2550		56.640625
2551		64.453125
2552		56.640625
2553		64.453125
2554		56.640625
2555		64.453125
2556		58.593750
2557		60.546875
2558		58.593750
2559		60.546875
2560		54.687500
2561		62.500000
2562		54.687500
2563		60.546875
2564		52.734375
2565		60.546875
2566		50.781250
2567		58.593750
2568		50.781250
2569		58.593750
2570		48.828125
2571		56.640625
2572		48.828125
2573		54.687500
2574		48.828125
2575		50.781250
2576		42.968750
2577		50.781250
2578		41.015625
2579		50.781250
2580		41.015625
2581		48.828125
2582		37.109375
2583		46.875000
2584		37.109375
2585		44.921875
2586		35.156250
2587		42.968750
2588		33.203125
2589		41.015625
2590		31.250000
2591		35.156250
2592		29.296875
2593		33.203125
2594		25.390625
2595		33.203125
2596		21.484375
2597		31.250000
2598		19.531250
2599		27.343750
2600		17.578125
2601		25.390625
2602		13.671875
2603		21.484375
2604		11.718750
2605		19.531250
2606		9.765625
2607		17.578125
2608		7.812500
2609		11.718750
2610		1.953125
2611		9.765625
2612		0.000000
2613		7.812500
2614		-3.906250
2615		5.859375
2616		-5.859375
2617		3.906250
2618		-7.812500
2619		0.000000
2620		-11.718750
2621		-1.953125
2622		-11.718750
2623		-3.906250
2624		-13.671875
2625		-9.765625
2626		-17.578125
2627		-11.718750
2628		-21.484375
2629		-11.718750
2630		-23.437500
2631		-15.625000
2632		-25.390625
2633		-17.578125
2634		-29.296875
2635		-19.531250
2636		-31.250000
2637		-21.484375
2638		-33.203125
2639		-25.390625
2640		-33.203125
2641		-29.296875
2642		-35.156250
2643		-31.250000
2644		-39.062500
2645		-31.250000
2646		-41.015625
2647		-33.203125
2648		-42.968750
2649		-35.156250
2650		-44.921875
2651		-37.109375
2652		-44.921875
2653		-37.109375
2654		-46.875000
2655		-39.062500
2656		-46.875000
2657		-41.015625
2658		-46.875000
2659		-44.921875
2660		-48.828125
2661		-44.921875
2662		-50.781250
2663		-42.968750
2664		-50.781250
2665		-44.921875
2666		-52.734375
2667		-44.921875
2668		-52.734375
2669		-44.921875
2670		-52.734375
2671		-44.921875
2672		-52.734375
2673		-46.875000
2674		-50.781250
2675		-48.828125
2676		-48.828125
2677		-46.875000
2678		-50.781250
2679		-44.921875
2680		-50.781250
2681		-44.921875
2682		-50.781250
2683		-42.968750
2684		-50.781250
2685		-42.968750
2686		-48.828125
2687		-41.015625
2688		-48.828125
2689		-41.015625
2690		-46.875000
2691		-41.015625
2692		-42.968750
2693		-41.015625
2694		-42.968750
2695		-35.156250
2696		-42.968750
2697		-35.156250
2698		-41.015625
2699		-33.203125
2700		-39.062500
2701		-31.250000
2702		-37.109375
2703		-29.296875
2704		-35.156250
2705		-27.343750
2706		-33.203125
2707		-25.390625
2708		-29.296875
2709		-25.390625
2710		-25.390625
2711		-21.484375
2712		-25.390625
2713		-17.578125
2714		-25.390625
2715		-15.625000
2716		-21.484375
2717		-11.718750
2718		-19.531250
2719		-9.765625
2720		-15.625000
2721		-7.812500
2722		-13.671875
2723		-5.859375
2724		-7.812500
2725		-3.906250
2726		-5.859375
2727		-1.953125
2728		-3.906250
2729		3.906250
2730		-1.953125
2731		5.859375
2732		0.000000
2733		7.812500
2734		1.953125
2735		11.718750
2736		5.859375
2737		13.671875
2738		7.812500
2739		17.578125
2740		11.718750
2741		17.578125
2742		15.625000
2743		19.531250
2744		19.531250
2745		25.390625
2746		19.531250
2747		27.343750
2748		21.484375
2749		29.296875
2750		25.390625
2751		33.203125
2752		27.343750
2753		35.156250
2754		29.296875
2755		37.109375
2756		31.250000
2757		39.062500
2758		37.109375
2759		39.062500
2760		39.062500
2761		41.015625
2762		39.062500
2763		46.875000
2764		39.062500
2765		48.828125
2766		41.015625
2767		50.781250
2768		42.968750
2769		50.781250
2770		46.875000
2771		52.734375
2772		46.875000
2773		54.687500
2774		48.828125
2775		54.687500
2776		52.734375
2777		54.687500
2778		52.734375
2779		58.593750
2780		52.734375
2781		60.546875
2782		52.734375
2783		60.546875
2784		54.687500
2785		62.500000
2786		54.687500
2787		62.500000
2788		56.640625
2789		62.500000
2790		56.640625
2791		62.500000
2792		58.593750
2793		62.500000
2794		58.593750
2795		64.453125
2796		56.640625
2797		64.453125
2798		58.593750
2799		64.453125
2800		56.640625
2801		64.453125
2802		56.640625
2803		64.453125
2804		56.640625
2805		64.453125
2806		56.640625
2807		64.453125
2808		58.593750
2809		60.546875
2810		58.593750
2811		60.546875
2812		54.687500
2813		60.546875
2814		52.734375
2815		60.546875
2816		52.734375
2817		60.546875
2818		50.781250
2819		58.593750
2820		50.781250
2821		56.640625
2822		48.828125
2823		56.640625
2824		48.828125
2825		54.687500
2826		46.875000
2827		50.781250
2828		42.968750
2829		50.781250
2830		42.968750
2831		48.828125
2832		41.015625
2833		48.828125
2834		37.109375
2835		44.921875
2836		35.156250
2837		44.921875
2838		33.203125
2839		41.015625
2840		31.250000
2841		39.062500
2842		31.250000
2843		35.156250
2844		29.296875
2845		33.203125
2846		23.437500
2847		31.250000
2848		21.484375
2849		29.296875
2850		19.531250
2851		27.343750
2852		15.625000
2853		25.390625
2854		13.671875
2855		21.484375
2856		11.718750
2857		19.531250
2858		9.765625
2859		17.578125
2860		7.812500
2861		11.718750
2862		3.906250
2863		9.765625
2864		0.000000
2865		7.812500
2866		-3.906250
2867		5.859375
2868		-5.859375
2869		1.953125
2870		-7.812500
2871		0.000000
2872		-9.765625
2873		-1.953125
2874		-11.718750
2875		-5.859375
2876		-13.671875
2877		-9.765625
2878		-17.578125
2879		-13.671875
2880		-21.484375
2881		-13.671875
2882		-23.437500
2883		-15.625000
2884		-25.390625
2885		-17.578125
2886		-29.296875
2887		-21.484375
2888		-31.250000
2889		-23.437500
2890		-33.203125
2891		-25.390625
2892		-33.203125
2893		-29.296875
2894		-35.156250
2895		-31.250000
2896		-39.062500
2897		-33.203125
2898		-41.015625
2899		-33.203125
2900		-42.968750
2901		-35.156250
2902		-44.921875
2903		-37.109375
2904		-44.921875
2905		-37.109375
2906		-46.875000
2907		-39.062500
2908		-48.828125
2909		-41.015625
2910		-46.875000
2911		-44.921875
2912		-48.828125
2913		-42.968750
2914		-50.781250
2915		-42.968750
2916		-50.781250
2917		-42.968750
2918		-52.734375
2919		-44.921875
2920		-52.734375
2921		-44.921875
2922		-52.734375
2923		-44.921875
2924		-52.734375
2925		-44.921875
2926		-48.828125
2927		-46.875000
2928		-48.828125
2929		-46.875000
2930		-50.781250
2931		-44.921875
2932		-50.781250
2933		-42.968750
2934		-50.781250
2935		-42.968750
2936		-48.828125
2937		-42.968750
2938		-48.828125
2939		-41.015625
2940		-46.875000
2941		-39.062500
2942		-46.875000
2943		-39.062500
2944		-42.968750
2945		-39.062500
2946		-42.968750
2947		-35.156250
2948		-41.015625
2949		-33.203125
2950		-39.062500
2951		-31.250000
2952		-39.062500
2953		-29.296875
2954		-35.156250
2955		-29.296875
2956		-33.203125
2957		-27.343750
2958		-33.203125
2959		-25.390625
2960		-27.343750
2961		-23.437500
2962		-25.390625
2963		-21.484375
2964		-25.390625
2965		-17.578125
2966		-23.437500
2967		-13.671875
2968		-19.531250
2969		-11.718750
2970		-17.578125
2971		-9.765625
2972		-15.625000
2973		-5.859375
2974		-11.718750
2975		-3.906250
2976		-7.812500
2977		-3.906250
2978		-3.906250
2979		0.000000
2980		-3.906250
2981		3.906250
2982		0.000000
2983		7.812500
2984		0.000000
2985		9.765625
2986		5.859375
2987		11.718750
2988		7.812500
2989		15.625000
2990		9.765625
2991		17.578125
2992		13.671875
2993		19.531250
2994		17.578125
2995		21.484375
2996		19.531250
2997		25.390625
2998		19.531250
2999		29.296875
3000		23.437500
3001		31.250000
3002		25.390625
3003		33.203125
3004		27.343750
3005		37.109375
3006		31.250000
3007		39.062500
3008		33.203125
3009		41.015625
3010		37.109375
3011		41.015625
3012		39.062500
3013		42.968750
3014		39.062500
3015		46.875000
3016		41.015625
3017		48.828125
3018		42.968750
3019		50.781250
3020		44.921875
3021		52.734375
3022		46.875000
3023		52.734375
3024		48.828125
3025		54.687500
3026		48.828125
3027		56.640625
3028		52.734375
3029		56.640625
3030		52.734375
3031		58.593750
3032		52.734375
3033		60.546875
3034		52.734375
3035		60.546875
3036		54.687500
3037		62.500000
3038		56.640625
3039		62.500000
3040		56.640625
3041		64.453125
3042		56.640625
3043		64.453125
3044		60.546875
3045		62.500000
3046		60.546875
3047		64.453125
3048		58.593750
3049		64.453125
3050		58.593750
3051		64.453125
3052		58.593750
3053		64.453125
3054		56.640625
3055		64.453125
3056		56.640625
3057		64.453125
3058		56.640625
3059		64.453125
3060		56.640625
3061		62.500000
3062		58.593750
3063		60.546875
3064		54.687500
3065		60.546875
3066		52.734375
3067		60.546875
3068		52.734375
3069		60.546875
3070		50.781250
3071		58.593750
3072		48.828125
3073		56.640625
3074		48.828125
3075		54.687500
3076		48.828125
3077		54.687500
3078		46.875000
3079		50.781250
3080		44.921875
3081		50.781250
3082		41.015625
3083		48.828125
3084		39.062500
3085		48.828125
3086		37.109375
3087		44.921875
3088		35.156250
3089		42.968750
3090		33.203125
3091		41.015625
3092		31.250000
3093		39.062500
3094		31.250000
3095		35.156250
3096		27.343750
3097		33.203125
3098		23.437500
3099		31.250000
3100		21.484375
3101		29.296875
3102		17.578125
3103		27.343750
3104		15.625000
3105		23.437500
3106		13.671875
3107		21.484375
3108		9.765625
3109		19.531250
3110		9.765625
3111		15.625000
3112		7.812500
3113		11.718750
3114		1.953125
3115		9.765625
3116		-1.953125
3117		7.812500
3118		-3.906250
3119		3.906250
3120		-5.859375
3121		1.953125
3122		-9.765625
3123		0.000000
3124		-11.718750
3125		-3.906250
3126		-13.671875
3127		-5.859375
3128		-15.625000
3129		-11.718750
3130		-19.531250
3131		-13.671875
3132		-21.484375
3133		-13.671875
3134		-25.390625
3135		-15.625000
3136		-27.343750
3137		-19.531250
3138		-29.296875
3139		-21.484375
3140		-31.250000
3141		-23.437500
3142		-35.156250
3143		-25.390625
3144		-33.203125
3145		-29.296875
3146		-35.156250
3147		-31.250000
3148		-41.015625
3149		-33.203125
3150		-41.015625
3151		-33.203125
3152		-42.968750
3153		-35.156250
3154		-44.921875
3155		-37.109375
3156		-44.921875
3157		-37.109375
3158		-46.875000
3159		-39.062500
3160		-48.828125
3161		-41.015625
3162		-46.875000
3163		-44.921875
3164		-48.828125
3165		-44.921875
3166		-50.781250
3167		-44.921875
3168		-50.781250
3169		-44.921875
3170		-52.734375
3171		-44.921875
3172		-52.734375
3173		-44.921875
3174		-52.734375
3175		-44.921875
3176		-52.734375
3177		-44.921875
3178		-48.828125
3179		-46.875000
3180		-48.828125
3181		-46.875000
3182		-52.734375
3183		-44.921875
3184		-50.781250
3185		-44.921875
3186		-50.781250
3187		-42.968750
3188		-50.781250
3189		-42.968750
3190		-48.828125
3191		-41.015625
3192		-46.875000
3193		-39.062500
3194		-46.875000
3195		-39.062500
3196		-42.968750
3197		-39.062500
3198		-42.968750
3199		-35.156250
3200		-41.015625
3201		-33.203125
3202		-39.062500
3203		-31.250000
3204		-37.109375
3205		-29.296875
3206		-35.156250
3207		-27.343750
3208		-33.203125
3209		-25.390625
3210		-31.250000
3211		-23.437500
3212		-27.343750
3213		-23.437500
3214		-25.390625
3215		-19.531250
3216		-23.437500
3217		-15.625000
3218		-21.484375
3219		-13.671875
3220		-19.531250
3221		-11.718750
3222		-17.578125
3223		-9.765625
3224		-15.625000
3225		-5.859375
3226		-11.718750
3227		-3.906250
3228		-7.812500
3229		-1.953125
3230		-3.906250
3231		0.000000
3232		-1.953125
3233		5.859375
3234		-1.953125
3235		7.812500
3236		1.953125
3237		9.765625
3238		3.906250
3239		13.671875
3240		7.812500
3241		15.625000
3242		9.765625
3243		19.531250
3244		11.718750
3245		19.531250
3246		17.578125
3247		21.484375
3248		19.531250
3249		25.390625
3250		21.484375
3251		29.296875
3252		23.437500
3253		31.250000
3254		25.390625
3255		33.203125
3256		27.343750
3257		37.109375
3258		31.250000
3259		39.062500
3260		33.203125
3261		41.015625
3262		37.109375
3263		41.015625
3264		39.062500
3265		42.968750
3266		41.015625
3267		46.875000
3268		41.015625
3269		48.828125
3270		42.968750
3271		50.781250
3272		44.921875
3273		52.734375
3274		46.875000
3275		54.687500
3276		48.828125
3277		56.640625
3278		48.828125
3279		56.640625
3280		52.734375
3281		56.640625
3282		52.734375
3283		58.593750
3284		52.734375
3285		60.546875
3286		54.687500
3287		60.546875
3288		54.687500
3289		62.500000
3290		54.687500
3291		62.500000
3292		56.640625
3293		64.453125
3294		56.640625
3295		64.453125
3296		60.546875
3297		62.500000
3298		60.546875
3299		62.500000
3300		58.593750
3301		64.453125
3302		56.640625
3303		64.453125
3304		58.593750
3305		64.453125
3306		58.593750
3307		64.453125
3308		56.640625
3309		64.453125
3310		56.640625
3311		62.500000
3312		56.640625
3313		62.500000
3314		56.640625
3315		60.546875
3316		54.687500
3317		60.546875
3318		52.734375
3319		60.546875
3320		52.734375
3321		60.546875
3322		50.781250
3323		58.593750
3324		48.828125
3325		56.640625
3326		46.875000
3327		56.640625
3328		46.875000
3329		54.687500
3330		46.875000
3331		50.781250
3332		44.921875
3333		48.828125
3334		41.015625
3335		48.828125
3336		39.062500
3337		46.875000
3338		37.109375
3339		44.921875
3340		35.156250
3341		42.968750
3342		31.250000
3343		41.015625
3344		31.250000
3345		39.062500
3346		29.296875
3347		33.203125
3348		27.343750
3349		31.250000
3350		23.437500
3351		29.296875
3352		21.484375
3353		29.296875
3354		17.578125
3355		25.390625
3356		15.625000
3357		23.437500
3358		13.671875
3359		21.484375
3360		9.765625
3361		17.578125
3362		9.765625
3363		15.625000
3364		5.859375
3365		9.765625
3366		1.953125
3367		7.812500
3368		-1.953125
3369		7.812500
3370		-1.953125
3371		3.906250
3372		-3.906250
3373		0.000000
3374		-9.765625
3375		-1.953125
3376		-11.718750
3377		-3.906250
3378		-13.671875
3379		-5.859375
3380		-15.625000
3381		-11.718750
3382		-17.578125
3383		-13.671875
3384		-21.484375
3385		-15.625000
3386		-23.437500
3387		-17.578125
3388		-25.390625
3389		-21.484375
3390		-29.296875
3391		-23.437500
3392		-29.296875
3393		-25.390625
3394		-33.203125
3395		-27.343750
3396		-33.203125
3397		-29.296875
3398		-35.156250
3399		-33.203125
3400		-37.109375
3401		-35.156250
3402		-39.062500
3403		-35.156250
3404		-41.015625
3405		-37.109375
3406		-42.968750
3407		-39.062500
3408		-44.921875
3409		-39.062500
3410		-44.921875
3411		-41.015625
3412		-46.875000
3413		-42.968750
3414		-46.875000
3415		-44.921875
3416		-48.828125
3417		-44.921875
3418		-48.828125
3419		-46.875000
3420		-48.828125
3421		-46.875000
3422		-50.781250
3423		-46.875000
3424		-52.734375
3425		-44.921875
3426		-50.781250
3427		-46.875000
3428		-50.781250
3429		-44.921875
3430		-48.828125
3431		-46.875000
3432		-48.828125
3433		-46.875000
3434		-48.828125
3435		-44.921875
3436		-48.828125
3437		-44.921875
3438		-46.875000
3439		-44.921875
3440		-46.875000
3441		-44.921875
3442		-46.875000
3443		-42.968750
3444		-46.875000
3445		-41.015625
3446		-42.968750
3447		-41.015625
3448		-41.015625
3449		-39.062500
3450		-41.015625
3451		-35.156250
3452		-39.062500
3453		-35.156250
3454		-37.109375
3455		-33.203125
3456		-35.156250
3457		-31.250000
3458		-33.203125
3459		-29.296875
3460		-31.250000
3461		-25.390625
3462		-29.296875
3463		-25.390625
3464		-27.343750
3465		-23.437500
3466		-23.437500
3467		-19.531250
3468		-23.437500
3469		-17.578125
3470		-19.531250
3471		-13.671875
3472		-17.578125
3473		-11.718750
3474		-13.671875
3475		-9.765625
3476		-11.718750
3477		-7.812500
3478		-7.812500
3479		-3.906250
3480		-7.812500
3481		-1.953125
3482		-3.906250
3483		1.953125
3484		0.000000
3485		3.906250
3486		1.953125
3487		5.859375
3488		5.859375
3489		9.765625
3490		7.812500
3491		11.718750
3492		9.765625
3493		15.625000
3494		13.671875
3495		17.578125
3496		15.625000
3497		19.531250
3498		19.531250
3499		23.437500
3500		21.484375
3501		25.390625
3502		23.437500
3503		27.343750
3504		25.390625
3505		29.296875
3506		29.296875
3507		33.203125
3508		31.250000
3509		35.156250
3510		33.203125
3511		37.109375
3512		35.156250
3513		41.015625
3514		39.062500
3515		41.015625
3516		41.015625
3517		42.968750
3518		41.015625
3519		44.921875
3520		42.968750
3521		48.828125
3522		44.921875
3523		50.781250
3524		46.875000
3525		50.781250
3526		48.828125
3527		52.734375
3528		50.781250
3529		54.687500
3530		52.734375
3531		54.687500
3532		52.734375
3533		56.640625
3534		54.687500
3535		58.593750
3536		54.687500
3537		58.593750
3538		56.640625
3539		60.546875
3540		58.593750
3541		60.546875
3542		58.593750
3543		62.500000
3544		58.593750
3545		62.500000
3546		58.593750
3547		62.500000
3548		60.546875
3549		62.500000
3550		60.546875
3551		62.500000
3552		58.593750
3553		62.500000
3554		60.546875
3555		62.500000
3556		60.546875
3557		62.500000
3558		58.593750
3559		62.500000
3560		58.593750
3561		62.500000
3562		58.593750
3563		62.500000
3564		56.640625
3565		60.546875
3566		56.640625
3567		60.546875
3568		54.687500
3569		58.593750
3570		54.687500
3571		58.593750
3572		54.687500
3573		58.593750
3574		52.734375
3575		56.640625
3576		50.781250
3577		54.687500
3578		48.828125
3579		52.734375
3580		48.828125
3581		52.734375
3582		46.875000
3583		50.781250
3584		44.921875
3585		48.828125
3586		42.968750
3587		46.875000
3588		41.015625
3589		44.921875
3590		39.062500
3591		42.968750
3592		37.109375
3593		41.015625
3594		33.203125
3595		39.062500
3596		31.250000
3597		35.156250
3598		29.296875
3599		33.203125
3600		27.343750
3601		31.250000
3602		23.437500
3603		29.296875
3604		21.484375
3605		27.343750
3606		19.531250
3607		23.437500
3608		15.625000
3609		21.484375
3610		13.671875
3611		17.578125
3612		11.718750
3613		15.625000
3614		7.812500
3615		13.671875
3616		5.859375
3617		9.765625
3618		3.906250
3619		7.812500
3620		0.000000
3621		5.859375
3622		-1.953125
3623		1.953125
3624		-5.859375
3625		0.000000
3626		-7.812500
3627		-3.906250
3628		-11.718750
3629		-5.859375
3630		-13.671875
3631		-9.765625
3632		-15.625000
3633		-11.718750
3634		-17.578125
3635		-13.671875
3636		-21.484375
3637		-15.625000
3638		-23.437500
3639		-19.531250
3640		-25.390625
3641		-21.484375
3642		-29.296875
3643		-25.390625
3644		-31.250000
3645		-25.390625
3646		-33.203125
3647		-27.343750
3648		-35.156250
3649		-29.296875
3650		-37.109375
3651		-33.203125
3652		-39.062500
3653		-35.156250
3654		-39.062500
3655		-37.109375
3656		-41.015625
3657		-37.109375
3658		-42.968750
3659		-39.062500
3660		-44.921875
3661		-41.015625
3662		-46.875000
3663		-42.968750
3664		-46.875000
3665		-42.968750
3666		-46.875000
3667		-44.921875
3668		-46.875000
3669		-44.921875
3670		-48.828125
3671		-44.921875
3672		-48.828125
3673		-46.875000
3674		-48.828125
3675		-46.875000
3676		-50.781250
3677		-46.875000
3678		-50.781250
3679		-46.875000
3680		-50.781250
3681		-46.875000
3682		-50.781250
3683		-46.875000
3684		-48.828125
3685		-46.875000
3686		-48.828125
3687		-44.921875
3688		-48.828125
3689		-44.921875
3690		-48.828125
3691		-44.921875
3692		-46.875000
3693		-42.968750
3694		-44.921875
3695		-41.015625
3696		-44.921875
3697		-41.015625
3698		-44.921875
3699		-39.062500
3700		-41.015625
3701		-39.062500
3702		-41.015625
3703		-37.109375
3704		-39.062500
3705		-35.156250
3706		-37.109375
3707		-33.203125
3708		-35.156250
3709		-31.250000
3710		-33.203125
3711		-29.296875
3712		-31.250000
3713		-25.390625
3714		-29.296875
3715		-23.437500
3716		-25.390625
3717		-21.484375
3718		-23.437500
3719		-19.531250
3720		-21.484375
3721		-15.625000
3722		-19.531250
3723		-13.671875
3724		-17.578125
3725		-11.718750
3726		-13.671875
3727		-9.765625
3728		-11.718750
3729		-5.859375
3730		-7.812500
3731		-3.906250
3732		-5.859375
3733		-1.953125
3734		-3.906250
3735		1.953125
3736		0.000000
3737		3.906250
3738		1.953125
3739		5.859375
3740		3.906250
3741		9.765625
3742		7.812500
3743		11.718750
3744		9.765625
3745		15.625000
3746		13.671875
3747		19.531250
3748		15.625000
3749		21.484375
3750		19.531250
3751		23.437500
3752		21.484375
3753		25.390625
3754		23.437500
3755		29.296875
3756		25.390625
3757		31.250000
3758		29.296875
3759		33.203125
3760		31.250000
3761		35.156250
3762		33.203125
3763		37.109375
3764		35.156250
3765		39.062500
3766		37.109375
3767		42.968750
3768		41.015625
3769		42.968750
3770		42.968750
3771		46.875000
3772		42.968750
3773		46.875000
3774		46.875000
3775		48.828125
3776		46.875000
3777		52.734375
3778		48.828125
3779		52.734375
3780		50.781250
3781		54.687500
3782		52.734375
3783		56.640625
3784		52.734375
3785		56.640625
3786		54.687500
3787		58.593750
3788		54.687500
3789		58.593750
3790		56.640625
3791		60.546875
3792		56.640625
3793		60.546875
3794		58.593750
3795		60.546875
3796		58.593750
3797		62.500000
3798		58.593750
3799		62.500000
3800		60.546875
3801		62.500000
3802		60.546875
3803		62.500000
3804		58.593750
3805		62.500000
3806		60.546875
3807		62.500000
3808		58.593750
3809		62.500000
3810		58.593750
3811		62.500000
3812		58.593750
3813		62.500000
3814		58.593750
3815		60.546875
3816		56.640625
3817		60.546875
3818		56.640625
3819		58.593750
3820		54.687500
3821		58.593750
3822		54.687500
3823		58.593750
3824		52.734375
3825		56.640625
3826		52.734375
3827		54.687500
3828		50.781250
3829		54.687500
3830		48.828125
3831		52.734375
3832		46.875000
3833		50.781250
3834		44.921875
3835		48.828125
3836		44.921875
3837		46.875000
3838		41.015625
3839		46.875000
3840		39.062500
3841		44.921875
3842		37.109375
3843		41.015625
3844		35.156250
3845		39.062500
3846		33.203125
3847		37.109375
3848		31.250000
3849		35.156250
3850		29.296875
3851		33.203125
3852		25.390625
3853		31.250000
3854		23.437500
3855		27.343750
3856		21.484375
3857		25.390625
3858		17.578125
3859		23.437500
3860		15.625000
3861		21.484375
3862		13.671875
3863		17.578125
3864		9.765625
3865		15.625000
3866		7.812500
3867		11.718750
3868		3.906250
3869		9.765625
3870		0.000000
3871		5.859375
3872		0.000000
3873		3.906250
3874		-3.906250
3875		0.000000
3876		-5.859375
3877		-1.953125
3878		-7.812500
3879		-3.906250
3880		-11.718750
3881		-7.812500
3882		-15.625000
3883		-9.765625
3884		-17.578125
3885		-11.718750
3886		-19.531250
3887		-15.625000
3888		-21.484375
3889		-17.578125
3890		-23.437500
3891		-19.531250
3892		-27.343750
3893		-23.437500
3894		-29.296875
3895		-25.390625
3896		-31.250000
3897		-27.343750
3898		-33.203125
3899		-29.296875
3900		-35.156250
3901		-31.250000
3902		-37.109375
3903		-33.203125
3904		-39.062500
3905		-35.156250
3906		-41.015625
3907		-37.109375
3908		-42.968750
3909		-39.062500
3910		-42.968750
3911		-39.062500
3912		-44.921875
3913		-41.015625
3914		-46.875000
3915		-42.968750
3916		-46.875000
3917		-42.968750
3918		-46.875000
3919		-44.921875
3920		-48.828125
3921		-44.921875
3922		-48.828125
3923		-44.921875
3924		-50.781250
3925		-46.875000
3926		-48.828125
3927		-46.875000
3928		-48.828125
3929		-46.875000
3930		-50.781250
3931		-46.875000
3932		-50.781250
3933		-46.875000
3934		-50.781250
3935		-46.875000
3936		-48.828125
3937		-46.875000
3938		-50.781250
3939		-44.921875
3940		-48.828125
3941		-42.968750
3942		-46.875000
3943		-42.968750
3944		-46.875000
3945		-42.968750
3946		-44.921875
3947		-41.015625
3948		-42.968750
3949		-41.015625
3950		-42.968750
3951		-39.062500
3952		-41.015625
3953		-37.109375
3954		-39.062500
3955		-35.156250
3956		-37.109375
3957		-33.203125
3958		-35.156250
3959		-31.250000
3960		-33.203125
3961		-29.296875
3962		-31.250000
3963		-27.343750
3964		-29.296875
3965		-25.390625
3966		-27.343750
3967		-23.437500
3968		-25.390625
3969		-21.484375
3970		-21.484375
3971		-19.531250
3972		-19.531250
3973		-15.625000
3974		-17.578125
3975		-13.671875
3976		-15.625000
3977		-9.765625
3978		-11.718750
3979		-7.812500
3980		-9.765625
3981		-5.859375
3982		-7.812500
3983		-1.953125
3984		-3.906250
3985		0.000000
3986		-1.953125
3987		1.953125
3988		1.953125
3989		5.859375
3990		3.906250
3991		7.812500
3992		5.859375
3993		11.718750
3994		9.765625
3995		13.671875
3996		11.718750
3997		17.578125
3998		15.625000
3999		19.531250
4000		17.578125
4001		23.437500
4002		19.531250
4003		23.437500
4004		23.437500
4005		27.343750
4006		23.437500
4007		29.296875
4008		27.343750
4009		33.203125
4010		31.250000
4011		35.156250
4012		33.203125
4013		37.109375
4014		35.156250
4015		39.062500
4016		37.109375
4017		41.015625
4018		39.062500
4019		42.968750
4020		41.015625
4021		44.921875
4022		42.968750
4023		46.875000
4024		44.921875
4025		48.828125
4026		46.875000
4027		50.781250
4028		48.828125
4029		52.734375
4030		50.781250
4031		52.734375
4032		50.781250
4033		56.640625
4034		52.734375
4035		56.640625
4036		54.687500
4037		56.640625
4038		56.640625
4039		58.593750
4040		56.640625
4041		60.546875
4042		56.640625
4043		60.546875
4044		58.593750
4045		60.546875
4046		58.593750
4047		62.500000
4048		58.593750
4049		62.500000
4050		58.593750
4051		64.453125
4052		60.546875
4053		62.500000
4054		60.546875
4055		62.500000
4056		58.593750
4057		62.500000
4058		60.546875
4059		64.453125
4060		58.593750
4061		62.500000
4062		58.593750
4063		64.453125
4064		58.593750
4065		62.500000
4066		58.593750
4067		62.500000
4068		56.640625
4069		60.546875
4070		56.640625
4071		60.546875
4072		54.687500
4073		58.593750
4074		54.687500
4075		58.593750
4076		52.734375
4077		58.593750
4078		52.734375
4079		54.687500
4080		50.781250
4081		54.687500
4082		48.828125
4083		52.734375
4084		46.875000
4085		50.781250
4086		46.875000
4087		48.828125
4088		44.921875
4089		46.875000
4090		41.015625
4091		46.875000
4092		39.062500
4093		42.968750
4094		37.109375
4095		41.015625
4096		35.156250
4097		39.062500
4098		33.203125
4099		37.109375
4100		31.250000
4101		35.156250
4102		29.296875
4103		33.203125
4104		25.390625
4105		31.250000
4106		23.437500
4107		27.343750
4108		21.484375
4109		25.390625
4110		17.578125
4111		23.437500
4112		15.625000
4113		19.531250
4114		13.671875
4115		17.578125
4116		9.765625
4117		13.671875
4118		5.859375
4119		11.718750
4120		3.906250
4121		7.812500
4122		0.000000
4123		5.859375
4124		0.000000
4125		3.906250
4126		-3.906250
4127		1.953125
4128		-5.859375
4129		-1.953125
4130		-9.765625
4131		-5.859375
4132		-11.718750
4133		-7.812500
4134		-15.625000
4135		-9.765625
4136		-17.578125
4137		-13.671875
4138		-19.531250
4139		-15.625000
4140		-21.484375
4141		-17.578125
4142		-25.390625
4143		-19.531250
4144		-27.343750
4145		-23.437500
4146		-29.296875
4147		-25.390625
4148		-31.250000
4149		-27.343750
4150		-33.203125
4151		-29.296875
4152		-35.156250
4153		-31.250000
4154		-37.109375
4155		-33.203125
4156		-39.062500
4157		-35.156250
4158		-41.015625
4159		-37.109375
4160		-42.968750
4161		-39.062500
4162		-42.968750
4163		-39.062500
4164		-44.921875
4165		-41.015625
4166		-46.875000
4167		-42.968750
4168		-48.828125
4169		-42.968750
4170		-46.875000
4171		-44.921875
4172		-48.828125
4173		-44.921875
4174		-48.828125
4175		-44.921875
4176		-48.828125
4177		-46.875000
4178		-50.781250
4179		-46.875000
4180		-50.781250
4181		-46.875000
4182		-50.781250
4183		-46.875000
4184		-48.828125
4185		-46.875000
4186		-50.781250
4187		-44.921875
4188		-48.828125
4189		-46.875000
4190		-48.828125
4191		-44.921875
4192		-48.828125
4193		-44.921875
4194		-46.875000
4195		-42.968750
4196		-44.921875
4197		-41.015625
4198		-44.921875
4199		-41.015625
4200		-44.921875
4201		-39.062500
4202		-42.968750
4203		-37.109375
4204		-41.015625
4205		-37.109375
4206		-39.062500
4207		-35.156250
4208		-39.062500
4209		-33.203125
4210		-35.156250
4211		-31.250000
4212		-33.203125
4213		-29.296875
4214		-31.250000
4215		-27.343750
4216		-29.296875
4217		-25.390625
4218		-27.343750
4219		-21.484375
4220		-23.437500
4221		-21.484375
4222		-21.484375
4223		-17.578125
4224		-19.531250
4225		-15.625000
4226		-17.578125
4227		-13.671875
4228		-13.671875
4229		-9.765625
4230		-11.718750
4231		-7.812500
4232		-9.765625
4233		-5.859375
4234		-5.859375
4235		-1.953125
4236		-3.906250
4237		0.000000
4238		0.000000
4239		3.906250
4240		1.953125
4241		7.812500
4242		3.906250
4243		9.765625
4244		7.812500
4245		11.718750
4246		9.765625
4247		13.671875
4248		11.718750
4249		17.578125
4250		15.625000
4251		19.531250
4252		17.578125
4253		23.437500
4254		21.484375
4255		25.390625
4256		23.437500
4257		27.343750
4258		25.390625
4259		31.250000
4260		29.296875
4261		33.203125
4262		31.250000
4263		35.156250
4264		33.203125
4265		37.109375
4266		35.156250
4267		41.015625
4268		37.109375
4269		42.968750
4270		39.062500
4271		42.968750
4272		42.968750
4273		44.921875
4274		42.968750
4275		48.828125
4276		44.921875
4277		48.828125
4278		46.875000
4279		50.781250
4280		48.828125
4281		52.734375
4282		50.781250
4283		54.687500
4284		52.734375
4285		56.640625
4286		52.734375
4287		56.640625
4288		54.687500
4289		56.640625
4290		56.640625
4291		58.593750
4292		54.687500
4293		60.546875
4294		58.593750
4295		60.546875
4296		58.593750
4297		60.546875
4298		58.593750
4299		62.500000
4300		58.593750
4301		62.500000
4302		58.593750
4303		62.500000
4304		58.593750
4305		62.500000
4306		60.546875
4307		62.500000
4308		58.593750
4309		64.453125
4310		58.593750
4311		62.500000
4312		60.546875
4313		62.500000
4314		58.593750
4315		62.500000
4316		58.593750
4317		62.500000
4318		58.593750
4319		60.546875
4320		56.640625
4321		60.546875
4322		56.640625
4323		58.593750
4324		56.640625
4325		58.593750
4326		54.687500
4327		58.593750
4328		52.734375
4329		56.640625
4330		52.734375
4331		56.640625
4332		50.781250
4333		54.687500
4334		48.828125
4335		52.734375
4336		46.875000
4337		50.781250
4338		44.921875
4339		48.828125
4340		42.968750
4341		46.875000
4342		41.015625
4343		44.921875
4344		39.062500
4345		42.968750
4346		37.109375
4347		41.015625
4348		35.156250
4349		39.062500
4350		33.203125
4351		37.109375
4352		29.296875
4353		35.156250
4354		27.343750
4355		33.203125
4356		25.390625
4357		29.296875
4358		21.484375
4359		27.343750
4360		19.531250
4361		23.437500
4362		17.578125
4363		23.437500
4364		15.625000
4365		19.531250
4366		11.718750
4367		17.578125
4368		7.812500
4369		13.671875
4370		5.859375
4371		11.718750
4372		3.906250
4373		7.812500
4374		1.953125
4375		5.859375
4376		-1.953125
4377		3.906250
4378		-3.906250
4379		0.000000
4380		-7.812500
4381		-1.953125
4382		-9.765625
4383		-5.859375
4384		-11.718750
4385		-7.812500
4386		-15.625000
4387		-9.765625
4388		-17.578125
4389		-13.671875
4390		-19.531250
4391		-15.625000
4392		-23.437500
4393		-19.531250
4394		-25.390625
4395		-19.531250
4396		-27.343750
4397		-23.437500
4398		-29.296875
4399		-25.390625
4400		-31.250000
4401		-27.343750
4402		-33.203125
4403		-29.296875
4404		-35.156250
4405		-31.250000
4406		-37.109375
4407		-33.203125
4408		-41.015625
4409		-35.156250
4410		-41.015625
4411		-37.109375
4412		-41.015625
4413		-39.062500
4414		-42.968750
4415		-41.015625
4416		-44.921875
4417		-41.015625
4418		-46.875000
4419		-41.015625
4420		-46.875000
4421		-42.968750
4422		-46.875000
4423		-44.921875
4424		-48.828125
4425		-44.921875
4426		-50.781250
4427		-44.921875
4428		-48.828125
4429		-46.875000
4430		-48.828125
4431		-44.921875
4432		-48.828125
4433		-46.875000
4434		-48.828125
4435		-46.875000
4436		-48.828125
4437		-46.875000
4438		-48.828125
4439		-44.921875
4440		-48.828125
4441		-44.921875
4442		-48.828125
4443		-44.921875
4444		-46.875000
4445		-42.968750
4446		-46.875000
4447		-42.968750
4448		-44.921875
4449		-42.968750
4450		-44.921875
4451		-41.015625
4452		-42.968750
4453		-39.062500
4454		-41.015625
4455		-37.109375
4456		-39.062500
4457		-37.109375
4458		-37.109375
4459		-35.156250
4460		-37.109375
4461		-33.203125
4462		-35.156250
4463		-31.250000
4464		-33.203125
4465		-29.296875
4466		-31.250000
4467		-25.390625
4468		-27.343750
4469		-23.437500
4470		-25.390625
4471		-21.484375
4472		-23.437500
4473		-19.531250
4474		-21.484375
4475		-17.578125
4476		-19.531250
4477		-13.671875
4478		-15.625000
4479		-11.718750
4480		-13.671875
4481		-9.765625
4482		-11.718750
4483		-5.859375
4484		-7.812500
4485		-3.906250
4486		-5.859375
4487		-1.953125
4488		-1.953125
4489		1.953125
4490		0.000000
4491		3.906250
4492		1.953125
4493		7.812500
4494		5.859375
4495		9.765625
4496		7.812500
4497		11.718750
4498		9.765625
4499		15.625000
4500		13.671875
4501		17.578125
4502		15.625000
4503		21.484375
4504		19.531250
4505		23.437500
4506		21.484375
4507		25.390625
4508		23.437500
4509		27.343750
4510		25.390625
4511		31.250000
4512		29.296875
4513		33.203125
4514		31.250000
4515		37.109375
4516		35.156250
4517		39.062500
4518		37.109375
4519		41.015625
4520		39.062500
4521		42.968750
4522		39.062500
4523		44.921875
4524		42.968750
4525		46.875000
4526		44.921875
4527		48.828125
4528		44.921875
4529		50.781250
4530		48.828125
4531		52.734375
4532		48.828125
4533		52.734375
4534		50.781250
4535		54.687500
4536		52.734375
4537		56.640625
4538		52.734375
4539		58.593750
4540		54.687500
4541		58.593750
4542		56.640625
4543		58.593750
4544		56.640625
4545		60.546875
4546		56.640625
4547		60.546875
4548		58.593750
4549		62.500000
4550		58.593750
4551		62.500000
4552		58.593750
4553		62.500000
4554		60.546875
4555		62.500000
4556		60.546875
4557		62.500000
4558		60.546875
4559		62.500000
4560		60.546875
4561		64.453125
4562		60.546875
4563		62.500000
4564		58.593750
4565		62.500000
4566		58.593750
4567		62.500000
4568		58.593750
4569		62.500000
4570		58.593750
4571		60.546875
4572		56.640625
4573		62.500000
4574		56.640625
4575		58.593750
4576		54.687500
4577		58.593750
4578		54.687500
4579		58.593750
4580		52.734375
4581		56.640625
4582		50.781250
4583		54.687500
4584		50.781250
4585		52.734375
4586		48.828125
4587		52.734375
4588		44.921875
4589		50.781250
4590		44.921875
4591		48.828125
4592		42.968750
4593		46.875000
4594		41.015625
4595		44.921875
4596		39.062500
4597		42.968750
4598		37.109375
4599		41.015625
4600		33.203125
4601		39.062500
4602		31.250000
4603		37.109375
4604		29.296875
4605		33.203125
4606		27.343750
4607		31.250000
4608		25.390625
4609		29.296875
4610		21.484375
4611		27.343750
4612		19.531250
4613		23.437500
4614		15.625000
4615		21.484375
4616		13.671875
4617		19.531250
4618		11.718750
4619		15.625000
4620		9.765625
4621		13.671875
4622		5.859375
4623		11.718750
4624		3.906250
4625		7.812500
4626		0.000000
4627		5.859375
4628		-1.953125
4629		3.906250
4630		-5.859375
4631		0.000000
4632		-7.812500
4633		-3.906250
4634		-9.765625
4635		-5.859375
4636		-13.671875
4637		-7.812500
4638		-15.625000
4639		-11.718750
4640		-17.578125
4641		-13.671875
4642		-21.484375
4643		-17.578125
4644		-23.437500
4645		-19.531250
4646		-25.390625
4647		-21.484375
4648		-27.343750
4649		-23.437500
4650		-31.250000
4651		-25.390625
4652		-31.250000
4653		-29.296875
4654		-35.156250
4655		-29.296875
4656		-37.109375
4657		-33.203125
4658		-37.109375
4659		-35.156250
4660		-39.062500
4661		-37.109375
4662		-41.015625
4663		-37.109375
4664		-42.968750
4665		-39.062500
4666		-42.968750
4667		-41.015625
4668		-44.921875
4669		-42.968750
4670		-46.875000
4671		-42.968750
4672		-48.828125
4673		-42.968750
4674		-46.875000
4675		-44.921875
4676		-48.828125
4677		-44.921875
4678		-48.828125
4679		-44.921875
4680		-48.828125
4681		-46.875000
4682		-48.828125
4683		-46.875000
4684		-48.828125
4685		-46.875000
4686		-48.828125
4687		-46.875000
4688		-48.828125
4689		-46.875000
4690		-48.828125
4691		-44.921875
4692		-48.828125
4693		-44.921875
4694		-48.828125
4695		-44.921875
4696		-46.875000
4697		-42.968750
4698		-46.875000
4699		-42.968750
4700		-44.921875
4701		-41.015625
4702		-42.968750
4703		-41.015625
4704		-42.968750
4705		-39.062500
4706		-41.015625
4707		-37.109375
4708		-39.062500
4709		-37.109375
4710		-37.109375
4711		-33.203125
4712		-37.109375
4713		-33.203125
4714		-33.203125
4715		-29.296875
4716		-31.250000
4717		-27.343750
4718		-29.296875
4719		-25.390625
4720		-27.343750
4721		-23.437500
4722		-25.390625
4723		-21.484375
4724		-23.437500
4725		-19.531250
4726		-19.531250
4727		-15.625000
4728		-17.578125
4729		-13.671875
4730		-15.625000
4731		-11.718750
4732		-13.671875
4733		-7.812500
4734		-9.765625
4735		-5.859375
4736		-7.812500
4737		-3.906250
4738		-5.859375
4739		0.000000
4740		-1.953125
4741		1.953125
4742		0.000000
4743		3.906250
4744		3.906250
4745		7.812500
4746		5.859375
4747		9.765625
4748		7.812500
4749		13.671875
4750		9.765625
4751		15.625000
4752		13.671875
4753		19.531250
4754		17.578125
4755		21.484375
4756		19.531250
4757		25.390625
4758		21.484375
4759		25.390625
4760		25.390625
4761		29.296875
4762		27.343750
4763		31.250000
4764		29.296875
4765		33.203125
4766		33.203125
4767		37.109375
4768		33.203125
4769		39.062500
4770		37.109375
4771		41.015625
4772		39.062500
4773		42.968750
4774		41.015625
4775		44.921875
4776		42.968750
4777		46.875000
4778		44.921875
4779		48.828125
4780		46.875000
4781		50.781250
4782		48.828125
4783		52.734375
4784		48.828125
4785		52.734375
4786		50.781250
4787		54.687500
4788		52.734375
4789		56.640625
4790		54.687500
4791		58.593750
4792		54.687500
4793		58.593750
4794		56.640625
4795		60.546875
4796		56.640625
4797		60.546875
4798		56.640625
4799		60.546875
4800		58.593750
4801		62.500000
4802		58.593750
4803		62.500000
4804		58.593750
4805		62.500000
4806		60.546875
4807		62.500000
4808		58.593750
4809		64.453125
4810		60.546875
4811		62.500000
4812		60.546875
4813		64.453125
4814		60.546875
4815		62.500000
4816		58.593750
4817		62.500000
4818		58.593750
4819		62.500000
4820		58.593750
4821		62.500000
4822		58.593750
4823		62.500000
4824		56.640625
4825		60.546875
4826		56.640625
4827		58.593750
4828		54.687500
4829		58.593750
4830		54.687500
4831		58.593750
4832		52.734375
4833		56.640625
4834		50.781250
4835		54.687500
4836		50.781250
4837		52.734375
4838		46.875000
4839		52.734375
4840		44.921875
4841		50.781250
4842		44.921875
4843		48.828125
4844		42.968750
4845		46.875000
4846		41.015625
4847		44.921875
4848		39.062500
4849		42.968750
4850		37.109375
4851		41.015625
4852		33.203125
4853		39.062500
4854		31.250000
4855		35.156250
4856		29.296875
4857		33.203125
4858		27.343750
4859		31.250000
4860		23.437500
4861		27.343750
4862		21.484375
4863		25.390625
4864		19.531250
4865		23.437500
4866		17.578125
4867		21.484375
4868		13.671875
4869		17.578125
4870		9.765625
4871		15.625000
4872		7.812500
4873		13.671875
4874		5.859375
4875		9.765625
4876		1.953125
4877		7.812500
4878		0.000000
4879		3.906250
4880		-1.953125
4881		1.953125
4882		-5.859375
4883		-1.953125
4884		-7.812500
4885		-3.906250
4886		-9.765625
4887		-5.859375
4888		-13.671875
4889		-7.812500
4890		-15.625000
4891		-11.718750
4892		-17.578125
4893		-13.671875
4894		-21.484375
4895		-17.578125
4896		-23.437500
4897		-19.531250
4898		-25.390625
4899		-21.484375
4900		-27.343750
4901		-23.437500
4902		-29.296875
4903		-25.390625
4904		-33.203125
4905		-27.343750
4906		-35.156250
4907		-29.296875
4908		-37.109375
4909		-33.203125
4910		-37.109375
4911		-35.156250
4912		-39.062500
4913		-37.109375
4914		-41.015625
4915		-37.109375
4916		-42.968750
4917		-39.062500
4918		-44.921875
4919		-39.062500
4920		-44.921875
4921		-42.968750
4922		-46.875000
4923		-42.968750
4924		-46.875000
4925		-44.921875
4926		-48.828125
4927		-42.968750
4928		-48.828125
4929		-44.921875
4930		-48.828125
4931		-44.921875
4932		-48.828125
4933		-44.921875
4934		-50.781250
4935		-46.875000
4936		-48.828125
4937		-46.875000
4938		-48.828125
4939		-46.875000
4940		-48.828125
4941		-44.921875
4942		-48.828125
4943		-44.921875
4944		-46.875000
4945		-44.921875
4946		-46.875000
4947		-42.968750
4948		-46.875000
4949		-42.968750
4950		-44.921875
4951		-41.015625
4952		-44.921875
4953		-41.015625
4954		-42.968750
4955		-39.062500
4956		-41.015625
4957		-39.062500
4958		-41.015625
4959		-37.109375
4960		-39.062500
4961		-35.156250
4962		-37.109375
4963		-33.203125
4964		-37.109375
4965		-31.250000
4966		-33.203125
4967		-29.296875
4968		-31.250000
4969		-27.343750
4970		-29.296875
4971		-25.390625
4972		-27.343750
4973		-23.437500
4974		-25.390625
4975		-19.531250
4976		-21.484375
4977		-17.578125
4978		-19.531250
4979		-15.625000
4980		-17.578125
4981		-11.718750
4982		-13.671875
4983		-9.765625
4984		-11.718750
4985		-7.812500
4986		-9.765625
4987		-5.859375
4988		-7.812500
4989		-1.953125
4990		-3.906250
4991		1.953125
4992		-1.953125
4993		3.906250
4994		1.953125
4995		5.859375
4996		3.906250
4997		9.765625
4998		5.859375
4999		11.718750
5000		9.765625
5001		13.671875
5002		11.718750
5003		17.578125
5004		15.625000
5005		19.531250
5006		17.578125
5007		23.437500
5008		19.531250
5009		25.390625
5010		21.484375
5011		27.343750
5012		25.390625
5013		29.296875
5014		29.296875
5015		33.203125
5016		29.296875
5017		35.156250
5018		33.203125
5019		37.109375
5020		35.156250
5021		39.062500
5022		37.109375
5023		41.015625
5024		39.062500
5025		42.968750
5026		41.015625
5027		44.921875
5028		42.968750
5029		46.875000
5030		44.921875
5031		50.781250
5032		46.875000
5033		50.781250
5034		48.828125
5035		52.734375
5036		50.781250
5037		52.734375
5038		52.734375
5039		56.640625
5040		52.734375
5041		56.640625
5042		54.687500
5043		58.593750
5044		56.640625
5045		58.593750
5046		56.640625
5047		60.546875
5048		56.640625
5049		60.546875
5050		58.593750
5051		62.500000
5052		58.593750
5053		62.500000
5054		58.593750
5055		62.500000
5056		60.546875
5057		64.453125
5058		60.546875
5059		62.500000
5060		58.593750
5061		64.453125
5062		60.546875
5063		62.500000
5064		60.546875
5065		64.453125
5066		60.546875
5067		62.500000
5068		60.546875
5069		62.500000
5070		60.546875
5071		62.500000
5072		58.593750
5073		60.546875
5074		58.593750
5075		60.546875
5076		56.640625
5077		60.546875
5078		56.640625
5079		58.593750
5080		54.687500
5081		58.593750
5082		52.734375
5083		58.593750
5084		52.734375
5085		56.640625
5086		50.781250
5087		54.687500
5088		48.828125
5089		52.734375
5090		48.828125
5091		50.781250
5092		44.921875
5093		50.781250
5094		44.921875
5095		48.828125
5096		42.968750
5097		44.921875
5098		41.015625
5099		44.921875
5100		37.109375
5101		42.968750
5102		35.156250
5103		39.062500
5104		33.203125
5105		39.062500
5106		31.250000
5107		35.156250
5108		29.296875
5109		33.203125
5110		27.343750
5111		31.250000
5112		23.437500
5113		27.343750
5114		19.531250
5115		25.390625
5116		17.578125
5117		23.437500
5118		15.625000
5119		19.531250
5120		13.671875
5121		17.578125
5122		9.765625
5123		13.671875
5124		7.812500
5125		13.671875
5126		3.906250
5127		9.765625
5128		1.953125
5129		5.859375
5130		0.000000
5131		3.906250
5132		-3.906250
5133		1.953125
5134		-5.859375
5135		-1.953125
5136		-9.765625
5137		-3.906250
5138		-11.718750
5139		-7.812500
5140		-15.625000
5141		-9.765625
5142		-17.578125
5143		-11.718750
5144		-19.531250
5145		-13.671875
5146		-21.484375
5147		-17.578125
5148		-25.390625
5149		-19.531250
5150		-27.343750
5151		-21.484375
5152		-29.296875
5153		-25.390625
5154		-31.250000
5155		-27.343750
5156		-33.203125
5157		-29.296875
5158		-35.156250
5159		-31.250000
5160		-37.109375
5161		-33.203125
5162		-39.062500
5163		-35.156250
5164		-39.062500
5165		-37.109375
5166		-41.015625
5167		-39.062500
5168		-42.968750
5169		-39.062500
5170		-44.921875
5171		-41.015625
5172		-46.875000
5173		-42.968750
5174		-46.875000
5175		-42.968750
5176		-46.875000
5177		-44.921875
5178		-46.875000
5179		-44.921875
5180		-48.828125
5181		-46.875000
5182		-50.781250
5183		-44.921875
5184		-48.828125
5185		-46.875000
5186		-48.828125
5187		-46.875000
5188		-48.828125
5189		-46.875000
5190		-48.828125
5191		-46.875000
5192		-48.828125
5193		-46.875000
5194		-48.828125
5195		-44.921875
5196		-46.875000
5197		-44.921875
5198		-46.875000
5199		-42.968750
5200		-46.875000
5201		-42.968750
5202		-44.921875
5203		-41.015625
5204		-44.921875
5205		-41.015625
5206		-42.968750
5207		-41.015625
5208		-42.968750
5209		-39.062500
5210		-41.015625
5211		-35.156250
5212		-39.062500
5213		-35.156250
5214		-37.109375
5215		-33.203125
5216		-35.156250
5217		-31.250000
5218		-33.203125
5219		-29.296875
5220		-31.250000
5221		-27.343750
5222		-29.296875
5223		-25.390625
5224		-27.343750
5225		-23.437500
5226		-25.390625
5227		-21.484375
5228		-23.437500
5229		-17.578125
5230		-19.531250
5231		-15.625000
5232		-17.578125
5233		-13.671875
5234		-15.625000
5235		-9.765625
5236		-11.718750
5237		-5.859375
5238		-9.765625
5239		-3.906250
5240		-5.859375
5241		-1.953125
5242		-3.906250
5243		0.000000
5244		-1.953125
5245		3.906250
5246		1.953125
5247		5.859375
5248		3.906250
5249		9.765625
5250		5.859375
5251		11.718750
5252		9.765625
5253		15.625000
5254		13.671875
5255		17.578125
5256		15.625000
5257		19.531250
5258		17.578125
5259		21.484375
5260		21.484375
5261		25.390625
5262		23.437500
5263		27.343750
5264		25.390625
5265		29.296875
5266		29.296875
5267		33.203125
5268		31.250000
5269		35.156250
5270		33.203125
5271		37.109375
5272		35.156250
5273		39.062500
5274		37.109375
5275		41.015625
5276		39.062500
5277		44.921875
5278		41.015625
5279		44.921875
5280		44.921875
5281		46.875000
5282		46.875000
5283		50.781250
5284		46.875000
5285		50.781250
5286		48.828125
5287		54.687500
5288		50.781250
5289		54.687500
5290		52.734375
5291		54.687500
5292		52.734375
5293		56.640625
5294		54.687500
5295		58.593750
5296		56.640625
5297		58.593750
5298		56.640625
5299		60.546875
5300		56.640625
5301		60.546875
5302		58.593750
5303		62.500000
5304		58.593750
5305		62.500000
5306		60.546875
5307		62.500000
5308		60.546875
5309		62.500000
5310		60.546875
5311		64.453125
5312		60.546875
5313		64.453125
5314		60.546875
5315		62.500000
5316		58.593750
5317		62.500000
5318		60.546875
5319		62.500000
5320		58.593750
5321		62.500000
5322		58.593750
5323		62.500000
5324		58.593750
5325		62.500000
5326		58.593750
5327		60.546875
5328		56.640625
5329		60.546875
5330		56.640625
5331		58.593750
5332		54.687500
5333		58.593750
5334		52.734375
5335		58.593750
5336		50.781250
5337		54.687500
5338		50.781250
5339		54.687500
5340		48.828125
5341		52.734375
5342		46.875000
5343		50.781250
5344		44.921875
5345		48.828125
5346		42.968750
5347		48.828125
5348		42.968750
5349		44.921875
5350		39.062500
5351		42.968750
5352		37.109375
5353		41.015625
5354		35.156250
5355		41.015625
5356		33.203125
5357		37.109375
5358		29.296875
5359		35.156250
5360		29.296875
5361		33.203125
5362		25.390625
5363		29.296875
5364		23.437500
5365		27.343750
5366		19.531250
5367		25.390625
5368		17.578125
5369		23.437500
5370		15.625000
5371		19.531250
5372		11.718750
5373		17.578125
5374		9.765625
5375		13.671875
5376		5.859375
5377		11.718750
5378		1.953125
5379		7.812500
5380		1.953125
5381		5.859375
5382		-1.953125
5383		1.953125
5384		-3.906250
5385		0.000000
5386		-7.812500
5387		-1.953125
5388		-9.765625
5389		-5.859375
5390		-11.718750
5391		-7.812500
5392		-15.625000
5393		-9.765625
5394		-17.578125
5395		-13.671875
5396		-19.531250
5397		-15.625000
5398		-21.484375
5399		-17.578125
5400		-25.390625
5401		-21.484375
5402		-27.343750
5403		-23.437500
5404		-29.296875
5405		-25.390625
5406		-31.250000
5407		-27.343750
5408		-33.203125
5409		-29.296875
5410		-35.156250
5411		-31.250000
5412		-37.109375
5413		-33.203125
5414		-39.062500
5415		-35.156250
5416		-39.062500
5417		-37.109375
5418		-42.968750
5419		-37.109375
5420		-42.968750
5421		-39.062500
5422		-44.921875
5423		-41.015625
5424		-44.921875
5425		-42.968750
5426		-46.875000
5427		-42.968750
5428		-48.828125
5429		-44.921875
5430		-48.828125
5431		-44.921875
5432		-48.828125
5433		-44.921875
5434		-48.828125
5435		-44.921875
5436		-48.828125
5437		-46.875000
5438		-48.828125
5439		-46.875000
5440		-48.828125
5441		-46.875000
5442		-48.828125
5443		-44.921875
5444		-48.828125
5445		-44.921875
5446		-48.828125
5447		-44.921875
5448		-46.875000
5449		-44.921875
5450		-46.875000
5451		-44.921875
5452		-46.875000
5453		-42.968750
5454		-46.875000
5455		-41.015625
5456		-42.968750
5457		-41.015625
5458		-42.968750
5459		-39.062500
5460		-41.015625
5461		-37.109375
5462		-39.062500
5463		-35.156250
5464		-37.109375
5465		-33.203125
5466		-35.156250
5467		-33.203125
5468		-35.156250
5469		-31.250000
5470		-33.203125
5471		-27.343750
5472		-31.250000
5473		-25.390625
5474		-29.296875
5475		-23.437500
5476		-25.390625
5477		-21.484375
5478		-23.437500
5479		-19.531250
5480		-21.484375
5481		-17.578125
5482		-17.578125
5483		-13.671875
5484		-15.625000
5485		-11.718750
5486		-13.671875
5487		-9.765625
5488		-11.718750
5489		-5.859375
5490		-9.765625
5491		-3.906250
5492		-5.859375
5493		0.000000
5494		-1.953125
5495		1.953125
5496		0.000000
5497		5.859375
5498		3.906250
5499		7.812500
5500		5.859375
5501		9.765625
5502		7.812500
5503		13.671875
5504		11.718750
5505		15.625000
5506		13.671875
5507		17.578125
5508		17.578125
5509		21.484375
5510		19.531250
5511		23.437500
5512		21.484375
5513		27.343750
5514		23.437500
5515		29.296875
5516		27.343750
5517		31.250000
5518		29.296875
5519		33.203125
5520		31.250000
5521		35.156250
5522		33.203125
5523		39.062500
5524		35.156250
5525		41.015625
5526		39.062500
5527		42.968750
5528		41.015625
5529		44.921875
5530		42.968750
5531		46.875000
5532		44.921875
5533		48.828125
5534		46.875000
5535		50.781250
5536		46.875000
5537		52.734375
5538		50.781250
5539		52.734375
5540		50.781250
5541		54.687500
5542		52.734375
5543		56.640625
5544		54.687500
5545		58.593750
5546		54.687500
5547		58.593750
5548		54.687500
5549		60.546875
5550		58.593750
5551		60.546875
5552		58.593750
5553		62.500000
5554		58.593750
5555		62.500000
5556		58.593750
5557		62.500000
5558		60.546875
5559		64.453125
5560		60.546875
5561		62.500000
5562		60.546875
5563		64.453125
5564		60.546875
5565		64.453125
5566		60.546875
5567		62.500000
5568		60.546875
5569		64.453125
5570		60.546875
5571		62.500000
5572		60.546875
5573		62.500000
5574		58.593750
5575		62.500000
5576		58.593750
5577		60.546875
5578		56.640625
5579		60.546875
5580		56.640625
5581		60.546875
5582		54.687500
5583		58.593750
5584		54.687500
5585		56.640625
5586		52.734375
5587		56.640625
5588		50.781250
5589		54.687500
5590		50.781250
5591		54.687500
5592		48.828125
5593		52.734375
5594		46.875000
5595		50.781250
5596		44.921875
5597		48.828125
5598		42.968750
5599		46.875000
5600		41.015625
5601		44.921875
5602		39.062500
5603		42.968750
5604		37.109375
5605		41.015625
5606		35.156250
5607		41.015625
5608		33.203125
5609		37.109375
5610		29.296875
5611		35.156250
5612		27.343750
5613		31.250000
5614		25.390625
5615		29.296875
5616		21.484375
5617		27.343750
5618		19.531250
5619		23.437500
5620		17.578125
5621		23.437500
5622		13.671875
5623		19.531250
5624		11.718750
5625		15.625000
5626		9.765625
5627		13.671875
5628		5.859375
5629		11.718750
5630		3.906250
5631		7.812500
5632		1.953125
5633		5.859375
5634		-1.953125
5635		1.953125
5636		-3.906250
5637		0.000000
5638		-7.812500
5639		-1.953125
5640		-9.765625
5641		-5.859375
5642		-13.671875
5643		-7.812500
5644		-15.625000
5645		-11.718750
5646		-17.578125
5647		-13.671875
5648		-21.484375
5649		-15.625000
5650		-23.437500
5651		-19.531250
5652		-25.390625
5653		-21.484375
5654		-29.296875
5655		-23.437500
5656		-29.296875
5657		-25.390625
5658		-31.250000
5659		-27.343750
5660		-33.203125
5661		-29.296875
5662		-35.156250
5663		-31.250000
5664		-37.109375
5665		-33.203125
5666		-39.062500
5667		-35.156250
5668		-41.015625
5669		-37.109375
5670		-42.968750
5671		-37.109375
5672		-42.968750
5673		-41.015625
5674		-44.921875
5675		-41.015625
5676		-44.921875
5677		-42.968750
5678		-46.875000
5679		-42.968750
5680		-46.875000
5681		-44.921875
5682		-48.828125
5683		-44.921875
5684		-48.828125
5685		-44.921875
5686		-50.781250
5687		-44.921875
5688		-48.828125
5689		-46.875000
5690		-48.828125
5691		-46.875000
5692		-48.828125
5693		-46.875000
5694		-48.828125
5695		-44.921875
5696		-48.828125
5697		-44.921875
5698		-48.828125
5699		-44.921875
5700		-46.875000
5701		-44.921875
5702		-46.875000
5703		-42.968750
5704		-44.921875
5705		-42.968750
5706		-44.921875
5707		-41.015625
5708		-42.968750
5709		-39.062500
5710		-42.968750
5711		-39.062500
5712		-41.015625
5713		-37.109375
5714		-39.062500
5715		-35.156250
5716		-39.062500
5717		-33.203125
5718		-35.156250
5719		-31.250000
5720		-33.203125
5721		-29.296875
5722		-31.250000
5723		-27.343750
5724		-29.296875
5725		-25.390625
5726		-27.343750
5727		-23.437500
5728		-25.390625
5729		-21.484375
5730		-23.437500
5731		-17.578125
5732		-19.531250
5733		-15.625000
5734		-17.578125
5735		-13.671875
5736		-15.625000
5737		-9.765625
5738		-13.671875
5739		-7.812500
5740		-9.765625
5741		-5.859375
5742		-7.812500
5743		-1.953125
5744		-5.859375
5745		0.000000
5746		-1.953125
5747		1.953125
5748		0.000000
5749		5.859375
5750		3.906250
5751		7.812500
5752		5.859375
5753		11.718750
5754		7.812500
5755		13.671875
5756		11.718750
5757		15.625000
5758		13.671875
5759		19.531250
5760		17.578125
5761		21.484375
5762		19.531250
5763		25.390625
5764		21.484375
5765		27.343750
5766		25.390625
5767		29.296875
5768		27.343750
5769		31.250000
5770		29.296875
5771		35.156250
5772		33.203125
5773		37.109375
5774		35.156250
5775		39.062500
5776		37.109375
5777		41.015625
5778		39.062500
5779		44.921875
5780		41.015625
5781		44.921875
5782		42.968750
5783		46.875000
5784		44.921875
5785		48.828125
5786		46.875000
5787		50.781250
5788		48.828125
5789		52.734375
5790		48.828125
5791		54.687500
5792		50.781250
5793		56.640625
5794		52.734375
5795		56.640625
5796		54.687500
5797		58.593750
5798		54.687500
5799		58.593750
5800		56.640625
5801		60.546875
5802		58.593750
5803		60.546875
5804		56.640625
5805		62.500000
5806		58.593750
5807		64.453125
5808		60.546875
5809		64.453125
5810		60.546875
5811		64.453125
5812		60.546875
5813		64.453125
5814		60.546875
5815		64.453125
5816		60.546875
5817		64.453125
5818		60.546875
5819		64.453125
5820		60.546875
5821		64.453125
5822		58.593750
5823		64.453125
5824		58.593750
5825		64.453125
5826		58.593750
5827		62.500000
5828		58.593750
5829		62.500000
5830		56.640625
5831		62.500000
5832		54.687500
5833		60.546875
5834		56.640625
5835		58.593750
5836		54.687500
5837		58.593750
5838		52.734375
5839		56.640625
5840		50.781250
5841		56.640625
5842		48.828125
5843		54.687500
5844		46.875000
5845		52.734375
5846		46.875000
5847		52.734375
5848		42.968750
5849		50.781250
5850		42.968750
5851		48.828125
5852		41.015625
5853		44.921875
5854		39.062500
5855		42.968750
5856		35.156250
5857		42.968750
5858		33.203125
5859		39.062500
5860		31.250000
5861		37.109375
5862		29.296875
5863		35.156250
5864		27.343750
5865		33.203125
5866		23.437500
5867		31.250000
5868		23.437500
5869		27.343750
5870		19.531250
5871		23.437500
5872		15.625000
5873		21.484375
5874		13.671875
5875		19.531250
5876		9.765625
5877		17.578125
5878		7.812500
5879		13.671875
5880		5.859375
5881		11.718750
5882		1.953125
5883		9.765625
5884		0.000000
5885		5.859375
5886		-1.953125
5887		1.953125
5888		-5.859375
5889		0.000000
5890		-7.812500
5891		-1.953125
5892		-9.765625
5893		-3.906250
5894		-13.671875
5895		-7.812500
5896		-17.578125
5897		-9.765625
5898		-19.531250
5899		-11.718750
5900		-21.484375
5901		-15.625000
5902		-23.437500
5903		-19.531250
5904		-25.390625
5905		-21.484375
5906		-27.343750
5907		-23.437500
5908		-29.296875
5909		-25.390625
5910		-31.250000
5911		-27.343750
5912		-35.156250
5913		-29.296875
5914		-35.156250
5915		-31.250000
5916		-39.062500
5917		-33.203125
5918		-39.062500
5919		-35.156250
5920		-41.015625
5921		-37.109375
5922		-42.968750
5923		-39.062500
5924		-42.968750
5925		-41.015625
5926		-44.921875
5927		-41.015625
5928		-44.921875
5929		-42.968750
5930		-46.875000
5931		-42.968750
5932		-46.875000
5933		-44.921875
5934		-48.828125
5935		-44.921875
5936		-48.828125
5937		-44.921875
5938		-48.828125
5939		-46.875000
5940		-48.828125
5941		-46.875000
5942		-48.828125
5943		-46.875000
5944		-48.828125
5945		-46.875000
5946		-48.828125
5947		-44.921875
5948		-46.875000
5949		-44.921875
5950		-46.875000
5951		-44.921875
5952		-46.875000
5953		-44.921875
5954		-44.921875
5955		-42.968750
5956		-44.921875
5957		-42.968750
5958		-44.921875
5959		-41.015625
5960		-42.968750
5961		-39.062500
5962		-41.015625
5963		-37.109375
5964		-39.062500
5965		-37.109375
5966		-37.109375
5967		-35.156250
5968		-37.109375
5969		-31.250000
5970		-35.156250
5971		-31.250000
5972		-33.203125
5973		-29.296875
5974		-31.250000
5975		-27.343750
5976		-29.296875
5977		-25.390625
5978		-25.390625
5979		-21.484375
5980		-23.437500
5981		-19.531250
5982		-21.484375
5983		-17.578125
5984		-19.531250
5985		-15.625000
5986		-17.578125
5987		-11.718750
5988		-13.671875
5989		-9.765625
5990		-11.718750
5991		-7.812500
5992		-9.765625
5993		-3.906250
5994		-5.859375
5995		-1.953125
5996		-3.906250
5997		0.000000
5998		0.000000
5999		3.906250
6000		1.953125
6001		5.859375
6002		3.906250
6003		9.765625
6004		7.812500
6005		11.718750
6006		7.812500
6007		17.578125
6008		9.765625
6009		19.531250
6010		11.718750
6011		23.437500
6012		17.578125
6013		23.437500
6014		21.484375
6015		25.390625
6016		23.437500
6017		27.343750
6018		25.390625
6019		29.296875
6020		29.296875
6021		33.203125
6022		29.296875
6023		37.109375
6024		29.296875
6025		41.015625
6026		33.203125
6027		42.968750
6028		35.156250
6029		42.968750
6030		41.015625
6031		42.968750
6032		42.968750
6033		44.921875
6034		44.921875
6035		46.875000
6036		46.875000
6037		48.828125
6038		46.875000
6039		50.781250
6040		46.875000
6041		54.687500
6042		48.828125
6043		56.640625
6044		48.828125
6045		58.593750
6046		54.687500
6047		56.640625
6048		54.687500
6049		58.593750
6050		56.640625
6051		58.593750
6052		56.640625
6053		60.546875
6054		58.593750
6055		60.546875
6056		54.687500
6057		66.406250
6058		56.640625
6059		66.406250
6060		56.640625
6061		66.406250
6062		58.593750
6063		66.406250
6064		60.546875
6065		62.500000
6066		60.546875
6067		62.500000
6068		60.546875
6069		62.500000
6070		60.546875
6071		64.453125
6072		60.546875
6073		62.500000
6074		56.640625
6075		66.406250
6076		56.640625
6077		66.406250
6078		56.640625
6079		66.406250
6080		58.593750
6081		60.546875
6082		58.593750
6083		60.546875
6084		56.640625
6085		58.593750
6086		56.640625
6087		58.593750
6088		54.687500
6089		56.640625
6090		48.828125
6091		58.593750
6092		46.875000
6093		58.593750
6094		46.875000
6095		56.640625
6096		48.828125
6097		50.781250
6098		46.875000
6099		50.781250
6100		44.921875
6101		48.828125
6102		42.968750
6103		46.875000
6104		41.015625
6105		44.921875
6106		35.156250
6107		44.921875
6108		33.203125
6109		44.921875
6110		31.250000
6111		41.015625
6112		31.250000
6113		39.062500
6114		29.296875
6115		33.203125
6116		27.343750
6117		31.250000
6118		23.437500
6119		29.296875
6120		21.484375
6121		25.390625
6122		19.531250
6123		23.437500
6124		13.671875
6125		23.437500
6126		9.765625
6127		21.484375
6128		7.812500
6129		19.531250
6130		7.812500
6131		11.718750
6132		5.859375
6133		9.765625
6134		1.953125
6135		7.812500
6136		0.000000
6137		3.906250
6138		-3.906250
6139		1.953125
6140		-9.765625
6141		1.953125
6142		-11.718750
6143		0.000000
6144		-15.625000
6145		-1.953125
6146		-15.625000
6147		-5.859375
6148		-15.625000
6149		-11.718750
6150		-19.531250
6151		-15.625000
6152		-21.484375
6153		-17.578125
6154		-23.437500
6155		-19.531250
6156		-25.390625
6157		-21.484375
6158		-29.296875
6159		-21.484375
6160		-33.203125
6161		-23.437500
6162		-35.156250
6163		-25.390625
6164		-33.203125
6165		-31.250000
6166		-35.156250
6167		-33.203125
6168		-37.109375
6169		-35.156250
6170		-39.062500
6171		-37.109375
6172		-41.015625
6173		-39.062500
6174		-44.921875
6175		-37.109375
6176		-46.875000
6177		-37.109375
6178		-48.828125
6179		-39.062500
6180		-44.921875
6181		-42.968750
6182		-46.875000
6183		-42.968750
6184		-46.875000
6185		-44.921875
6186		-48.828125
6187		-44.921875
6188		-48.828125
6189		-44.921875
6190		-48.828125
6191		-44.921875
6192		-50.781250
6193		-42.968750
6194		-50.781250
6195		-42.968750
6196		-48.828125
6197		-46.875000
6198		-46.875000
6199		-44.921875
6200		-46.875000
6201		-44.921875
6202		-46.875000
6203		-44.921875
6204		-46.875000
6205		-42.968750
6206		-44.921875
6207		-42.968750
6208		-44.921875
6209		-41.015625
6210		-46.875000
6211		-37.109375
6212		-44.921875
6213		-37.109375
6214		-41.015625
6215		-37.109375
6216		-39.062500
6217		-37.109375
6218		-37.109375
6219		-35.156250
6220		-35.156250
6221		-33.203125
6222		-33.203125
6223		-31.250000
6224		-33.203125
6225		-27.343750
6226		-29.296875
6227		-25.390625
6228		-29.296875
6229		-23.437500
6230		-25.390625
6231		-21.484375
6232		-23.437500
6233		-19.531250
6234		-21.484375
6235		-17.578125
6236		-19.531250
6237		-13.671875
6238		-15.625000
6239		-11.718750
6240		-13.671875
6241		-9.765625
6242		-11.718750
6243		-5.859375
6244		-7.812500
6245		-3.906250
6246		-5.859375
6247		-1.953125
6248		-1.953125
6249		1.953125
6250		0.000000
6251		3.906250
6252		1.953125
6253		5.859375
6254		5.859375
6255		9.765625
6256		7.812500
6257		11.718750
6258		11.718750
6259		15.625000
6260		13.671875
6261		17.578125
6262		15.625000
6263		21.484375
6264		19.531250
6265		23.437500
6266		21.484375
6267		25.390625
6268		23.437500
6269		27.343750
6270		27.343750
6271		31.250000
6272		29.296875
6273		33.203125
6274		31.250000
6275		35.156250
6276		33.203125
6277		37.109375
6278		37.109375
6279		41.015625
6280		39.062500
6281		42.968750
6282		41.015625
6283		44.921875
6284		42.968750
6285		46.875000
6286		44.921875
6287		48.828125
6288		46.875000
6289		50.781250
6290		48.828125
6291		50.781250
6292		48.828125
6293		52.734375
6294		50.781250
6295		54.687500
6296		52.734375
6297		56.640625
6298		54.687500
6299		56.640625
6300		54.687500
6301		58.593750
6302		56.640625
6303		58.593750
6304		58.593750
6305		60.546875
6306		58.593750
6307		60.546875
6308		58.593750
6309		62.500000
6310		60.546875
6311		62.500000
6312		60.546875
6313		62.500000
6314		60.546875
6315		64.453125
6316		60.546875
6317		64.453125
6318		60.546875
6319		64.453125
6320		60.546875
6321		64.453125
6322		60.546875
6323		64.453125
6324		60.546875
6325		62.500000
6326		60.546875
6327		64.453125
6328		60.546875
6329		62.500000
6330		58.593750
6331		62.500000
6332		56.640625
6333		62.500000
6334		58.593750
6335		60.546875
6336		56.640625
6337		58.593750
6338		56.640625
6339		58.593750
6340		54.687500
6341		56.640625
6342		52.734375
6343		56.640625
6344		50.781250
6345		54.687500
6346		50.781250
6347		52.734375
6348		46.875000
6349		50.781250
6350		46.875000
6351		50.781250
6352		44.921875
6353		48.828125
6354		42.968750
6355		44.921875
6356		41.015625
6357		44.921875
6358		37.109375
6359		42.968750
6360		35.156250
6361		41.015625
6362		33.203125
6363		39.062500
6364		31.250000
6365		35.156250
6366		27.343750
6367		33.203125
6368		27.343750
6369		31.250000
6370		23.437500
6371		27.343750
6372		21.484375
6373		25.390625
6374		19.531250
6375		23.437500
6376		15.625000
6377		21.484375
6378		13.671875
6379		17.578125
6380		9.765625
6381		13.671875
6382		7.812500
6383		11.718750
6384		5.859375
6385		9.765625
6386		1.953125
6387		5.859375
6388		0.000000
6389		3.906250
6390		-3.906250
6391		0.000000
6392		-7.812500
6393		-1.953125
6394		-9.765625
6395		-3.906250
6396		-11.718750
6397		-7.812500
6398		-15.625000
6399		-9.765625
6400		-17.578125
6401		-11.718750
6402		-19.531250
6403		-15.625000
6404		-21.484375
6405		-17.578125
6406		-23.437500
6407		-19.531250
6408		-27.343750
6409		-21.484375
6410		-29.296875
6411		-23.437500
6412		-31.250000
6413		-27.343750
6414		-33.203125
6415		-29.296875
6416		-35.156250
6417		-31.250000
6418		-37.109375
6419		-31.250000
6420		-37.109375
6421		-35.156250
6422		-39.062500
6423		-37.109375
6424		-41.015625
6425		-39.062500
6426		-42.968750
6427		-37.109375
6428		-44.921875
6429		-41.015625
6430		-44.921875
6431		-42.968750
6432		-46.875000
6433		-42.968750
6434		-46.875000
6435		-42.968750
6436		-46.875000
6437		-44.921875
6438		-46.875000
6439		-44.921875
6440		-48.828125
6441		-44.921875
6442		-50.781250
6443		-42.968750
6444		-48.828125
6445		-44.921875
6446		-48.828125
6447		-46.875000
6448		-48.828125
6449		-46.875000
6450		-48.828125
6451		-44.921875
6452		-48.828125
6453		-44.921875
6454		-46.875000
6455		-44.921875
6456		-46.875000
6457		-42.968750
6458		-44.921875
6459		-42.968750
6460		-44.921875
6461		-41.015625
6462		-44.921875
6463		-39.062500
6464		-41.015625
6465		-39.062500
6466		-41.015625
6467		-37.109375
6468		-39.062500
6469		-35.156250
6470		-37.109375
6471		-33.203125
6472		-35.156250
6473		-31.250000
6474		-33.203125
6475		-29.296875
6476		-31.250000
6477		-27.343750
6478		-29.296875
6479		-25.390625
6480		-27.343750
6481		-23.437500
6482		-25.390625
6483		-21.484375
6484		-23.437500
6485		-19.531250
6486		-19.531250
6487		-17.578125
6488		-17.578125
6489		-13.671875
6490		-15.625000
6491		-11.718750
6492		-13.671875
6493		-9.765625
6494		-9.765625
6495		-5.859375
6496		-7.812500
6497		-3.906250
6498		-3.906250
6499		0.000000
6500		-1.953125
6501		1.953125
6502		0.000000
6503		3.906250
6504		3.906250
6505		7.812500
6506		5.859375
6507		9.765625
6508		9.765625
6509		13.671875
6510		11.718750
6511		15.625000
6512		13.671875
6513		19.531250
6514		17.578125
6515		21.484375
6516		19.531250
6517		23.437500
6518		21.484375
6519		25.390625
6520		25.390625
6521		29.296875
6522		27.343750
6523		31.250000
6524		29.296875
6525		33.203125
6526		31.250000
6527		35.156250
6528		35.156250
6529		39.062500
6530		37.109375
6531		41.015625
6532		39.062500
6533		42.968750
6534		41.015625
6535		44.921875
6536		42.968750
6537		46.875000
6538		44.921875
6539		48.828125
6540		46.875000
6541		50.781250
6542		48.828125
6543		52.734375
6544		50.781250
6545		52.734375
6546		52.734375
6547		54.687500
6548		52.734375
6549		56.640625
6550		54.687500
6551		56.640625
6552		56.640625
6553		58.593750
6554		56.640625
6555		60.546875
6556		58.593750
6557		60.546875
6558		58.593750
6559		60.546875
6560		58.593750
6561		62.500000
6562		60.546875
6563		62.500000
6564		60.546875
6565		62.500000
6566		60.546875
6567		62.500000
6568		60.546875
6569		62.500000
6570		60.546875
6571		64.453125
6572		60.546875
6573		62.500000
6574		60.546875
6575		62.500000
6576		60.546875
6577		62.500000
6578		60.546875
6579		62.500000
6580		58.593750
6581		62.500000
6582		58.593750
6583		60.546875
6584		58.593750
6585		60.546875
6586		56.640625
6587		60.546875
6588		56.640625
6589		58.593750
6590		54.687500
6591		58.593750
6592		54.687500
6593		56.640625
6594		52.734375
6595		56.640625
6596		50.781250
6597		54.687500
6598		48.828125
6599		52.734375
6600		46.875000
6601		50.781250
6602		44.921875
6603		48.828125
6604		42.968750
6605		46.875000
6606		41.015625
6607		44.921875
6608		39.062500
6609		42.968750
6610		35.156250
6611		41.015625
6612		35.156250
6613		39.062500
6614		33.203125
6615		37.109375
6616		31.250000
6617		35.156250
6618		27.343750
6619		31.250000
6620		25.390625
6621		29.296875
6622		23.437500
6623		29.296875
6624		21.484375
6625		23.437500
6626		17.578125
6627		21.484375
6628		13.671875
6629		19.531250
6630		11.718750
6631		17.578125
6632		9.765625
6633		13.671875
6634		5.859375
6635		11.718750
6636		3.906250
6637		7.812500
6638		1.953125
6639		5.859375
6640		-1.953125
6641		1.953125
6642		-3.906250
6643		0.000000
6644		-7.812500
6645		-1.953125
6646		-11.718750
6647		-3.906250
6648		-11.718750
6649		-7.812500
6650		-15.625000
6651		-9.765625
6652		-17.578125
6653		-13.671875
6654		-19.531250
6655		-15.625000
6656		-21.484375
6657		-17.578125
6658		-25.390625
6659		-21.484375
6660		-27.343750
6661		-23.437500
6662		-31.250000
6663		-23.437500
6664		-31.250000
6665		-25.390625
6666		-33.203125
6667		-29.296875
6668		-35.156250
6669		-31.250000
6670		-37.109375
6671		-33.203125
6672		-39.062500
6673		-35.156250
6674		-41.015625
6675		-37.109375
6676		-41.015625
6677		-39.062500
6678		-44.921875
6679		-39.062500
6680		-44.921875
6681		-39.062500
6682		-44.921875
6683		-42.968750
6684		-44.921875
6685		-42.968750
6686		-46.875000
6687		-44.921875
6688		-46.875000
6689		-44.921875
6690		-46.875000
6691		-44.921875
6692		-48.828125
6693		-46.875000
6694		-48.828125
6695		-44.921875
6696		-50.781250
6697		-44.921875
6698		-50.781250
6699		-44.921875
6700		-48.828125
6701		-46.875000
6702		-48.828125
6703		-44.921875
6704		-46.875000
6705		-44.921875
6706		-46.875000
6707		-44.921875
6708		-44.921875
6709		-42.968750
6710		-44.921875
6711		-42.968750
6712		-44.921875
6713		-39.062500
6714		-42.968750
6715		-39.062500
6716		-41.015625
6717		-39.062500
6718		-39.062500
6719		-37.109375
6720		-39.062500
6721		-35.156250
6722		-37.109375
6723		-33.203125
6724		-35.156250
6725		-31.250000
6726		-33.203125
6727		-29.296875
6728		-31.250000
6729		-25.390625
6730		-29.296875
6731		-23.437500
6732		-27.343750
6733		-23.437500
6734		-23.437500
6735		-21.484375
6736		-21.484375
6737		-17.578125
6738		-19.531250
6739		-15.625000
6740		-17.578125
6741		-13.671875
6742		-13.671875
6743		-9.765625
6744		-11.718750
6745		-7.812500
6746		-11.718750
6747		-3.906250
6748		-7.812500
6749		-1.953125
6750		-3.906250
6751		0.000000
6752		-1.953125
6753		3.906250
6754		1.953125
6755		5.859375
6756		3.906250
6757		7.812500
6758		7.812500
6759		11.718750
6760		9.765625
6761		13.671875
6762		11.718750
6763		17.578125
6764		13.671875
6765		19.531250
6766		17.578125
6767		21.484375
6768		21.484375
6769		23.437500
6770		23.437500
6771		27.343750
6772		25.390625
6773		29.296875
6774		27.343750
6775		31.250000
6776		31.250000
6777		35.156250
6778		33.203125
6779		39.062500
6780		33.203125
6781		41.015625
6782		37.109375
6783		41.015625
6784		39.062500
6785		42.968750
6786		42.968750
6787		44.921875
6788		44.921875
6789		46.875000
6790		46.875000
6791		48.828125
6792		46.875000
6793		50.781250
6794		48.828125
6795		52.734375
6796		48.828125
6797		54.687500
6798		50.781250
6799		56.640625
6800		54.687500
6801		56.640625
6802		54.687500
6803		58.593750
6804		56.640625
6805		58.593750
6806		56.640625
6807		60.546875
6808		58.593750
6809		60.546875
6810		58.593750
6811		60.546875
6812		58.593750
6813		62.500000
6814		60.546875
6815		62.500000
6816		60.546875
6817		64.453125
6818		60.546875
6819		62.500000
6820		60.546875
6821		64.453125
6822		62.500000
6823		64.453125
6824		60.546875
6825		64.453125
6826		60.546875
6827		62.500000
6828		60.546875
6829		62.500000
6830		60.546875
6831		64.453125
6832		60.546875
6833		62.500000
6834		58.593750
6835		60.546875
6836		58.593750
6837		60.546875
6838		56.640625
6839		60.546875
6840		56.640625
6841		58.593750
6842		54.687500
6843		58.593750
6844		52.734375
6845		56.640625
6846		52.734375
6847		56.640625
6848		50.781250
6849		54.687500
6850		48.828125
6851		52.734375
6852		46.875000
6853		50.781250
6854		44.921875
6855		48.828125
6856		42.968750
6857		46.875000
6858		41.015625
6859		44.921875
6860		39.062500
6861		42.968750
6862		37.109375
6863		41.015625
6864		35.156250
6865		39.062500
6866		33.203125
6867		37.109375
6868		31.250000
6869		35.156250
6870		27.343750
6871		31.250000
6872		23.437500
6873		29.296875
6874		23.437500
6875		27.343750
6876		19.531250
6877		23.437500
6878		17.578125
6879		21.484375
6880		15.625000
6881		19.531250
6882		11.718750
6883		15.625000
6884		9.765625
6885		13.671875
6886		5.859375
6887		9.765625
6888		3.906250
6889		7.812500
6890		1.953125
6891		5.859375
6892		-1.953125
6893		1.953125
6894		-3.906250
6895		0.000000
6896		-7.812500
6897		-3.906250
6898		-9.765625
6899		-5.859375
6900		-11.718750
6901		-7.812500
6902		-15.625000
6903		-11.718750
6904		-17.578125
6905		-13.671875
6906		-19.531250
6907		-15.625000
6908		-23.437500
6909		-19.531250
6910		-25.390625
6911		-21.484375
6912		-27.343750
6913		-23.437500
6914		-29.296875
6915		-25.390625
6916		-31.250000
6917		-27.343750
6918		-33.203125
6919		-29.296875
6920		-35.156250
6921		-31.250000
6922		-37.109375
6923		-33.203125
6924		-39.062500
6925		-35.156250
6926		-41.015625
6927		-37.109375
6928		-41.015625
6929		-39.062500
6930		-42.968750
6931		-41.015625
6932		-44.921875
6933		-41.015625
6934		-44.921875
6935		-42.968750
6936		-44.921875
6937		-42.968750
6938		-46.875000
6939		-44.921875
6940		-46.875000
6941		-44.921875
6942		-46.875000
6943		-44.921875
6944		-46.875000
6945		-46.875000
6946		-48.828125
6947		-46.875000
6948		-48.828125
6949		-46.875000
6950		-48.828125
6951		-46.875000
6952		-48.828125
6953		-44.921875
6954		-46.875000
6955		-44.921875
6956		-46.875000
6957		-44.921875
6958		-46.875000
6959		-44.921875
6960		-44.921875
6961		-42.968750
6962		-44.921875
6963		-41.015625
6964		-42.968750
6965		-41.015625
6966		-42.968750
6967		-39.062500
6968		-41.015625
6969		-39.062500
6970		-39.062500
6971		-37.109375
6972		-37.109375
6973		-35.156250
6974		-35.156250
6975		-33.203125
6976		-35.156250
6977		-31.250000
6978		-33.203125
6979		-29.296875
6980		-31.250000
6981		-27.343750
6982		-27.343750
6983		-25.390625
6984		-25.390625
6985		-21.484375
6986		-23.437500
6987		-19.531250
6988		-21.484375
6989		-17.578125
6990		-19.531250
6991		-15.625000
6992		-17.578125
6993		-11.718750
6994		-13.671875
6995		-9.765625
6996		-11.718750
6997		-7.812500
6998		-9.765625
6999		-3.906250
7000		-5.859375
7001		-1.953125
7002		-3.906250
7003		0.000000
7004		-1.953125
7005		3.906250
7006		1.953125
7007		5.859375
7008		3.906250
7009		9.765625
7010		7.812500
7011		11.718750
7012		9.765625
7013		13.671875
7014		13.671875
7015		17.578125
7016		15.625000
7017		19.531250
7018		17.578125
7019		21.484375
7020		21.484375
7021		25.390625
7022		23.437500
7023		27.343750
7024		25.390625
7025		29.296875
7026		29.296875
7027		33.203125
7028		31.250000
7029		35.156250
7030		33.203125
7031		37.109375
7032		35.156250
7033		39.062500
7034		39.062500
7035		41.015625
7036		41.015625
7037		42.968750
7038		42.968750
7039		46.875000
7040		44.921875
7041		46.875000
7042		46.875000
7043		48.828125
7044		48.828125
7045		50.781250
7046		48.828125
7047		52.734375
7048		50.781250
7049		54.687500
7050		52.734375
7051		56.640625
7052		54.687500
7053		56.640625
7054		54.687500
7055		58.593750
7056		56.640625
7057		58.593750
7058		58.593750
7059		60.546875
7060		58.593750
7061		60.546875
7062		58.593750
7063		62.500000
7064		60.546875
7065		62.500000
7066		60.546875
7067		62.500000
7068		60.546875
7069		62.500000
7070		60.546875
7071		62.500000
7072		60.546875
7073		64.453125
7074		60.546875
7075		64.453125
7076		60.546875
7077		62.500000
7078		60.546875
7079		62.500000
7080		60.546875
7081		62.500000
7082		60.546875
7083		62.500000
7084		60.546875
7085		62.500000
7086		58.593750
7087		60.546875
7088		58.593750
7089		60.546875
7090		56.640625
7091		58.593750
7092		54.687500
7093		58.593750
7094		54.687500
7095		58.593750
7096		52.734375
7097		56.640625
7098		50.781250
7099		54.687500
7100		50.781250
7101		52.734375
7102		48.828125
7103		50.781250
7104		46.875000
7105		50.781250
7106		44.921875
7107		48.828125
7108		42.968750
7109		46.875000
7110		41.015625
7111		44.921875
7112		39.062500
7113		42.968750
7114		37.109375
7115		41.015625
7116		35.156250
7117		37.109375
7118		31.250000
7119		35.156250
7120		29.296875
7121		33.203125
7122		27.343750
7123		31.250000
7124		23.437500
7125		29.296875
7126		21.484375
7127		25.390625
7128		19.531250
7129		23.437500
7130		15.625000
7131		19.531250
7132		13.671875
7133		17.578125
7134		11.718750
7135		15.625000
7136		7.812500
7137		11.718750
7138		5.859375
7139		9.765625
7140		1.953125
7141		5.859375
7142		0.000000
7143		3.906250
7144		-1.953125
7145		1.953125
7146		-5.859375
7147		-1.953125
7148		-7.812500
7149		-3.906250
7150		-11.718750
7151		-5.859375
7152		-13.671875
7153		-9.765625
7154		-15.625000
7155		-11.718750
7156		-19.531250
7157		-15.625000
7158		-21.484375
7159		-17.578125
7160		-23.437500
7161		-19.531250
7162		-25.390625
7163		-21.484375
7164		-27.343750
7165		-23.437500
7166		-31.250000
7167		-27.343750
7168		-31.250000
7169		-29.296875
7170		-35.156250
7171		-31.250000
7172		-37.109375
7173		-33.203125
7174		-37.109375
7175		-35.156250
7176		-39.062500
7177		-37.109375
7178		-41.015625
7179		-37.109375
7180		-42.968750
7181		-39.062500
7182		-42.968750
7183		-41.015625
7184		-44.921875
7185		-41.015625
7186		-44.921875
7187		-42.968750
7188		-46.875000
7189		-42.968750
7190		-46.875000
7191		-44.921875
7192		-46.875000
7193		-44.921875
7194		-48.828125
7195		-44.921875
7196		-48.828125
7197		-46.875000
7198		-48.828125
7199		-46.875000
7200		-48.828125
7201		-44.921875
7202		-48.828125
7203		-46.875000
7204		-46.875000
7205		-44.921875
7206		-46.875000
7207		-44.921875
7208		-46.875000
7209		-44.921875
7210		-46.875000
7211		-42.968750
7212		-44.921875
7213		-42.968750
7214		-44.921875
7215		-41.015625
7216		-42.968750
7217		-41.015625
7218		-41.015625
7219		-39.062500
7220		-41.015625
7221		-37.109375
7222		-39.062500
7223		-35.156250
7224		-37.109375
7225		-33.203125
7226		-35.156250
7227		-33.203125
7228		-33.203125
7229		-31.250000
7230		-31.250000
7231		-27.343750
7232		-29.296875
7233		-25.390625
7234		-27.343750
7235		-23.437500
7236		-25.390625
7237		-21.484375
7238		-23.437500
7239		-19.531250
7240		-21.484375
7241		-17.578125
7242		-17.578125
7243		-15.625000
7244		-15.625000
7245		-11.718750
7246		-13.671875
7247		-9.765625
7248		-9.765625
7249		-5.859375
7250		-7.812500
7251		-3.906250
7252		-5.859375
7253		-1.953125
7254		-1.953125
7255		1.953125
7256		0.000000
7257		3.906250
7258		3.906250
7259		7.812500
7260		5.859375
7261		9.765625
7262		7.812500
7263		13.671875
7264		11.718750
7265		15.625000
7266		13.671875
7267		17.578125
7268		17.578125
7269		21.484375
7270		19.531250
7271		23.437500
7272		21.484375
7273		25.390625
7274		25.390625
7275		29.296875
7276		27.343750
7277		31.250000
7278		29.296875
7279		33.203125
7280		31.250000
7281		35.156250
7282		35.156250
7283		39.062500
7284		37.109375
7285		41.015625
7286		39.062500
7287		42.968750
7288		41.015625
7289		44.921875
7290		42.968750
7291		46.875000
7292		44.921875
7293		48.828125
7294		46.875000
7295		50.781250
7296		48.828125
7297		52.734375
7298		50.781250
7299		52.734375
7300		52.734375
7301		54.687500
7302		52.734375
7303		56.640625
7304		54.687500
7305		56.640625
7306		56.640625
7307		58.593750
7308		56.640625
7309		60.546875
7310		58.593750
7311		60.546875
7312		58.593750
7313		62.500000
7314		60.546875
7315		62.500000
7316		60.546875
7317		62.500000
7318		60.546875
7319		62.500000
7320		60.546875
7321		62.500000
7322		62.500000
7323		64.453125
7324		62.500000
7325		64.453125
7326		62.500000
7327		64.453125
7328		62.500000
7329		64.453125
7330		60.546875
7331		62.500000
7332		60.546875
7333		62.500000
7334		60.546875
7335		62.500000
7336		60.546875
7337		62.500000
7338		58.593750
7339		60.546875
7340		58.593750
7341		60.546875
7342		56.640625
7343		60.546875
7344		54.687500
7345		58.593750
7346		54.687500
7347		58.593750
7348		52.734375
7349		56.640625
7350		50.781250
7351		54.687500
7352		50.781250
7353		52.734375
7354		48.828125
7355		50.781250
7356		46.875000
7357		50.781250
7358		44.921875
7359		48.828125
7360		42.968750
7361		46.875000
7362		41.015625
7363		44.921875
7364		39.062500
7365		42.968750
7366		37.109375
7367		39.062500
7368		33.203125
7369		39.062500
7370		31.250000
7371		35.156250
7372		29.296875
7373		33.203125
7374		27.343750
7375		31.250000
7376		23.437500
7377		27.343750
7378		21.484375
7379		25.390625
7380		19.531250
7381		23.437500
7382		15.625000
7383		19.531250
7384		13.671875
7385		17.578125
7386		11.718750
7387		15.625000
7388		7.812500
7389		11.718750
7390		5.859375
7391		9.765625
7392		1.953125
7393		5.859375
7394		0.000000
7395		3.906250
7396		-3.906250
7397		1.953125
7398		-5.859375
7399		-1.953125
7400		-7.812500
7401		-3.906250
7402		-11.718750
7403		-7.812500
7404		-13.671875
7405		-9.765625
7406		-15.625000
7407		-11.718750
7408		-19.531250
7409		-15.625000
7410		-21.484375
7411		-17.578125
7412		-23.437500
7413		-19.531250
7414		-25.390625
7415		-21.484375
7416		-27.343750
7417		-23.437500
7418		-31.250000
7419		-27.343750
7420		-33.203125
7421		-29.296875
7422		-35.156250
7423		-31.250000
7424		-37.109375
7425		-33.203125
7426		-37.109375
7427		-35.156250
7428		-39.062500
7429		-37.109375
7430		-41.015625
7431		-37.109375
7432		-42.968750
7433		-39.062500
7434		-42.968750
7435		-41.015625
7436		-44.921875
7437		-41.015625
7438		-44.921875
7439		-42.968750
7440		-46.875000
7441		-42.968750
7442		-46.875000
7443		-44.921875
7444		-46.875000
7445		-44.921875
7446		-46.875000
7447		-44.921875
7448		-46.875000
7449		-46.875000
7450		-46.875000
7451		-44.921875
7452		-46.875000
7453		-44.921875
7454		-46.875000
7455		-44.921875
7456		-46.875000
7457		-44.921875
7458		-46.875000
7459		-44.921875
7460		-46.875000
7461		-44.921875
7462		-44.921875
7463		-42.968750
7464		-44.921875
7465		-42.968750
7466		-42.968750
7467		-41.015625
7468		-42.968750
7469		-39.062500
7470		-41.015625
7471		-39.062500
7472		-39.062500
7473		-37.109375
7474		-39.062500
7475		-35.156250
7476		-37.109375
7477		-33.203125
7478		-35.156250
7479		-31.250000
7480		-33.203125
7481		-29.296875
7482		-31.250000
7483		-27.343750
7484		-29.296875
7485		-25.390625
7486		-27.343750
7487		-23.437500
7488		-25.390625
7489		-21.484375
7490		-23.437500
7491		-17.578125
7492		-19.531250
7493		-15.625000
7494		-17.578125
7495		-13.671875
7496		-15.625000
7497		-11.718750
7498		-11.718750
7499		-7.812500
7500		-9.765625
7501		-5.859375
7502		-7.812500
7503		-3.906250
7504		-3.906250
7505		0.000000
7506		-1.953125
7507		1.953125
7508		1.953125
7509		3.906250
7510		3.906250
7511		7.812500
7512		5.859375
7513		9.765625
7514		9.765625
7515		13.671875
7516		11.718750
7517		15.625000
7518		15.625000
7519		19.531250
7520		17.578125
7521		21.484375
7522		19.531250
7523		25.390625
7524		23.437500
7525		27.343750
7526		25.390625
7527		29.296875
7528		27.343750
7529		31.250000
7530		29.296875
7531		33.203125
7532		33.203125
7533		35.156250
7534		35.156250
7535		39.062500
7536		37.109375
7537		41.015625
7538		39.062500
7539		42.968750
7540		41.015625
7541		44.921875
7542		42.968750
7543		46.875000
7544		44.921875
7545		48.828125
7546		46.875000
7547		50.781250
7548		48.828125
7549		52.734375
7550		50.781250
7551		52.734375
7552		52.734375
7553		54.687500
7554		52.734375
7555		56.640625
7556		54.687500
7557		58.593750
7558		56.640625
7559		58.593750
7560		56.640625
7561		60.546875
7562		58.593750
7563		60.546875
7564		58.593750
7565		60.546875
7566		60.546875
7567		62.500000
7568		60.546875
7569		62.500000
7570		60.546875
7571		62.500000
7572		60.546875
7573		62.500000
7574		62.500000
7575		64.453125
7576		62.500000
7577		64.453125
7578		60.546875
7579		64.453125
7580		60.546875
7581		62.500000
7582		60.546875
7583		62.500000
7584		60.546875
7585		62.500000
7586		60.546875
7587		62.500000
7588		58.593750
7589		62.500000
7590		58.593750
7591		60.546875
7592		56.640625
7593		60.546875
7594		56.640625
7595		58.593750
7596		54.687500
7597		58.593750
7598		54.687500
7599		56.640625
7600		52.734375
7601		54.687500
7602		50.781250
7603		54.687500
7604		48.828125
7605		52.734375
7606		48.828125
7607		50.781250
7608		46.875000
7609		48.828125
7610		44.921875
7611		46.875000
7612		42.968750
7613		44.921875
7614		39.062500
7615		42.968750
7616		37.109375
7617		41.015625
7618		35.156250
7619		39.062500
7620		33.203125
7621		37.109375
7622		31.250000
7623		35.156250
7624		29.296875
7625		33.203125
7626		25.390625
7627		29.296875
7628		23.437500
7629		27.343750
7630		21.484375
7631		25.390625
7632		17.578125
7633		21.484375
7634		15.625000
7635		19.531250
7636		11.718750
7637		17.578125
7638		9.765625
7639		13.671875
7640		7.812500
7641		11.718750
7642		3.906250
7643		7.812500
7644		1.953125
7645		5.859375
7646		-1.953125
7647		3.906250
7648		-3.906250
7649		0.000000
7650		-7.812500
7651		-1.953125
7652		-9.765625
7653		-5.859375
7654		-11.718750
7655		-7.812500
7656		-15.625000
7657		-9.765625
7658		-17.578125
7659		-11.718750
7660		-21.484375
7661		-15.625000
7662		-23.437500
7663		-15.625000
7664		-23.437500
7665		-19.531250
7666		-27.343750
7667		-23.437500
7668		-29.296875
7669		-25.390625
7670		-31.250000
7671		-27.343750
7672		-33.203125
7673		-29.296875
7674		-37.109375
7675		-29.296875
7676		-37.109375
7677		-33.203125
7678		-39.062500
7679		-33.203125
7680		-41.015625
7681		-37.109375
7682		-42.968750
7683		-37.109375
7684		-42.968750
7685		-39.062500
7686		-42.968750
7687		-41.015625
7688		-44.921875
7689		-41.015625
7690		-48.828125
7691		-41.015625
7692		-46.875000
7693		-42.968750
7694		-48.828125
7695		-44.921875
7696		-50.781250
7697		-42.968750
7698		-50.781250
7699		-42.968750
7700		-48.828125
7701		-46.875000
7702		-48.828125
7703		-44.921875
7704		-48.828125
7705		-44.921875
7706		-48.828125
7707		-44.921875
7708		-50.781250
7709		-42.968750
7710		-48.828125
7711		-44.921875
7712		-48.828125
7713		-42.968750
7714		-44.921875
7715		-42.968750
7716		-48.828125
7717		-39.062500
7718		-42.968750
7719		-41.015625
7720		-42.968750
7721		-39.062500
7722		-42.968750
7723		-35.156250
7724		-41.015625
7725		-35.156250
7726		-39.062500
7727		-35.156250
7728		-37.109375
7729		-31.250000
7730		-35.156250
7731		-31.250000
7732		-35.156250
7733		-27.343750
7734		-31.250000
7735		-27.343750
7736		-29.296875
7737		-25.390625
7738		-27.343750
7739		-21.484375
7740		-27.343750
7741		-19.531250
7742		-21.484375
7743		-17.578125
7744		-19.531250
7745		-15.625000
7746		-19.531250
7747		-9.765625
7748		-15.625000
7749		-7.812500
7750		-17.578125
7751		-7.812500
7752		-9.765625
7753		-5.859375
7754		-5.859375
7755		0.000000
7756		-5.859375
7757		1.953125
7758		-1.953125
7759		3.906250
7760		1.953125
7761		5.859375
7762		3.906250
7763		11.718750
7764		3.906250
7765		11.718750
7766		5.859375
7767		15.625000
7768		11.718750
7769		17.578125
7770		15.625000
7771		21.484375
7772		17.578125
7773		25.390625
7774		15.625000
7775		27.343750
7776		21.484375
7777		27.343750
7778		25.390625
7779		31.250000
7780		25.390625
7781		35.156250
7782		29.296875
7783		39.062500
7784		33.203125
7785		37.109375
7786		35.156250
7787		39.062500
7788		37.109375
7789		42.968750
7790		37.109375
7791		44.921875
7792		41.015625
7793		46.875000
7794		44.921875
7795		46.875000
7796		44.921875
7797		52.734375
7798		44.921875
7799		54.687500
7800		46.875000
7801		54.687500
7802		50.781250
7803		54.687500
7804		52.734375
7805		58.593750
7806		50.781250
7807		60.546875
7808		54.687500
7809		60.546875
7810		56.640625
7811		58.593750
7812		56.640625
7813		62.500000
7814		54.687500
7815		64.453125
7816		56.640625
7817		64.453125
7818		60.546875
7819		62.500000
7820		60.546875
7821		62.500000
7822		60.546875
7823		66.406250
7824		58.593750
7825		66.406250
7826		60.546875
7827		66.406250
7828		62.500000
7829		64.453125
7830		58.593750
7831		68.359375
7832		60.546875
7833		66.406250
7834		56.640625
7835		66.406250
7836		60.546875
7837		62.500000
7838		58.593750
7839		64.453125
7840		56.640625
7841		64.453125
7842		56.640625
7843		62.500000
7844		58.593750
7845		60.546875
7846		52.734375
7847		62.500000
7848		52.734375
7849		62.500000
7850		52.734375
7851		60.546875
7852		52.734375
7853		56.640625
7854		50.781250
7855		54.687500
7856		48.828125
7857		52.734375
7858		44.921875
7859		54.687500
7860		44.921875
7861		50.781250
7862		42.968750
7863		46.875000
7864		39.062500
7865		48.828125
7866		37.109375
7867		44.921875
7868		37.109375
7869		41.015625
7870		35.156250
7871		39.062500
7872		31.250000
7873		37.109375
7874		27.343750
7875		37.109375
7876		27.343750
7877		33.203125
7878		25.390625
7879		29.296875
7880		19.531250
7881		29.296875
7882		19.531250
7883		27.343750
7884		17.578125
7885		23.437500
7886		15.625000
7887		19.531250
7888		11.718750
7889		15.625000
7890		5.859375
7891		13.671875
7892		3.906250
7893		13.671875
7894		3.906250
7895		7.812500
7896		-1.953125
7897		5.859375
7898		-3.906250
7899		5.859375
7900		-5.859375
7901		0.000000
7902		-5.859375
7903		-3.906250
7904		-9.765625
7905		-5.859375
7906		-13.671875
7907		-7.812500
7908		-15.625000
7909		-7.812500
7910		-17.578125
7911		-11.718750
7912		-19.531250
7913		-15.625000
7914		-25.390625
7915		-15.625000
7916		-25.390625
7917		-21.484375
7918		-27.343750
7919		-19.531250
7920		-29.296875
7921		-25.390625
7922		-31.250000
7923		-27.343750
7924		-35.156250
7925		-27.343750
7926		-37.109375
7927		-31.250000
7928		-37.109375
7929		-33.203125
7930		-41.015625
7931		-33.203125
7932		-39.062500
7933		-37.109375
7934		-42.968750
7935		-35.156250
7936		-42.968750
7937		-39.062500
7938		-42.968750
7939		-41.015625
7940		-44.921875
7941		-42.968750
7942		-46.875000
7943		-41.015625
7944		-46.875000
7945		-42.968750
7946		-48.828125
7947		-42.968750
7948		-48.828125
7949		-42.968750
7950		-46.875000
7951		-44.921875
7952		-46.875000
7953		-44.921875
7954		-48.828125
7955		-44.921875
7956		-46.875000
7957		-44.921875
7958		-46.875000
7959		-44.921875
7960		-48.828125
7961		-42.968750
7962		-46.875000
7963		-44.921875
7964		-46.875000
7965		-41.015625
7966		-44.921875
7967		-42.968750
7968		-44.921875
7969		-41.015625
7970		-42.968750
7971		-41.015625
7972		-42.968750
7973		-37.109375
7974		-41.015625
7975		-37.109375
7976		-39.062500
7977		-35.156250
7978		-37.109375
7979		-35.156250
7980		-35.156250
7981		-33.203125
7982		-33.203125
7983		-31.250000
7984		-33.203125
7985		-27.343750
7986		-29.296875
7987		-27.343750
7988		-27.343750
7989		-23.437500
7990		-25.390625
7991		-21.484375
7992		-23.437500
7993		-19.531250
7994		-21.484375
7995		-17.578125
7996		-19.531250
7997		-15.625000
7998		-15.625000
7999		-11.718750
8000		-13.671875
8001		-9.765625
8002		-11.718750
8003		-7.812500
8004		-7.812500
8005		-3.906250
8006		-5.859375
8007		0.000000
8008		-3.906250
8009		1.953125
8010		-1.953125
8011		5.859375
8012		1.953125
8013		7.812500
8014		3.906250
8015		9.765625
8016		7.812500
8017		13.671875
8018		9.765625
8019		15.625000
8020		13.671875
8021		17.578125
8022		15.625000
8023		19.531250
8024		17.578125
8025		25.390625
8026		19.531250
8027		27.343750
8028		23.437500
8029		29.296875
8030		25.390625
8031		33.203125
8032		27.343750
8033		33.203125
8034		31.250000
8035		37.109375
8036		33.203125
8037		37.109375
8038		37.109375
8039		39.062500
8040		39.062500
8041		42.968750
8042		39.062500
8043		46.875000
8044		41.015625
8045		46.875000
8046		42.968750
8047		48.828125
8048		44.921875
8049		50.781250
8050		46.875000
8051		52.734375
8052		48.828125
8053		52.734375
8054		50.781250
8055		54.687500
8056		52.734375
8057		56.640625
8058		52.734375
8059		58.593750
8060		54.687500
8061		58.593750
8062		54.687500
8063		60.546875
8064		56.640625
8065		62.500000
8066		58.593750
8067		62.500000
8068		58.593750
8069		64.453125
8070		60.546875
8071		62.500000
8072		60.546875
8073		62.500000
8074		60.546875
8075		64.453125
8076		60.546875
8077		64.453125
8078		60.546875
8079		64.453125
8080		58.593750
8081		66.406250
8082		60.546875
8083		64.453125
8084		60.546875
8085		64.453125
8086		60.546875
8087		64.453125
8088		60.546875
8089		62.500000
8090		58.593750
8091		62.500000
8092		58.593750
8093		62.500000
8094		56.640625
8095		62.500000
8096		54.687500
8097		60.546875
8098		54.687500
8099		58.593750
8100		54.687500
8101		58.593750
8102		52.734375
8103		58.593750
8104		52.734375
8105		54.687500
8106		50.781250
8107		54.687500
8108		48.828125
8109		52.734375
8110		46.875000
8111		50.781250
8112		44.921875
8113		48.828125
8114		41.015625
8115		48.828125
8116		41.015625
8117		44.921875
8118		37.109375
8119		42.968750
8120		37.109375
8121		41.015625
8122		35.156250
8123		39.062500
8124		31.250000
8125		37.109375
8126		29.296875
8127		33.203125
8128		27.343750
8129		31.250000
8130		23.437500
8131		29.296875
8132		21.484375
8133		25.390625
8134		19.531250
8135		23.437500
8136		15.625000
8137		21.484375
8138		13.671875
8139		17.578125
8140		9.765625
8141		15.625000
8142		7.812500
8143		13.671875
8144		5.859375
8145		9.765625
8146		0.000000
8147		7.812500
8148		0.000000
8149		3.906250
8150		-3.906250
8151		1.953125
8152		-5.859375
8153		0.000000
8154		-7.812500
8155		-3.906250
8156		-11.718750
8157		-5.859375
8158		-13.671875
8159		-7.812500
8160		-15.625000
8161		-11.718750
8162		-19.531250
8163		-13.671875
8164		-21.484375
8165		-15.625000
8166		-23.437500
8167		-19.531250
8168		-25.390625
8169		-21.484375
8170		-27.343750
8171		-23.437500
8172		-29.296875
8173		-25.390625
8174		-33.203125
8175		-29.296875
8176		-35.156250
8177		-31.250000
8178		-35.156250
8179		-31.250000
8180		-39.062500
8181		-33.203125
8182		-39.062500
8183		-35.156250
8184		-41.015625
8185		-37.109375
8186		-42.968750
8187		-37.109375
8188		-42.968750
8189		-41.015625
8190		-44.921875
8191		-41.015625
8192		-46.875000
8193		-41.015625
8194		-46.875000
8195		-42.968750
8196		-46.875000
8197		-44.921875
8198		-48.828125
8199		-42.968750
8200		-48.828125
8201		-44.921875
8202		-48.828125
8203		-44.921875
8204		-48.828125
8205		-44.921875
8206		-48.828125
8207		-46.875000
8208		-48.828125
8209		-44.921875
8210		-48.828125
8211		-44.921875
8212		-48.828125
8213		-44.921875
8214		-48.828125
8215		-42.968750
8216		-46.875000
8217		-42.968750
8218		-44.921875
8219		-42.968750
8220		-44.921875
8221		-41.015625
8222		-42.968750
8223		-41.015625
8224		-41.015625
8225		-39.062500
8226		-41.015625
8227		-37.109375
8228		-39.062500
8229		-35.156250
8230		-37.109375
8231		-33.203125
8232		-35.156250
8233		-31.250000
8234		-35.156250
8235		-29.296875
8236		-33.203125
8237		-27.343750
8238		-31.250000
8239		-25.390625
8240		-27.343750
8241		-23.437500
8242		-25.390625
8243		-21.484375
8244		-23.437500
8245		-19.531250
8246		-21.484375
8247		-15.625000
8248		-19.531250
8249		-13.671875
8250		-15.625000
8251		-11.718750
8252		-13.671875
8253		-9.765625
8254		-11.718750
8255		-5.859375
8256		-7.812500
8257		-3.906250
8258		-5.859375
8259		0.000000
8260		-3.906250
8261		1.953125
8262		0.000000
8263		5.859375
8264		3.906250
8265		7.812500
8266		5.859375
8267		9.765625
8268		7.812500
8269		11.718750
8270		9.765625
8271		15.625000
8272		13.671875
8273		17.578125
8274		17.578125
8275		21.484375
8276		19.531250
8277		23.437500
8278		21.484375
8279		25.390625
8280		25.390625
8281		29.296875
8282		27.343750
8283		31.250000
8284		29.296875
8285		33.203125
8286		31.250000
8287		35.156250
8288		33.203125
8289		37.109375
8290		37.109375
8291		41.015625
8292		39.062500
8293		42.968750
8294		41.015625
8295		44.921875
8296		42.968750
8297		46.875000
8298		44.921875
8299		48.828125
8300		46.875000
8301		50.781250
8302		48.828125
8303		52.734375
8304		50.781250
8305		54.687500
8306		50.781250
8307		54.687500
8308		52.734375
8309		56.640625
8310		54.687500
8311		58.593750
8312		54.687500
8313		58.593750
8314		56.640625
8315		60.546875
8316		58.593750
8317		60.546875
8318		58.593750
8319		62.500000
8320		58.593750
8321		62.500000
8322		60.546875
8323		62.500000
8324		60.546875
8325		62.500000
8326		60.546875
8327		64.453125
8328		60.546875
8329		64.453125
8330		60.546875
8331		64.453125
8332		60.546875
8333		64.453125
8334		60.546875
8335		64.453125
8336		60.546875
8337		64.453125
8338		58.593750
8339		64.453125
8340		60.546875
8341		62.500000
8342		58.593750
8343		62.500000
8344		58.593750
8345		62.500000
8346		56.640625
8347		60.546875
8348		56.640625
8349		60.546875
8350		54.687500
8351		58.593750
8352		54.687500
8353		58.593750
8354		52.734375
8355		56.640625
8356		50.781250
8357		54.687500
8358		50.781250
8359		52.734375
8360		46.875000
8361		52.734375
8362		46.875000
8363		50.781250
8364		44.921875
8365		48.828125
8366		42.968750
8367		46.875000
8368		41.015625
8369		44.921875
8370		39.062500
8371		42.968750
8372		37.109375
8373		41.015625
8374		33.203125
8375		37.109375
8376		29.296875
8377		35.156250
8378		29.296875
8379		33.203125
8380		27.343750
8381		31.250000
8382		23.437500
8383		27.343750
8384		21.484375
8385		25.390625
8386		17.578125
8387		23.437500
8388		15.625000
8389		19.531250
8390		13.671875
8391		17.578125
8392		9.765625
8393		13.671875
8394		7.812500
8395		13.671875
8396		3.906250
8397		9.765625
8398		1.953125
8399		7.812500
8400		0.000000
8401		3.906250
8402		-3.906250
8403		1.953125
8404		-7.812500
8405		-1.953125
8406		-7.812500
8407		-3.906250
8408		-11.718750
8409		-7.812500
8410		-13.671875
8411		-9.765625
8412		-15.625000
8413		-11.718750
8414		-19.531250
8415		-15.625000
8416		-21.484375
8417		-17.578125
8418		-25.390625
8419		-19.531250
8420		-27.343750
8421		-23.437500
8422		-29.296875
8423		-23.437500
8424		-31.250000
8425		-27.343750
8426		-33.203125
8427		-29.296875
8428		-35.156250
8429		-31.250000
8430		-37.109375
8431		-33.203125
8432		-39.062500
8433		-33.203125
8434		-39.062500
8435		-37.109375
8436		-41.015625
8437		-37.109375
8438		-42.968750
8439		-39.062500
8440		-42.968750
8441		-41.015625
8442		-44.921875
8443		-42.968750
8444		-46.875000
8445		-41.015625
8446		-46.875000
8447		-42.968750
8448		-46.875000
8449		-44.921875
8450		-46.875000
8451		-44.921875
8452		-48.828125
8453		-44.921875
8454		-48.828125
8455		-44.921875
8456		-48.828125
8457		-44.921875
8458		-48.828125
8459		-46.875000
8460		-48.828125
8461		-44.921875
8462		-48.828125
8463		-44.921875
8464		-48.828125
8465		-44.921875
8466		-46.875000
8467		-42.968750
8468		-46.875000
8469		-42.968750
8470		-44.921875
8471		-41.015625
8472		-44.921875
8473		-41.015625
8474		-42.968750
8475		-41.015625
8476		-41.015625
8477		-39.062500
8478		-41.015625
8479		-37.109375
8480		-39.062500
8481		-35.156250
8482		-37.109375
8483		-33.203125
8484		-35.156250
8485		-31.250000
8486		-33.203125
8487		-29.296875
8488		-31.250000
8489		-27.343750
8490		-29.296875
8491		-25.390625
8492		-27.343750
8493		-23.437500
8494		-25.390625
8495		-21.484375
8496		-23.437500
8497		-17.578125
8498		-19.531250
8499		-15.625000
8500		-19.531250
8501		-13.671875
8502		-15.625000
8503		-11.718750
8504		-13.671875
8505		-7.812500
8506		-9.765625
8507		-5.859375
8508		-7.812500
8509		-3.906250
8510		-3.906250
8511		0.000000
8512		-1.953125
8513		1.953125
8514		0.000000
8515		5.859375
8516		3.906250
8517		7.812500
8518		5.859375
8519		11.718750
8520		7.812500
8521		13.671875
8522		11.718750
8523		15.625000
8524		13.671875
8525		19.531250
8526		17.578125
8527		21.484375
8528		19.531250
8529		23.437500
8530		21.484375
8531		27.343750
8532		23.437500
8533		29.296875
8534		27.343750
8535		31.250000
8536		29.296875
8537		33.203125
8538		31.250000
8539		37.109375
8540		33.203125
8541		39.062500
8542		37.109375
8543		41.015625
8544		39.062500
8545		42.968750
8546		41.015625
8547		44.921875
8548		42.968750
8549		46.875000
8550		44.921875
8551		48.828125
8552		46.875000
8553		50.781250
8554		48.828125
8555		52.734375
8556		48.828125
8557		52.734375
8558		52.734375
8559		54.687500
8560		52.734375
8561		56.640625
8562		54.687500
8563		58.593750
8564		54.687500
8565		58.593750
8566		56.640625
8567		60.546875
8568		58.593750
8569		60.546875
8570		58.593750
8571		62.500000
8572		58.593750
8573		62.500000
8574		58.593750
8575		62.500000
8576		60.546875
8577		62.500000
8578		58.593750
8579		64.453125
8580		60.546875
8581		64.453125
8582		60.546875
8583		64.453125
8584		60.546875
8585		64.453125
8586		60.546875
8587		64.453125
8588		60.546875
8589		62.500000
8590		60.546875
8591		64.453125
8592		60.546875
8593		62.500000
8594		58.593750
8595		62.500000
8596		58.593750
8597		62.500000
8598		56.640625
8599		60.546875
8600		56.640625
8601		58.593750
8602		54.687500
8603		58.593750
8604		52.734375
8605		56.640625
8606		50.781250
8607		56.640625
8608		50.781250
8609		54.687500
8610		48.828125
8611		52.734375
8612		46.875000
8613		52.734375
8614		44.921875
8615		48.828125
8616		42.968750
8617		46.875000
8618		41.015625
8619		44.921875
8620		39.062500
8621		42.968750
8622		37.109375
8623		41.015625
8624		35.156250
8625		41.015625
8626		33.203125
8627		37.109375
8628		29.296875
8629		35.156250
8630		27.343750
8631		31.250000
8632		25.390625
8633		29.296875
8634		23.437500
8635		27.343750
8636		19.531250
8637		25.390625
8638		17.578125
8639		21.484375
8640		15.625000
8641		19.531250
8642		11.718750
8643		15.625000
8644		9.765625
8645		13.671875
8646		5.859375
8647		11.718750
8648		3.906250
8649		9.765625
8650		1.953125
8651		5.859375
8652		-1.953125
8653		1.953125
8654		-3.906250
8655		0.000000
8656		-7.812500
8657		-1.953125
8658		-9.765625
8659		-3.906250
8660		-11.718750
8661		-7.812500
8662		-15.625000
8663		-9.765625
8664		-17.578125
8665		-13.671875
8666		-19.531250
8667		-15.625000
8668		-23.437500
8669		-17.578125
8670		-25.390625
8671		-21.484375
8672		-27.343750
8673		-23.437500
8674		-29.296875
8675		-25.390625
8676		-31.250000
8677		-27.343750
8678		-33.203125
8679		-29.296875
8680		-35.156250
8681		-31.250000
8682		-37.109375
8683		-33.203125
8684		-39.062500
8685		-35.156250
8686		-41.015625
8687		-37.109375
8688		-42.968750
8689		-39.062500
8690		-42.968750
8691		-39.062500
8692		-44.921875
8693		-41.015625
8694		-44.921875
8695		-42.968750
8696		-46.875000
8697		-42.968750
8698		-46.875000
8699		-42.968750
8700		-48.828125
8701		-44.921875
8702		-48.828125
8703		-44.921875
8704		-48.828125
8705		-44.921875
8706		-48.828125
8707		-44.921875
8708		-48.828125
8709		-44.921875
8710		-48.828125
8711		-46.875000
8712		-48.828125
8713		-44.921875
8714		-48.828125
8715		-44.921875
8716		-48.828125
8717		-44.921875
8718		-46.875000
8719		-44.921875
8720		-46.875000
8721		-42.968750
8722		-44.921875
8723		-42.968750
8724		-44.921875
8725		-41.015625
8726		-42.968750
8727		-41.015625
8728		-41.015625
8729		-39.062500
8730		-42.968750
8731		-37.109375
8732		-39.062500
8733		-35.156250
8734		-37.109375
8735		-33.203125
8736		-35.156250
8737		-31.250000
8738		-33.203125
8739		-29.296875
8740		-31.250000
8741		-27.343750
8742		-31.250000
8743		-25.390625
8744		-27.343750
8745		-23.437500
8746		-25.390625
8747		-21.484375
8748		-23.437500
8749		-17.578125
8750		-19.531250
8751		-15.625000
8752		-17.578125
8753		-13.671875
8754		-15.625000
8755		-11.718750
8756		-13.671875
8757		-7.812500
8758		-9.765625
8759		-5.859375
8760		-7.812500
8761		-1.953125
8762		-3.906250
8763		0.000000
8764		-1.953125
8765		1.953125
8766		1.953125
8767		5.859375
8768		3.906250
8769		7.812500
8770		5.859375
8771		9.765625
8772		9.765625
8773		13.671875
8774		11.718750
8775		17.578125
8776		13.671875
8777		19.531250
8778		17.578125
8779		21.484375
8780		19.531250
8781		25.390625
8782		23.437500
8783		27.343750
8784		25.390625
8785		29.296875
8786		27.343750
8787		31.250000
8788		29.296875
8789		35.156250
8790		33.203125
8791		37.109375
8792		35.156250
8793		39.062500
8794		37.109375
8795		41.015625
8796		39.062500
8797		42.968750
8798		41.015625
8799		44.921875
8800		42.968750
8801		46.875000
8802		44.921875
8803		48.828125
8804		46.875000
8805		50.781250
8806		48.828125
8807		52.734375
8808		50.781250
8809		54.687500
8810		52.734375
8811		54.687500
8812		52.734375
8813		56.640625
8814		52.734375
8815		58.593750
8816		56.640625
8817		58.593750
8818		56.640625
8819		60.546875
8820		58.593750
8821		60.546875
8822		58.593750
8823		62.500000
8824		58.593750
8825		62.500000
8826		58.593750
8827		62.500000
8828		60.546875
8829		62.500000
8830		60.546875
8831		64.453125
8832		60.546875
8833		64.453125
8834		60.546875
8835		64.453125
8836		60.546875
8837		64.453125
8838		60.546875
8839		62.500000
8840		60.546875
8841		64.453125
8842		58.593750
8843		62.500000
8844		58.593750
8845		62.500000
8846		56.640625
8847		60.546875
8848		58.593750
8849		60.546875
8850		56.640625
8851		58.593750
8852		54.687500
8853		58.593750
8854		54.687500
8855		58.593750
8856		52.734375
8857		56.640625
8858		52.734375
8859		54.687500
8860		50.781250
8861		52.734375
8862		48.828125
8863		52.734375
8864		46.875000
8865		50.781250
8866		44.921875
8867		48.828125
8868		42.968750
8869		46.875000
8870		41.015625
8871		44.921875
8872		39.062500
8873		42.968750
8874		37.109375
8875		41.015625
8876		35.156250
8877		39.062500
8878		31.250000
8879		35.156250
8880		29.296875
8881		33.203125
8882		27.343750
8883		31.250000
8884		25.390625
8885		29.296875
8886		21.484375
8887		25.390625
8888		19.531250
8889		23.437500
8890		17.578125
8891		21.484375
8892		13.671875
8893		19.531250
8894		11.718750
8895		15.625000
8896		7.812500
8897		11.718750
8898		5.859375
8899		9.765625
8900		1.953125
8901		7.812500
8902		0.000000
8903		3.906250
8904		-3.906250
8905		1.953125
8906		-5.859375
8907		0.000000
8908		-7.812500
8909		-3.906250
8910		-11.718750
8911		-5.859375
8912		-13.671875
8913		-9.765625
8914		-15.625000
8915		-11.718750
8916		-19.531250
8917		-13.671875
8918		-21.484375
8919		-17.578125
8920		-23.437500
8921		-19.531250
8922		-25.390625
8923		-21.484375
8924		-29.296875
8925		-23.437500
8926		-29.296875
8927		-25.390625
8928		-31.250000
8929		-29.296875
8930		-35.156250
8931		-31.250000
8932		-37.109375
8933		-33.203125
8934		-37.109375
8935		-35.156250
8936		-39.062500
8937		-35.156250
8938		-41.015625
8939		-37.109375
8940		-42.968750
8941		-39.062500
8942		-44.921875
8943		-41.015625
8944		-44.921875
8945		-42.968750
8946		-44.921875
8947		-42.968750
8948		-46.875000
8949		-42.968750
8950		-48.828125
8951		-44.921875
8952		-48.828125
8953		-44.921875
8954		-48.828125
8955		-44.921875
8956		-48.828125
8957		-46.875000
8958		-48.828125
8959		-46.875000
8960		-48.828125
8961		-44.921875
8962		-48.828125
8963		-46.875000
8964		-48.828125
8965		-44.921875
8966		-48.828125
8967		-44.921875
8968		-48.828125
8969		-44.921875
8970		-46.875000
8971		-44.921875
8972		-46.875000
8973		-42.968750
8974		-44.921875
8975		-42.968750
8976		-44.921875
8977		-41.015625
8978		-42.968750
8979		-39.062500
8980		-41.015625
8981		-39.062500
8982		-41.015625
8983		-37.109375
8984		-39.062500
8985		-35.156250
8986		-37.109375
8987		-33.203125
8988		-35.156250
8989		-31.250000
8990		-33.203125
8991		-29.296875
8992		-31.250000
8993		-27.343750
8994		-29.296875
8995		-25.390625
8996		-27.343750
8997		-23.437500
8998		-25.390625
8999		-19.531250
9000		-21.484375
9001		-17.578125
9002		-19.531250
9003		-15.625000
9004		-17.578125
9005		-13.671875
9006		-15.625000
9007		-9.765625
9008		-11.718750
9009		-7.812500
9010		-9.765625
9011		-5.859375
9012		-5.859375
9013		-1.953125
9014		-3.906250
9015		1.953125
9016		-1.953125
9017		3.906250
9018		1.953125
9019		5.859375
9020		3.906250
9021		9.765625
9022		7.812500
9023		11.718750
9024		9.765625
9025		13.671875
9026		11.718750
9027		17.578125
9028		15.625000
9029		19.531250
9030		17.578125
9031		21.484375
9032		19.531250
9033		25.390625
9034		21.484375
9035		27.343750
9036		25.390625
9037		31.250000
9038		27.343750
9039		33.203125
9040		31.250000
9041		35.156250
9042		33.203125
9043		37.109375
9044		35.156250
9045		39.062500
9046		37.109375
9047		41.015625
9048		39.062500
9049		44.921875
9050		41.015625
9051		44.921875
9052		42.968750
9053		46.875000
9054		44.921875
9055		48.828125
9056		46.875000
9057		50.781250
9058		48.828125
9059		52.734375
9060		50.781250
9061		54.687500
9062		52.734375
9063		54.687500
9064		52.734375
9065		56.640625
9066		52.734375
9067		58.593750
9068		54.687500
9069		58.593750
9070		56.640625
9071		60.546875
9072		58.593750
9073		60.546875
9074		58.593750
9075		62.500000
9076		58.593750
9077		62.500000
9078		58.593750
9079		62.500000
9080		60.546875
9081		62.500000
9082		60.546875
9083		64.453125
9084		60.546875
9085		62.500000
9086		60.546875
9087		64.453125
9088		60.546875
9089		62.500000
9090		60.546875
9091		62.500000
9092		60.546875
9093		64.453125
9094		58.593750
9095		62.500000
9096		58.593750
9097		60.546875
9098		58.593750
9099		60.546875
9100		56.640625
9101		60.546875
9102		56.640625
9103		58.593750
9104		54.687500
9105		58.593750
9106		52.734375
9107		56.640625
9108		52.734375
9109		56.640625
9110		48.828125
9111		54.687500
9112		48.828125
9113		52.734375
9114		46.875000
9115		50.781250
9116		46.875000
9117		48.828125
9118		42.968750
9119		48.828125
9120		42.968750
9121		46.875000
9122		39.062500
9123		44.921875
9124		37.109375
9125		42.968750
9126		35.156250
9127		39.062500
9128		33.203125
9129		39.062500
9130		31.250000
9131		35.156250
9132		27.343750
9133		33.203125
9134		25.390625
9135		31.250000
9136		23.437500
9137		27.343750
9138		21.484375
9139		25.390625
9140		17.578125
9141		23.437500
9142		15.625000
9143		19.531250
9144		11.718750
9145		17.578125
9146		9.765625
9147		13.671875
9148		7.812500
9149		11.718750
9150		3.906250
9151		9.765625
9152		1.953125
9153		5.859375
9154		-1.953125
9155		3.906250
9156		-3.906250
9157		0.000000
9158		-5.859375
9159		-1.953125
9160		-9.765625
9161		-3.906250
9162		-11.718750
9163		-7.812500
9164		-13.671875
9165		-9.765625
9166		-17.578125
9167		-13.671875
9168		-19.531250
9169		-15.625000
9170		-21.484375
9171		-17.578125
9172		-23.437500
9173		-19.531250
9174		-25.390625
9175		-21.484375
9176		-29.296875
9177		-23.437500
9178		-31.250000
9179		-27.343750
9180		-33.203125
9181		-29.296875
9182		-35.156250
9183		-31.250000
9184		-37.109375
9185		-33.203125
9186		-39.062500
9187		-33.203125
9188		-41.015625
9189		-37.109375
9190		-41.015625
9191		-37.109375
9192		-42.968750
9193		-39.062500
9194		-44.921875
9195		-41.015625
9196		-44.921875
9197		-41.015625
9198		-46.875000
9199		-42.968750
9200		-48.828125
9201		-42.968750
9202		-48.828125
9203		-44.921875
9204		-48.828125
9205		-44.921875
9206		-48.828125
9207		-44.921875
9208		-48.828125
9209		-46.875000
9210		-48.828125
9211		-46.875000
9212		-48.828125
9213		-46.875000
9214		-48.828125
9215		-46.875000
9216		-50.781250
9217		-44.921875
9218		-48.828125
9219		-44.921875
9220		-48.828125
9221		-44.921875
9222		-46.875000
9223		-42.968750
9224		-46.875000
9225		-42.968750
9226		-46.875000
9227		-42.968750
9228		-44.921875
9229		-41.015625
9230		-42.968750
9231		-39.062500
9232		-41.015625
9233		-39.062500
9234		-41.015625
9235		-35.156250
9236		-39.062500
9237		-35.156250
9238		-37.109375
9239		-33.203125
9240		-35.156250
9241		-31.250000
9242		-33.203125
9243		-29.296875
9244		-31.250000
9245		-27.343750
9246		-29.296875
9247		-25.390625
9248		-25.390625
9249		-23.437500
9250		-23.437500
9251		-19.531250
9252		-21.484375
9253		-17.578125
9254		-19.531250
9255		-13.671875
9256		-17.578125
9257		-11.718750
9258		-13.671875
9259		-9.765625
9260		-11.718750
9261		-7.812500
9262		-9.765625
9263		-3.906250
9264		-5.859375
9265		-1.953125
9266		-3.906250
9267		0.000000
9268		-1.953125
9269		3.906250
9270		1.953125
9271		7.812500
9272		3.906250
9273		9.765625
9274		7.812500
9275		13.671875
9276		9.765625
9277		15.625000
9278		11.718750
9279		17.578125
9280		15.625000
9281		19.531250
9282		17.578125
9283		23.437500
9284		21.484375
9285		25.390625
9286		23.437500
9287		27.343750
9288		27.343750
9289		31.250000
9290		29.296875
9291		33.203125
9292		31.250000
9293		35.156250
9294		33.203125
9295		37.109375
9296		35.156250
9297		39.062500
9298		39.062500
9299		41.015625
9300		41.015625
9301		44.921875
9302		42.968750
9303		46.875000
9304		44.921875
9305		48.828125
9306		44.921875
9307		48.828125
9308		46.875000
9309		50.781250
9310		48.828125
9311		52.734375
9312		50.781250
9313		54.687500
9314		52.734375
9315		54.687500
9316		54.687500
9317		56.640625
9318		54.687500
9319		58.593750
9320		54.687500
9321		58.593750
9322		56.640625
9323		60.546875
9324		58.593750
9325		60.546875
9326		58.593750
9327		62.500000
9328		58.593750
9329		62.500000
9330		58.593750
9331		62.500000
9332		60.546875
9333		62.500000
9334		58.593750
9335		64.453125
9336		60.546875
9337		62.500000
9338		60.546875
9339		64.453125
9340		60.546875
9341		62.500000
9342		60.546875
9343		62.500000
9344		58.593750
9345		62.500000
9346		58.593750
9347		62.500000
9348		58.593750
9349		60.546875
9350		58.593750
9351		60.546875
9352		56.640625
9353		60.546875
9354		54.687500
9355		58.593750
9356		54.687500
9357		58.593750
9358		52.734375
9359		58.593750
9360		52.734375
9361		54.687500
9362		50.781250
9363		54.687500
9364		48.828125
9365		54.687500
9366		46.875000
9367		50.781250
9368		44.921875
9369		48.828125
9370		44.921875
9371		48.828125
9372		41.015625
9373		44.921875
9374		39.062500
9375		42.968750
9376		37.109375
9377		41.015625
9378		35.156250
9379		41.015625
9380		33.203125
9381		37.109375
9382		31.250000
9383		35.156250
9384		29.296875
9385		31.250000
9386		25.390625
9387		29.296875
9388		23.437500
9389		27.343750
9390		21.484375
9391		25.390625
9392		17.578125
9393		21.484375
9394		13.671875
9395		19.531250
9396		11.718750
9397		17.578125
9398		9.765625
9399		13.671875
9400		7.812500
9401		11.718750
9402		3.906250
9403		7.812500
9404		1.953125
9405		5.859375
9406		-1.953125
9407		3.906250
9408		-3.906250
9409		0.000000
9410		-7.812500
9411		-1.953125
9412		-9.765625
9413		-5.859375
9414		-11.718750
9415		-7.812500
9416		-13.671875
9417		-11.718750
9418		-17.578125
9419		-13.671875
9420		-19.531250
9421		-15.625000
9422		-23.437500
9423		-17.578125
9424		-25.390625
9425		-21.484375
9426		-27.343750
9427		-23.437500
9428		-29.296875
9429		-25.390625
9430		-31.250000
9431		-27.343750
9432		-33.203125
9433		-29.296875
9434		-35.156250
9435		-31.250000
9436		-37.109375
9437		-33.203125
9438		-39.062500
9439		-35.156250
9440		-41.015625
9441		-37.109375
9442		-42.968750
9443		-39.062500
9444		-42.968750
9445		-41.015625
9446		-44.921875
9447		-41.015625
9448		-46.875000
9449		-41.015625
9450		-46.875000
9451		-42.968750
9452		-46.875000
9453		-42.968750
9454		-48.828125
9455		-44.921875
9456		-48.828125
9457		-44.921875
9458		-48.828125
9459		-46.875000
9460		-48.828125
9461		-46.875000
9462		-48.828125
9463		-46.875000
9464		-50.781250
9465		-44.921875
9466		-48.828125
9467		-46.875000
9468		-48.828125
9469		-44.921875
9470		-48.828125
9471		-44.921875
9472		-48.828125
9473		-44.921875
9474		-46.875000
9475		-42.968750
9476		-46.875000
9477		-42.968750
9478		-44.921875
9479		-41.015625
9480		-44.921875
9481		-39.062500
9482		-42.968750
9483		-39.062500
9484		-41.015625
9485		-37.109375
9486		-41.015625
9487		-35.156250
9488		-37.109375
9489		-35.156250
9490		-37.109375
9491		-31.250000
9492		-33.203125
9493		-31.250000
9494		-33.203125
9495		-29.296875
9496		-29.296875
9497		-25.390625
9498		-29.296875
9499		-23.437500
9500		-25.390625
9501		-21.484375
9502		-23.437500
9503		-19.531250
9504		-21.484375
9505		-17.578125
9506		-19.531250
9507		-13.671875
9508		-15.625000
9509		-11.718750
9510		-13.671875
9511		-7.812500
9512		-11.718750
9513		-5.859375
9514		-9.765625
9515		-3.906250
9516		-5.859375
9517		-1.953125
9518		-1.953125
9519		1.953125
9520		0.000000
9521		3.906250
9522		1.953125
9523		7.812500
9524		5.859375
9525		9.765625
9526		7.812500
9527		13.671875
9528		11.718750
9529		15.625000
9530		13.671875
9531		17.578125
9532		15.625000
9533		21.484375
9534		19.531250
9535		23.437500
9536		21.484375
9537		27.343750
9538		23.437500
9539		29.296875
9540		27.343750
9541		31.250000
9542		29.296875
9543		33.203125
9544		31.250000
9545		35.156250
9546		33.203125
9547		39.062500
9548		37.109375
9549		41.015625
9550		39.062500
9551		42.968750
9552		41.015625
9553		44.921875
9554		42.968750
9555		46.875000
9556		44.921875
9557		48.828125
9558		46.875000
9559		50.781250
9560		48.828125
9561		52.734375
9562		48.828125
9563		52.734375
9564		50.781250
9565		54.687500
9566		52.734375
9567		56.640625
9568		54.687500
9569		56.640625
9570		54.687500
9571		58.593750
9572		56.640625
9573		60.546875
9574		56.640625
9575		60.546875
9576		58.593750
9577		60.546875
9578		58.593750
9579		62.500000
9580		58.593750
9581		62.500000
9582		58.593750
9583		62.500000
9584		60.546875
9585		62.500000
9586		60.546875
9587		64.453125
9588		60.546875
9589		64.453125
9590		60.546875
9591		62.500000
9592		60.546875
9593		62.500000
9594		60.546875
9595		64.453125
9596		58.593750
9597		62.500000
9598		58.593750
9599		62.500000
9600		58.593750
9601		60.546875
9602		58.593750
9603		60.546875
9604		56.640625
9605		60.546875
9606		54.687500
9607		58.593750
9608		54.687500
9609		58.593750
9610		52.734375
9611		56.640625
9612		52.734375
9613		54.687500
9614		48.828125
9615		54.687500
9616		48.828125
9617		52.734375
9618		46.875000
9619		50.781250
9620		42.968750
9621		48.828125
9622		42.968750
9623		46.875000
9624		41.015625
9625		46.875000
9626		39.062500
9627		42.968750
9628		37.109375
9629		41.015625
9630		33.203125
9631		39.062500
9632		33.203125
9633		37.109375
9634		29.296875
9635		33.203125
9636		25.390625
9637		31.250000
9638		25.390625
9639		29.296875
9640		21.484375
9641		27.343750
9642		19.531250
9643		23.437500
9644		17.578125
9645		21.484375
9646		13.671875
9647		19.531250
9648		9.765625
9649		15.625000
9650		9.765625
9651		13.671875
9652		5.859375
9653		9.765625
9654		3.906250
9655		7.812500
9656		0.000000
9657		5.859375
9658		-1.953125
9659		1.953125
9660		-5.859375
9661		0.000000
9662		-7.812500
9663		-3.906250
9664		-9.765625
9665		-5.859375
9666		-13.671875
9667		-7.812500
9668		-15.625000
9669		-11.718750
9670		-19.531250
9671		-13.671875
9672		-21.484375
9673		-15.625000
9674		-23.437500
9675		-19.531250
9676		-25.390625
9677		-21.484375
9678		-27.343750
9679		-23.437500
9680		-29.296875
9681		-25.390625
9682		-31.250000
9683		-27.343750
9684		-35.156250
9685		-29.296875
9686		-35.156250
9687		-31.250000
9688		-37.109375
9689		-33.203125
9690		-39.062500
9691		-35.156250
9692		-41.015625
9693		-37.109375
9694		-42.968750
9695		-39.062500
9696		-42.968750
9697		-41.015625
9698		-44.921875
9699		-42.968750
9700		-44.921875
9701		-42.968750
9702		-46.875000
9703		-44.921875
9704		-48.828125
9705		-44.921875
9706		-48.828125
9707		-44.921875
9708		-48.828125
9709		-44.921875
9710		-50.781250
9711		-46.875000
9712		-48.828125
9713		-46.875000
9714		-48.828125
9715		-46.875000
9716		-50.781250
9717		-46.875000
9718		-48.828125
9719		-46.875000
9720		-48.828125
9721		-46.875000
9722		-48.828125
9723		-44.921875
9724		-48.828125
9725		-44.921875
9726		-46.875000
9727		-42.968750
9728		-46.875000
9729		-42.968750
9730		-44.921875
9731		-41.015625
9732		-42.968750
9733		-39.062500
9734		-42.968750
9735		-39.062500
9736		-41.015625
9737		-37.109375
9738		-41.015625
9739		-35.156250
9740		-37.109375
9741		-33.203125
9742		-35.156250
9743		-33.203125
9744		-35.156250
9745		-29.296875
9746		-31.250000
9747		-27.343750
9748		-29.296875
9749		-25.390625
9750		-27.343750
9751		-23.437500
9752		-25.390625
9753		-21.484375
9754		-23.437500
9755		-17.578125
9756		-21.484375
9757		-15.625000
9758		-17.578125
9759		-13.671875
9760		-15.625000
9761		-11.718750
9762		-11.718750
9763		-7.812500
9764		-9.765625
9765		-5.859375
9766		-7.812500
9767		-1.953125
9768		-3.906250
9769		0.000000
9770		-1.953125
9771		1.953125
9772		0.000000
9773		5.859375
9774		3.906250
9775		7.812500
9776		5.859375
9777		11.718750
9778		9.765625
9779		13.671875
9780		9.765625
9781		15.625000
9782		13.671875
9783		19.531250
9784		15.625000
9785		21.484375
9786		19.531250
9787		23.437500
9788		23.437500
9789		27.343750
9790		25.390625
9791		29.296875
9792		27.343750
9793		31.250000
9794		29.296875
9795		33.203125
9796		31.250000
9797		37.109375
9798		35.156250
9799		39.062500
9800		37.109375
9801		41.015625
9802		39.062500
9803		42.968750
9804		41.015625
9805		44.921875
9806		42.968750
9807		46.875000
9808		44.921875
9809		48.828125
9810		46.875000
9811		50.781250
9812		48.828125
9813		52.734375
9814		50.781250
9815		54.687500
9816		50.781250
9817		54.687500
9818		52.734375
9819		56.640625
9820		54.687500
9821		56.640625
9822		54.687500
9823		58.593750
9824		56.640625
9825		60.546875
9826		58.593750
9827		60.546875
9828		56.640625
9829		60.546875
9830		58.593750
9831		62.500000
9832		58.593750
9833		62.500000
9834		60.546875
9835		62.500000
9836		60.546875
9837		62.500000
9838		58.593750
9839		64.453125
9840		60.546875
9841		64.453125
9842		60.546875
9843		62.500000
9844		60.546875
9845		62.500000
9846		60.546875
9847		62.500000
9848		60.546875
9849		62.500000
9850		58.593750
9851		62.500000
9852		58.593750
9853		60.546875
9854		56.640625
9855		60.546875
9856		56.640625
9857		60.546875
9858		54.687500
9859		58.593750
9860		52.734375
9861		58.593750
9862		52.734375
9863		56.640625
9864		50.781250
9865		54.687500
9866		48.828125
9867		52.734375
9868		48.828125
9869		52.734375
9870		46.875000
9871		48.828125
9872		44.921875
9873		48.828125
9874		42.968750
9875		46.875000
9876		41.015625
9877		44.921875
9878		39.062500
9879		42.968750
9880		37.109375
9881		41.015625
9882		33.203125
9883		39.062500
9884		31.250000
9885		35.156250
9886		29.296875
9887		33.203125
9888		27.343750
9889		31.250000
9890		23.437500
9891		29.296875
9892		21.484375
9893		25.390625
9894		19.531250
9895		23.437500
9896		15.625000
9897		19.531250
9898		13.671875
9899		17.578125
9900		11.718750
9901		15.625000
9902		7.812500
9903		13.671875
9904		5.859375
9905		9.765625
9906		1.953125
9907		7.812500
9908		0.000000
9909		3.906250
9910		-1.953125
9911		1.953125
9912		-5.859375
9913		0.000000
9914		-7.812500
9915		-3.906250
9916		-11.718750
9917		-5.859375
9918		-13.671875
9919		-9.765625
9920		-15.625000
9921		-11.718750
9922		-19.531250
9923		-15.625000
9924		-21.484375
9925		-17.578125
9926		-23.437500
9927		-19.531250
9928		-27.343750
9929		-21.484375
9930		-29.296875
9931		-23.437500
9932		-31.250000
9933		-25.390625
9934		-33.203125
9935		-29.296875
9936		-35.156250
9937		-31.250000
9938		-37.109375
9939		-33.203125
9940		-39.062500
9941		-35.156250
9942		-39.062500
9943		-37.109375
9944		-41.015625
9945		-37.109375
9946		-42.968750
9947		-39.062500
9948		-44.921875
9949		-41.015625
9950		-44.921875
9951		-41.015625
9952		-46.875000
9953		-42.968750
9954		-46.875000
9955		-44.921875
9956		-48.828125
9957		-44.921875
9958		-48.828125
9959		-44.921875
9960		-48.828125
9961		-44.921875
9962		-48.828125
9963		-46.875000
9964		-48.828125
9965		-46.875000
9966		-50.781250
9967		-46.875000
9968		-50.781250
9969		-46.875000
9970		-48.828125
9971		-46.875000
9972		-48.828125
9973		-46.875000
9974		-48.828125
9975		-44.921875
9976		-48.828125
9977		-44.921875
9978		-46.875000
9979		-44.921875
9980		-46.875000
9981		-42.968750
9982		-44.921875
9983		-41.015625
9984		-42.968750
9985		-39.062500
9986		-42.968750
9987		-39.062500
9988		-41.015625
9989		-37.109375
9990		-41.015625
9991		-35.156250
9992		-37.109375
9993		-33.203125
9994		-37.109375
9995		-31.250000
9996		-33.203125
9997		-29.296875
9998		-31.250000
9999		-27.343750
10000		-31.250000
