Channel              :		CH1
Frequency            :		1.982kHz
Period               :		0.505ms
PK-PK                :		205.1mV
Probe attenuation    :		1X
Voltage per ADC value:		0.122070mV
Time interval        :		2.00000us

index		CH1_Voltage(mV)
1		95.703125
2		95.703125
3		91.796875
4		95.703125
5		93.750000
6		97.656250
7		95.703125
8		99.609375
9		95.703125
10		99.609375
11		97.656250
12		99.609375
13		97.656250
14		99.609375
15		97.656250
16		101.562500
17		97.656250
18		101.562500
19		97.656250
20		99.609375
21		97.656250
22		99.609375
23		95.703125
24		99.609375
25		93.750000
26		97.656250
27		93.750000
28		97.656250
29		93.750000
30		95.703125
31		89.843750
32		95.703125
33		89.843750
34		93.750000
35		87.890625
36		91.796875
37		85.937500
38		89.843750
39		83.984375
40		87.890625
41		80.078125
42		85.937500
43		78.125000
44		82.031250
45		76.171875
46		80.078125
47		72.265625
48		76.171875
49		68.359375
50		74.218750
51		66.406250
52		70.312500
53		62.500000
54		68.359375
55		58.593750
56		64.453125
57		54.687500
58		60.546875
59		50.781250
60		56.640625
61		46.875000
62		52.734375
63		42.968750
64		48.828125
65		37.109375
66		44.921875
67		33.203125
68		39.062500
69		29.296875
70		35.156250
71		25.390625
72		31.250000
73		19.531250
74		25.390625
75		15.625000
76		21.484375
77		9.765625
78		17.578125
79		5.859375
80		11.718750
81		0.000000
82		7.812500
83		-3.906250
84		1.953125
85		-9.765625
86		-1.953125
87		-13.671875
88		-7.812500
89		-17.578125
90		-11.718750
91		-23.437500
92		-15.625000
93		-29.296875
94		-21.484375
95		-33.203125
96		-25.390625
97		-37.109375
98		-31.250000
99		-41.015625
100		-35.156250
101		-44.921875
102		-39.062500
103		-50.781250
104		-42.968750
105		-52.734375
106		-48.828125
107		-58.593750
108		-50.781250
109		-60.546875
110		-56.640625
111		-64.453125
112		-58.593750
113		-68.359375
114		-64.453125
115		-72.265625
116		-66.406250
117		-74.218750
118		-70.312500
119		-78.125000
120		-72.265625
121		-80.078125
122		-76.171875
123		-82.031250
124		-78.125000
125		-83.984375
126		-80.078125
127		-85.937500
128		-82.031250
129		-87.890625
130		-83.984375
131		-89.843750
132		-85.937500
133		-89.843750
134		-87.890625
135		-91.796875
136		-87.890625
137		-91.796875
138		-89.843750
139		-93.750000
140		-89.843750
141		-93.750000
142		-89.843750
143		-93.750000
144		-89.843750
145		-93.750000
146		-89.843750
147		-91.796875
148		-89.843750
149		-91.796875
150		-87.890625
151		-89.843750
152		-85.937500
153		-89.843750
154		-85.937500
155		-87.890625
156		-83.984375
157		-85.937500
158		-82.031250
159		-83.984375
160		-80.078125
161		-82.031250
162		-78.125000
163		-80.078125
164		-74.218750
165		-76.171875
166		-70.312500
167		-74.218750
168		-68.359375
169		-70.312500
170		-66.406250
171		-68.359375
172		-62.500000
173		-64.453125
174		-58.593750
175		-60.546875
176		-54.687500
177		-56.640625
178		-50.781250
179		-52.734375
180		-46.875000
181		-48.828125
182		-42.968750
183		-44.921875
184		-37.109375
185		-39.062500
186		-33.203125
187		-35.156250
188		-29.296875
189		-31.250000
190		-25.390625
191		-27.343750
192		-19.531250
193		-21.484375
194		-15.625000
195		-17.578125
196		-9.765625
197		-11.718750
198		-5.859375
199		-7.812500
200		0.000000
201		-1.953125
202		3.906250
203		1.953125
204		9.765625
205		7.812500
206		13.671875
207		11.718750
208		17.578125
209		17.578125
210		23.437500
211		21.484375
212		27.343750
213		25.390625
214		31.250000
215		31.250000
216		37.109375
217		33.203125
218		41.015625
219		39.062500
220		44.921875
221		42.968750
222		48.828125
223		46.875000
224		52.734375
225		52.734375
226		56.640625
227		56.640625
228		60.546875
229		58.593750
230		64.453125
231		62.500000
232		68.359375
233		66.406250
234		72.265625
235		70.312500
236		76.171875
237		72.265625
238		78.125000
239		76.171875
240		82.031250
241		78.125000
242		82.031250
243		80.078125
244		85.937500
245		83.984375
246		87.890625
247		85.937500
248		89.843750
249		87.890625
250		91.796875
251		89.843750
252		93.750000
253		91.796875
254		95.703125
255		93.750000
256		97.656250
257		95.703125
258		97.656250
259		95.703125
260		99.609375
261		95.703125
262		101.562500
263		97.656250
264		99.609375
265		97.656250
266		101.562500
267		97.656250
268		101.562500
269		97.656250
270		101.562500
271		97.656250
272		101.562500
273		97.656250
274		99.609375
275		97.656250
276		99.609375
277		95.703125
278		99.609375
279		95.703125
280		99.609375
281		93.750000
282		97.656250
283		91.796875
284		95.703125
285		91.796875
286		95.703125
287		87.890625
288		93.750000
289		85.937500
290		89.843750
291		83.984375
292		89.843750
293		82.031250
294		85.937500
295		80.078125
296		83.984375
297		76.171875
298		82.031250
299		74.218750
300		78.125000
301		70.312500
302		76.171875
303		66.406250
304		72.265625
305		64.453125
306		68.359375
307		60.546875
308		66.406250
309		56.640625
310		62.500000
311		52.734375
312		58.593750
313		48.828125
314		54.687500
315		44.921875
316		50.781250
317		41.015625
318		46.875000
319		35.156250
320		41.015625
321		31.250000
322		37.109375
323		25.390625
324		33.203125
325		21.484375
326		27.343750
327		17.578125
328		23.437500
329		13.671875
330		19.531250
331		7.812500
332		13.671875
333		1.953125
334		9.765625
335		-1.953125
336		3.906250
337		-5.859375
338		0.000000
339		-11.718750
340		-5.859375
341		-15.625000
342		-9.765625
343		-21.484375
344		-15.625000
345		-27.343750
346		-19.531250
347		-29.296875
348		-23.437500
349		-35.156250
350		-29.296875
351		-39.062500
352		-33.203125
353		-42.968750
354		-37.109375
355		-48.828125
356		-41.015625
357		-52.734375
358		-46.875000
359		-56.640625
360		-50.781250
361		-60.546875
362		-54.687500
363		-62.500000
364		-56.640625
365		-66.406250
366		-62.500000
367		-70.312500
368		-64.453125
369		-72.265625
370		-66.406250
371		-76.171875
372		-70.312500
373		-78.125000
374		-74.218750
375		-82.031250
376		-76.171875
377		-83.984375
378		-78.125000
379		-85.937500
380		-80.078125
381		-85.937500
382		-83.984375
383		-87.890625
384		-85.937500
385		-89.843750
386		-85.937500
387		-89.843750
388		-87.890625
389		-91.796875
390		-87.890625
391		-91.796875
392		-89.843750
393		-91.796875
394		-89.843750
395		-91.796875
396		-89.843750
397		-91.796875
398		-87.890625
399		-91.796875
400		-87.890625
401		-89.843750
402		-87.890625
403		-89.843750
404		-85.937500
405		-89.843750
406		-85.937500
407		-87.890625
408		-83.984375
409		-85.937500
410		-82.031250
411		-83.984375
412		-80.078125
413		-82.031250
414		-78.125000
415		-78.125000
416		-74.218750
417		-76.171875
418		-72.265625
419		-74.218750
420		-70.312500
421		-72.265625
422		-64.453125
423		-68.359375
424		-62.500000
425		-64.453125
426		-58.593750
427		-60.546875
428		-54.687500
429		-56.640625
430		-50.781250
431		-52.734375
432		-46.875000
433		-48.828125
434		-42.968750
435		-44.921875
436		-39.062500
437		-41.015625
438		-35.156250
439		-35.156250
440		-29.296875
441		-31.250000
442		-25.390625
443		-27.343750
444		-19.531250
445		-21.484375
446		-15.625000
447		-17.578125
448		-11.718750
449		-13.671875
450		-5.859375
451		-7.812500
452		-1.953125
453		-3.906250
454		3.906250
455		1.953125
456		7.812500
457		5.859375
458		11.718750
459		11.718750
460		17.578125
461		15.625000
462		21.484375
463		21.484375
464		27.343750
465		25.390625
466		31.250000
467		29.296875
468		35.156250
469		33.203125
470		41.015625
471		39.062500
472		44.921875
473		42.968750
474		48.828125
475		46.875000
476		52.734375
477		50.781250
478		56.640625
479		54.687500
480		60.546875
481		58.593750
482		64.453125
483		62.500000
484		68.359375
485		66.406250
486		72.265625
487		70.312500
488		74.218750
489		72.265625
490		78.125000
491		76.171875
492		80.078125
493		78.125000
494		82.031250
495		82.031250
496		85.937500
497		83.984375
498		87.890625
499		85.937500
500		89.843750
501		87.890625
502		91.796875
503		87.890625
504		93.750000
505		91.796875
506		95.703125
507		93.750000
508		97.656250
509		93.750000
510		97.656250
511		95.703125
512		99.609375
513		95.703125
514		99.609375
515		97.656250
516		99.609375
517		97.656250
518		101.562500
519		97.656250
520		101.562500
521		97.656250
522		101.562500
523		97.656250
524		101.562500
525		97.656250
526		101.562500
527		97.656250
528		99.609375
529		95.703125
530		99.609375
531		95.703125
532		99.609375
533		95.703125
534		97.656250
535		93.750000
536		95.703125
537		91.796875
538		95.703125
539		89.843750
540		93.750000
541		87.890625
542		91.796875
543		83.984375
544		89.843750
545		82.031250
546		87.890625
547		80.078125
548		83.984375
549		78.125000
550		82.031250
551		74.218750
552		80.078125
553		72.265625
554		76.171875
555		68.359375
556		74.218750
557		64.453125
558		70.312500
559		60.546875
560		66.406250
561		58.593750
562		62.500000
563		52.734375
564		58.593750
565		48.828125
566		56.640625
567		44.921875
568		50.781250
569		41.015625
570		46.875000
571		37.109375
572		42.968750
573		33.203125
574		39.062500
575		27.343750
576		33.203125
577		23.437500
578		29.296875
579		17.578125
580		25.390625
581		13.671875
582		19.531250
583		9.765625
584		15.625000
585		3.906250
586		9.765625
587		0.000000
588		7.812500
589		-5.859375
590		0.000000
591		-9.765625
592		-3.906250
593		-15.625000
594		-7.812500
595		-19.531250
596		-13.671875
597		-23.437500
598		-17.578125
599		-29.296875
600		-21.484375
601		-33.203125
602		-27.343750
603		-37.109375
604		-31.250000
605		-42.968750
606		-35.156250
607		-46.875000
608		-41.015625
609		-50.781250
610		-44.921875
611		-54.687500
612		-48.828125
613		-58.593750
614		-52.734375
615		-62.500000
616		-56.640625
617		-66.406250
618		-60.546875
619		-70.312500
620		-64.453125
621		-74.218750
622		-66.406250
623		-76.171875
624		-70.312500
625		-78.125000
626		-72.265625
627		-80.078125
628		-76.171875
629		-83.984375
630		-78.125000
631		-83.984375
632		-80.078125
633		-85.937500
634		-83.984375
635		-87.890625
636		-83.984375
637		-89.843750
638		-85.937500
639		-89.843750
640		-87.890625
641		-91.796875
642		-87.890625
643		-91.796875
644		-87.890625
645		-91.796875
646		-89.843750
647		-93.750000
648		-87.890625
649		-91.796875
650		-87.890625
651		-91.796875
652		-89.843750
653		-91.796875
654		-87.890625
655		-91.796875
656		-87.890625
657		-89.843750
658		-85.937500
659		-87.890625
660		-83.984375
661		-85.937500
662		-82.031250
663		-83.984375
664		-80.078125
665		-82.031250
666		-78.125000
667		-80.078125
668		-76.171875
669		-78.125000
670		-74.218750
671		-74.218750
672		-70.312500
673		-72.265625
674		-66.406250
675		-68.359375
676		-64.453125
677		-64.453125
678		-60.546875
679		-62.500000
680		-56.640625
681		-58.593750
682		-52.734375
683		-54.687500
684		-48.828125
685		-50.781250
686		-44.921875
687		-46.875000
688		-41.015625
689		-42.968750
690		-35.156250
691		-37.109375
692		-31.250000
693		-33.203125
694		-25.390625
695		-27.343750
696		-21.484375
697		-23.437500
698		-17.578125
699		-19.531250
700		-11.718750
701		-13.671875
702		-7.812500
703		-9.765625
704		-1.953125
705		-3.906250
706		1.953125
707		0.000000
708		5.859375
709		3.906250
710		11.718750
711		9.765625
712		15.625000
713		13.671875
714		21.484375
715		19.531250
716		25.390625
717		23.437500
718		29.296875
719		29.296875
720		35.156250
721		33.203125
722		39.062500
723		37.109375
724		42.968750
725		41.015625
726		48.828125
727		46.875000
728		50.781250
729		48.828125
730		54.687500
731		54.687500
732		58.593750
733		56.640625
734		62.500000
735		62.500000
736		66.406250
737		64.453125
738		72.265625
739		66.406250
740		74.218750
741		72.265625
742		78.125000
743		74.218750
744		80.078125
745		76.171875
746		83.984375
747		80.078125
748		85.937500
749		82.031250
750		87.890625
751		85.937500
752		89.843750
753		87.890625
754		91.796875
755		87.890625
756		95.703125
757		89.843750
758		95.703125
759		91.796875
760		97.656250
761		93.750000
762		99.609375
763		93.750000
764		99.609375
765		93.750000
766		101.562500
767		97.656250
768		101.562500
769		97.656250
770		101.562500
771		95.703125
772		103.515625
773		95.703125
774		103.515625
775		95.703125
776		103.515625
777		95.703125
778		101.562500
779		95.703125
780		101.562500
781		95.703125
782		101.562500
783		93.750000
784		101.562500
785		95.703125
786		97.656250
787		91.796875
788		97.656250
789		89.843750
790		97.656250
791		87.890625
792		95.703125
793		85.937500
794		93.750000
795		83.984375
796		91.796875
797		82.031250
798		89.843750
799		78.125000
800		87.890625
801		78.125000
802		83.984375
803		76.171875
804		80.078125
805		70.312500
806		78.125000
807		68.359375
808		74.218750
809		64.453125
810		72.265625
811		60.546875
812		68.359375
813		56.640625
814		64.453125
815		54.687500
816		60.546875
817		50.781250
818		56.640625
819		46.875000
820		52.734375
821		41.015625
822		46.875000
823		35.156250
824		46.875000
825		33.203125
826		41.015625
827		27.343750
828		37.109375
829		21.484375
830		31.250000
831		17.578125
832		27.343750
833		15.625000
834		23.437500
835		9.765625
836		15.625000
837		5.859375
838		11.718750
839		-1.953125
840		7.812500
841		-7.812500
842		3.906250
843		-11.718750
844		-1.953125
845		-15.625000
846		-5.859375
847		-21.484375
848		-9.765625
849		-25.390625
850		-15.625000
851		-27.343750
852		-21.484375
853		-33.203125
854		-27.343750
855		-37.109375
856		-31.250000
857		-42.968750
858		-33.203125
859		-46.875000
860		-37.109375
861		-52.734375
862		-42.968750
863		-56.640625
864		-44.921875
865		-60.546875
866		-50.781250
867		-62.500000
868		-54.687500
869		-64.453125
870		-60.546875
871		-70.312500
872		-62.500000
873		-74.218750
874		-64.453125
875		-76.171875
876		-68.359375
877		-80.078125
878		-70.312500
879		-82.031250
880		-74.218750
881		-83.984375
882		-76.171875
883		-85.937500
884		-78.125000
885		-85.937500
886		-82.031250
887		-87.890625
888		-83.984375
889		-91.796875
890		-83.984375
891		-91.796875
892		-85.937500
893		-91.796875
894		-85.937500
895		-93.750000
896		-85.937500
897		-95.703125
898		-85.937500
899		-93.750000
900		-87.890625
901		-95.703125
902		-87.890625
903		-91.796875
904		-89.843750
905		-91.796875
906		-87.890625
907		-93.750000
908		-85.937500
909		-91.796875
910		-83.984375
911		-91.796875
912		-82.031250
913		-89.843750
914		-80.078125
915		-87.890625
916		-78.125000
917		-85.937500
918		-78.125000
919		-80.078125
920		-76.171875
921		-78.125000
922		-74.218750
923		-76.171875
924		-70.312500
925		-74.218750
926		-66.406250
927		-70.312500
928		-62.500000
929		-68.359375
930		-58.593750
931		-64.453125
932		-54.687500
933		-60.546875
934		-50.781250
935		-56.640625
936		-48.828125
937		-50.781250
938		-44.921875
939		-46.875000
940		-39.062500
941		-44.921875
942		-35.156250
943		-41.015625
944		-29.296875
945		-37.109375
946		-25.390625
947		-31.250000
948		-19.531250
949		-27.343750
950		-15.625000
951		-21.484375
952		-13.671875
953		-15.625000
954		-9.765625
955		-9.765625
956		-3.906250
957		-7.812500
958		1.953125
959		-1.953125
960		7.812500
961		1.953125
962		11.718750
963		5.859375
964		17.578125
965		11.718750
966		21.484375
967		15.625000
968		25.390625
969		21.484375
970		29.296875
971		27.343750
972		33.203125
973		31.250000
974		39.062500
975		33.203125
976		44.921875
977		39.062500
978		48.828125
979		42.968750
980		52.734375
981		46.875000
982		56.640625
983		50.781250
984		60.546875
985		54.687500
986		62.500000
987		60.546875
988		66.406250
989		64.453125
990		70.312500
991		64.453125
992		74.218750
993		68.359375
994		76.171875
995		72.265625
996		80.078125
997		74.218750
998		83.984375
999		78.125000
1000		85.937500
1001		80.078125
1002		87.890625
1003		83.984375
1004		87.890625
1005		87.890625
1006		89.843750
1007		87.890625
1008		93.750000
1009		87.890625
1010		95.703125
1011		89.843750
1012		97.656250
1013		91.796875
1014		99.609375
1015		93.750000
1016		99.609375
1017		93.750000
1018		101.562500
1019		95.703125
1020		101.562500
1021		97.656250
1022		101.562500
1023		95.703125
1024		103.515625
1025		95.703125
1026		103.515625
1027		95.703125
1028		103.515625
1029		95.703125
1030		103.515625
1031		95.703125
1032		103.515625
1033		95.703125
1034		101.562500
1035		95.703125
1036		101.562500
1037		95.703125
1038		97.656250
1039		93.750000
1040		97.656250
1041		89.843750
1042		97.656250
1043		87.890625
1044		95.703125
1045		85.937500
1046		95.703125
1047		83.984375
1048		93.750000
1049		82.031250
1050		91.796875
1051		80.078125
1052		87.890625
1053		80.078125
1054		83.984375
1055		76.171875
1056		80.078125
1057		70.312500
1058		80.078125
1059		68.359375
1060		76.171875
1061		64.453125
1062		74.218750
1063		62.500000
1064		70.312500
1065		56.640625
1066		68.359375
1067		52.734375
1068		64.453125
1069		52.734375
1070		58.593750
1071		48.828125
1072		54.687500
1073		42.968750
1074		48.828125
1075		37.109375
1076		46.875000
1077		33.203125
1078		42.968750
1079		27.343750
1080		39.062500
1081		23.437500
1082		35.156250
1083		19.531250
1084		29.296875
1085		15.625000
1086		25.390625
1087		11.718750
1088		17.578125
1089		7.812500
1090		13.671875
1091		0.000000
1092		9.765625
1093		-3.906250
1094		5.859375
1095		-9.765625
1096		1.953125
1097		-13.671875
1098		-3.906250
1099		-19.531250
1100		-7.812500
1101		-23.437500
1102		-13.671875
1103		-27.343750
1104		-19.531250
1105		-31.250000
1106		-25.390625
1107		-37.109375
1108		-29.296875
1109		-42.968750
1110		-31.250000
1111		-46.875000
1112		-37.109375
1113		-50.781250
1114		-41.015625
1115		-54.687500
1116		-44.921875
1117		-58.593750
1118		-48.828125
1119		-60.546875
1120		-52.734375
1121		-62.500000
1122		-58.593750
1123		-66.406250
1124		-62.500000
1125		-72.265625
1126		-64.453125
1127		-74.218750
1128		-66.406250
1129		-78.125000
1130		-68.359375
1131		-82.031250
1132		-72.265625
1133		-83.984375
1134		-74.218750
1135		-85.937500
1136		-78.125000
1137		-85.937500
1138		-80.078125
1139		-85.937500
1140		-83.984375
1141		-89.843750
1142		-83.984375
1143		-91.796875
1144		-83.984375
1145		-93.750000
1146		-85.937500
1147		-93.750000
1148		-85.937500
1149		-93.750000
1150		-85.937500
1151		-93.750000
1152		-85.937500
1153		-93.750000
1154		-87.890625
1155		-91.796875
1156		-89.843750
1157		-91.796875
1158		-85.937500
1159		-93.750000
1160		-85.937500
1161		-91.796875
1162		-83.984375
1163		-91.796875
1164		-82.031250
1165		-89.843750
1166		-82.031250
1167		-87.890625
1168		-78.125000
1169		-85.937500
1170		-78.125000
1171		-80.078125
1172		-76.171875
1173		-78.125000
1174		-74.218750
1175		-78.125000
1176		-70.312500
1177		-76.171875
1178		-64.453125
1179		-72.265625
1180		-62.500000
1181		-68.359375
1182		-60.546875
1183		-66.406250
1184		-56.640625
1185		-62.500000
1186		-52.734375
1187		-58.593750
1188		-50.781250
1189		-52.734375
1190		-46.875000
1191		-48.828125
1192		-39.062500
1193		-46.875000
1194		-35.156250
1195		-41.015625
1196		-31.250000
1197		-37.109375
1198		-27.343750
1199		-33.203125
1200		-21.484375
1201		-29.296875
1202		-17.578125
1203		-23.437500
1204		-13.671875
1205		-15.625000
1206		-9.765625
1207		-11.718750
1208		-5.859375
1209		-9.765625
1210		1.953125
1211		-3.906250
1212		5.859375
1213		1.953125
1214		11.718750
1215		5.859375
1216		15.625000
1217		9.765625
1218		21.484375
1219		13.671875
1220		25.390625
1221		21.484375
1222		27.343750
1223		27.343750
1224		33.203125
1225		31.250000
1226		39.062500
1227		33.203125
1228		42.968750
1229		37.109375
1230		46.875000
1231		41.015625
1232		52.734375
1233		46.875000
1234		54.687500
1235		50.781250
1236		58.593750
1237		52.734375
1238		62.500000
1239		60.546875
1240		66.406250
1241		64.453125
1242		70.312500
1243		64.453125
1244		74.218750
1245		68.359375
1246		78.125000
1247		70.312500
1248		80.078125
1249		74.218750
1250		83.984375
1251		76.171875
1252		85.937500
1253		80.078125
1254		87.890625
1255		83.984375
1256		87.890625
1257		85.937500
1258		89.843750
1259		87.890625
1260		95.703125
1261		87.890625
1262		95.703125
1263		89.843750
1264		97.656250
1265		91.796875
1266		99.609375
1267		93.750000
1268		99.609375
1269		93.750000
1270		101.562500
1271		95.703125
1272		101.562500
1273		97.656250
1274		101.562500
1275		95.703125
1276		103.515625
1277		97.656250
1278		103.515625
1279		97.656250
1280		103.515625
1281		95.703125
1282		103.515625
1283		95.703125
1284		103.515625
1285		95.703125
1286		101.562500
1287		95.703125
1288		101.562500
1289		95.703125
1290		99.609375
1291		93.750000
1292		97.656250
1293		91.796875
1294		97.656250
1295		89.843750
1296		97.656250
1297		87.890625
1298		95.703125
1299		85.937500
1300		93.750000
1301		83.984375
1302		91.796875
1303		80.078125
1304		89.843750
1305		80.078125
1306		85.937500
1307		78.125000
1308		82.031250
1309		72.265625
1310		80.078125
1311		68.359375
1312		78.125000
1313		66.406250
1314		74.218750
1315		62.500000
1316		72.265625
1317		58.593750
1318		68.359375
1319		54.687500
1320		64.453125
1321		52.734375
1322		60.546875
1323		48.828125
1324		54.687500
1325		42.968750
1326		50.781250
1327		39.062500
1328		48.828125
1329		35.156250
1330		44.921875
1331		31.250000
1332		39.062500
1333		25.390625
1334		35.156250
1335		21.484375
1336		31.250000
1337		17.578125
1338		27.343750
1339		13.671875
1340		19.531250
1341		9.765625
1342		15.625000
1343		1.953125
1344		11.718750
1345		-1.953125
1346		7.812500
1347		-7.812500
1348		1.953125
1349		-11.718750
1350		-1.953125
1351		-17.578125
1352		-7.812500
1353		-21.484375
1354		-11.718750
1355		-25.390625
1356		-17.578125
1357		-29.296875
1358		-23.437500
1359		-35.156250
1360		-27.343750
1361		-41.015625
1362		-29.296875
1363		-44.921875
1364		-35.156250
1365		-48.828125
1366		-39.062500
1367		-52.734375
1368		-42.968750
1369		-56.640625
1370		-46.875000
1371		-58.593750
1372		-50.781250
1373		-62.500000
1374		-56.640625
1375		-66.406250
1376		-60.546875
1377		-70.312500
1378		-62.500000
1379		-74.218750
1380		-64.453125
1381		-78.125000
1382		-68.359375
1383		-80.078125
1384		-72.265625
1385		-82.031250
1386		-74.218750
1387		-83.984375
1388		-76.171875
1389		-83.984375
1390		-78.125000
1391		-85.937500
1392		-82.031250
1393		-89.843750
1394		-82.031250
1395		-91.796875
1396		-83.984375
1397		-91.796875
1398		-83.984375
1399		-91.796875
1400		-85.937500
1401		-93.750000
1402		-85.937500
1403		-93.750000
1404		-85.937500
1405		-93.750000
1406		-85.937500
1407		-91.796875
1408		-87.890625
1409		-91.796875
1410		-85.937500
1411		-91.796875
1412		-83.984375
1413		-91.796875
1414		-83.984375
1415		-89.843750
1416		-82.031250
1417		-87.890625
1418		-80.078125
1419		-87.890625
1420		-78.125000
1421		-85.937500
1422		-76.171875
1423		-80.078125
1424		-76.171875
1425		-78.125000
1426		-74.218750
1427		-78.125000
1428		-70.312500
1429		-74.218750
1430		-66.406250
1431		-72.265625
1432		-62.500000
1433		-68.359375
1434		-58.593750
1435		-66.406250
1436		-56.640625
1437		-62.500000
1438		-52.734375
1439		-58.593750
1440		-50.781250
1441		-52.734375
1442		-46.875000
1443		-48.828125
1444		-41.015625
1445		-46.875000
1446		-37.109375
1447		-42.968750
1448		-33.203125
1449		-37.109375
1450		-27.343750
1451		-33.203125
1452		-23.437500
1453		-27.343750
1454		-19.531250
1455		-23.437500
1456		-15.625000
1457		-17.578125
1458		-11.718750
1459		-11.718750
1460		-5.859375
1461		-9.765625
1462		0.000000
1463		-3.906250
1464		5.859375
1465		0.000000
1466		9.765625
1467		3.906250
1468		15.625000
1469		9.765625
1470		21.484375
1471		15.625000
1472		23.437500
1473		21.484375
1474		27.343750
1475		25.390625
1476		31.250000
1477		29.296875
1478		39.062500
1479		33.203125
1480		42.968750
1481		37.109375
1482		46.875000
1483		41.015625
1484		52.734375
1485		44.921875
1486		54.687500
1487		48.828125
1488		58.593750
1489		52.734375
1490		60.546875
1491		58.593750
1492		64.453125
1493		62.500000
1494		70.312500
1495		64.453125
1496		74.218750
1497		68.359375
1498		76.171875
1499		72.265625
1500		80.078125
1501		74.218750
1502		83.984375
1503		78.125000
1504		85.937500
1505		80.078125
1506		87.890625
1507		83.984375
1508		87.890625
1509		85.937500
1510		89.843750
1511		85.937500
1512		93.750000
1513		87.890625
1514		95.703125
1515		89.843750
1516		97.656250
1517		91.796875
1518		99.609375
1519		93.750000
1520		101.562500
1521		93.750000
1522		101.562500
1523		95.703125
1524		101.562500
1525		97.656250
1526		101.562500
1527		97.656250
1528		103.515625
1529		97.656250
1530		103.515625
1531		97.656250
1532		103.515625
1533		97.656250
1534		103.515625
1535		97.656250
1536		103.515625
1537		95.703125
1538		103.515625
1539		95.703125
1540		101.562500
1541		97.656250
1542		99.609375
1543		95.703125
1544		97.656250
1545		91.796875
1546		99.609375
1547		89.843750
1548		97.656250
1549		87.890625
1550		95.703125
1551		85.937500
1552		93.750000
1553		83.984375
1554		91.796875
1555		82.031250
1556		89.843750
1557		82.031250
1558		87.890625
1559		78.125000
1560		83.984375
1561		74.218750
1562		80.078125
1563		70.312500
1564		80.078125
1565		66.406250
1566		76.171875
1567		62.500000
1568		72.265625
1569		60.546875
1570		70.312500
1571		56.640625
1572		66.406250
1573		54.687500
1574		62.500000
1575		50.781250
1576		56.640625
1577		46.875000
1578		52.734375
1579		39.062500
1580		50.781250
1581		37.109375
1582		46.875000
1583		31.250000
1584		41.015625
1585		27.343750
1586		37.109375
1587		23.437500
1588		33.203125
1589		17.578125
1590		27.343750
1591		15.625000
1592		21.484375
1593		9.765625
1594		17.578125
1595		3.906250
1596		11.718750
1597		0.000000
1598		9.765625
1599		-5.859375
1600		3.906250
1601		-11.718750
1602		0.000000
1603		-15.625000
1604		-5.859375
1605		-21.484375
1606		-9.765625
1607		-23.437500
1608		-15.625000
1609		-27.343750
1610		-21.484375
1611		-33.203125
1612		-25.390625
1613		-39.062500
1614		-29.296875
1615		-42.968750
1616		-33.203125
1617		-46.875000
1618		-37.109375
1619		-50.781250
1620		-41.015625
1621		-56.640625
1622		-46.875000
1623		-58.593750
1624		-48.828125
1625		-60.546875
1626		-56.640625
1627		-64.453125
1628		-58.593750
1629		-70.312500
1630		-62.500000
1631		-72.265625
1632		-64.453125
1633		-76.171875
1634		-66.406250
1635		-80.078125
1636		-70.312500
1637		-82.031250
1638		-72.265625
1639		-83.984375
1640		-76.171875
1641		-83.984375
1642		-78.125000
1643		-83.984375
1644		-82.031250
1645		-87.890625
1646		-83.984375
1647		-89.843750
1648		-83.984375
1649		-89.843750
1650		-83.984375
1651		-91.796875
1652		-85.937500
1653		-91.796875
1654		-85.937500
1655		-91.796875
1656		-87.890625
1657		-91.796875
1658		-87.890625
1659		-91.796875
1660		-87.890625
1661		-89.843750
1662		-87.890625
1663		-91.796875
1664		-85.937500
1665		-91.796875
1666		-83.984375
1667		-89.843750
1668		-82.031250
1669		-87.890625
1670		-82.031250
1671		-87.890625
1672		-80.078125
1673		-85.937500
1674		-78.125000
1675		-82.031250
1676		-78.125000
1677		-78.125000
1678		-74.218750
1679		-78.125000
1680		-70.312500
1681		-76.171875
1682		-68.359375
1683		-74.218750
1684		-64.453125
1685		-70.312500
1686		-60.546875
1687		-66.406250
1688		-56.640625
1689		-64.453125
1690		-54.687500
1691		-58.593750
1692		-50.781250
1693		-54.687500
1694		-48.828125
1695		-48.828125
1696		-41.015625
1697		-46.875000
1698		-37.109375
1699		-42.968750
1700		-33.203125
1701		-39.062500
1702		-29.296875
1703		-33.203125
1704		-23.437500
1705		-29.296875
1706		-19.531250
1707		-25.390625
1708		-15.625000
1709		-17.578125
1710		-11.718750
1711		-13.671875
1712		-7.812500
1713		-9.765625
1714		0.000000
1715		-5.859375
1716		3.906250
1717		-1.953125
1718		7.812500
1719		1.953125
1720		15.625000
1721		7.812500
1722		19.531250
1723		11.718750
1724		23.437500
1725		17.578125
1726		25.390625
1727		23.437500
1728		31.250000
1729		29.296875
1730		37.109375
1731		31.250000
1732		41.015625
1733		35.156250
1734		44.921875
1735		41.015625
1736		50.781250
1737		44.921875
1738		54.687500
1739		48.828125
1740		58.593750
1741		52.734375
1742		60.546875
1743		58.593750
1744		64.453125
1745		62.500000
1746		66.406250
1747		64.453125
1748		72.265625
1749		66.406250
1750		76.171875
1751		70.312500
1752		78.125000
1753		72.265625
1754		82.031250
1755		76.171875
1756		85.937500
1757		80.078125
1758		87.890625
1759		83.984375
1760		87.890625
1761		85.937500
1762		89.843750
1763		87.890625
1764		93.750000
1765		87.890625
1766		97.656250
1767		89.843750
1768		97.656250
1769		91.796875
1770		99.609375
1771		91.796875
1772		99.609375
1773		93.750000
1774		101.562500
1775		95.703125
1776		101.562500
1777		97.656250
1778		101.562500
1779		97.656250
1780		103.515625
1781		97.656250
1782		103.515625
1783		97.656250
1784		105.468750
1785		97.656250
1786		103.515625
1787		97.656250
1788		103.515625
1789		95.703125
1790		103.515625
1791		95.703125
1792		103.515625
1793		97.656250
1794		99.609375
1795		95.703125
1796		99.609375
1797		91.796875
1798		99.609375
1799		91.796875
1800		99.609375
1801		89.843750
1802		97.656250
1803		87.890625
1804		95.703125
1805		85.937500
1806		93.750000
1807		82.031250
1808		91.796875
1809		82.031250
1810		89.843750
1811		80.078125
1812		83.984375
1813		76.171875
1814		82.031250
1815		72.265625
1816		80.078125
1817		68.359375
1818		78.125000
1819		66.406250
1820		74.218750
1821		62.500000
1822		70.312500
1823		58.593750
1824		68.359375
1825		56.640625
1826		64.453125
1827		52.734375
1828		58.593750
1829		48.828125
1830		54.687500
1831		42.968750
1832		52.734375
1833		37.109375
1834		48.828125
1835		33.203125
1836		42.968750
1837		29.296875
1838		39.062500
1839		25.390625
1840		35.156250
1841		21.484375
1842		31.250000
1843		17.578125
1844		25.390625
1845		11.718750
1846		19.531250
1847		5.859375
1848		13.671875
1849		1.953125
1850		11.718750
1851		-3.906250
1852		5.859375
1853		-9.765625
1854		1.953125
1855		-13.671875
1856		-3.906250
1857		-17.578125
1858		-7.812500
1859		-21.484375
1860		-11.718750
1861		-25.390625
1862		-19.531250
1863		-31.250000
1864		-23.437500
1865		-37.109375
1866		-25.390625
1867		-41.015625
1868		-31.250000
1869		-44.921875
1870		-35.156250
1871		-48.828125
1872		-39.062500
1873		-52.734375
1874		-42.968750
1875		-56.640625
1876		-46.875000
1877		-58.593750
1878		-52.734375
1879		-62.500000
1880		-56.640625
1881		-68.359375
1882		-58.593750
1883		-72.265625
1884		-62.500000
1885		-74.218750
1886		-64.453125
1887		-78.125000
1888		-68.359375
1889		-80.078125
1890		-70.312500
1891		-82.031250
1892		-72.265625
1893		-82.031250
1894		-76.171875
1895		-83.984375
1896		-80.078125
1897		-87.890625
1898		-80.078125
1899		-89.843750
1900		-82.031250
1901		-89.843750
1902		-82.031250
1903		-91.796875
1904		-83.984375
1905		-91.796875
1906		-83.984375
1907		-91.796875
1908		-83.984375
1909		-91.796875
1910		-85.937500
1911		-89.843750
1912		-87.890625
1913		-89.843750
1914		-87.890625
1915		-91.796875
1916		-83.984375
1917		-91.796875
1918		-83.984375
1919		-89.843750
1920		-82.031250
1921		-87.890625
1922		-80.078125
1923		-87.890625
1924		-78.125000
1925		-85.937500
1926		-76.171875
1927		-82.031250
1928		-78.125000
1929		-78.125000
1930		-74.218750
1931		-78.125000
1932		-70.312500
1933		-76.171875
1934		-66.406250
1935		-72.265625
1936		-64.453125
1937		-70.312500
1938		-60.546875
1939		-66.406250
1940		-56.640625
1941		-62.500000
1942		-54.687500
1943		-58.593750
1944		-52.734375
1945		-52.734375
1946		-48.828125
1947		-48.828125
1948		-41.015625
1949		-48.828125
1950		-37.109375
1951		-42.968750
1952		-33.203125
1953		-39.062500
1954		-27.343750
1955		-35.156250
1956		-23.437500
1957		-31.250000
1958		-19.531250
1959		-25.390625
1960		-15.625000
1961		-17.578125
1962		-11.718750
1963		-13.671875
1964		-7.812500
1965		-9.765625
1966		0.000000
1967		-5.859375
1968		3.906250
1969		-1.953125
1970		7.812500
1971		3.906250
1972		13.671875
1973		7.812500
1974		17.578125
1975		13.671875
1976		23.437500
1977		17.578125
1978		25.390625
1979		23.437500
1980		29.296875
1981		29.296875
1982		37.109375
1983		31.250000
1984		41.015625
1985		35.156250
1986		44.921875
1987		39.062500
1988		48.828125
1989		44.921875
1990		52.734375
1991		46.875000
1992		58.593750
1993		52.734375
1994		60.546875
1995		58.593750
1996		62.500000
1997		62.500000
1998		68.359375
1999		62.500000
2000		72.265625
2001		66.406250
2002		76.171875
2003		70.312500
2004		80.078125
2005		74.218750
2006		82.031250
2007		76.171875
2008		83.984375
2009		80.078125
2010		87.890625
2011		82.031250
2012		87.890625
2013		85.937500
2014		89.843750
2015		85.937500
2016		93.750000
2017		87.890625
2018		95.703125
2019		89.843750
2020		97.656250
2021		91.796875
2022		99.609375
2023		93.750000
2024		101.562500
2025		93.750000
2026		101.562500
2027		95.703125
2028		101.562500
2029		99.609375
2030		101.562500
2031		97.656250
2032		103.515625
2033		97.656250
2034		105.468750
2035		97.656250
2036		105.468750
2037		97.656250
2038		105.468750
2039		97.656250
2040		103.515625
2041		97.656250
2042		105.468750
2043		97.656250
2044		103.515625
2045		97.656250
2046		101.562500
2047		97.656250
2048		99.609375
2049		93.750000
2050		101.562500
2051		91.796875
2052		99.609375
2053		89.843750
2054		97.656250
2055		87.890625
2056		95.703125
2057		85.937500
2058		95.703125
2059		83.984375
2060		91.796875
2061		83.984375
2062		89.843750
2063		82.031250
2064		85.937500
2065		76.171875
2066		83.984375
2067		74.218750
2068		82.031250
2069		70.312500
2070		78.125000
2071		66.406250
2072		76.171875
2073		62.500000
2074		72.265625
2075		60.546875
2076		68.359375
2077		56.640625
2078		66.406250
2079		54.687500
2080		60.546875
2081		50.781250
2082		56.640625
2083		44.921875
2084		52.734375
2085		41.015625
2086		48.828125
2087		37.109375
2088		44.921875
2089		31.250000
2090		41.015625
2091		25.390625
2092		35.156250
2093		21.484375
2094		31.250000
2095		17.578125
2096		27.343750
2097		13.671875
2098		19.531250
2099		5.859375
2100		15.625000
2101		1.953125
2102		11.718750
2103		-1.953125
2104		7.812500
2105		-5.859375
2106		3.906250
2107		-11.718750
2108		-1.953125
2109		-15.625000
2110		-5.859375
2111		-19.531250
2112		-11.718750
2113		-23.437500
2114		-17.578125
2115		-31.250000
2116		-21.484375
2117		-35.156250
2118		-25.390625
2119		-39.062500
2120		-29.296875
2121		-42.968750
2122		-33.203125
2123		-48.828125
2124		-39.062500
2125		-52.734375
2126		-42.968750
2127		-56.640625
2128		-46.875000
2129		-56.640625
2130		-50.781250
2131		-60.546875
2132		-56.640625
2133		-68.359375
2134		-58.593750
2135		-70.312500
2136		-60.546875
2137		-72.265625
2138		-64.453125
2139		-76.171875
2140		-68.359375
2141		-78.125000
2142		-70.312500
2143		-82.031250
2144		-72.265625
2145		-82.031250
2146		-74.218750
2147		-82.031250
2148		-80.078125
2149		-85.937500
2150		-80.078125
2151		-87.890625
2152		-80.078125
2153		-89.843750
2154		-82.031250
2155		-91.796875
2156		-83.984375
2157		-91.796875
2158		-83.984375
2159		-91.796875
2160		-83.984375
2161		-91.796875
2162		-83.984375
2163		-89.843750
2164		-87.890625
2165		-89.843750
2166		-87.890625
2167		-91.796875
2168		-83.984375
2169		-89.843750
2170		-83.984375
2171		-89.843750
2172		-82.031250
2173		-87.890625
2174		-80.078125
2175		-87.890625
2176		-78.125000
2177		-85.937500
2178		-76.171875
2179		-83.984375
2180		-78.125000
2181		-78.125000
2182		-74.218750
2183		-78.125000
2184		-70.312500
2185		-76.171875
2186		-68.359375
2187		-74.218750
2188		-64.453125
2189		-70.312500
2190		-60.546875
2191		-68.359375
2192		-58.593750
2193		-64.453125
2194		-54.687500
2195		-60.546875
2196		-52.734375
2197		-54.687500
2198		-48.828125
2199		-50.781250
2200		-42.968750
2201		-48.828125
2202		-39.062500
2203		-42.968750
2204		-33.203125
2205		-39.062500
2206		-29.296875
2207		-35.156250
2208		-25.390625
2209		-29.296875
2210		-21.484375
2211		-25.390625
2212		-15.625000
2213		-19.531250
2214		-13.671875
2215		-15.625000
2216		-7.812500
2217		-11.718750
2218		-1.953125
2219		-7.812500
2220		3.906250
2221		-1.953125
2222		7.812500
2223		1.953125
2224		11.718750
2225		5.859375
2226		17.578125
2227		11.718750
2228		21.484375
2229		15.625000
2230		25.390625
2231		23.437500
2232		29.296875
2233		27.343750
2234		37.109375
2235		31.250000
2236		41.015625
2237		35.156250
2238		44.921875
2239		39.062500
2240		48.828125
2241		42.968750
2242		52.734375
2243		46.875000
2244		56.640625
2245		52.734375
2246		60.546875
2247		56.640625
2248		62.500000
2249		60.546875
2250		66.406250
2251		64.453125
2252		72.265625
2253		66.406250
2254		74.218750
2255		70.312500
2256		78.125000
2257		72.265625
2258		82.031250
2259		76.171875
2260		83.984375
2261		78.125000
2262		87.890625
2263		82.031250
2264		87.890625
2265		85.937500
2266		89.843750
2267		85.937500
2268		93.750000
2269		87.890625
2270		95.703125
2271		89.843750
2272		97.656250
2273		91.796875
2274		99.609375
2275		93.750000
2276		101.562500
2277		93.750000
2278		103.515625
2279		95.703125
2280		101.562500
2281		99.609375
2282		101.562500
2283		99.609375
2284		101.562500
2285		97.656250
2286		105.468750
2287		97.656250
2288		105.468750
2289		97.656250
2290		105.468750
2291		97.656250
2292		105.468750
2293		97.656250
2294		105.468750
2295		97.656250
2296		103.515625
2297		99.609375
2298		101.562500
2299		97.656250
2300		99.609375
2301		93.750000
2302		101.562500
2303		93.750000
2304		99.609375
2305		91.796875
2306		97.656250
2307		89.843750
2308		97.656250
2309		87.890625
2310		95.703125
2311		85.937500
2312		93.750000
2313		83.984375
2314		91.796875
2315		82.031250
2316		85.937500
2317		78.125000
2318		83.984375
2319		74.218750
2320		82.031250
2321		72.265625
2322		80.078125
2323		68.359375
2324		76.171875
2325		64.453125
2326		74.218750
2327		60.546875
2328		70.312500
2329		58.593750
2330		66.406250
2331		54.687500
2332		60.546875
2333		50.781250
2334		56.640625
2335		44.921875
2336		52.734375
2337		41.015625
2338		50.781250
2339		37.109375
2340		46.875000
2341		31.250000
2342		42.968750
2343		27.343750
2344		37.109375
2345		23.437500
2346		33.203125
2347		19.531250
2348		27.343750
2349		15.625000
2350		21.484375
2351		9.765625
2352		17.578125
2353		3.906250
2354		13.671875
2355		0.000000
2356		9.765625
2357		-5.859375
2358		3.906250
2359		-11.718750
2360		0.000000
2361		-15.625000
2362		-5.859375
2363		-17.578125
2364		-9.765625
2365		-23.437500
2366		-15.625000
2367		-27.343750
2368		-21.484375
2369		-35.156250
2370		-23.437500
2371		-39.062500
2372		-27.343750
2373		-42.968750
2374		-33.203125
2375		-44.921875
2376		-37.109375
2377		-50.781250
2378		-41.015625
2379		-54.687500
2380		-44.921875
2381		-56.640625
2382		-48.828125
2383		-60.546875
2384		-54.687500
2385		-66.406250
2386		-58.593750
2387		-68.359375
2388		-60.546875
2389		-72.265625
2390		-64.453125
2391		-74.218750
2392		-66.406250
2393		-78.125000
2394		-68.359375
2395		-80.078125
2396		-72.265625
2397		-80.078125
2398		-74.218750
2399		-82.031250
2400		-78.125000
2401		-85.937500
2402		-80.078125
2403		-87.890625
2404		-80.078125
2405		-89.843750
2406		-82.031250
2407		-89.843750
2408		-82.031250
2409		-91.796875
2410		-83.984375
2411		-91.796875
2412		-83.984375
2413		-91.796875
2414		-85.937500
2415		-89.843750
2416		-87.890625
2417		-89.843750
2418		-87.890625
2419		-91.796875
2420		-83.984375
2421		-89.843750
2422		-83.984375
2423		-89.843750
2424		-82.031250
2425		-89.843750
2426		-82.031250
2427		-87.890625
2428		-80.078125
2429		-85.937500
2430		-78.125000
2431		-83.984375
2432		-78.125000
2433		-80.078125
2434		-76.171875
2435		-78.125000
2436		-70.312500
2437		-76.171875
2438		-68.359375
2439		-74.218750
2440		-66.406250
2441		-72.265625
2442		-62.500000
2443		-68.359375
2444		-58.593750
2445		-64.453125
2446		-54.687500
2447		-60.546875
2448		-52.734375
2449		-54.687500
2450		-48.828125
2451		-52.734375
2452		-44.921875
2453		-48.828125
2454		-39.062500
2455		-44.921875
2456		-35.156250
2457		-41.015625
2458		-31.250000
2459		-37.109375
2460		-27.343750
2461		-33.203125
2462		-21.484375
2463		-29.296875
2464		-17.578125
2465		-23.437500
2466		-13.671875
2467		-15.625000
2468		-9.765625
2469		-11.718750
2470		-3.906250
2471		-7.812500
2472		1.953125
2473		-3.906250
2474		5.859375
2475		1.953125
2476		11.718750
2477		5.859375
2478		15.625000
2479		11.718750
2480		21.484375
2481		13.671875
2482		23.437500
2483		21.484375
2484		27.343750
2485		27.343750
2486		33.203125
2487		29.296875
2488		39.062500
2489		33.203125
2490		42.968750
2491		37.109375
2492		48.828125
2493		42.968750
2494		52.734375
2495		46.875000
2496		56.640625
2497		50.781250
2498		58.593750
2499		56.640625
2500		62.500000
2501		60.546875
2502		66.406250
2503		62.500000
2504		70.312500
2505		64.453125
2506		74.218750
2507		70.312500
2508		78.125000
2509		72.265625
2510		82.031250
2511		74.218750
2512		83.984375
2513		78.125000
2514		85.937500
2515		80.078125
2516		87.890625
2517		85.937500
2518		89.843750
2519		85.937500
2520		93.750000
2521		87.890625
2522		95.703125
2523		89.843750
2524		97.656250
2525		89.843750
2526		99.609375
2527		93.750000
2528		99.609375
2529		93.750000
2530		101.562500
2531		95.703125
2532		101.562500
2533		99.609375
2534		101.562500
2535		99.609375
2536		101.562500
2537		97.656250
2538		105.468750
2539		97.656250
2540		105.468750
2541		97.656250
2542		105.468750
2543		97.656250
2544		105.468750
2545		97.656250
2546		105.468750
2547		97.656250
2548		103.515625
2549		97.656250
2550		103.515625
2551		97.656250
2552		101.562500
2553		93.750000
2554		101.562500
2555		93.750000
2556		101.562500
2557		91.796875
2558		99.609375
2559		89.843750
2560		97.656250
2561		87.890625
2562		95.703125
2563		85.937500
2564		93.750000
2565		83.984375
2566		91.796875
2567		83.984375
2568		87.890625
2569		78.125000
2570		83.984375
2571		76.171875
2572		83.984375
2573		72.265625
2574		80.078125
2575		68.359375
2576		78.125000
2577		64.453125
2578		74.218750
2579		62.500000
2580		70.312500
2581		58.593750
2582		68.359375
2583		56.640625
2584		62.500000
2585		52.734375
2586		58.593750
2587		46.875000
2588		54.687500
2589		42.968750
2590		50.781250
2591		37.109375
2592		46.875000
2593		33.203125
2594		42.968750
2595		29.296875
2596		39.062500
2597		23.437500
2598		35.156250
2599		21.484375
2600		29.296875
2601		17.578125
2602		23.437500
2603		9.765625
2604		17.578125
2605		5.859375
2606		15.625000
2607		1.953125
2608		11.718750
2609		-3.906250
2610		5.859375
2611		-9.765625
2612		1.953125
2613		-13.671875
2614		-3.906250
2615		-17.578125
2616		-7.812500
2617		-21.484375
2618		-15.625000
2619		-25.390625
2620		-19.531250
2621		-33.203125
2622		-23.437500
2623		-37.109375
2624		-27.343750
2625		-41.015625
2626		-31.250000
2627		-46.875000
2628		-35.156250
2629		-50.781250
2630		-41.015625
2631		-54.687500
2632		-44.921875
2633		-54.687500
2634		-46.875000
2635		-58.593750
2636		-54.687500
2637		-64.453125
2638		-56.640625
2639		-68.359375
2640		-58.593750
2641		-70.312500
2642		-62.500000
2643		-74.218750
2644		-66.406250
2645		-76.171875
2646		-68.359375
2647		-80.078125
2648		-72.265625
2649		-80.078125
2650		-74.218750
2651		-82.031250
2652		-78.125000
2653		-83.984375
2654		-80.078125
2655		-87.890625
2656		-80.078125
2657		-87.890625
2658		-82.031250
2659		-89.843750
2660		-82.031250
2661		-91.796875
2662		-83.984375
2663		-91.796875
2664		-83.984375
2665		-91.796875
2666		-83.984375
2667		-89.843750
2668		-87.890625
2669		-89.843750
2670		-87.890625
2671		-91.796875
2672		-83.984375
2673		-91.796875
2674		-83.984375
2675		-89.843750
2676		-83.984375
2677		-89.843750
2678		-82.031250
2679		-87.890625
2680		-80.078125
2681		-85.937500
2682		-78.125000
2683		-83.984375
2684		-78.125000
2685		-80.078125
2686		-76.171875
2687		-78.125000
2688		-72.265625
2689		-78.125000
2690		-70.312500
2691		-74.218750
2692		-66.406250
2693		-72.265625
2694		-64.453125
2695		-68.359375
2696		-60.546875
2697		-66.406250
2698		-56.640625
2699		-62.500000
2700		-52.734375
2701		-56.640625
2702		-50.781250
2703		-52.734375
2704		-46.875000
2705		-50.781250
2706		-41.015625
2707		-46.875000
2708		-37.109375
2709		-42.968750
2710		-31.250000
2711		-37.109375
2712		-27.343750
2713		-33.203125
2714		-23.437500
2715		-29.296875
2716		-17.578125
2717		-23.437500
2718		-15.625000
2719		-17.578125
2720		-11.718750
2721		-11.718750
2722		-3.906250
2723		-9.765625
2724		0.000000
2725		-5.859375
2726		5.859375
2727		0.000000
2728		9.765625
2729		3.906250
2730		13.671875
2731		7.812500
2732		19.531250
2733		13.671875
2734		21.484375
2735		21.484375
2736		27.343750
2737		25.390625
2738		33.203125
2739		27.343750
2740		39.062500
2741		33.203125
2742		42.968750
2743		37.109375
2744		46.875000
2745		41.015625
2746		50.781250
2747		44.921875
2748		54.687500
2749		48.828125
2750		58.593750
2751		54.687500
2752		60.546875
2753		58.593750
2754		64.453125
2755		62.500000
2756		70.312500
2757		64.453125
2758		74.218750
2759		68.359375
2760		76.171875
2761		70.312500
2762		80.078125
2763		74.218750
2764		82.031250
2765		76.171875
2766		85.937500
2767		80.078125
2768		85.937500
2769		83.984375
2770		87.890625
2771		85.937500
2772		93.750000
2773		87.890625
2774		95.703125
2775		89.843750
2776		97.656250
2777		91.796875
2778		97.656250
2779		91.796875
2780		99.609375
2781		93.750000
2782		101.562500
2783		93.750000
2784		101.562500
2785		97.656250
2786		101.562500
2787		99.609375
2788		101.562500
2789		97.656250
2790		103.515625
2791		97.656250
2792		105.468750
2793		97.656250
2794		105.468750
2795		97.656250
2796		105.468750
2797		97.656250
2798		105.468750
2799		97.656250
2800		103.515625
2801		97.656250
2802		103.515625
2803		97.656250
2804		101.562500
2805		93.750000
2806		101.562500
2807		93.750000
2808		99.609375
2809		91.796875
2810		99.609375
2811		89.843750
2812		97.656250
2813		87.890625
2814		95.703125
2815		85.937500
2816		93.750000
2817		83.984375
2818		91.796875
2819		83.984375
2820		87.890625
2821		80.078125
2822		83.984375
2823		76.171875
2824		83.984375
2825		72.265625
2826		82.031250
2827		70.312500
2828		78.125000
2829		66.406250
2830		74.218750
2831		62.500000
2832		70.312500
2833		60.546875
2834		68.359375
2835		56.640625
2836		62.500000
2837		52.734375
2838		58.593750
2839		46.875000
2840		54.687500
2841		42.968750
2842		52.734375
2843		39.062500
2844		48.828125
2845		33.203125
2846		44.921875
2847		31.250000
2848		39.062500
2849		27.343750
2850		35.156250
2851		23.437500
2852		31.250000
2853		17.578125
2854		23.437500
2855		11.718750
2856		19.531250
2857		5.859375
2858		17.578125
2859		1.953125
2860		11.718750
2861		-3.906250
2862		5.859375
2863		-7.812500
2864		1.953125
2865		-13.671875
2866		-3.906250
2867		-17.578125
2868		-7.812500
2869		-19.531250
2870		-13.671875
2871		-25.390625
2872		-19.531250
2873		-33.203125
2874		-21.484375
2875		-35.156250
2876		-25.390625
2877		-41.015625
2878		-29.296875
2879		-44.921875
2880		-35.156250
2881		-48.828125
2882		-39.062500
2883		-54.687500
2884		-42.968750
2885		-54.687500
2886		-46.875000
2887		-58.593750
2888		-52.734375
2889		-64.453125
2890		-56.640625
2891		-68.359375
2892		-58.593750
2893		-72.265625
2894		-62.500000
2895		-74.218750
2896		-66.406250
2897		-78.125000
2898		-68.359375
2899		-80.078125
2900		-70.312500
2901		-82.031250
2902		-74.218750
2903		-82.031250
2904		-78.125000
2905		-83.984375
2906		-80.078125
2907		-87.890625
2908		-80.078125
2909		-89.843750
2910		-82.031250
2911		-89.843750
2912		-82.031250
2913		-91.796875
2914		-83.984375
2915		-91.796875
2916		-83.984375
2917		-91.796875
2918		-85.937500
2919		-89.843750
2920		-87.890625
2921		-89.843750
2922		-87.890625
2923		-91.796875
2924		-85.937500
2925		-91.796875
2926		-83.984375
2927		-91.796875
2928		-83.984375
2929		-89.843750
2930		-82.031250
2931		-87.890625
2932		-80.078125
2933		-87.890625
2934		-80.078125
2935		-85.937500
2936		-78.125000
2937		-82.031250
2938		-78.125000
2939		-80.078125
2940		-72.265625
2941		-78.125000
2942		-70.312500
2943		-76.171875
2944		-66.406250
2945		-72.265625
2946		-64.453125
2947		-70.312500
2948		-60.546875
2949		-66.406250
2950		-58.593750
2951		-62.500000
2952		-54.687500
2953		-58.593750
2954		-52.734375
2955		-54.687500
2956		-48.828125
2957		-50.781250
2958		-42.968750
2959		-48.828125
2960		-37.109375
2961		-44.921875
2962		-35.156250
2963		-39.062500
2964		-29.296875
2965		-35.156250
2966		-25.390625
2967		-29.296875
2968		-21.484375
2969		-25.390625
2970		-17.578125
2971		-19.531250
2972		-13.671875
2973		-13.671875
2974		-5.859375
2975		-11.718750
2976		-1.953125
2977		-7.812500
2978		3.906250
2979		-1.953125
2980		9.765625
2981		3.906250
2982		13.671875
2983		7.812500
2984		17.578125
2985		13.671875
2986		21.484375
2987		19.531250
2988		25.390625
2989		23.437500
2990		31.250000
2991		27.343750
2992		37.109375
2993		29.296875
2994		41.015625
2995		35.156250
2996		44.921875
2997		39.062500
2998		48.828125
2999		42.968750
3000		52.734375
3001		46.875000
3002		56.640625
3003		52.734375
3004		58.593750
3005		56.640625
3006		62.500000
3007		60.546875
3008		68.359375
3009		62.500000
3010		72.265625
3011		66.406250
3012		76.171875
3013		70.312500
3014		78.125000
3015		72.265625
3016		82.031250
3017		74.218750
3018		85.937500
3019		78.125000
3020		85.937500
3021		83.984375
3022		87.890625
3023		85.937500
3024		91.796875
3025		85.937500
3026		93.750000
3027		87.890625
3028		95.703125
3029		89.843750
3030		97.656250
3031		91.796875
3032		99.609375
3033		93.750000
3034		101.562500
3035		95.703125
3036		101.562500
3037		97.656250
3038		99.609375
3039		99.609375
3040		101.562500
3041		97.656250
3042		103.515625
3043		97.656250
3044		105.468750
3045		97.656250
3046		105.468750
3047		97.656250
3048		105.468750
3049		97.656250
3050		105.468750
3051		97.656250
3052		103.515625
3053		97.656250
3054		103.515625
3055		97.656250
3056		101.562500
3057		95.703125
3058		101.562500
3059		93.750000
3060		101.562500
3061		91.796875
3062		99.609375
3063		91.796875
3064		97.656250
3065		87.890625
3066		97.656250
3067		85.937500
3068		95.703125
3069		85.937500
3070		93.750000
3071		83.984375
3072		87.890625
3073		80.078125
3074		85.937500
3075		76.171875
3076		85.937500
3077		74.218750
3078		82.031250
3079		70.312500
3080		78.125000
3081		66.406250
3082		76.171875
3083		64.453125
3084		72.265625
3085		60.546875
3086		70.312500
3087		58.593750
3088		64.453125
3089		54.687500
3090		60.546875
3091		48.828125
3092		56.640625
3093		44.921875
3094		54.687500
3095		41.015625
3096		48.828125
3097		35.156250
3098		44.921875
3099		31.250000
3100		41.015625
3101		27.343750
3102		37.109375
3103		23.437500
3104		31.250000
3105		19.531250
3106		25.390625
3107		13.671875
3108		21.484375
3109		7.812500
3110		17.578125
3111		1.953125
3112		13.671875
3113		-1.953125
3114		7.812500
3115		-7.812500
3116		3.906250
3117		-11.718750
3118		-1.953125
3119		-15.625000
3120		-5.859375
3121		-17.578125
3122		-13.671875
3123		-23.437500
3124		-17.578125
3125		-29.296875
3126		-21.484375
3127		-35.156250
3128		-23.437500
3129		-39.062500
3130		-29.296875
3131		-42.968750
3132		-33.203125
3133		-46.875000
3134		-37.109375
3135		-52.734375
3136		-42.968750
3137		-54.687500
3138		-46.875000
3139		-56.640625
3140		-52.734375
3141		-62.500000
3142		-56.640625
3143		-66.406250
3144		-56.640625
3145		-70.312500
3146		-60.546875
3147		-72.265625
3148		-64.453125
3149		-76.171875
3150		-68.359375
3151		-78.125000
3152		-70.312500
3153		-80.078125
3154		-72.265625
3155		-80.078125
3156		-76.171875
3157		-83.984375
3158		-80.078125
3159		-85.937500
3160		-80.078125
3161		-87.890625
3162		-80.078125
3163		-89.843750
3164		-82.031250
3165		-89.843750
3166		-83.984375
3167		-91.796875
3168		-83.984375
3169		-91.796875
3170		-83.984375
3171		-89.843750
3172		-85.937500
3173		-89.843750
3174		-87.890625
3175		-91.796875
3176		-83.984375
3177		-91.796875
3178		-83.984375
3179		-91.796875
3180		-83.984375
3181		-89.843750
3182		-82.031250
3183		-87.890625
3184		-82.031250
3185		-87.890625
3186		-80.078125
3187		-85.937500
3188		-78.125000
3189		-82.031250
3190		-78.125000
3191		-78.125000
3192		-74.218750
3193		-78.125000
3194		-70.312500
3195		-76.171875
3196		-68.359375
3197		-74.218750
3198		-64.453125
3199		-72.265625
3200		-60.546875
3201		-68.359375
3202		-58.593750
3203		-64.453125
3204		-54.687500
3205		-58.593750
3206		-52.734375
3207		-54.687500
3208		-48.828125
3209		-50.781250
3210		-42.968750
3211		-48.828125
3212		-39.062500
3213		-44.921875
3214		-35.156250
3215		-41.015625
3216		-29.296875
3217		-35.156250
3218		-25.390625
3219		-31.250000
3220		-21.484375
3221		-27.343750
3222		-17.578125
3223		-19.531250
3224		-13.671875
3225		-15.625000
3226		-5.859375
3227		-11.718750
3228		-1.953125
3229		-7.812500
3230		1.953125
3231		-3.906250
3232		7.812500
3233		1.953125
3234		11.718750
3235		5.859375
3236		15.625000
3237		11.718750
3238		19.531250
3239		17.578125
3240		23.437500
3241		21.484375
3242		29.296875
3243		27.343750
3244		35.156250
3245		29.296875
3246		41.015625
3247		35.156250
3248		44.921875
3249		39.062500
3250		46.875000
3251		42.968750
3252		52.734375
3253		46.875000
3254		56.640625
3255		50.781250
3256		58.593750
3257		56.640625
3258		62.500000
3259		60.546875
3260		68.359375
3261		62.500000
3262		72.265625
3263		66.406250
3264		76.171875
3265		68.359375
3266		78.125000
3267		72.265625
3268		82.031250
3269		76.171875
3270		83.984375
3271		78.125000
3272		85.937500
3273		83.984375
3274		87.890625
3275		85.937500
3276		89.843750
3277		85.937500
3278		93.750000
3279		87.890625
3280		95.703125
3281		89.843750
3282		97.656250
3283		91.796875
3284		97.656250
3285		93.750000
3286		99.609375
3287		93.750000
3288		101.562500
3289		97.656250
3290		99.609375
3291		99.609375
3292		101.562500
3293		97.656250
3294		103.515625
3295		97.656250
3296		105.468750
3297		97.656250
3298		105.468750
3299		97.656250
3300		105.468750
3301		97.656250
3302		105.468750
3303		97.656250
3304		105.468750
3305		97.656250
3306		103.515625
3307		99.609375
3308		101.562500
3309		95.703125
3310		101.562500
3311		93.750000
3312		101.562500
3313		91.796875
3314		99.609375
3315		91.796875
3316		99.609375
3317		89.843750
3318		97.656250
3319		87.890625
3320		95.703125
3321		85.937500
3322		93.750000
3323		85.937500
3324		89.843750
3325		82.031250
3326		85.937500
3327		78.125000
3328		85.937500
3329		74.218750
3330		82.031250
3331		72.265625
3332		80.078125
3333		70.312500
3334		76.171875
3335		66.406250
3336		74.218750
3337		62.500000
3338		70.312500
3339		58.593750
3340		66.406250
3341		56.640625
3342		60.546875
3343		48.828125
3344		56.640625
3345		44.921875
3346		54.687500
3347		41.015625
3348		50.781250
3349		37.109375
3350		46.875000
3351		33.203125
3352		42.968750
3353		29.296875
3354		39.062500
3355		25.390625
3356		33.203125
3357		21.484375
3358		27.343750
3359		15.625000
3360		21.484375
3361		7.812500
3362		19.531250
3363		3.906250
3364		15.625000
3365		0.000000
3366		9.765625
3367		-5.859375
3368		3.906250
3369		-9.765625
3370		0.000000
3371		-13.671875
3372		-3.906250
3373		-17.578125
3374		-11.718750
3375		-21.484375
3376		-15.625000
3377		-29.296875
3378		-19.531250
3379		-33.203125
3380		-23.437500
3381		-37.109375
3382		-27.343750
3383		-41.015625
3384		-31.250000
3385		-46.875000
3386		-35.156250
3387		-50.781250
3388		-41.015625
3389		-52.734375
3390		-44.921875
3391		-56.640625
3392		-50.781250
3393		-62.500000
3394		-54.687500
3395		-66.406250
3396		-56.640625
3397		-68.359375
3398		-60.546875
3399		-72.265625
3400		-62.500000
3401		-74.218750
3402		-66.406250
3403		-78.125000
3404		-68.359375
3405		-80.078125
3406		-70.312500
3407		-80.078125
3408		-76.171875
3409		-82.031250
3410		-78.125000
3411		-85.937500
3412		-78.125000
3413		-87.890625
3414		-80.078125
3415		-89.843750
3416		-82.031250
3417		-89.843750
3418		-82.031250
3419		-91.796875
3420		-83.984375
3421		-91.796875
3422		-83.984375
3423		-91.796875
3424		-83.984375
3425		-89.843750
3426		-87.890625
3427		-91.796875
3428		-85.937500
3429		-91.796875
3430		-83.984375
3431		-89.843750
3432		-83.984375
3433		-89.843750
3434		-82.031250
3435		-87.890625
3436		-82.031250
3437		-87.890625
3438		-80.078125
3439		-85.937500
3440		-78.125000
3441		-82.031250
3442		-78.125000
3443		-80.078125
3444		-76.171875
3445		-80.078125
3446		-70.312500
3447		-78.125000
3448		-68.359375
3449		-74.218750
3450		-66.406250
3451		-70.312500
3452		-62.500000
3453		-68.359375
3454		-60.546875
3455		-64.453125
3456		-54.687500
3457		-58.593750
3458		-54.687500
3459		-54.687500
3460		-50.781250
3461		-50.781250
3462		-44.921875
3463		-48.828125
3464		-39.062500
3465		-44.921875
3466		-35.156250
3467		-41.015625
3468		-31.250000
3469		-37.109375
3470		-27.343750
3471		-33.203125
3472		-21.484375
3473		-27.343750
3474		-19.531250
3475		-21.484375
3476		-15.625000
3477		-15.625000
3478		-7.812500
3479		-13.671875
3480		-3.906250
3481		-9.765625
3482		1.953125
3483		-3.906250
3484		5.859375
3485		0.000000
3486		11.718750
3487		5.859375
3488		15.625000
3489		9.765625
3490		19.531250
3491		17.578125
3492		23.437500
3493		21.484375
3494		27.343750
3495		25.390625
3496		33.203125
3497		29.296875
3498		39.062500
3499		33.203125
3500		42.968750
3501		37.109375
3502		46.875000
3503		41.015625
3504		50.781250
3505		44.921875
3506		54.687500
3507		50.781250
3508		58.593750
3509		56.640625
3510		60.546875
3511		60.546875
3512		66.406250
3513		60.546875
3514		72.265625
3515		64.453125
3516		74.218750
3517		68.359375
3518		78.125000
3519		72.265625
3520		80.078125
3521		74.218750
3522		83.984375
3523		78.125000
3524		85.937500
3525		82.031250
3526		85.937500
3527		83.984375
3528		89.843750
3529		85.937500
3530		93.750000
3531		87.890625
3532		95.703125
3533		89.843750
3534		97.656250
3535		91.796875
3536		99.609375
3537		93.750000
3538		99.609375
3539		93.750000
3540		101.562500
3541		97.656250
3542		101.562500
3543		97.656250
3544		101.562500
3545		97.656250
3546		103.515625
3547		97.656250
3548		105.468750
3549		97.656250
3550		105.468750
3551		97.656250
3552		105.468750
3553		97.656250
3554		105.468750
3555		97.656250
3556		105.468750
3557		97.656250
3558		103.515625
3559		99.609375
3560		101.562500
3561		95.703125
3562		101.562500
3563		93.750000
3564		103.515625
3565		93.750000
3566		101.562500
3567		91.796875
3568		99.609375
3569		89.843750
3570		97.656250
3571		87.890625
3572		95.703125
3573		85.937500
3574		93.750000
3575		85.937500
3576		89.843750
3577		83.984375
3578		87.890625
3579		78.125000
3580		85.937500
3581		76.171875
3582		83.984375
3583		72.265625
3584		82.031250
3585		70.312500
3586		78.125000
3587		66.406250
3588		74.218750
3589		62.500000
3590		72.265625
3591		60.546875
3592		68.359375
3593		56.640625
3594		62.500000
3595		50.781250
3596		58.593750
3597		46.875000
3598		56.640625
3599		42.968750
3600		52.734375
3601		37.109375
3602		48.828125
3603		33.203125
3604		42.968750
3605		29.296875
3606		39.062500
3607		25.390625
3608		35.156250
3609		21.484375
3610		27.343750
3611		17.578125
3612		23.437500
3613		9.765625
3614		21.484375
3615		5.859375
3616		15.625000
3617		0.000000
3618		11.718750
3619		-3.906250
3620		5.859375
3621		-9.765625
3622		1.953125
3623		-13.671875
3624		-3.906250
3625		-15.625000
3626		-7.812500
3627		-21.484375
3628		-13.671875
3629		-27.343750
3630		-19.531250
3631		-31.250000
3632		-21.484375
3633		-35.156250
3634		-25.390625
3635		-41.015625
3636		-31.250000
3637		-44.921875
3638		-35.156250
3639		-48.828125
3640		-39.062500
3641		-50.781250
3642		-42.968750
3643		-54.687500
3644		-48.828125
3645		-58.593750
3646		-52.734375
3647		-64.453125
3648		-54.687500
3649		-68.359375
3650		-58.593750
3651		-70.312500
3652		-60.546875
3653		-74.218750
3654		-64.453125
3655		-78.125000
3656		-68.359375
3657		-78.125000
3658		-70.312500
3659		-80.078125
3660		-76.171875
3661		-82.031250
3662		-78.125000
3663		-85.937500
3664		-78.125000
3665		-87.890625
3666		-80.078125
3667		-87.890625
3668		-82.031250
3669		-89.843750
3670		-82.031250
3671		-91.796875
3672		-83.984375
3673		-91.796875
3674		-83.984375
3675		-91.796875
3676		-83.984375
3677		-89.843750
3678		-87.890625
3679		-91.796875
3680		-83.984375
3681		-91.796875
3682		-83.984375
3683		-91.796875
3684		-83.984375
3685		-89.843750
3686		-83.984375
3687		-89.843750
3688		-82.031250
3689		-87.890625
3690		-80.078125
3691		-87.890625
3692		-80.078125
3693		-82.031250
3694		-78.125000
3695		-80.078125
3696		-76.171875
3697		-80.078125
3698		-72.265625
3699		-80.078125
3700		-68.359375
3701		-76.171875
3702		-66.406250
3703		-72.265625
3704		-62.500000
3705		-70.312500
3706		-60.546875
3707		-66.406250
3708		-56.640625
3709		-62.500000
3710		-54.687500
3711		-56.640625
3712		-50.781250
3713		-52.734375
3714		-44.921875
3715		-50.781250
3716		-41.015625
3717		-46.875000
3718		-37.109375
3719		-42.968750
3720		-31.250000
3721		-39.062500
3722		-29.296875
3723		-35.156250
3724		-23.437500
3725		-29.296875
3726		-21.484375
3727		-21.484375
3728		-17.578125
3729		-17.578125
3730		-11.718750
3731		-15.625000
3732		-5.859375
3733		-11.718750
3734		-1.953125
3735		-5.859375
3736		5.859375
3737		0.000000
3738		9.765625
3739		3.906250
3740		13.671875
3741		9.765625
3742		19.531250
3743		15.625000
3744		21.484375
3745		19.531250
3746		25.390625
3747		23.437500
3748		33.203125
3749		27.343750
3750		37.109375
3751		31.250000
3752		41.015625
3753		37.109375
3754		46.875000
3755		39.062500
3756		50.781250
3757		44.921875
3758		54.687500
3759		48.828125
3760		56.640625
3761		54.687500
3762		60.546875
3763		58.593750
3764		66.406250
3765		60.546875
3766		70.312500
3767		64.453125
3768		72.265625
3769		68.359375
3770		76.171875
3771		70.312500
3772		80.078125
3773		74.218750
3774		82.031250
3775		76.171875
3776		83.984375
3777		82.031250
3778		85.937500
3779		83.984375
3780		87.890625
3781		83.984375
3782		91.796875
3783		85.937500
3784		95.703125
3785		87.890625
3786		95.703125
3787		89.843750
3788		97.656250
3789		91.796875
3790		99.609375
3791		93.750000
3792		101.562500
3793		95.703125
3794		99.609375
3795		97.656250
3796		101.562500
3797		97.656250
3798		103.515625
3799		97.656250
3800		103.515625
3801		97.656250
3802		103.515625
3803		97.656250
3804		105.468750
3805		97.656250
3806		105.468750
3807		97.656250
3808		103.515625
3809		97.656250
3810		103.515625
3811		99.609375
3812		101.562500
3813		95.703125
3814		101.562500
3815		93.750000
3816		101.562500
3817		93.750000
3818		101.562500
3819		91.796875
3820		99.609375
3821		89.843750
3822		97.656250
3823		87.890625
3824		95.703125
3825		85.937500
3826		93.750000
3827		85.937500
3828		89.843750
3829		83.984375
3830		87.890625
3831		78.125000
3832		85.937500
3833		76.171875
3834		83.984375
3835		72.265625
3836		82.031250
3837		70.312500
3838		78.125000
3839		66.406250
3840		76.171875
3841		62.500000
3842		72.265625
3843		60.546875
3844		68.359375
3845		58.593750
3846		62.500000
3847		50.781250
3848		58.593750
3849		46.875000
3850		56.640625
3851		42.968750
3852		52.734375
3853		39.062500
3854		48.828125
3855		35.156250
3856		44.921875
3857		29.296875
3858		41.015625
3859		27.343750
3860		35.156250
3861		23.437500
3862		29.296875
3863		17.578125
3864		23.437500
3865		11.718750
3866		19.531250
3867		7.812500
3868		17.578125
3869		1.953125
3870		11.718750
3871		-3.906250
3872		7.812500
3873		-7.812500
3874		1.953125
3875		-13.671875
3876		-1.953125
3877		-15.625000
3878		-7.812500
3879		-19.531250
3880		-13.671875
3881		-27.343750
3882		-19.531250
3883		-31.250000
3884		-21.484375
3885		-35.156250
3886		-25.390625
3887		-41.015625
3888		-31.250000
3889		-44.921875
3890		-35.156250
3891		-48.828125
3892		-39.062500
3893		-50.781250
3894		-42.968750
3895		-54.687500
3896		-48.828125
3897		-60.546875
3898		-52.734375
3899		-64.453125
3900		-54.687500
3901		-68.359375
3902		-58.593750
3903		-70.312500
3904		-60.546875
3905		-74.218750
3906		-66.406250
3907		-78.125000
3908		-68.359375
3909		-80.078125
3910		-70.312500
3911		-80.078125
3912		-76.171875
3913		-82.031250
3914		-78.125000
3915		-85.937500
3916		-78.125000
3917		-87.890625
3918		-80.078125
3919		-89.843750
3920		-82.031250
3921		-89.843750
3922		-83.984375
3923		-91.796875
3924		-83.984375
3925		-93.750000
3926		-85.937500
3927		-91.796875
3928		-85.937500
3929		-89.843750
3930		-87.890625
3931		-91.796875
3932		-85.937500
3933		-91.796875
3934		-85.937500
3935		-91.796875
3936		-83.984375
3937		-91.796875
3938		-83.984375
3939		-91.796875
3940		-83.984375
3941		-89.843750
3942		-82.031250
3943		-87.890625
3944		-80.078125
3945		-83.984375
3946		-80.078125
3947		-82.031250
3948		-78.125000
3949		-82.031250
3950		-74.218750
3951		-80.078125
3952		-72.265625
3953		-78.125000
3954		-68.359375
3955		-74.218750
3956		-66.406250
3957		-70.312500
3958		-62.500000
3959		-66.406250
3960		-58.593750
3961		-64.453125
3962		-56.640625
3963		-58.593750
3964		-52.734375
3965		-54.687500
3966		-46.875000
3967		-52.734375
3968		-42.968750
3969		-48.828125
3970		-39.062500
3971		-44.921875
3972		-35.156250
3973		-39.062500
3974		-31.250000
3975		-35.156250
3976		-25.390625
3977		-31.250000
3978		-23.437500
3979		-25.390625
3980		-19.531250
3981		-19.531250
3982		-11.718750
3983		-17.578125
3984		-7.812500
3985		-13.671875
3986		-1.953125
3987		-7.812500
3988		1.953125
3989		-3.906250
3990		5.859375
3991		1.953125
3992		11.718750
3993		5.859375
3994		15.625000
3995		13.671875
3996		19.531250
3997		17.578125
3998		23.437500
3999		23.437500
4000		31.250000
4001		25.390625
4002		35.156250
4003		29.296875
4004		41.015625
4005		35.156250
4006		44.921875
4007		39.062500
4008		46.875000
4009		42.968750
4010		52.734375
4011		46.875000
4012		54.687500
4013		52.734375
4014		58.593750
4015		56.640625
4016		64.453125
4017		58.593750
4018		68.359375
4019		62.500000
4020		72.265625
4021		66.406250
4022		74.218750
4023		68.359375
4024		78.125000
4025		72.265625
4026		82.031250
4027		76.171875
4028		82.031250
4029		80.078125
4030		83.984375
4031		83.984375
4032		85.937500
4033		83.984375
4034		91.796875
4035		85.937500
4036		93.750000
4037		87.890625
4038		93.750000
4039		89.843750
4040		95.703125
4041		93.750000
4042		95.703125
4043		93.750000
4044		99.609375
4045		95.703125
4046		99.609375
4047		97.656250
4048		99.609375
4049		95.703125
4050		101.562500
4051		95.703125
4052		103.515625
4053		97.656250
4054		103.515625
4055		97.656250
4056		103.515625
4057		99.609375
4058		101.562500
4059		97.656250
4060		103.515625
4061		97.656250
4062		103.515625
4063		97.656250
4064		101.562500
4065		97.656250
4066		99.609375
4067		93.750000
4068		101.562500
4069		91.796875
4070		101.562500
4071		93.750000
4072		99.609375
4073		91.796875
4074		95.703125
4075		89.843750
4076		93.750000
4077		87.890625
4078		91.796875
4079		85.937500
4080		89.843750
4081		83.984375
4082		87.890625
4083		80.078125
4084		85.937500
4085		76.171875
4086		83.984375
4087		74.218750
4088		82.031250
4089		72.265625
4090		76.171875
4091		68.359375
4092		74.218750
4093		66.406250
4094		70.312500
4095		62.500000
4096		66.406250
4097		58.593750
4098		62.500000
4099		52.734375
4100		60.546875
4101		50.781250
4102		56.640625
4103		46.875000
4104		50.781250
4105		42.968750
4106		46.875000
4107		37.109375
4108		42.968750
4109		33.203125
4110		39.062500
4111		27.343750
4112		35.156250
4113		23.437500
4114		29.296875
4115		19.531250
4116		25.390625
4117		13.671875
4118		21.484375
4119		9.765625
4120		15.625000
4121		5.859375
4122		11.718750
4123		0.000000
4124		5.859375
4125		-5.859375
4126		1.953125
4127		-9.765625
4128		-3.906250
4129		-13.671875
4130		-7.812500
4131		-19.531250
4132		-13.671875
4133		-23.437500
4134		-17.578125
4135		-29.296875
4136		-21.484375
4137		-33.203125
4138		-27.343750
4139		-39.062500
4140		-31.250000
4141		-42.968750
4142		-35.156250
4143		-46.875000
4144		-41.015625
4145		-50.781250
4146		-44.921875
4147		-54.687500
4148		-48.828125
4149		-58.593750
4150		-52.734375
4151		-60.546875
4152		-54.687500
4153		-64.453125
4154		-58.593750
4155		-68.359375
4156		-64.453125
4157		-72.265625
4158		-66.406250
4159		-74.218750
4160		-70.312500
4161		-78.125000
4162		-72.265625
4163		-80.078125
4164		-74.218750
4165		-82.031250
4166		-78.125000
4167		-83.984375
4168		-80.078125
4169		-85.937500
4170		-82.031250
4171		-85.937500
4172		-83.984375
4173		-87.890625
4174		-85.937500
4175		-89.843750
4176		-85.937500
4177		-89.843750
4178		-87.890625
4179		-89.843750
4180		-87.890625
4181		-89.843750
4182		-87.890625
4183		-91.796875
4184		-87.890625
4185		-91.796875
4186		-87.890625
4187		-89.843750
4188		-87.890625
4189		-89.843750
4190		-85.937500
4191		-89.843750
4192		-85.937500
4193		-87.890625
4194		-83.984375
4195		-87.890625
4196		-82.031250
4197		-83.984375
4198		-80.078125
4199		-82.031250
4200		-78.125000
4201		-80.078125
4202		-76.171875
4203		-78.125000
4204		-74.218750
4205		-76.171875
4206		-70.312500
4207		-72.265625
4208		-68.359375
4209		-70.312500
4210		-64.453125
4211		-66.406250
4212		-60.546875
4213		-64.453125
4214		-56.640625
4215		-58.593750
4216		-54.687500
4217		-56.640625
4218		-50.781250
4219		-52.734375
4220		-46.875000
4221		-48.828125
4222		-42.968750
4223		-44.921875
4224		-37.109375
4225		-41.015625
4226		-33.203125
4227		-35.156250
4228		-29.296875
4229		-31.250000
4230		-25.390625
4231		-25.390625
4232		-19.531250
4233		-21.484375
4234		-15.625000
4235		-17.578125
4236		-9.765625
4237		-11.718750
4238		-5.859375
4239		-7.812500
4240		0.000000
4241		-1.953125
4242		3.906250
4243		1.953125
4244		9.765625
4245		7.812500
4246		13.671875
4247		11.718750
4248		17.578125
4249		15.625000
4250		23.437500
4251		21.484375
4252		27.343750
4253		25.390625
4254		33.203125
4255		31.250000
4256		37.109375
4257		35.156250
4258		41.015625
4259		39.062500
4260		44.921875
4261		42.968750
4262		48.828125
4263		46.875000
4264		52.734375
4265		52.734375
4266		56.640625
4267		56.640625
4268		62.500000
4269		60.546875
4270		64.453125
4271		62.500000
4272		68.359375
4273		66.406250
4274		72.265625
4275		70.312500
4276		74.218750
4277		72.265625
4278		78.125000
4279		76.171875
4280		82.031250
4281		80.078125
4282		83.984375
4283		82.031250
4284		85.937500
4285		83.984375
4286		87.890625
4287		87.890625
4288		89.843750
4289		87.890625
4290		93.750000
4291		91.796875
4292		95.703125
4293		91.796875
4294		95.703125
4295		93.750000
4296		97.656250
4297		95.703125
4298		99.609375
4299		97.656250
4300		99.609375
4301		97.656250
4302		101.562500
4303		97.656250
4304		101.562500
4305		97.656250
4306		101.562500
4307		99.609375
4308		101.562500
4309		99.609375
4310		103.515625
4311		99.609375
4312		103.515625
4313		99.609375
4314		101.562500
4315		99.609375
4316		101.562500
4317		97.656250
4318		101.562500
4319		95.703125
4320		101.562500
4321		95.703125
4322		99.609375
4323		93.750000
4324		97.656250
4325		93.750000
4326		95.703125
4327		89.843750
4328		95.703125
4329		87.890625
4330		93.750000
4331		87.890625
4332		91.796875
4333		85.937500
4334		87.890625
4335		82.031250
4336		85.937500
4337		80.078125
4338		83.984375
4339		76.171875
4340		80.078125
4341		72.265625
4342		78.125000
4343		70.312500
4344		74.218750
4345		66.406250
4346		72.265625
4347		62.500000
4348		68.359375
4349		58.593750
4350		64.453125
4351		54.687500
4352		60.546875
4353		50.781250
4354		56.640625
4355		46.875000
4356		52.734375
4357		42.968750
4358		50.781250
4359		39.062500
4360		44.921875
4361		33.203125
4362		41.015625
4363		29.296875
4364		37.109375
4365		25.390625
4366		31.250000
4367		21.484375
4368		27.343750
4369		15.625000
4370		21.484375
4371		11.718750
4372		17.578125
4373		5.859375
4374		13.671875
4375		1.953125
4376		7.812500
4377		-3.906250
4378		3.906250
4379		-7.812500
4380		-1.953125
4381		-13.671875
4382		-5.859375
4383		-17.578125
4384		-11.718750
4385		-23.437500
4386		-15.625000
4387		-27.343750
4388		-21.484375
4389		-31.250000
4390		-25.390625
4391		-37.109375
4392		-29.296875
4393		-41.015625
4394		-33.203125
4395		-44.921875
4396		-39.062500
4397		-48.828125
4398		-42.968750
4399		-52.734375
4400		-46.875000
4401		-56.640625
4402		-50.781250
4403		-60.546875
4404		-54.687500
4405		-64.453125
4406		-58.593750
4407		-66.406250
4408		-62.500000
4409		-70.312500
4410		-66.406250
4411		-74.218750
4412		-68.359375
4413		-76.171875
4414		-70.312500
4415		-78.125000
4416		-74.218750
4417		-80.078125
4418		-76.171875
4419		-82.031250
4420		-80.078125
4421		-85.937500
4422		-80.078125
4423		-85.937500
4424		-82.031250
4425		-87.890625
4426		-83.984375
4427		-89.843750
4428		-85.937500
4429		-89.843750
4430		-85.937500
4431		-91.796875
4432		-85.937500
4433		-89.843750
4434		-87.890625
4435		-91.796875
4436		-87.890625
4437		-91.796875
4438		-87.890625
4439		-91.796875
4440		-87.890625
4441		-89.843750
4442		-85.937500
4443		-89.843750
4444		-85.937500
4445		-87.890625
4446		-83.984375
4447		-87.890625
4448		-82.031250
4449		-83.984375
4450		-82.031250
4451		-83.984375
4452		-80.078125
4453		-82.031250
4454		-76.171875
4455		-78.125000
4456		-74.218750
4457		-78.125000
4458		-72.265625
4459		-74.218750
4460		-68.359375
4461		-70.312500
4462		-66.406250
4463		-68.359375
4464		-62.500000
4465		-64.453125
4466		-58.593750
4467		-60.546875
4468		-56.640625
4469		-56.640625
4470		-50.781250
4471		-52.734375
4472		-46.875000
4473		-48.828125
4474		-42.968750
4475		-44.921875
4476		-39.062500
4477		-41.015625
4478		-35.156250
4479		-37.109375
4480		-31.250000
4481		-31.250000
4482		-25.390625
4483		-27.343750
4484		-21.484375
4485		-23.437500
4486		-17.578125
4487		-17.578125
4488		-11.718750
4489		-13.671875
4490		-5.859375
4491		-7.812500
4492		-1.953125
4493		-3.906250
4494		1.953125
4495		0.000000
4496		7.812500
4497		5.859375
4498		11.718750
4499		9.765625
4500		15.625000
4501		15.625000
4502		21.484375
4503		19.531250
4504		25.390625
4505		23.437500
4506		31.250000
4507		29.296875
4508		35.156250
4509		33.203125
4510		39.062500
4511		37.109375
4512		42.968750
4513		42.968750
4514		48.828125
4515		46.875000
4516		52.734375
4517		50.781250
4518		56.640625
4519		54.687500
4520		60.546875
4521		58.593750
4522		64.453125
4523		62.500000
4524		66.406250
4525		66.406250
4526		70.312500
4527		68.359375
4528		74.218750
4529		72.265625
4530		76.171875
4531		74.218750
4532		80.078125
4533		78.125000
4534		82.031250
4535		82.031250
4536		85.937500
4537		83.984375
4538		87.890625
4539		85.937500
4540		89.843750
4541		87.890625
4542		91.796875
4543		89.843750
4544		93.750000
4545		91.796875
4546		95.703125
4547		93.750000
4548		97.656250
4549		93.750000
4550		97.656250
4551		95.703125
4552		99.609375
4553		97.656250
4554		101.562500
4555		97.656250
4556		101.562500
4557		97.656250
4558		101.562500
4559		99.609375
4560		101.562500
4561		99.609375
4562		101.562500
4563		99.609375
4564		101.562500
4565		97.656250
4566		101.562500
4567		97.656250
4568		101.562500
4569		97.656250
4570		101.562500
4571		95.703125
4572		99.609375
4573		95.703125
4574		99.609375
4575		93.750000
4576		97.656250
4577		91.796875
4578		95.703125
4579		91.796875
4580		95.703125
4581		89.843750
4582		93.750000
4583		87.890625
4584		91.796875
4585		83.984375
4586		87.890625
4587		82.031250
4588		87.890625
4589		78.125000
4590		83.984375
4591		76.171875
4592		82.031250
4593		74.218750
4594		78.125000
4595		70.312500
4596		76.171875
4597		66.406250
4598		72.265625
4599		64.453125
4600		68.359375
4601		60.546875
4602		64.453125
4603		54.687500
4604		60.546875
4605		52.734375
4606		58.593750
4607		48.828125
4608		54.687500
4609		42.968750
4610		48.828125
4611		39.062500
4612		44.921875
4613		35.156250
4614		41.015625
4615		29.296875
4616		37.109375
4617		25.390625
4618		31.250000
4619		21.484375
4620		27.343750
4621		15.625000
4622		23.437500
4623		11.718750
4624		17.578125
4625		5.859375
4626		13.671875
4627		1.953125
4628		7.812500
4629		-3.906250
4630		3.906250
4631		-7.812500
4632		-1.953125
4633		-11.718750
4634		-5.859375
4635		-17.578125
4636		-11.718750
4637		-21.484375
4638		-15.625000
4639		-27.343750
4640		-19.531250
4641		-31.250000
4642		-25.390625
4643		-35.156250
4644		-29.296875
4645		-39.062500
4646		-33.203125
4647		-44.921875
4648		-39.062500
4649		-48.828125
4650		-42.968750
4651		-52.734375
4652		-46.875000
4653		-56.640625
4654		-50.781250
4655		-60.546875
4656		-54.687500
4657		-64.453125
4658		-58.593750
4659		-66.406250
4660		-60.546875
4661		-70.312500
4662		-64.453125
4663		-74.218750
4664		-68.359375
4665		-76.171875
4666		-70.312500
4667		-78.125000
4668		-72.265625
4669		-80.078125
4670		-76.171875
4671		-83.984375
4672		-80.078125
4673		-83.984375
4674		-80.078125
4675		-85.937500
4676		-82.031250
4677		-87.890625
4678		-83.984375
4679		-89.843750
4680		-85.937500
4681		-89.843750
4682		-85.937500
4683		-91.796875
4684		-87.890625
4685		-91.796875
4686		-87.890625
4687		-91.796875
4688		-87.890625
4689		-91.796875
4690		-87.890625
4691		-91.796875
4692		-87.890625
4693		-91.796875
4694		-87.890625
4695		-89.843750
4696		-85.937500
4697		-89.843750
4698		-83.984375
4699		-87.890625
4700		-83.984375
4701		-85.937500
4702		-82.031250
4703		-83.984375
4704		-80.078125
4705		-82.031250
4706		-78.125000
4707		-80.078125
4708		-76.171875
4709		-78.125000
4710		-72.265625
4711		-74.218750
4712		-70.312500
4713		-72.265625
4714		-66.406250
4715		-68.359375
4716		-64.453125
4717		-66.406250
4718		-60.546875
4719		-62.500000
4720		-56.640625
4721		-58.593750
4722		-52.734375
4723		-54.687500
4724		-48.828125
4725		-50.781250
4726		-44.921875
4727		-46.875000
4728		-41.015625
4729		-42.968750
4730		-35.156250
4731		-39.062500
4732		-31.250000
4733		-33.203125
4734		-27.343750
4735		-29.296875
4736		-23.437500
4737		-23.437500
4738		-17.578125
4739		-21.484375
4740		-13.671875
4741		-15.625000
4742		-9.765625
4743		-11.718750
4744		-3.906250
4745		-5.859375
4746		1.953125
4747		0.000000
4748		5.859375
4749		3.906250
4750		11.718750
4751		7.812500
4752		15.625000
4753		13.671875
4754		19.531250
4755		19.531250
4756		25.390625
4757		23.437500
4758		29.296875
4759		27.343750
4760		33.203125
4761		33.203125
4762		39.062500
4763		35.156250
4764		42.968750
4765		41.015625
4766		46.875000
4767		44.921875
4768		50.781250
4769		48.828125
4770		54.687500
4771		52.734375
4772		58.593750
4773		56.640625
4774		62.500000
4775		60.546875
4776		66.406250
4777		64.453125
4778		70.312500
4779		68.359375
4780		72.265625
4781		72.265625
4782		76.171875
4783		74.218750
4784		80.078125
4785		78.125000
4786		82.031250
4787		80.078125
4788		83.984375
4789		82.031250
4790		85.937500
4791		85.937500
4792		89.843750
4793		87.890625
4794		91.796875
4795		89.843750
4796		93.750000
4797		91.796875
4798		95.703125
4799		93.750000
4800		97.656250
4801		93.750000
4802		97.656250
4803		95.703125
4804		99.609375
4805		95.703125
4806		101.562500
4807		97.656250
4808		101.562500
4809		97.656250
4810		101.562500
4811		99.609375
4812		101.562500
4813		99.609375
4814		101.562500
4815		99.609375
4816		101.562500
4817		97.656250
4818		101.562500
4819		97.656250
4820		101.562500
4821		97.656250
4822		99.609375
4823		97.656250
4824		101.562500
4825		95.703125
4826		99.609375
4827		93.750000
4828		97.656250
4829		91.796875
4830		95.703125
4831		91.796875
4832		95.703125
4833		89.843750
4834		93.750000
4835		87.890625
4836		91.796875
4837		85.937500
4838		89.843750
4839		82.031250
4840		87.890625
4841		80.078125
4842		83.984375
4843		76.171875
4844		82.031250
4845		74.218750
4846		78.125000
4847		72.265625
4848		78.125000
4849		66.406250
4850		72.265625
4851		64.453125
4852		70.312500
4853		60.546875
4854		66.406250
4855		56.640625
4856		62.500000
4857		52.734375
4858		58.593750
4859		48.828125
4860		54.687500
4861		44.921875
4862		50.781250
4863		41.015625
4864		46.875000
4865		35.156250
4866		41.015625
4867		31.250000
4868		37.109375
4869		27.343750
4870		33.203125
4871		21.484375
4872		29.296875
4873		17.578125
4874		23.437500
4875		11.718750
4876		19.531250
4877		7.812500
4878		13.671875
4879		3.906250
4880		9.765625
4881		-1.953125
4882		3.906250
4883		-5.859375
4884		0.000000
4885		-11.718750
4886		-3.906250
4887		-15.625000
4888		-9.765625
4889		-21.484375
4890		-13.671875
4891		-25.390625
4892		-19.531250
4893		-29.296875
4894		-23.437500
4895		-35.156250
4896		-27.343750
4897		-39.062500
4898		-33.203125
4899		-42.968750
4900		-35.156250
4901		-48.828125
4902		-41.015625
4903		-50.781250
4904		-44.921875
4905		-54.687500
4906		-48.828125
4907		-58.593750
4908		-54.687500
4909		-62.500000
4910		-58.593750
4911		-66.406250
4912		-60.546875
4913		-70.312500
4914		-64.453125
4915		-72.265625
4916		-66.406250
4917		-76.171875
4918		-70.312500
4919		-78.125000
4920		-74.218750
4921		-80.078125
4922		-76.171875
4923		-83.984375
4924		-78.125000
4925		-83.984375
4926		-80.078125
4927		-85.937500
4928		-82.031250
4929		-87.890625
4930		-83.984375
4931		-89.843750
4932		-85.937500
4933		-89.843750
4934		-87.890625
4935		-89.843750
4936		-87.890625
4937		-91.796875
4938		-87.890625
4939		-91.796875
4940		-89.843750
4941		-91.796875
4942		-87.890625
4943		-91.796875
4944		-87.890625
4945		-91.796875
4946		-87.890625
4947		-89.843750
4948		-85.937500
4949		-89.843750
4950		-85.937500
4951		-87.890625
4952		-83.984375
4953		-87.890625
4954		-82.031250
4955		-83.984375
4956		-82.031250
4957		-82.031250
4958		-78.125000
4959		-82.031250
4960		-76.171875
4961		-78.125000
4962		-74.218750
4963		-76.171875
4964		-70.312500
4965		-72.265625
4966		-68.359375
4967		-70.312500
4968		-64.453125
4969		-66.406250
4970		-62.500000
4971		-62.500000
4972		-58.593750
4973		-60.546875
4974		-52.734375
4975		-56.640625
4976		-50.781250
4977		-50.781250
4978		-46.875000
4979		-48.828125
4980		-42.968750
4981		-42.968750
4982		-37.109375
4983		-39.062500
4984		-33.203125
4985		-35.156250
4986		-29.296875
4987		-31.250000
4988		-23.437500
4989		-25.390625
4990		-19.531250
4991		-21.484375
4992		-15.625000
4993		-15.625000
4994		-9.765625
4995		-11.718750
4996		-5.859375
4997		-7.812500
4998		0.000000
4999		-1.953125
5000		3.906250
5001		1.953125
5002		9.765625
5003		7.812500
5004		13.671875
5005		11.718750
5006		17.578125
5007		17.578125
5008		23.437500
5009		21.484375
5010		27.343750
5011		25.390625
5012		31.250000
5013		31.250000
5014		37.109375
5015		35.156250
5016		41.015625
5017		39.062500
5018		44.921875
5019		42.968750
5020		48.828125
5021		48.828125
5022		54.687500
5023		52.734375
5024		56.640625
5025		54.687500
5026		60.546875
5027		60.546875
5028		66.406250
5029		62.500000
5030		68.359375
5031		66.406250
5032		72.265625
5033		70.312500
5034		76.171875
5035		72.265625
5036		78.125000
5037		76.171875
5038		80.078125
5039		80.078125
5040		83.984375
5041		82.031250
5042		85.937500
5043		83.984375
5044		89.843750
5045		85.937500
5046		91.796875
5047		87.890625
5048		91.796875
5049		89.843750
5050		93.750000
5051		91.796875
5052		95.703125
5053		93.750000
5054		97.656250
5055		95.703125
5056		97.656250
5057		95.703125
5058		99.609375
5059		97.656250
5060		99.609375
5061		97.656250
5062		101.562500
5063		97.656250
5064		101.562500
5065		99.609375
5066		101.562500
5067		97.656250
5068		103.515625
5069		97.656250
5070		101.562500
5071		97.656250
5072		101.562500
5073		97.656250
5074		99.609375
5075		95.703125
5076		101.562500
5077		95.703125
5078		99.609375
5079		93.750000
5080		97.656250
5081		93.750000
5082		95.703125
5083		91.796875
5084		95.703125
5085		89.843750
5086		93.750000
5087		87.890625
5088		91.796875
5089		85.937500
5090		89.843750
5091		82.031250
5092		87.890625
5093		80.078125
5094		83.984375
5095		78.125000
5096		82.031250
5097		74.218750
5098		80.078125
5099		72.265625
5100		76.171875
5101		68.359375
5102		72.265625
5103		64.453125
5104		70.312500
5105		60.546875
5106		66.406250
5107		56.640625
5108		62.500000
5109		52.734375
5110		58.593750
5111		48.828125
5112		54.687500
5113		44.921875
5114		50.781250
5115		41.015625
5116		46.875000
5117		37.109375
5118		42.968750
5119		33.203125
5120		39.062500
5121		27.343750
5122		35.156250
5123		23.437500
5124		29.296875
5125		17.578125
5126		23.437500
5127		11.718750
5128		19.531250
5129		7.812500
5130		15.625000
5131		3.906250
5132		9.765625
5133		0.000000
5134		5.859375
5135		-5.859375
5136		1.953125
5137		-9.765625
5138		-3.906250
5139		-15.625000
5140		-9.765625
5141		-21.484375
5142		-13.671875
5143		-25.390625
5144		-19.531250
5145		-29.296875
5146		-23.437500
5147		-33.203125
5148		-27.343750
5149		-39.062500
5150		-33.203125
5151		-42.968750
5152		-37.109375
5153		-46.875000
5154		-41.015625
5155		-50.781250
5156		-44.921875
5157		-54.687500
5158		-48.828125
5159		-60.546875
5160		-52.734375
5161		-62.500000
5162		-56.640625
5163		-66.406250
5164		-60.546875
5165		-70.312500
5166		-64.453125
5167		-72.265625
5168		-66.406250
5169		-76.171875
5170		-70.312500
5171		-78.125000
5172		-72.265625
5173		-80.078125
5174		-76.171875
5175		-83.984375
5176		-78.125000
5177		-83.984375
5178		-80.078125
5179		-87.890625
5180		-83.984375
5181		-87.890625
5182		-83.984375
5183		-89.843750
5184		-85.937500
5185		-91.796875
5186		-87.890625
5187		-91.796875
5188		-87.890625
5189		-91.796875
5190		-89.843750
5191		-91.796875
5192		-89.843750
5193		-91.796875
5194		-89.843750
5195		-91.796875
5196		-87.890625
5197		-91.796875
5198		-87.890625
5199		-91.796875
5200		-87.890625
5201		-89.843750
5202		-87.890625
5203		-89.843750
5204		-85.937500
5205		-87.890625
5206		-83.984375
5207		-85.937500
5208		-82.031250
5209		-83.984375
5210		-80.078125
5211		-82.031250
5212		-78.125000
5213		-80.078125
5214		-76.171875
5215		-78.125000
5216		-72.265625
5217		-74.218750
5218		-70.312500
5219		-72.265625
5220		-66.406250
5221		-68.359375
5222		-62.500000
5223		-64.453125
5224		-60.546875
5225		-60.546875
5226		-54.687500
5227		-56.640625
5228		-52.734375
5229		-54.687500
5230		-48.828125
5231		-50.781250
5232		-44.921875
5233		-44.921875
5234		-39.062500
5235		-42.968750
5236		-35.156250
5237		-37.109375
5238		-29.296875
5239		-31.250000
5240		-25.390625
5241		-27.343750
5242		-21.484375
5243		-23.437500
5244		-17.578125
5245		-19.531250
5246		-11.718750
5247		-13.671875
5248		-7.812500
5249		-9.765625
5250		-1.953125
5251		-3.906250
5252		1.953125
5253		0.000000
5254		7.812500
5255		5.859375
5256		11.718750
5257		9.765625
5258		17.578125
5259		15.625000
5260		21.484375
5261		19.531250
5262		25.390625
5263		25.390625
5264		31.250000
5265		29.296875
5266		35.156250
5267		33.203125
5268		41.015625
5269		37.109375
5270		42.968750
5271		41.015625
5272		48.828125
5273		46.875000
5274		52.734375
5275		50.781250
5276		56.640625
5277		52.734375
5278		58.593750
5279		58.593750
5280		64.453125
5281		62.500000
5282		66.406250
5283		66.406250
5284		70.312500
5285		68.359375
5286		74.218750
5287		72.265625
5288		76.171875
5289		74.218750
5290		80.078125
5291		78.125000
5292		82.031250
5293		80.078125
5294		85.937500
5295		82.031250
5296		87.890625
5297		83.984375
5298		89.843750
5299		87.890625
5300		91.796875
5301		89.843750
5302		93.750000
5303		91.796875
5304		95.703125
5305		91.796875
5306		95.703125
5307		93.750000
5308		97.656250
5309		95.703125
5310		99.609375
5311		95.703125
5312		99.609375
5313		97.656250
5314		99.609375
5315		97.656250
5316		101.562500
5317		97.656250
5318		101.562500
5319		97.656250
5320		101.562500
5321		97.656250
5322		101.562500
5323		97.656250
5324		99.609375
5325		97.656250
5326		99.609375
5327		95.703125
5328		99.609375
5329		95.703125
5330		99.609375
5331		93.750000
5332		97.656250
5333		93.750000
5334		97.656250
5335		91.796875
5336		95.703125
5337		89.843750
5338		93.750000
5339		87.890625
5340		91.796875
5341		85.937500
5342		89.843750
5343		82.031250
5344		87.890625
5345		80.078125
5346		85.937500
5347		78.125000
5348		82.031250
5349		74.218750
5350		80.078125
5351		72.265625
5352		78.125000
5353		68.359375
5354		74.218750
5355		64.453125
5356		70.312500
5357		62.500000
5358		66.406250
5359		58.593750
5360		62.500000
5361		54.687500
5362		60.546875
5363		50.781250
5364		54.687500
5365		46.875000
5366		52.734375
5367		41.015625
5368		48.828125
5369		37.109375
5370		42.968750
5371		33.203125
5372		39.062500
5373		29.296875
5374		35.156250
5375		23.437500
5376		29.296875
5377		19.531250
5378		25.390625
5379		15.625000
5380		21.484375
5381		9.765625
5382		17.578125
5383		3.906250
5384		11.718750
5385		0.000000
5386		7.812500
5387		-5.859375
5388		1.953125
5389		-9.765625
5390		-3.906250
5391		-13.671875
5392		-7.812500
5393		-19.531250
5394		-11.718750
5395		-23.437500
5396		-17.578125
5397		-27.343750
5398		-21.484375
5399		-33.203125
5400		-27.343750
5401		-37.109375
5402		-31.250000
5403		-42.968750
5404		-35.156250
5405		-46.875000
5406		-41.015625
5407		-50.781250
5408		-44.921875
5409		-54.687500
5410		-48.828125
5411		-58.593750
5412		-52.734375
5413		-62.500000
5414		-56.640625
5415		-64.453125
5416		-60.546875
5417		-68.359375
5418		-62.500000
5419		-72.265625
5420		-66.406250
5421		-74.218750
5422		-70.312500
5423		-78.125000
5424		-72.265625
5425		-80.078125
5426		-74.218750
5427		-83.984375
5428		-78.125000
5429		-83.984375
5430		-80.078125
5431		-85.937500
5432		-82.031250
5433		-87.890625
5434		-83.984375
5435		-89.843750
5436		-85.937500
5437		-89.843750
5438		-85.937500
5439		-91.796875
5440		-87.890625
5441		-91.796875
5442		-89.843750
5443		-91.796875
5444		-89.843750
5445		-91.796875
5446		-89.843750
5447		-91.796875
5448		-89.843750
5449		-91.796875
5450		-89.843750
5451		-91.796875
5452		-87.890625
5453		-91.796875
5454		-87.890625
5455		-89.843750
5456		-85.937500
5457		-87.890625
5458		-83.984375
5459		-85.937500
5460		-83.984375
5461		-83.984375
5462		-80.078125
5463		-83.984375
5464		-78.125000
5465		-82.031250
5466		-76.171875
5467		-78.125000
5468		-74.218750
5469		-76.171875
5470		-70.312500
5471		-72.265625
5472		-66.406250
5473		-70.312500
5474		-64.453125
5475		-66.406250
5476		-60.546875
5477		-62.500000
5478		-56.640625
5479		-60.546875
5480		-52.734375
5481		-54.687500
5482		-48.828125
5483		-50.781250
5484		-44.921875
5485		-46.875000
5486		-41.015625
5487		-42.968750
5488		-35.156250
5489		-39.062500
5490		-31.250000
5491		-35.156250
5492		-27.343750
5493		-29.296875
5494		-23.437500
5495		-23.437500
5496		-17.578125
5497		-19.531250
5498		-13.671875
5499		-15.625000
5500		-9.765625
5501		-9.765625
5502		-3.906250
5503		-5.859375
5504		0.000000
5505		-1.953125
5506		5.859375
5507		3.906250
5508		9.765625
5509		9.765625
5510		15.625000
5511		13.671875
5512		21.484375
5513		17.578125
5514		23.437500
5515		23.437500
5516		29.296875
5517		27.343750
5518		35.156250
5519		33.203125
5520		39.062500
5521		37.109375
5522		42.968750
5523		41.015625
5524		46.875000
5525		44.921875
5526		50.781250
5527		48.828125
5528		54.687500
5529		52.734375
5530		58.593750
5531		56.640625
5532		62.500000
5533		60.546875
5534		66.406250
5535		64.453125
5536		68.359375
5537		66.406250
5538		72.265625
5539		70.312500
5540		76.171875
5541		74.218750
5542		78.125000
5543		78.125000
5544		82.031250
5545		80.078125
5546		83.984375
5547		82.031250
5548		85.937500
5549		83.984375
5550		89.843750
5551		85.937500
5552		91.796875
5553		89.843750
5554		93.750000
5555		91.796875
5556		95.703125
5557		91.796875
5558		95.703125
5559		93.750000
5560		97.656250
5561		95.703125
5562		97.656250
5563		95.703125
5564		99.609375
5565		97.656250
5566		99.609375
5567		97.656250
5568		101.562500
5569		97.656250
5570		101.562500
5571		97.656250
5572		101.562500
5573		97.656250
5574		101.562500
5575		97.656250
5576		101.562500
5577		97.656250
5578		101.562500
5579		95.703125
5580		99.609375
5581		95.703125
5582		99.609375
5583		93.750000
5584		97.656250
5585		93.750000
5586		95.703125
5587		91.796875
5588		95.703125
5589		89.843750
5590		95.703125
5591		87.890625
5592		91.796875
5593		85.937500
5594		89.843750
5595		83.984375
5596		87.890625
5597		82.031250
5598		85.937500
5599		78.125000
5600		83.984375
5601		76.171875
5602		82.031250
5603		72.265625
5604		78.125000
5605		70.312500
5606		76.171875
5607		64.453125
5608		70.312500
5609		62.500000
5610		68.359375
5611		58.593750
5612		64.453125
5613		54.687500
5614		60.546875
5615		50.781250
5616		56.640625
5617		46.875000
5618		52.734375
5619		42.968750
5620		48.828125
5621		39.062500
5622		44.921875
5623		35.156250
5624		41.015625
5625		29.296875
5626		35.156250
5627		25.390625
5628		31.250000
5629		19.531250
5630		27.343750
5631		15.625000
5632		21.484375
5633		9.765625
5634		17.578125
5635		5.859375
5636		11.718750
5637		1.953125
5638		9.765625
5639		-3.906250
5640		1.953125
5641		-7.812500
5642		-1.953125
5643		-13.671875
5644		-7.812500
5645		-17.578125
5646		-11.718750
5647		-23.437500
5648		-15.625000
5649		-27.343750
5650		-21.484375
5651		-31.250000
5652		-25.390625
5653		-37.109375
5654		-29.296875
5655		-41.015625
5656		-35.156250
5657		-44.921875
5658		-39.062500
5659		-48.828125
5660		-42.968750
5661		-52.734375
5662		-46.875000
5663		-56.640625
5664		-52.734375
5665		-60.546875
5666		-54.687500
5667		-64.453125
5668		-58.593750
5669		-68.359375
5670		-62.500000
5671		-70.312500
5672		-66.406250
5673		-74.218750
5674		-68.359375
5675		-76.171875
5676		-72.265625
5677		-80.078125
5678		-76.171875
5679		-83.984375
5680		-78.125000
5681		-83.984375
5682		-80.078125
5683		-85.937500
5684		-82.031250
5685		-87.890625
5686		-83.984375
5687		-89.843750
5688		-85.937500
5689		-89.843750
5690		-85.937500
5691		-91.796875
5692		-87.890625
5693		-91.796875
5694		-89.843750
5695		-91.796875
5696		-89.843750
5697		-93.750000
5698		-89.843750
5699		-93.750000
5700		-89.843750
5701		-91.796875
5702		-89.843750
5703		-91.796875
5704		-89.843750
5705		-91.796875
5706		-87.890625
5707		-89.843750
5708		-85.937500
5709		-89.843750
5710		-85.937500
5711		-87.890625
5712		-83.984375
5713		-85.937500
5714		-80.078125
5715		-83.984375
5716		-80.078125
5717		-82.031250
5718		-76.171875
5719		-80.078125
5720		-74.218750
5721		-76.171875
5722		-72.265625
5723		-74.218750
5724		-68.359375
5725		-70.312500
5726		-66.406250
5727		-66.406250
5728		-62.500000
5729		-64.453125
5730		-58.593750
5731		-60.546875
5732		-54.687500
5733		-56.640625
5734		-50.781250
5735		-52.734375
5736		-46.875000
5737		-48.828125
5738		-41.015625
5739		-44.921875
5740		-37.109375
5741		-41.015625
5742		-33.203125
5743		-35.156250
5744		-29.296875
5745		-31.250000
5746		-25.390625
5747		-25.390625
5748		-19.531250
5749		-21.484375
5750		-13.671875
5751		-17.578125
5752		-9.765625
5753		-11.718750
5754		-5.859375
5755		-7.812500
5756		0.000000
5757		-1.953125
5758		3.906250
5759		1.953125
5760		7.812500
5761		7.812500
5762		13.671875
5763		11.718750
5764		19.531250
5765		15.625000
5766		23.437500
5767		21.484375
5768		27.343750
5769		25.390625
5770		33.203125
5771		31.250000
5772		37.109375
5773		33.203125
5774		41.015625
5775		39.062500
5776		44.921875
5777		42.968750
5778		48.828125
5779		46.875000
5780		52.734375
5781		52.734375
5782		58.593750
5783		54.687500
5784		62.500000
5785		58.593750
5786		64.453125
5787		62.500000
5788		68.359375
5789		66.406250
5790		72.265625
5791		68.359375
5792		76.171875
5793		72.265625
5794		78.125000
5795		76.171875
5796		80.078125
5797		78.125000
5798		83.984375
5799		80.078125
5800		87.890625
5801		83.984375
5802		89.843750
5803		83.984375
5804		91.796875
5805		87.890625
5806		93.750000
5807		89.843750
5808		95.703125
5809		91.796875
5810		95.703125
5811		93.750000
5812		95.703125
5813		95.703125
5814		97.656250
5815		95.703125
5816		99.609375
5817		95.703125
5818		99.609375
5819		95.703125
5820		101.562500
5821		97.656250
5822		101.562500
5823		97.656250
5824		101.562500
5825		97.656250
5826		101.562500
5827		97.656250
5828		101.562500
5829		97.656250
5830		99.609375
5831		95.703125
5832		101.562500
5833		93.750000
5834		99.609375
5835		93.750000
5836		99.609375
5837		93.750000
5838		97.656250
5839		91.796875
5840		97.656250
5841		89.843750
5842		95.703125
5843		87.890625
5844		93.750000
5845		85.937500
5846		89.843750
5847		83.984375
5848		87.890625
5849		82.031250
5850		85.937500
5851		80.078125
5852		83.984375
5853		76.171875
5854		82.031250
5855		74.218750
5856		78.125000
5857		70.312500
5858		74.218750
5859		66.406250
5860		72.265625
5861		64.453125
5862		68.359375
5863		60.546875
5864		64.453125
5865		56.640625
5866		62.500000
5867		52.734375
5868		56.640625
5869		48.828125
5870		54.687500
5871		44.921875
5872		48.828125
5873		39.062500
5874		44.921875
5875		35.156250
5876		41.015625
5877		31.250000
5878		37.109375
5879		25.390625
5880		33.203125
5881		21.484375
5882		27.343750
5883		17.578125
5884		23.437500
5885		11.718750
5886		17.578125
5887		7.812500
5888		13.671875
5889		1.953125
5890		9.765625
5891		-1.953125
5892		3.906250
5893		-7.812500
5894		-1.953125
5895		-11.718750
5896		-5.859375
5897		-17.578125
5898		-11.718750
5899		-21.484375
5900		-15.625000
5901		-25.390625
5902		-19.531250
5903		-31.250000
5904		-25.390625
5905		-35.156250
5906		-29.296875
5907		-39.062500
5908		-33.203125
5909		-44.921875
5910		-39.062500
5911		-48.828125
5912		-42.968750
5913		-52.734375
5914		-46.875000
5915		-56.640625
5916		-50.781250
5917		-60.546875
5918		-54.687500
5919		-64.453125
5920		-58.593750
5921		-68.359375
5922		-62.500000
5923		-70.312500
5924		-64.453125
5925		-74.218750
5926		-68.359375
5927		-76.171875
5928		-72.265625
5929		-78.125000
5930		-74.218750
5931		-82.031250
5932		-78.125000
5933		-83.984375
5934		-80.078125
5935		-85.937500
5936		-82.031250
5937		-87.890625
5938		-83.984375
5939		-87.890625
5940		-85.937500
5941		-89.843750
5942		-87.890625
5943		-91.796875
5944		-87.890625
5945		-91.796875
5946		-89.843750
5947		-91.796875
5948		-89.843750
5949		-95.703125
5950		-87.890625
5951		-95.703125
5952		-87.890625
5953		-95.703125
5954		-85.937500
5955		-91.796875
5956		-89.843750
5957		-91.796875
5958		-89.843750
5959		-89.843750
5960		-87.890625
5961		-89.843750
5962		-85.937500
5963		-87.890625
5964		-83.984375
5965		-87.890625
5966		-80.078125
5967		-87.890625
5968		-78.125000
5969		-85.937500
5970		-74.218750
5971		-83.984375
5972		-74.218750
5973		-78.125000
5974		-72.265625
5975		-74.218750
5976		-70.312500
5977		-72.265625
5978		-66.406250
5979		-68.359375
5980		-62.500000
5981		-64.453125
5982		-60.546875
5983		-64.453125
5984		-54.687500
5985		-60.546875
5986		-50.781250
5987		-56.640625
5988		-46.875000
5989		-48.828125
5990		-42.968750
5991		-44.921875
5992		-39.062500
5993		-41.015625
5994		-35.156250
5995		-37.109375
5996		-31.250000
5997		-31.250000
5998		-25.390625
5999		-27.343750
6000		-17.578125
6001		-25.390625
6002		-13.671875
6003		-21.484375
6004		-9.765625
6005		-15.625000
6006		-7.812500
6007		-7.812500
6008		-1.953125
6009		-3.906250
6010		1.953125
6011		1.953125
6012		7.812500
6013		5.859375
6014		11.718750
6015		9.765625
6016		15.625000
6017		11.718750
6018		25.390625
6019		15.625000
6020		29.296875
6021		21.484375
6022		31.250000
6023		29.296875
6024		35.156250
6025		33.203125
6026		39.062500
6027		37.109375
6028		42.968750
6029		42.968750
6030		48.828125
6031		46.875000
6032		52.734375
6033		48.828125
6034		58.593750
6035		52.734375
6036		62.500000
6037		56.640625
6038		66.406250
6039		62.500000
6040		66.406250
6041		64.453125
6042		70.312500
6043		68.359375
6044		74.218750
6045		72.265625
6046		76.171875
6047		74.218750
6048		80.078125
6049		76.171875
6050		87.890625
6051		78.125000
6052		87.890625
6053		80.078125
6054		91.796875
6055		82.031250
6056		91.796875
6057		87.890625
6058		91.796875
6059		89.843750
6060		93.750000
6061		91.796875
6062		95.703125
6063		91.796875
6064		95.703125
6065		93.750000
6066		97.656250
6067		91.796875
6068		101.562500
6069		91.796875
6070		103.515625
6071		93.750000
6072		103.515625
6073		97.656250
6074		99.609375
6075		97.656250
6076		99.609375
6077		97.656250
6078		99.609375
6079		97.656250
6080		99.609375
6081		97.656250
6082		99.609375
6083		93.750000
6084		103.515625
6085		91.796875
6086		101.562500
6087		91.796875
6088		101.562500
6089		91.796875
6090		101.562500
6091		91.796875
6092		95.703125
6093		91.796875
6094		93.750000
6095		89.843750
6096		91.796875
6097		87.890625
6098		89.843750
6099		83.984375
6100		89.843750
6101		80.078125
6102		89.843750
6103		76.171875
6104		87.890625
6105		76.171875
6106		85.937500
6107		74.218750
6108		78.125000
6109		70.312500
6110		76.171875
6111		68.359375
6112		72.265625
6113		64.453125
6114		68.359375
6115		60.546875
6116		66.406250
6117		54.687500
6118		64.453125
6119		48.828125
6120		60.546875
6121		46.875000
6122		56.640625
6123		42.968750
6124		50.781250
6125		41.015625
6126		46.875000
6127		37.109375
6128		42.968750
6129		31.250000
6130		37.109375
6131		27.343750
6132		33.203125
6133		21.484375
6134		29.296875
6135		17.578125
6136		23.437500
6137		9.765625
6138		21.484375
6139		7.812500
6140		13.671875
6141		3.906250
6142		9.765625
6143		-1.953125
6144		3.906250
6145		-5.859375
6146		0.000000
6147		-11.718750
6148		-3.906250
6149		-15.625000
6150		-9.765625
6151		-21.484375
6152		-13.671875
6153		-27.343750
6154		-15.625000
6155		-31.250000
6156		-23.437500
6157		-35.156250
6158		-29.296875
6159		-39.062500
6160		-33.203125
6161		-42.968750
6162		-37.109375
6163		-46.875000
6164		-41.015625
6165		-50.781250
6166		-46.875000
6167		-56.640625
6168		-50.781250
6169		-60.546875
6170		-54.687500
6171		-64.453125
6172		-56.640625
6173		-66.406250
6174		-62.500000
6175		-70.312500
6176		-64.453125
6177		-74.218750
6178		-68.359375
6179		-76.171875
6180		-72.265625
6181		-78.125000
6182		-74.218750
6183		-82.031250
6184		-78.125000
6185		-83.984375
6186		-80.078125
6187		-85.937500
6188		-82.031250
6189		-87.890625
6190		-83.984375
6191		-89.843750
6192		-85.937500
6193		-89.843750
6194		-87.890625
6195		-91.796875
6196		-87.890625
6197		-91.796875
6198		-89.843750
6199		-93.750000
6200		-89.843750
6201		-93.750000
6202		-89.843750
6203		-93.750000
6204		-91.796875
6205		-93.750000
6206		-89.843750
6207		-91.796875
6208		-89.843750
6209		-91.796875
6210		-89.843750
6211		-91.796875
6212		-87.890625
6213		-89.843750
6214		-87.890625
6215		-89.843750
6216		-85.937500
6217		-87.890625
6218		-83.984375
6219		-85.937500
6220		-82.031250
6221		-83.984375
6222		-80.078125
6223		-82.031250
6224		-78.125000
6225		-78.125000
6226		-74.218750
6227		-76.171875
6228		-72.265625
6229		-72.265625
6230		-68.359375
6231		-70.312500
6232		-64.453125
6233		-66.406250
6234		-62.500000
6235		-62.500000
6236		-58.593750
6237		-58.593750
6238		-54.687500
6239		-54.687500
6240		-50.781250
6241		-50.781250
6242		-44.921875
6243		-46.875000
6244		-41.015625
6245		-42.968750
6246		-37.109375
6247		-39.062500
6248		-33.203125
6249		-33.203125
6250		-27.343750
6251		-29.296875
6252		-23.437500
6253		-25.390625
6254		-19.531250
6255		-19.531250
6256		-13.671875
6257		-15.625000
6258		-7.812500
6259		-11.718750
6260		-3.906250
6261		-5.859375
6262		0.000000
6263		0.000000
6264		5.859375
6265		3.906250
6266		9.765625
6267		9.765625
6268		15.625000
6269		11.718750
6270		19.531250
6271		17.578125
6272		23.437500
6273		23.437500
6274		29.296875
6275		27.343750
6276		33.203125
6277		31.250000
6278		37.109375
6279		35.156250
6280		42.968750
6281		41.015625
6282		46.875000
6283		44.921875
6284		50.781250
6285		48.828125
6286		54.687500
6287		52.734375
6288		58.593750
6289		56.640625
6290		62.500000
6291		60.546875
6292		66.406250
6293		64.453125
6294		68.359375
6295		68.359375
6296		72.265625
6297		70.312500
6298		76.171875
6299		74.218750
6300		78.125000
6301		76.171875
6302		82.031250
6303		80.078125
6304		83.984375
6305		82.031250
6306		85.937500
6307		83.984375
6308		87.890625
6309		85.937500
6310		91.796875
6311		87.890625
6312		91.796875
6313		89.843750
6314		93.750000
6315		91.796875
6316		95.703125
6317		93.750000
6318		95.703125
6319		93.750000
6320		99.609375
6321		93.750000
6322		99.609375
6323		95.703125
6324		99.609375
6325		97.656250
6326		99.609375
6327		95.703125
6328		101.562500
6329		97.656250
6330		99.609375
6331		97.656250
6332		99.609375
6333		95.703125
6334		99.609375
6335		93.750000
6336		101.562500
6337		95.703125
6338		99.609375
6339		95.703125
6340		97.656250
6341		93.750000
6342		97.656250
6343		91.796875
6344		97.656250
6345		91.796875
6346		95.703125
6347		89.843750
6348		93.750000
6349		87.890625
6350		91.796875
6351		85.937500
6352		89.843750
6353		82.031250
6354		87.890625
6355		80.078125
6356		85.937500
6357		78.125000
6358		82.031250
6359		74.218750
6360		78.125000
6361		72.265625
6362		76.171875
6363		68.359375
6364		72.265625
6365		64.453125
6366		70.312500
6367		62.500000
6368		66.406250
6369		56.640625
6370		62.500000
6371		54.687500
6372		58.593750
6373		48.828125
6374		54.687500
6375		44.921875
6376		50.781250
6377		41.015625
6378		46.875000
6379		37.109375
6380		42.968750
6381		33.203125
6382		39.062500
6383		27.343750
6384		35.156250
6385		21.484375
6386		29.296875
6387		17.578125
6388		25.390625
6389		13.671875
6390		21.484375
6391		9.765625
6392		15.625000
6393		3.906250
6394		11.718750
6395		0.000000
6396		5.859375
6397		-5.859375
6398		1.953125
6399		-9.765625
6400		-3.906250
6401		-15.625000
6402		-7.812500
6403		-19.531250
6404		-13.671875
6405		-23.437500
6406		-17.578125
6407		-29.296875
6408		-23.437500
6409		-33.203125
6410		-27.343750
6411		-37.109375
6412		-31.250000
6413		-42.968750
6414		-37.109375
6415		-46.875000
6416		-41.015625
6417		-50.781250
6418		-44.921875
6419		-54.687500
6420		-48.828125
6421		-58.593750
6422		-52.734375
6423		-62.500000
6424		-56.640625
6425		-66.406250
6426		-60.546875
6427		-68.359375
6428		-64.453125
6429		-72.265625
6430		-68.359375
6431		-76.171875
6432		-70.312500
6433		-78.125000
6434		-74.218750
6435		-80.078125
6436		-76.171875
6437		-83.984375
6438		-80.078125
6439		-85.937500
6440		-82.031250
6441		-87.890625
6442		-83.984375
6443		-89.843750
6444		-85.937500
6445		-89.843750
6446		-87.890625
6447		-91.796875
6448		-87.890625
6449		-91.796875
6450		-89.843750
6451		-91.796875
6452		-89.843750
6453		-93.750000
6454		-89.843750
6455		-93.750000
6456		-91.796875
6457		-93.750000
6458		-91.796875
6459		-93.750000
6460		-89.843750
6461		-91.796875
6462		-89.843750
6463		-91.796875
6464		-87.890625
6465		-91.796875
6466		-87.890625
6467		-89.843750
6468		-85.937500
6469		-87.890625
6470		-83.984375
6471		-85.937500
6472		-82.031250
6473		-83.984375
6474		-80.078125
6475		-82.031250
6476		-78.125000
6477		-80.078125
6478		-76.171875
6479		-76.171875
6480		-72.265625
6481		-74.218750
6482		-70.312500
6483		-70.312500
6484		-66.406250
6485		-68.359375
6486		-62.500000
6487		-64.453125
6488		-58.593750
6489		-60.546875
6490		-54.687500
6491		-56.640625
6492		-50.781250
6493		-52.734375
6494		-46.875000
6495		-48.828125
6496		-42.968750
6497		-44.921875
6498		-39.062500
6499		-39.062500
6500		-33.203125
6501		-35.156250
6502		-29.296875
6503		-31.250000
6504		-25.390625
6505		-25.390625
6506		-19.531250
6507		-21.484375
6508		-15.625000
6509		-17.578125
6510		-9.765625
6511		-11.718750
6512		-5.859375
6513		-7.812500
6514		-1.953125
6515		-1.953125
6516		3.906250
6517		1.953125
6518		7.812500
6519		7.812500
6520		13.671875
6521		11.718750
6522		17.578125
6523		17.578125
6524		23.437500
6525		21.484375
6526		27.343750
6527		25.390625
6528		31.250000
6529		31.250000
6530		37.109375
6531		35.156250
6532		41.015625
6533		39.062500
6534		44.921875
6535		44.921875
6536		48.828125
6537		46.875000
6538		52.734375
6539		50.781250
6540		58.593750
6541		54.687500
6542		60.546875
6543		58.593750
6544		64.453125
6545		62.500000
6546		68.359375
6547		66.406250
6548		72.265625
6549		70.312500
6550		74.218750
6551		72.265625
6552		78.125000
6553		76.171875
6554		82.031250
6555		78.125000
6556		83.984375
6557		82.031250
6558		85.937500
6559		83.984375
6560		87.890625
6561		85.937500
6562		89.843750
6563		87.890625
6564		91.796875
6565		89.843750
6566		93.750000
6567		91.796875
6568		93.750000
6569		93.750000
6570		95.703125
6571		93.750000
6572		99.609375
6573		93.750000
6574		99.609375
6575		95.703125
6576		99.609375
6577		97.656250
6578		99.609375
6579		97.656250
6580		99.609375
6581		97.656250
6582		99.609375
6583		97.656250
6584		99.609375
6585		97.656250
6586		99.609375
6587		95.703125
6588		101.562500
6589		93.750000
6590		99.609375
6591		95.703125
6592		97.656250
6593		93.750000
6594		97.656250
6595		93.750000
6596		95.703125
6597		91.796875
6598		93.750000
6599		89.843750
6600		93.750000
6601		87.890625
6602		91.796875
6603		85.937500
6604		89.843750
6605		82.031250
6606		89.843750
6607		80.078125
6608		85.937500
6609		78.125000
6610		82.031250
6611		76.171875
6612		80.078125
6613		72.265625
6614		78.125000
6615		68.359375
6616		74.218750
6617		66.406250
6618		70.312500
6619		62.500000
6620		66.406250
6621		56.640625
6622		64.453125
6623		54.687500
6624		60.546875
6625		50.781250
6626		56.640625
6627		46.875000
6628		52.734375
6629		42.968750
6630		48.828125
6631		39.062500
6632		42.968750
6633		33.203125
6634		39.062500
6635		29.296875
6636		35.156250
6637		23.437500
6638		31.250000
6639		17.578125
6640		27.343750
6641		15.625000
6642		23.437500
6643		9.765625
6644		15.625000
6645		5.859375
6646		11.718750
6647		0.000000
6648		7.812500
6649		-3.906250
6650		1.953125
6651		-9.765625
6652		-1.953125
6653		-13.671875
6654		-7.812500
6655		-19.531250
6656		-11.718750
6657		-23.437500
6658		-15.625000
6659		-27.343750
6660		-21.484375
6661		-33.203125
6662		-27.343750
6663		-37.109375
6664		-31.250000
6665		-41.015625
6666		-35.156250
6667		-44.921875
6668		-41.015625
6669		-50.781250
6670		-44.921875
6671		-56.640625
6672		-48.828125
6673		-58.593750
6674		-50.781250
6675		-62.500000
6676		-56.640625
6677		-66.406250
6678		-60.546875
6679		-68.359375
6680		-64.453125
6681		-72.265625
6682		-66.406250
6683		-74.218750
6684		-70.312500
6685		-78.125000
6686		-74.218750
6687		-80.078125
6688		-76.171875
6689		-83.984375
6690		-78.125000
6691		-85.937500
6692		-80.078125
6693		-87.890625
6694		-83.984375
6695		-89.843750
6696		-85.937500
6697		-89.843750
6698		-87.890625
6699		-91.796875
6700		-87.890625
6701		-93.750000
6702		-89.843750
6703		-93.750000
6704		-89.843750
6705		-95.703125
6706		-89.843750
6707		-95.703125
6708		-89.843750
6709		-93.750000
6710		-91.796875
6711		-93.750000
6712		-91.796875
6713		-93.750000
6714		-89.843750
6715		-91.796875
6716		-89.843750
6717		-91.796875
6718		-87.890625
6719		-89.843750
6720		-87.890625
6721		-87.890625
6722		-83.984375
6723		-87.890625
6724		-82.031250
6725		-85.937500
6726		-82.031250
6727		-82.031250
6728		-78.125000
6729		-80.078125
6730		-76.171875
6731		-78.125000
6732		-74.218750
6733		-74.218750
6734		-70.312500
6735		-72.265625
6736		-66.406250
6737		-68.359375
6738		-64.453125
6739		-66.406250
6740		-58.593750
6741		-62.500000
6742		-56.640625
6743		-58.593750
6744		-52.734375
6745		-54.687500
6746		-48.828125
6747		-48.828125
6748		-44.921875
6749		-44.921875
6750		-41.015625
6751		-41.015625
6752		-35.156250
6753		-37.109375
6754		-31.250000
6755		-31.250000
6756		-25.390625
6757		-27.343750
6758		-21.484375
6759		-23.437500
6760		-17.578125
6761		-17.578125
6762		-11.718750
6763		-13.671875
6764		-7.812500
6765		-7.812500
6766		-1.953125
6767		-3.906250
6768		1.953125
6769		0.000000
6770		7.812500
6771		5.859375
6772		11.718750
6773		9.765625
6774		17.578125
6775		15.625000
6776		21.484375
6777		19.531250
6778		25.390625
6779		25.390625
6780		31.250000
6781		29.296875
6782		35.156250
6783		33.203125
6784		39.062500
6785		39.062500
6786		42.968750
6787		42.968750
6788		48.828125
6789		46.875000
6790		52.734375
6791		50.781250
6792		56.640625
6793		54.687500
6794		60.546875
6795		58.593750
6796		64.453125
6797		62.500000
6798		66.406250
6799		66.406250
6800		70.312500
6801		68.359375
6802		74.218750
6803		72.265625
6804		76.171875
6805		74.218750
6806		80.078125
6807		78.125000
6808		82.031250
6809		80.078125
6810		83.984375
6811		83.984375
6812		85.937500
6813		85.937500
6814		87.890625
6815		87.890625
6816		89.843750
6817		89.843750
6818		91.796875
6819		91.796875
6820		93.750000
6821		91.796875
6822		95.703125
6823		93.750000
6824		95.703125
6825		95.703125
6826		97.656250
6827		95.703125
6828		97.656250
6829		95.703125
6830		99.609375
6831		97.656250
6832		99.609375
6833		97.656250
6834		99.609375
6835		97.656250
6836		99.609375
6837		97.656250
6838		99.609375
6839		95.703125
6840		99.609375
6841		95.703125
6842		99.609375
6843		95.703125
6844		97.656250
6845		93.750000
6846		97.656250
6847		93.750000
6848		95.703125
6849		91.796875
6850		95.703125
6851		89.843750
6852		93.750000
6853		87.890625
6854		91.796875
6855		85.937500
6856		89.843750
6857		83.984375
6858		87.890625
6859		82.031250
6860		85.937500
6861		78.125000
6862		82.031250
6863		76.171875
6864		80.078125
6865		72.265625
6866		78.125000
6867		70.312500
6868		74.218750
6869		66.406250
6870		70.312500
6871		62.500000
6872		68.359375
6873		58.593750
6874		64.453125
6875		54.687500
6876		60.546875
6877		50.781250
6878		56.640625
6879		46.875000
6880		52.734375
6881		42.968750
6882		48.828125
6883		39.062500
6884		44.921875
6885		33.203125
6886		39.062500
6887		29.296875
6888		35.156250
6889		25.390625
6890		31.250000
6891		19.531250
6892		27.343750
6893		15.625000
6894		21.484375
6895		11.718750
6896		17.578125
6897		5.859375
6898		11.718750
6899		1.953125
6900		7.812500
6901		-3.906250
6902		3.906250
6903		-7.812500
6904		-1.953125
6905		-13.671875
6906		-5.859375
6907		-17.578125
6908		-11.718750
6909		-21.484375
6910		-15.625000
6911		-27.343750
6912		-21.484375
6913		-31.250000
6914		-25.390625
6915		-37.109375
6916		-31.250000
6917		-41.015625
6918		-35.156250
6919		-44.921875
6920		-39.062500
6921		-48.828125
6922		-44.921875
6923		-52.734375
6924		-48.828125
6925		-56.640625
6926		-52.734375
6927		-60.546875
6928		-56.640625
6929		-64.453125
6930		-60.546875
6931		-68.359375
6932		-64.453125
6933		-72.265625
6934		-66.406250
6935		-76.171875
6936		-70.312500
6937		-78.125000
6938		-72.265625
6939		-80.078125
6940		-76.171875
6941		-82.031250
6942		-78.125000
6943		-85.937500
6944		-82.031250
6945		-87.890625
6946		-83.984375
6947		-89.843750
6948		-85.937500
6949		-89.843750
6950		-87.890625
6951		-91.796875
6952		-87.890625
6953		-91.796875
6954		-89.843750
6955		-93.750000
6956		-91.796875
6957		-95.703125
6958		-91.796875
6959		-93.750000
6960		-91.796875
6961		-93.750000
6962		-91.796875
6963		-93.750000
6964		-91.796875
6965		-93.750000
6966		-91.796875
6967		-93.750000
6968		-89.843750
6969		-91.796875
6970		-89.843750
6971		-91.796875
6972		-87.890625
6973		-89.843750
6974		-85.937500
6975		-87.890625
6976		-83.984375
6977		-85.937500
6978		-82.031250
6979		-83.984375
6980		-80.078125
6981		-82.031250
6982		-78.125000
6983		-80.078125
6984		-74.218750
6985		-76.171875
6986		-72.265625
6987		-74.218750
6988		-68.359375
6989		-70.312500
6990		-64.453125
6991		-66.406250
6992		-62.500000
6993		-62.500000
6994		-58.593750
6995		-58.593750
6996		-54.687500
6997		-54.687500
6998		-50.781250
6999		-50.781250
7000		-44.921875
7001		-46.875000
7002		-41.015625
7003		-42.968750
7004		-37.109375
7005		-39.062500
7006		-33.203125
7007		-33.203125
7008		-27.343750
7009		-29.296875
7010		-23.437500
7011		-25.390625
7012		-17.578125
7013		-19.531250
7014		-13.671875
7015		-15.625000
7016		-7.812500
7017		-9.765625
7018		-3.906250
7019		-5.859375
7020		0.000000
7021		0.000000
7022		5.859375
7023		3.906250
7024		9.765625
7025		9.765625
7026		15.625000
7027		13.671875
7028		19.531250
7029		17.578125
7030		25.390625
7031		23.437500
7032		29.296875
7033		27.343750
7034		33.203125
7035		31.250000
7036		37.109375
7037		37.109375
7038		42.968750
7039		41.015625
7040		46.875000
7041		44.921875
7042		50.781250
7043		48.828125
7044		54.687500
7045		52.734375
7046		58.593750
7047		56.640625
7048		62.500000
7049		60.546875
7050		66.406250
7051		64.453125
7052		68.359375
7053		66.406250
7054		72.265625
7055		70.312500
7056		76.171875
7057		74.218750
7058		78.125000
7059		76.171875
7060		80.078125
7061		80.078125
7062		83.984375
7063		82.031250
7064		85.937500
7065		83.984375
7066		87.890625
7067		85.937500
7068		89.843750
7069		87.890625
7070		91.796875
7071		89.843750
7072		93.750000
7073		91.796875
7074		95.703125
7075		91.796875
7076		95.703125
7077		93.750000
7078		97.656250
7079		95.703125
7080		97.656250
7081		95.703125
7082		97.656250
7083		95.703125
7084		99.609375
7085		97.656250
7086		99.609375
7087		97.656250
7088		99.609375
7089		97.656250
7090		99.609375
7091		95.703125
7092		99.609375
7093		95.703125
7094		97.656250
7095		95.703125
7096		97.656250
7097		93.750000
7098		97.656250
7099		93.750000
7100		95.703125
7101		91.796875
7102		95.703125
7103		89.843750
7104		93.750000
7105		87.890625
7106		91.796875
7107		85.937500
7108		89.843750
7109		83.984375
7110		87.890625
7111		82.031250
7112		85.937500
7113		80.078125
7114		83.984375
7115		76.171875
7116		80.078125
7117		74.218750
7118		78.125000
7119		70.312500
7120		74.218750
7121		66.406250
7122		72.265625
7123		64.453125
7124		68.359375
7125		60.546875
7126		64.453125
7127		56.640625
7128		62.500000
7129		52.734375
7130		58.593750
7131		48.828125
7132		54.687500
7133		42.968750
7134		48.828125
7135		39.062500
7136		44.921875
7137		35.156250
7138		41.015625
7139		31.250000
7140		37.109375
7141		25.390625
7142		33.203125
7143		21.484375
7144		27.343750
7145		17.578125
7146		23.437500
7147		11.718750
7148		17.578125
7149		7.812500
7150		13.671875
7151		1.953125
7152		9.765625
7153		-1.953125
7154		3.906250
7155		-7.812500
7156		0.000000
7157		-11.718750
7158		-5.859375
7159		-17.578125
7160		-9.765625
7161		-21.484375
7162		-15.625000
7163		-25.390625
7164		-19.531250
7165		-31.250000
7166		-25.390625
7167		-35.156250
7168		-29.296875
7169		-39.062500
7170		-33.203125
7171		-44.921875
7172		-39.062500
7173		-48.828125
7174		-42.968750
7175		-52.734375
7176		-46.875000
7177		-56.640625
7178		-50.781250
7179		-60.546875
7180		-54.687500
7181		-64.453125
7182		-58.593750
7183		-68.359375
7184		-62.500000
7185		-70.312500
7186		-66.406250
7187		-74.218750
7188		-70.312500
7189		-76.171875
7190		-72.265625
7191		-80.078125
7192		-76.171875
7193		-82.031250
7194		-78.125000
7195		-83.984375
7196		-82.031250
7197		-87.890625
7198		-83.984375
7199		-87.890625
7200		-85.937500
7201		-89.843750
7202		-85.937500
7203		-91.796875
7204		-87.890625
7205		-91.796875
7206		-89.843750
7207		-93.750000
7208		-89.843750
7209		-93.750000
7210		-91.796875
7211		-93.750000
7212		-91.796875
7213		-93.750000
7214		-91.796875
7215		-93.750000
7216		-91.796875
7217		-93.750000
7218		-91.796875
7219		-93.750000
7220		-91.796875
7221		-91.796875
7222		-89.843750
7223		-91.796875
7224		-87.890625
7225		-89.843750
7226		-87.890625
7227		-87.890625
7228		-85.937500
7229		-87.890625
7230		-83.984375
7231		-83.984375
7232		-80.078125
7233		-82.031250
7234		-78.125000
7235		-80.078125
7236		-74.218750
7237		-78.125000
7238		-72.265625
7239		-74.218750
7240		-70.312500
7241		-70.312500
7242		-66.406250
7243		-68.359375
7244		-62.500000
7245		-64.453125
7246		-58.593750
7247		-60.546875
7248		-54.687500
7249		-56.640625
7250		-50.781250
7251		-52.734375
7252		-46.875000
7253		-48.828125
7254		-42.968750
7255		-44.921875
7256		-39.062500
7257		-39.062500
7258		-33.203125
7259		-35.156250
7260		-29.296875
7261		-31.250000
7262		-25.390625
7263		-25.390625
7264		-19.531250
7265		-21.484375
7266		-15.625000
7267		-17.578125
7268		-9.765625
7269		-11.718750
7270		-5.859375
7271		-7.812500
7272		0.000000
7273		-1.953125
7274		3.906250
7275		1.953125
7276		7.812500
7277		7.812500
7278		13.671875
7279		11.718750
7280		17.578125
7281		17.578125
7282		23.437500
7283		21.484375
7284		27.343750
7285		25.390625
7286		33.203125
7287		31.250000
7288		37.109375
7289		35.156250
7290		41.015625
7291		39.062500
7292		44.921875
7293		42.968750
7294		48.828125
7295		48.828125
7296		52.734375
7297		52.734375
7298		56.640625
7299		56.640625
7300		60.546875
7301		60.546875
7302		64.453125
7303		62.500000
7304		68.359375
7305		66.406250
7306		70.312500
7307		70.312500
7308		74.218750
7309		72.265625
7310		78.125000
7311		76.171875
7312		80.078125
7313		78.125000
7314		82.031250
7315		82.031250
7316		85.937500
7317		83.984375
7318		87.890625
7319		85.937500
7320		89.843750
7321		87.890625
7322		91.796875
7323		89.843750
7324		91.796875
7325		91.796875
7326		93.750000
7327		91.796875
7328		95.703125
7329		93.750000
7330		95.703125
7331		95.703125
7332		97.656250
7333		95.703125
7334		99.609375
7335		95.703125
7336		99.609375
7337		97.656250
7338		99.609375
7339		97.656250
7340		99.609375
7341		97.656250
7342		99.609375
7343		97.656250
7344		99.609375
7345		95.703125
7346		99.609375
7347		95.703125
7348		97.656250
7349		93.750000
7350		97.656250
7351		93.750000
7352		95.703125
7353		91.796875
7354		95.703125
7355		89.843750
7356		93.750000
7357		87.890625
7358		91.796875
7359		85.937500
7360		89.843750
7361		83.984375
7362		87.890625
7363		82.031250
7364		85.937500
7365		80.078125
7366		83.984375
7367		76.171875
7368		82.031250
7369		74.218750
7370		78.125000
7371		70.312500
7372		76.171875
7373		68.359375
7374		72.265625
7375		64.453125
7376		70.312500
7377		60.546875
7378		66.406250
7379		56.640625
7380		62.500000
7381		52.734375
7382		58.593750
7383		48.828125
7384		54.687500
7385		44.921875
7386		50.781250
7387		41.015625
7388		46.875000
7389		37.109375
7390		42.968750
7391		31.250000
7392		37.109375
7393		27.343750
7394		33.203125
7395		23.437500
7396		29.296875
7397		17.578125
7398		23.437500
7399		13.671875
7400		19.531250
7401		7.812500
7402		13.671875
7403		3.906250
7404		9.765625
7405		-1.953125
7406		5.859375
7407		-5.859375
7408		0.000000
7409		-9.765625
7410		-3.906250
7411		-15.625000
7412		-9.765625
7413		-19.531250
7414		-13.671875
7415		-25.390625
7416		-19.531250
7417		-29.296875
7418		-23.437500
7419		-35.156250
7420		-29.296875
7421		-39.062500
7422		-33.203125
7423		-42.968750
7424		-37.109375
7425		-46.875000
7426		-42.968750
7427		-50.781250
7428		-46.875000
7429		-54.687500
7430		-50.781250
7431		-60.546875
7432		-54.687500
7433		-62.500000
7434		-58.593750
7435		-66.406250
7436		-62.500000
7437		-70.312500
7438		-66.406250
7439		-74.218750
7440		-68.359375
7441		-76.171875
7442		-72.265625
7443		-80.078125
7444		-74.218750
7445		-82.031250
7446		-78.125000
7447		-83.984375
7448		-80.078125
7449		-85.937500
7450		-82.031250
7451		-87.890625
7452		-83.984375
7453		-89.843750
7454		-85.937500
7455		-91.796875
7456		-87.890625
7457		-91.796875
7458		-89.843750
7459		-93.750000
7460		-89.843750
7461		-93.750000
7462		-91.796875
7463		-93.750000
7464		-91.796875
7465		-95.703125
7466		-91.796875
7467		-93.750000
7468		-91.796875
7469		-93.750000
7470		-91.796875
7471		-93.750000
7472		-91.796875
7473		-93.750000
7474		-89.843750
7475		-91.796875
7476		-89.843750
7477		-91.796875
7478		-87.890625
7479		-89.843750
7480		-85.937500
7481		-87.890625
7482		-83.984375
7483		-85.937500
7484		-82.031250
7485		-83.984375
7486		-78.125000
7487		-80.078125
7488		-76.171875
7489		-78.125000
7490		-74.218750
7491		-74.218750
7492		-70.312500
7493		-72.265625
7494		-68.359375
7495		-68.359375
7496		-64.453125
7497		-64.453125
7498		-60.546875
7499		-60.546875
7500		-56.640625
7501		-58.593750
7502		-52.734375
7503		-54.687500
7504		-48.828125
7505		-50.781250
7506		-44.921875
7507		-44.921875
7508		-39.062500
7509		-41.015625
7510		-35.156250
7511		-37.109375
7512		-31.250000
7513		-31.250000
7514		-25.390625
7515		-27.343750
7516		-21.484375
7517		-23.437500
7518		-15.625000
7519		-17.578125
7520		-11.718750
7521		-13.671875
7522		-7.812500
7523		-7.812500
7524		-1.953125
7525		-3.906250
7526		1.953125
7527		1.953125
7528		7.812500
7529		5.859375
7530		11.718750
7531		11.718750
7532		17.578125
7533		15.625000
7534		21.484375
7535		21.484375
7536		25.390625
7537		25.390625
7538		31.250000
7539		29.296875
7540		35.156250
7541		33.203125
7542		39.062500
7543		39.062500
7544		42.968750
7545		42.968750
7546		46.875000
7547		46.875000
7548		52.734375
7549		50.781250
7550		56.640625
7551		54.687500
7552		60.546875
7553		58.593750
7554		64.453125
7555		62.500000
7556		68.359375
7557		66.406250
7558		70.312500
7559		68.359375
7560		74.218750
7561		72.265625
7562		76.171875
7563		76.171875
7564		80.078125
7565		78.125000
7566		82.031250
7567		80.078125
7568		83.984375
7569		82.031250
7570		85.937500
7571		85.937500
7572		87.890625
7573		87.890625
7574		89.843750
7575		89.843750
7576		91.796875
7577		89.843750
7578		93.750000
7579		91.796875
7580		95.703125
7581		93.750000
7582		95.703125
7583		93.750000
7584		97.656250
7585		95.703125
7586		97.656250
7587		95.703125
7588		99.609375
7589		95.703125
7590		99.609375
7591		97.656250
7592		99.609375
7593		97.656250
7594		99.609375
7595		95.703125
7596		99.609375
7597		95.703125
7598		99.609375
7599		93.750000
7600		99.609375
7601		93.750000
7602		97.656250
7603		93.750000
7604		95.703125
7605		91.796875
7606		95.703125
7607		91.796875
7608		93.750000
7609		89.843750
7610		91.796875
7611		87.890625
7612		89.843750
7613		85.937500
7614		87.890625
7615		83.984375
7616		85.937500
7617		80.078125
7618		85.937500
7619		78.125000
7620		82.031250
7621		74.218750
7622		80.078125
7623		72.265625
7624		76.171875
7625		68.359375
7626		74.218750
7627		64.453125
7628		70.312500
7629		62.500000
7630		66.406250
7631		58.593750
7632		64.453125
7633		52.734375
7634		58.593750
7635		48.828125
7636		56.640625
7637		44.921875
7638		52.734375
7639		41.015625
7640		48.828125
7641		35.156250
7642		42.968750
7643		33.203125
7644		39.062500
7645		29.296875
7646		35.156250
7647		23.437500
7648		29.296875
7649		19.531250
7650		27.343750
7651		15.625000
7652		21.484375
7653		7.812500
7654		15.625000
7655		3.906250
7656		11.718750
7657		0.000000
7658		5.859375
7659		-3.906250
7660		3.906250
7661		-9.765625
7662		-3.906250
7663		-15.625000
7664		-7.812500
7665		-21.484375
7666		-11.718750
7667		-25.390625
7668		-17.578125
7669		-29.296875
7670		-21.484375
7671		-33.203125
7672		-27.343750
7673		-37.109375
7674		-31.250000
7675		-42.968750
7676		-35.156250
7677		-46.875000
7678		-39.062500
7679		-50.781250
7680		-44.921875
7681		-56.640625
7682		-48.828125
7683		-60.546875
7684		-50.781250
7685		-62.500000
7686		-54.687500
7687		-66.406250
7688		-60.546875
7689		-70.312500
7690		-62.500000
7691		-76.171875
7692		-66.406250
7693		-76.171875
7694		-68.359375
7695		-78.125000
7696		-74.218750
7697		-82.031250
7698		-76.171875
7699		-83.984375
7700		-78.125000
7701		-85.937500
7702		-82.031250
7703		-87.890625
7704		-83.984375
7705		-91.796875
7706		-83.984375
7707		-91.796875
7708		-83.984375
7709		-95.703125
7710		-87.890625
7711		-91.796875
7712		-89.843750
7713		-93.750000
7714		-91.796875
7715		-95.703125
7716		-89.843750
7717		-99.609375
7718		-87.890625
7719		-95.703125
7720		-91.796875
7721		-95.703125
7722		-91.796875
7723		-97.656250
7724		-85.937500
7725		-97.656250
7726		-85.937500
7727		-91.796875
7728		-89.843750
7729		-91.796875
7730		-87.890625
7731		-89.843750
7732		-83.984375
7733		-89.843750
7734		-82.031250
7735		-87.890625
7736		-80.078125
7737		-83.984375
7738		-80.078125
7739		-83.984375
7740		-72.265625
7741		-82.031250
7742		-72.265625
7743		-78.125000
7744		-68.359375
7745		-72.265625
7746		-68.359375
7747		-70.312500
7748		-62.500000
7749		-68.359375
7750		-56.640625
7751		-62.500000
7752		-54.687500
7753		-58.593750
7754		-52.734375
7755		-54.687500
7756		-46.875000
7757		-54.687500
7758		-42.968750
7759		-46.875000
7760		-39.062500
7761		-41.015625
7762		-35.156250
7763		-37.109375
7764		-31.250000
7765		-33.203125
7766		-25.390625
7767		-29.296875
7768		-21.484375
7769		-25.390625
7770		-17.578125
7771		-19.531250
7772		-13.671875
7773		-15.625000
7774		-3.906250
7775		-9.765625
7776		0.000000
7777		-7.812500
7778		1.953125
7779		0.000000
7780		5.859375
7781		5.859375
7782		11.718750
7783		9.765625
7784		19.531250
7785		13.671875
7786		21.484375
7787		19.531250
7788		25.390625
7789		23.437500
7790		33.203125
7791		25.390625
7792		35.156250
7793		31.250000
7794		39.062500
7795		37.109375
7796		42.968750
7797		41.015625
7798		46.875000
7799		44.921875
7800		50.781250
7801		46.875000
7802		56.640625
7803		52.734375
7804		58.593750
7805		58.593750
7806		64.453125
7807		58.593750
7808		70.312500
7809		64.453125
7810		72.265625
7811		68.359375
7812		72.265625
7813		72.265625
7814		76.171875
7815		74.218750
7816		80.078125
7817		76.171875
7818		83.984375
7819		80.078125
7820		83.984375
7821		82.031250
7822		85.937500
7823		83.984375
7824		91.796875
7825		82.031250
7826		93.750000
7827		87.890625
7828		93.750000
7829		89.843750
7830		93.750000
7831		91.796875
7832		95.703125
7833		91.796875
7834		99.609375
7835		91.796875
7836		99.609375
7837		95.703125
7838		97.656250
7839		93.750000
7840		99.609375
7841		93.750000
7842		103.515625
7843		95.703125
7844		101.562500
7845		97.656250
7846		99.609375
7847		97.656250
7848		99.609375
7849		95.703125
7850		101.562500
7851		93.750000
7852		101.562500
7853		93.750000
7854		99.609375
7855		93.750000
7856		97.656250
7857		89.843750
7858		99.609375
7859		91.796875
7860		93.750000
7861		87.890625
7862		95.703125
7863		87.890625
7864		91.796875
7865		85.937500
7866		89.843750
7867		80.078125
7868		89.843750
7869		80.078125
7870		87.890625
7871		78.125000
7872		82.031250
7873		74.218750
7874		80.078125
7875		72.265625
7876		78.125000
7877		68.359375
7878		76.171875
7879		66.406250
7880		70.312500
7881		62.500000
7882		68.359375
7883		58.593750
7884		64.453125
7885		54.687500
7886		64.453125
7887		52.734375
7888		58.593750
7889		46.875000
7890		52.734375
7891		42.968750
7892		50.781250
7893		39.062500
7894		44.921875
7895		35.156250
7896		41.015625
7897		29.296875
7898		37.109375
7899		25.390625
7900		31.250000
7901		21.484375
7902		27.343750
7903		15.625000
7904		23.437500
7905		11.718750
7906		17.578125
7907		5.859375
7908		13.671875
7909		1.953125
7910		7.812500
7911		-1.953125
7912		3.906250
7913		-7.812500
7914		-1.953125
7915		-11.718750
7916		-5.859375
7917		-17.578125
7918		-11.718750
7919		-21.484375
7920		-15.625000
7921		-27.343750
7922		-19.531250
7923		-31.250000
7924		-25.390625
7925		-35.156250
7926		-29.296875
7927		-41.015625
7928		-35.156250
7929		-44.921875
7930		-39.062500
7931		-48.828125
7932		-42.968750
7933		-52.734375
7934		-46.875000
7935		-56.640625
7936		-50.781250
7937		-60.546875
7938		-56.640625
7939		-64.453125
7940		-58.593750
7941		-68.359375
7942		-62.500000
7943		-72.265625
7944		-66.406250
7945		-74.218750
7946		-70.312500
7947		-78.125000
7948		-72.265625
7949		-80.078125
7950		-76.171875
7951		-83.984375
7952		-76.171875
7953		-85.937500
7954		-80.078125
7955		-87.890625
7956		-82.031250
7957		-89.843750
7958		-83.984375
7959		-89.843750
7960		-85.937500
7961		-91.796875
7962		-87.890625
7963		-91.796875
7964		-89.843750
7965		-93.750000
7966		-91.796875
7967		-95.703125
7968		-89.843750
7969		-95.703125
7970		-89.843750
7971		-95.703125
7972		-89.843750
7973		-95.703125
7974		-89.843750
7975		-95.703125
7976		-89.843750
7977		-93.750000
7978		-89.843750
7979		-93.750000
7980		-87.890625
7981		-91.796875
7982		-87.890625
7983		-89.843750
7984		-85.937500
7985		-87.890625
7986		-83.984375
7987		-87.890625
7988		-80.078125
7989		-85.937500
7990		-80.078125
7991		-82.031250
7992		-76.171875
7993		-80.078125
7994		-74.218750
7995		-78.125000
7996		-72.265625
7997		-74.218750
7998		-68.359375
7999		-70.312500
8000		-64.453125
8001		-68.359375
8002		-60.546875
8003		-64.453125
8004		-56.640625
8005		-60.546875
8006		-52.734375
8007		-56.640625
8008		-48.828125
8009		-52.734375
8010		-44.921875
8011		-48.828125
8012		-41.015625
8013		-42.968750
8014		-37.109375
8015		-39.062500
8016		-33.203125
8017		-33.203125
8018		-27.343750
8019		-29.296875
8020		-23.437500
8021		-25.390625
8022		-19.531250
8023		-21.484375
8024		-13.671875
8025		-15.625000
8026		-7.812500
8027		-11.718750
8028		-3.906250
8029		-7.812500
8030		0.000000
8031		-1.953125
8032		5.859375
8033		3.906250
8034		11.718750
8035		7.812500
8036		15.625000
8037		13.671875
8038		19.531250
8039		17.578125
8040		25.390625
8041		21.484375
8042		29.296875
8043		27.343750
8044		33.203125
8045		31.250000
8046		37.109375
8047		37.109375
8048		42.968750
8049		39.062500
8050		46.875000
8051		42.968750
8052		50.781250
8053		48.828125
8054		54.687500
8055		52.734375
8056		58.593750
8057		54.687500
8058		62.500000
8059		60.546875
8060		64.453125
8061		62.500000
8062		68.359375
8063		66.406250
8064		72.265625
8065		70.312500
8066		74.218750
8067		74.218750
8068		78.125000
8069		76.171875
8070		80.078125
8071		78.125000
8072		83.984375
8073		80.078125
8074		85.937500
8075		83.984375
8076		87.890625
8077		85.937500
8078		89.843750
8079		87.890625
8080		91.796875
8081		89.843750
8082		93.750000
8083		91.796875
8084		95.703125
8085		91.796875
8086		95.703125
8087		93.750000
8088		97.656250
8089		93.750000
8090		99.609375
8091		95.703125
8092		99.609375
8093		95.703125
8094		99.609375
8095		95.703125
8096		99.609375
8097		97.656250
8098		99.609375
8099		97.656250
8100		99.609375
8101		95.703125
8102		99.609375
8103		95.703125
8104		99.609375
8105		95.703125
8106		97.656250
8107		93.750000
8108		99.609375
8109		93.750000
8110		95.703125
8111		91.796875
8112		95.703125
8113		89.843750
8114		93.750000
8115		87.890625
8116		91.796875
8117		85.937500
8118		89.843750
8119		83.984375
8120		87.890625
8121		82.031250
8122		85.937500
8123		78.125000
8124		83.984375
8125		76.171875
8126		82.031250
8127		74.218750
8128		78.125000
8129		70.312500
8130		76.171875
8131		66.406250
8132		72.265625
8133		64.453125
8134		68.359375
8135		60.546875
8136		66.406250
8137		56.640625
8138		62.500000
8139		52.734375
8140		58.593750
8141		48.828125
8142		54.687500
8143		44.921875
8144		48.828125
8145		39.062500
8146		46.875000
8147		35.156250
8148		42.968750
8149		31.250000
8150		37.109375
8151		27.343750
8152		33.203125
8153		21.484375
8154		29.296875
8155		17.578125
8156		23.437500
8157		11.718750
8158		19.531250
8159		7.812500
8160		13.671875
8161		1.953125
8162		9.765625
8163		-1.953125
8164		3.906250
8165		-5.859375
8166		0.000000
8167		-11.718750
8168		-5.859375
8169		-17.578125
8170		-9.765625
8171		-21.484375
8172		-15.625000
8173		-25.390625
8174		-19.531250
8175		-31.250000
8176		-23.437500
8177		-35.156250
8178		-29.296875
8179		-41.015625
8180		-33.203125
8181		-42.968750
8182		-39.062500
8183		-48.828125
8184		-42.968750
8185		-52.734375
8186		-46.875000
8187		-56.640625
8188		-50.781250
8189		-60.546875
8190		-54.687500
8191		-64.453125
8192		-58.593750
8193		-68.359375
8194		-62.500000
8195		-70.312500
8196		-66.406250
8197		-74.218750
8198		-68.359375
8199		-76.171875
8200		-72.265625
8201		-80.078125
8202		-76.171875
8203		-82.031250
8204		-78.125000
8205		-83.984375
8206		-80.078125
8207		-85.937500
8208		-82.031250
8209		-89.843750
8210		-83.984375
8211		-89.843750
8212		-85.937500
8213		-91.796875
8214		-87.890625
8215		-91.796875
8216		-89.843750
8217		-93.750000
8218		-91.796875
8219		-93.750000
8220		-89.843750
8221		-95.703125
8222		-91.796875
8223		-93.750000
8224		-91.796875
8225		-93.750000
8226		-91.796875
8227		-93.750000
8228		-91.796875
8229		-93.750000
8230		-89.843750
8231		-93.750000
8232		-89.843750
8233		-91.796875
8234		-87.890625
8235		-89.843750
8236		-85.937500
8237		-89.843750
8238		-83.984375
8239		-87.890625
8240		-82.031250
8241		-85.937500
8242		-80.078125
8243		-82.031250
8244		-78.125000
8245		-80.078125
8246		-74.218750
8247		-78.125000
8248		-72.265625
8249		-74.218750
8250		-70.312500
8251		-70.312500
8252		-66.406250
8253		-68.359375
8254		-62.500000
8255		-64.453125
8256		-58.593750
8257		-60.546875
8258		-54.687500
8259		-56.640625
8260		-50.781250
8261		-52.734375
8262		-46.875000
8263		-48.828125
8264		-42.968750
8265		-44.921875
8266		-39.062500
8267		-39.062500
8268		-35.156250
8269		-35.156250
8270		-29.296875
8271		-31.250000
8272		-25.390625
8273		-27.343750
8274		-19.531250
8275		-21.484375
8276		-15.625000
8277		-17.578125
8278		-9.765625
8279		-11.718750
8280		-5.859375
8281		-7.812500
8282		-1.953125
8283		-1.953125
8284		3.906250
8285		1.953125
8286		9.765625
8287		5.859375
8288		13.671875
8289		11.718750
8290		19.531250
8291		15.625000
8292		23.437500
8293		21.484375
8294		27.343750
8295		25.390625
8296		31.250000
8297		31.250000
8298		37.109375
8299		35.156250
8300		41.015625
8301		39.062500
8302		44.921875
8303		42.968750
8304		48.828125
8305		46.875000
8306		54.687500
8307		50.781250
8308		56.640625
8309		54.687500
8310		60.546875
8311		58.593750
8312		64.453125
8313		62.500000
8314		68.359375
8315		64.453125
8316		70.312500
8317		70.312500
8318		74.218750
8319		72.265625
8320		78.125000
8321		76.171875
8322		80.078125
8323		78.125000
8324		82.031250
8325		80.078125
8326		85.937500
8327		83.984375
8328		87.890625
8329		85.937500
8330		89.843750
8331		87.890625
8332		91.796875
8333		89.843750
8334		91.796875
8335		91.796875
8336		95.703125
8337		91.796875
8338		95.703125
8339		93.750000
8340		97.656250
8341		95.703125
8342		97.656250
8343		95.703125
8344		99.609375
8345		95.703125
8346		99.609375
8347		95.703125
8348		99.609375
8349		97.656250
8350		99.609375
8351		97.656250
8352		99.609375
8353		95.703125
8354		99.609375
8355		95.703125
8356		99.609375
8357		95.703125
8358		99.609375
8359		93.750000
8360		97.656250
8361		93.750000
8362		97.656250
8363		91.796875
8364		95.703125
8365		89.843750
8366		95.703125
8367		89.843750
8368		91.796875
8369		87.890625
8370		91.796875
8371		83.984375
8372		89.843750
8373		83.984375
8374		85.937500
8375		80.078125
8376		83.984375
8377		78.125000
8378		82.031250
8379		74.218750
8380		80.078125
8381		70.312500
8382		76.171875
8383		68.359375
8384		72.265625
8385		64.453125
8386		70.312500
8387		62.500000
8388		68.359375
8389		58.593750
8390		62.500000
8391		54.687500
8392		58.593750
8393		48.828125
8394		54.687500
8395		44.921875
8396		50.781250
8397		41.015625
8398		46.875000
8399		37.109375
8400		42.968750
8401		33.203125
8402		39.062500
8403		27.343750
8404		33.203125
8405		23.437500
8406		29.296875
8407		19.531250
8408		25.390625
8409		13.671875
8410		19.531250
8411		9.765625
8412		15.625000
8413		3.906250
8414		11.718750
8415		0.000000
8416		5.859375
8417		-3.906250
8418		1.953125
8419		-9.765625
8420		-3.906250
8421		-15.625000
8422		-5.859375
8423		-19.531250
8424		-11.718750
8425		-25.390625
8426		-17.578125
8427		-29.296875
8428		-23.437500
8429		-33.203125
8430		-27.343750
8431		-39.062500
8432		-31.250000
8433		-42.968750
8434		-37.109375
8435		-46.875000
8436		-41.015625
8437		-50.781250
8438		-44.921875
8439		-54.687500
8440		-48.828125
8441		-58.593750
8442		-52.734375
8443		-62.500000
8444		-56.640625
8445		-66.406250
8446		-60.546875
8447		-70.312500
8448		-64.453125
8449		-72.265625
8450		-68.359375
8451		-76.171875
8452		-70.312500
8453		-80.078125
8454		-74.218750
8455		-82.031250
8456		-76.171875
8457		-83.984375
8458		-80.078125
8459		-85.937500
8460		-80.078125
8461		-87.890625
8462		-83.984375
8463		-89.843750
8464		-85.937500
8465		-91.796875
8466		-87.890625
8467		-91.796875
8468		-89.843750
8469		-91.796875
8470		-89.843750
8471		-93.750000
8472		-89.843750
8473		-93.750000
8474		-89.843750
8475		-93.750000
8476		-91.796875
8477		-93.750000
8478		-91.796875
8479		-93.750000
8480		-89.843750
8481		-93.750000
8482		-89.843750
8483		-93.750000
8484		-89.843750
8485		-91.796875
8486		-87.890625
8487		-89.843750
8488		-85.937500
8489		-87.890625
8490		-85.937500
8491		-87.890625
8492		-83.984375
8493		-85.937500
8494		-82.031250
8495		-83.984375
8496		-78.125000
8497		-80.078125
8498		-76.171875
8499		-78.125000
8500		-74.218750
8501		-74.218750
8502		-70.312500
8503		-72.265625
8504		-66.406250
8505		-68.359375
8506		-64.453125
8507		-64.453125
8508		-60.546875
8509		-62.500000
8510		-56.640625
8511		-58.593750
8512		-52.734375
8513		-52.734375
8514		-46.875000
8515		-48.828125
8516		-42.968750
8517		-46.875000
8518		-39.062500
8519		-41.015625
8520		-35.156250
8521		-37.109375
8522		-31.250000
8523		-33.203125
8524		-25.390625
8525		-27.343750
8526		-21.484375
8527		-23.437500
8528		-15.625000
8529		-17.578125
8530		-11.718750
8531		-13.671875
8532		-5.859375
8533		-7.812500
8534		-1.953125
8535		-3.906250
8536		1.953125
8537		1.953125
8538		7.812500
8539		5.859375
8540		13.671875
8541		11.718750
8542		17.578125
8543		15.625000
8544		21.484375
8545		19.531250
8546		25.390625
8547		23.437500
8548		31.250000
8549		29.296875
8550		35.156250
8551		33.203125
8552		39.062500
8553		39.062500
8554		42.968750
8555		42.968750
8556		48.828125
8557		46.875000
8558		52.734375
8559		50.781250
8560		56.640625
8561		54.687500
8562		60.546875
8563		58.593750
8564		64.453125
8565		62.500000
8566		68.359375
8567		64.453125
8568		70.312500
8569		68.359375
8570		74.218750
8571		72.265625
8572		78.125000
8573		74.218750
8574		80.078125
8575		78.125000
8576		82.031250
8577		80.078125
8578		83.984375
8579		82.031250
8580		87.890625
8581		85.937500
8582		89.843750
8583		87.890625
8584		91.796875
8585		89.843750
8586		91.796875
8587		91.796875
8588		93.750000
8589		91.796875
8590		95.703125
8591		93.750000
8592		97.656250
8593		95.703125
8594		97.656250
8595		95.703125
8596		99.609375
8597		95.703125
8598		99.609375
8599		95.703125
8600		99.609375
8601		97.656250
8602		99.609375
8603		97.656250
8604		99.609375
8605		95.703125
8606		99.609375
8607		95.703125
8608		99.609375
8609		95.703125
8610		99.609375
8611		95.703125
8612		97.656250
8613		93.750000
8614		97.656250
8615		91.796875
8616		95.703125
8617		91.796875
8618		95.703125
8619		89.843750
8620		93.750000
8621		85.937500
8622		91.796875
8623		85.937500
8624		89.843750
8625		83.984375
8626		87.890625
8627		80.078125
8628		85.937500
8629		78.125000
8630		82.031250
8631		76.171875
8632		80.078125
8633		72.265625
8634		76.171875
8635		70.312500
8636		74.218750
8637		66.406250
8638		70.312500
8639		62.500000
8640		68.359375
8641		58.593750
8642		64.453125
8643		54.687500
8644		60.546875
8645		50.781250
8646		56.640625
8647		46.875000
8648		52.734375
8649		42.968750
8650		48.828125
8651		39.062500
8652		44.921875
8653		35.156250
8654		41.015625
8655		29.296875
8656		35.156250
8657		25.390625
8658		31.250000
8659		19.531250
8660		27.343750
8661		15.625000
8662		21.484375
8663		11.718750
8664		17.578125
8665		5.859375
8666		11.718750
8667		1.953125
8668		7.812500
8669		-3.906250
8670		1.953125
8671		-7.812500
8672		-1.953125
8673		-13.671875
8674		-5.859375
8675		-17.578125
8676		-11.718750
8677		-23.437500
8678		-17.578125
8679		-27.343750
8680		-21.484375
8681		-31.250000
8682		-25.390625
8683		-37.109375
8684		-29.296875
8685		-41.015625
8686		-35.156250
8687		-44.921875
8688		-39.062500
8689		-50.781250
8690		-44.921875
8691		-54.687500
8692		-48.828125
8693		-58.593750
8694		-52.734375
8695		-62.500000
8696		-56.640625
8697		-64.453125
8698		-60.546875
8699		-68.359375
8700		-62.500000
8701		-72.265625
8702		-66.406250
8703		-74.218750
8704		-70.312500
8705		-78.125000
8706		-74.218750
8707		-80.078125
8708		-76.171875
8709		-82.031250
8710		-78.125000
8711		-85.937500
8712		-80.078125
8713		-87.890625
8714		-83.984375
8715		-89.843750
8716		-83.984375
8717		-91.796875
8718		-87.890625
8719		-91.796875
8720		-87.890625
8721		-91.796875
8722		-89.843750
8723		-93.750000
8724		-89.843750
8725		-93.750000
8726		-91.796875
8727		-93.750000
8728		-89.843750
8729		-93.750000
8730		-91.796875
8731		-95.703125
8732		-89.843750
8733		-93.750000
8734		-89.843750
8735		-93.750000
8736		-89.843750
8737		-91.796875
8738		-87.890625
8739		-89.843750
8740		-85.937500
8741		-89.843750
8742		-85.937500
8743		-87.890625
8744		-83.984375
8745		-85.937500
8746		-82.031250
8747		-83.984375
8748		-78.125000
8749		-80.078125
8750		-76.171875
8751		-80.078125
8752		-74.218750
8753		-76.171875
8754		-72.265625
8755		-72.265625
8756		-68.359375
8757		-70.312500
8758		-64.453125
8759		-66.406250
8760		-60.546875
8761		-62.500000
8762		-56.640625
8763		-58.593750
8764		-52.734375
8765		-54.687500
8766		-48.828125
8767		-50.781250
8768		-44.921875
8769		-48.828125
8770		-41.015625
8771		-42.968750
8772		-37.109375
8773		-37.109375
8774		-31.250000
8775		-33.203125
8776		-27.343750
8777		-29.296875
8778		-23.437500
8779		-23.437500
8780		-17.578125
8781		-19.531250
8782		-11.718750
8783		-15.625000
8784		-7.812500
8785		-9.765625
8786		-3.906250
8787		-3.906250
8788		1.953125
8789		0.000000
8790		5.859375
8791		5.859375
8792		11.718750
8793		9.765625
8794		15.625000
8795		15.625000
8796		21.484375
8797		19.531250
8798		25.390625
8799		23.437500
8800		29.296875
8801		27.343750
8802		35.156250
8803		33.203125
8804		39.062500
8805		37.109375
8806		42.968750
8807		41.015625
8808		46.875000
8809		44.921875
8810		50.781250
8811		50.781250
8812		56.640625
8813		54.687500
8814		58.593750
8815		56.640625
8816		62.500000
8817		60.546875
8818		66.406250
8819		64.453125
8820		70.312500
8821		68.359375
8822		72.265625
8823		70.312500
8824		76.171875
8825		74.218750
8826		78.125000
8827		76.171875
8828		82.031250
8829		80.078125
8830		83.984375
8831		82.031250
8832		85.937500
8833		83.984375
8834		87.890625
8835		85.937500
8836		91.796875
8837		87.890625
8838		91.796875
8839		91.796875
8840		93.750000
8841		91.796875
8842		95.703125
8843		93.750000
8844		97.656250
8845		93.750000
8846		97.656250
8847		95.703125
8848		99.609375
8849		95.703125
8850		99.609375
8851		95.703125
8852		101.562500
8853		95.703125
8854		101.562500
8855		97.656250
8856		99.609375
8857		97.656250
8858		101.562500
8859		97.656250
8860		99.609375
8861		95.703125
8862		99.609375
8863		95.703125
8864		97.656250
8865		93.750000
8866		97.656250
8867		93.750000
8868		97.656250
8869		91.796875
8870		95.703125
8871		89.843750
8872		93.750000
8873		85.937500
8874		91.796875
8875		85.937500
8876		89.843750
8877		83.984375
8878		87.890625
8879		82.031250
8880		85.937500
8881		78.125000
8882		83.984375
8883		76.171875
8884		82.031250
8885		72.265625
8886		78.125000
8887		70.312500
8888		74.218750
8889		66.406250
8890		72.265625
8891		64.453125
8892		68.359375
8893		60.546875
8894		66.406250
8895		54.687500
8896		62.500000
8897		50.781250
8898		56.640625
8899		48.828125
8900		54.687500
8901		42.968750
8902		48.828125
8903		39.062500
8904		46.875000
8905		35.156250
8906		41.015625
8907		29.296875
8908		37.109375
8909		27.343750
8910		33.203125
8911		21.484375
8912		27.343750
8913		17.578125
8914		23.437500
8915		11.718750
8916		19.531250
8917		7.812500
8918		13.671875
8919		1.953125
8920		9.765625
8921		-1.953125
8922		3.906250
8923		-7.812500
8924		0.000000
8925		-11.718750
8926		-5.859375
8927		-17.578125
8928		-9.765625
8929		-21.484375
8930		-15.625000
8931		-27.343750
8932		-19.531250
8933		-31.250000
8934		-25.390625
8935		-35.156250
8936		-29.296875
8937		-39.062500
8938		-33.203125
8939		-44.921875
8940		-39.062500
8941		-48.828125
8942		-42.968750
8943		-52.734375
8944		-46.875000
8945		-56.640625
8946		-50.781250
8947		-60.546875
8948		-54.687500
8949		-64.453125
8950		-58.593750
8951		-68.359375
8952		-62.500000
8953		-70.312500
8954		-66.406250
8955		-74.218750
8956		-68.359375
8957		-78.125000
8958		-72.265625
8959		-80.078125
8960		-74.218750
8961		-82.031250
8962		-78.125000
8963		-85.937500
8964		-80.078125
8965		-85.937500
8966		-82.031250
8967		-87.890625
8968		-83.984375
8969		-89.843750
8970		-85.937500
8971		-91.796875
8972		-87.890625
8973		-91.796875
8974		-89.843750
8975		-93.750000
8976		-89.843750
8977		-93.750000
8978		-89.843750
8979		-93.750000
8980		-91.796875
8981		-93.750000
8982		-91.796875
8983		-93.750000
8984		-89.843750
8985		-93.750000
8986		-89.843750
8987		-95.703125
8988		-89.843750
8989		-91.796875
8990		-89.843750
8991		-89.843750
8992		-87.890625
8993		-89.843750
8994		-85.937500
8995		-87.890625
8996		-83.984375
8997		-85.937500
8998		-82.031250
8999		-83.984375
9000		-80.078125
9001		-82.031250
9002		-78.125000
9003		-80.078125
9004		-74.218750
9005		-76.171875
9006		-72.265625
9007		-74.218750
9008		-68.359375
9009		-70.312500
9010		-64.453125
9011		-66.406250
9012		-62.500000
9013		-62.500000
9014		-58.593750
9015		-60.546875
9016		-52.734375
9017		-56.640625
9018		-50.781250
9019		-52.734375
9020		-46.875000
9021		-46.875000
9022		-41.015625
9023		-42.968750
9024		-37.109375
9025		-39.062500
9026		-33.203125
9027		-35.156250
9028		-29.296875
9029		-31.250000
9030		-23.437500
9031		-25.390625
9032		-19.531250
9033		-19.531250
9034		-13.671875
9035		-15.625000
9036		-9.765625
9037		-11.718750
9038		-3.906250
9039		-5.859375
9040		0.000000
9041		-1.953125
9042		5.859375
9043		1.953125
9044		9.765625
9045		7.812500
9046		15.625000
9047		13.671875
9048		19.531250
9049		17.578125
9050		23.437500
9051		23.437500
9052		29.296875
9053		27.343750
9054		33.203125
9055		31.250000
9056		37.109375
9057		35.156250
9058		41.015625
9059		41.015625
9060		46.875000
9061		44.921875
9062		50.781250
9063		48.828125
9064		54.687500
9065		52.734375
9066		58.593750
9067		56.640625
9068		62.500000
9069		60.546875
9070		66.406250
9071		62.500000
9072		68.359375
9073		68.359375
9074		72.265625
9075		70.312500
9076		76.171875
9077		74.218750
9078		78.125000
9079		76.171875
9080		80.078125
9081		78.125000
9082		83.984375
9083		82.031250
9084		85.937500
9085		83.984375
9086		87.890625
9087		85.937500
9088		89.843750
9089		87.890625
9090		91.796875
9091		89.843750
9092		93.750000
9093		89.843750
9094		95.703125
9095		93.750000
9096		97.656250
9097		93.750000
9098		97.656250
9099		95.703125
9100		97.656250
9101		95.703125
9102		99.609375
9103		97.656250
9104		99.609375
9105		97.656250
9106		99.609375
9107		97.656250
9108		99.609375
9109		95.703125
9110		101.562500
9111		97.656250
9112		99.609375
9113		95.703125
9114		99.609375
9115		95.703125
9116		99.609375
9117		93.750000
9118		97.656250
9119		93.750000
9120		97.656250
9121		91.796875
9122		95.703125
9123		89.843750
9124		93.750000
9125		89.843750
9126		91.796875
9127		85.937500
9128		91.796875
9129		83.984375
9130		89.843750
9131		82.031250
9132		85.937500
9133		80.078125
9134		85.937500
9135		76.171875
9136		82.031250
9137		74.218750
9138		80.078125
9139		70.312500
9140		76.171875
9141		68.359375
9142		72.265625
9143		64.453125
9144		70.312500
9145		60.546875
9146		66.406250
9147		56.640625
9148		62.500000
9149		52.734375
9150		58.593750
9151		48.828125
9152		54.687500
9153		44.921875
9154		50.781250
9155		41.015625
9156		46.875000
9157		37.109375
9158		42.968750
9159		31.250000
9160		39.062500
9161		27.343750
9162		35.156250
9163		23.437500
9164		29.296875
9165		19.531250
9166		25.390625
9167		13.671875
9168		19.531250
9169		9.765625
9170		15.625000
9171		3.906250
9172		9.765625
9173		0.000000
9174		5.859375
9175		-5.859375
9176		0.000000
9177		-9.765625
9178		-3.906250
9179		-15.625000
9180		-9.765625
9181		-21.484375
9182		-13.671875
9183		-25.390625
9184		-19.531250
9185		-29.296875
9186		-23.437500
9187		-35.156250
9188		-27.343750
9189		-39.062500
9190		-33.203125
9191		-42.968750
9192		-37.109375
9193		-46.875000
9194		-41.015625
9195		-50.781250
9196		-44.921875
9197		-54.687500
9198		-48.828125
9199		-58.593750
9200		-52.734375
9201		-62.500000
9202		-56.640625
9203		-66.406250
9204		-60.546875
9205		-70.312500
9206		-64.453125
9207		-72.265625
9208		-68.359375
9209		-76.171875
9210		-72.265625
9211		-78.125000
9212		-74.218750
9213		-82.031250
9214		-78.125000
9215		-83.984375
9216		-80.078125
9217		-85.937500
9218		-82.031250
9219		-87.890625
9220		-83.984375
9221		-89.843750
9222		-83.984375
9223		-89.843750
9224		-85.937500
9225		-91.796875
9226		-87.890625
9227		-93.750000
9228		-89.843750
9229		-93.750000
9230		-89.843750
9231		-93.750000
9232		-89.843750
9233		-93.750000
9234		-91.796875
9235		-93.750000
9236		-91.796875
9237		-93.750000
9238		-89.843750
9239		-93.750000
9240		-89.843750
9241		-91.796875
9242		-87.890625
9243		-91.796875
9244		-85.937500
9245		-89.843750
9246		-85.937500
9247		-87.890625
9248		-83.984375
9249		-85.937500
9250		-82.031250
9251		-83.984375
9252		-80.078125
9253		-82.031250
9254		-78.125000
9255		-80.078125
9256		-74.218750
9257		-78.125000
9258		-72.265625
9259		-74.218750
9260		-70.312500
9261		-70.312500
9262		-64.453125
9263		-68.359375
9264		-62.500000
9265		-64.453125
9266		-58.593750
9267		-60.546875
9268		-54.687500
9269		-56.640625
9270		-50.781250
9271		-52.734375
9272		-46.875000
9273		-48.828125
9274		-42.968750
9275		-44.921875
9276		-39.062500
9277		-39.062500
9278		-33.203125
9279		-35.156250
9280		-29.296875
9281		-31.250000
9282		-25.390625
9283		-25.390625
9284		-19.531250
9285		-23.437500
9286		-15.625000
9287		-17.578125
9288		-11.718750
9289		-11.718750
9290		-5.859375
9291		-7.812500
9292		-1.953125
9293		-1.953125
9294		3.906250
9295		1.953125
9296		7.812500
9297		7.812500
9298		13.671875
9299		11.718750
9300		17.578125
9301		15.625000
9302		23.437500
9303		21.484375
9304		27.343750
9305		25.390625
9306		31.250000
9307		29.296875
9308		37.109375
9309		35.156250
9310		41.015625
9311		39.062500
9312		44.921875
9313		42.968750
9314		48.828125
9315		46.875000
9316		52.734375
9317		50.781250
9318		56.640625
9319		54.687500
9320		60.546875
9321		58.593750
9322		64.453125
9323		62.500000
9324		68.359375
9325		66.406250
9326		70.312500
9327		70.312500
9328		76.171875
9329		72.265625
9330		78.125000
9331		76.171875
9332		80.078125
9333		78.125000
9334		82.031250
9335		80.078125
9336		85.937500
9337		83.984375
9338		87.890625
9339		85.937500
9340		89.843750
9341		87.890625
9342		91.796875
9343		89.843750
9344		93.750000
9345		91.796875
9346		95.703125
9347		91.796875
9348		95.703125
9349		93.750000
9350		97.656250
9351		95.703125
9352		99.609375
9353		95.703125
9354		99.609375
9355		95.703125
9356		99.609375
9357		95.703125
9358		101.562500
9359		97.656250
9360		99.609375
9361		97.656250
9362		99.609375
9363		97.656250
9364		101.562500
9365		95.703125
9366		99.609375
9367		95.703125
9368		99.609375
9369		95.703125
9370		97.656250
9371		93.750000
9372		97.656250
9373		93.750000
9374		97.656250
9375		91.796875
9376		93.750000
9377		89.843750
9378		93.750000
9379		87.890625
9380		91.796875
9381		83.984375
9382		89.843750
9383		83.984375
9384		87.890625
9385		80.078125
9386		85.937500
9387		78.125000
9388		82.031250
9389		76.171875
9390		80.078125
9391		72.265625
9392		78.125000
9393		70.312500
9394		74.218750
9395		66.406250
9396		70.312500
9397		62.500000
9398		66.406250
9399		58.593750
9400		64.453125
9401		54.687500
9402		60.546875
9403		50.781250
9404		56.640625
9405		46.875000
9406		52.734375
9407		42.968750
9408		48.828125
9409		37.109375
9410		44.921875
9411		33.203125
9412		39.062500
9413		29.296875
9414		35.156250
9415		25.390625
9416		31.250000
9417		19.531250
9418		25.390625
9419		15.625000
9420		21.484375
9421		9.765625
9422		17.578125
9423		3.906250
9424		11.718750
9425		0.000000
9426		7.812500
9427		-3.906250
9428		1.953125
9429		-9.765625
9430		-1.953125
9431		-13.671875
9432		-7.812500
9433		-19.531250
9434		-11.718750
9435		-23.437500
9436		-17.578125
9437		-27.343750
9438		-21.484375
9439		-33.203125
9440		-27.343750
9441		-37.109375
9442		-31.250000
9443		-41.015625
9444		-35.156250
9445		-46.875000
9446		-39.062500
9447		-48.828125
9448		-42.968750
9449		-54.687500
9450		-48.828125
9451		-58.593750
9452		-52.734375
9453		-62.500000
9454		-56.640625
9455		-64.453125
9456		-60.546875
9457		-68.359375
9458		-62.500000
9459		-72.265625
9460		-66.406250
9461		-74.218750
9462		-70.312500
9463		-78.125000
9464		-72.265625
9465		-80.078125
9466		-76.171875
9467		-82.031250
9468		-78.125000
9469		-85.937500
9470		-80.078125
9471		-87.890625
9472		-82.031250
9473		-87.890625
9474		-85.937500
9475		-89.843750
9476		-85.937500
9477		-91.796875
9478		-87.890625
9479		-91.796875
9480		-87.890625
9481		-93.750000
9482		-89.843750
9483		-93.750000
9484		-89.843750
9485		-93.750000
9486		-89.843750
9487		-93.750000
9488		-89.843750
9489		-93.750000
9490		-89.843750
9491		-93.750000
9492		-87.890625
9493		-91.796875
9494		-89.843750
9495		-89.843750
9496		-87.890625
9497		-89.843750
9498		-85.937500
9499		-89.843750
9500		-83.984375
9501		-85.937500
9502		-82.031250
9503		-83.984375
9504		-80.078125
9505		-83.984375
9506		-78.125000
9507		-80.078125
9508		-74.218750
9509		-78.125000
9510		-72.265625
9511		-74.218750
9512		-70.312500
9513		-72.265625
9514		-66.406250
9515		-68.359375
9516		-62.500000
9517		-66.406250
9518		-58.593750
9519		-60.546875
9520		-54.687500
9521		-56.640625
9522		-50.781250
9523		-52.734375
9524		-48.828125
9525		-48.828125
9526		-42.968750
9527		-44.921875
9528		-39.062500
9529		-41.015625
9530		-35.156250
9531		-37.109375
9532		-29.296875
9533		-31.250000
9534		-25.390625
9535		-27.343750
9536		-21.484375
9537		-23.437500
9538		-15.625000
9539		-17.578125
9540		-11.718750
9541		-13.671875
9542		-5.859375
9543		-7.812500
9544		-1.953125
9545		-3.906250
9546		3.906250
9547		1.953125
9548		7.812500
9549		5.859375
9550		13.671875
9551		11.718750
9552		17.578125
9553		15.625000
9554		23.437500
9555		19.531250
9556		27.343750
9557		25.390625
9558		31.250000
9559		29.296875
9560		35.156250
9561		35.156250
9562		41.015625
9563		39.062500
9564		46.875000
9565		41.015625
9566		50.781250
9567		46.875000
9568		52.734375
9569		50.781250
9570		56.640625
9571		54.687500
9572		62.500000
9573		58.593750
9574		66.406250
9575		62.500000
9576		68.359375
9577		66.406250
9578		70.312500
9579		70.312500
9580		76.171875
9581		70.312500
9582		80.078125
9583		74.218750
9584		80.078125
9585		76.171875
9586		83.984375
9587		80.078125
9588		85.937500
9589		82.031250
9590		87.890625
9591		83.984375
9592		89.843750
9593		87.890625
9594		91.796875
9595		89.843750
9596		93.750000
9597		89.843750
9598		95.703125
9599		89.843750
9600		97.656250
9601		91.796875
9602		99.609375
9603		93.750000
9604		99.609375
9605		93.750000
9606		101.562500
9607		95.703125
9608		101.562500
9609		93.750000
9610		101.562500
9611		97.656250
9612		99.609375
9613		95.703125
9614		101.562500
9615		95.703125
9616		101.562500
9617		95.703125
9618		101.562500
9619		93.750000
9620		101.562500
9621		93.750000
9622		101.562500
9623		93.750000
9624		99.609375
9625		91.796875
9626		99.609375
9627		91.796875
9628		95.703125
9629		91.796875
9630		93.750000
9631		87.890625
9632		93.750000
9633		85.937500
9634		91.796875
9635		83.984375
9636		89.843750
9637		82.031250
9638		87.890625
9639		78.125000
9640		85.937500
9641		76.171875
9642		82.031250
9643		74.218750
9644		78.125000
9645		70.312500
9646		76.171875
9647		66.406250
9648		72.265625
9649		62.500000
9650		72.265625
9651		58.593750
9652		68.359375
9653		54.687500
9654		64.453125
9655		52.734375
9656		60.546875
9657		46.875000
9658		56.640625
9659		44.921875
9660		52.734375
9661		39.062500
9662		44.921875
9663		35.156250
9664		41.015625
9665		29.296875
9666		39.062500
9667		25.390625
9668		35.156250
9669		19.531250
9670		31.250000
9671		15.625000
9672		25.390625
9673		9.765625
9674		21.484375
9675		5.859375
9676		15.625000
9677		3.906250
9678		9.765625
9679		-1.953125
9680		3.906250
9681		-9.765625
9682		0.000000
9683		-13.671875
9684		-3.906250
9685		-17.578125
9686		-7.812500
9687		-21.484375
9688		-13.671875
9689		-27.343750
9690		-17.578125
9691		-31.250000
9692		-21.484375
9693		-35.156250
9694		-27.343750
9695		-39.062500
9696		-33.203125
9697		-44.921875
9698		-37.109375
9699		-48.828125
9700		-41.015625
9701		-54.687500
9702		-44.921875
9703		-58.593750
9704		-48.828125
9705		-62.500000
9706		-52.734375
9707		-66.406250
9708		-56.640625
9709		-68.359375
9710		-60.546875
9711		-70.312500
9712		-64.453125
9713		-74.218750
9714		-68.359375
9715		-78.125000
9716		-70.312500
9717		-82.031250
9718		-72.265625
9719		-83.984375
9720		-74.218750
9721		-85.937500
9722		-76.171875
9723		-87.890625
9724		-80.078125
9725		-89.843750
9726		-82.031250
9727		-89.843750
9728		-82.031250
9729		-89.843750
9730		-87.890625
9731		-93.750000
9732		-87.890625
9733		-93.750000
9734		-87.890625
9735		-95.703125
9736		-87.890625
9737		-95.703125
9738		-87.890625
9739		-95.703125
9740		-87.890625
9741		-95.703125
9742		-87.890625
9743		-95.703125
9744		-87.890625
9745		-91.796875
9746		-87.890625
9747		-89.843750
9748		-87.890625
9749		-91.796875
9750		-83.984375
9751		-91.796875
9752		-82.031250
9753		-87.890625
9754		-80.078125
9755		-87.890625
9756		-78.125000
9757		-85.937500
9758		-76.171875
9759		-82.031250
9760		-74.218750
9761		-78.125000
9762		-74.218750
9763		-76.171875
9764		-70.312500
9765		-72.265625
9766		-66.406250
9767		-70.312500
9768		-60.546875
9769		-66.406250
9770		-58.593750
9771		-64.453125
9772		-54.687500
9773		-60.546875
9774		-50.781250
9775		-56.640625
9776		-46.875000
9777		-52.734375
9778		-44.921875
9779		-46.875000
9780		-41.015625
9781		-41.015625
9782		-33.203125
9783		-39.062500
9784		-29.296875
9785		-35.156250
9786		-25.390625
9787		-31.250000
9788		-19.531250
9789		-25.390625
9790		-15.625000
9791		-19.531250
9792		-9.765625
9793		-15.625000
9794		-7.812500
9795		-9.765625
9796		-3.906250
9797		-3.906250
9798		1.953125
9799		0.000000
9800		9.765625
9801		3.906250
9802		13.671875
9803		7.812500
9804		17.578125
9805		11.718750
9806		23.437500
9807		17.578125
9808		27.343750
9809		21.484375
9810		31.250000
9811		27.343750
9812		35.156250
9813		33.203125
9814		39.062500
9815		37.109375
9816		46.875000
9817		41.015625
9818		48.828125
9819		42.968750
9820		54.687500
9821		48.828125
9822		58.593750
9823		52.734375
9824		62.500000
9825		56.640625
9826		64.453125
9827		58.593750
9828		66.406250
9829		64.453125
9830		70.312500
9831		68.359375
9832		74.218750
9833		70.312500
9834		78.125000
9835		74.218750
9836		82.031250
9837		76.171875
9838		83.984375
9839		78.125000
9840		87.890625
9841		82.031250
9842		89.843750
9843		82.031250
9844		91.796875
9845		85.937500
9846		91.796875
9847		89.843750
9848		93.750000
9849		89.843750
9850		95.703125
9851		89.843750
9852		97.656250
9853		91.796875
9854		99.609375
9855		93.750000
9856		99.609375
9857		93.750000
9858		101.562500
9859		93.750000
9860		101.562500
9861		95.703125
9862		101.562500
9863		97.656250
9864		99.609375
9865		95.703125
9866		101.562500
9867		95.703125
9868		103.515625
9869		95.703125
9870		101.562500
9871		95.703125
9872		101.562500
9873		93.750000
9874		101.562500
9875		93.750000
9876		99.609375
9877		91.796875
9878		99.609375
9879		93.750000
9880		95.703125
9881		91.796875
9882		93.750000
9883		87.890625
9884		95.703125
9885		85.937500
9886		93.750000
9887		82.031250
9888		91.796875
9889		80.078125
9890		89.843750
9891		78.125000
9892		85.937500
9893		76.171875
9894		83.984375
9895		74.218750
9896		82.031250
9897		70.312500
9898		76.171875
9899		66.406250
9900		72.265625
9901		62.500000
9902		72.265625
9903		58.593750
9904		68.359375
9905		56.640625
9906		64.453125
9907		50.781250
9908		60.546875
9909		46.875000
9910		56.640625
9911		42.968750
9912		52.734375
9913		41.015625
9914		46.875000
9915		37.109375
9916		42.968750
9917		29.296875
9918		41.015625
9919		25.390625
9920		35.156250
9921		21.484375
9922		31.250000
9923		15.625000
9924		25.390625
9925		11.718750
9926		21.484375
9927		7.812500
9928		15.625000
9929		3.906250
9930		11.718750
9931		0.000000
9932		5.859375
9933		-7.812500
9934		0.000000
9935		-11.718750
9936		-1.953125
9937		-17.578125
9938		-7.812500
9939		-21.484375
9940		-11.718750
9941		-27.343750
9942		-15.625000
9943		-31.250000
9944		-21.484375
9945		-33.203125
9946		-25.390625
9947		-39.062500
9948		-31.250000
9949		-44.921875
9950		-37.109375
9951		-48.828125
9952		-39.062500
9953		-54.687500
9954		-42.968750
9955		-58.593750
9956		-46.875000
9957		-62.500000
9958		-50.781250
9959		-64.453125
9960		-54.687500
9961		-68.359375
9962		-58.593750
9963		-68.359375
9964		-64.453125
9965		-72.265625
9966		-68.359375
9967		-78.125000
9968		-70.312500
9969		-80.078125
9970		-72.265625
9971		-83.984375
9972		-74.218750
9973		-85.937500
9974		-76.171875
9975		-87.890625
9976		-78.125000
9977		-89.843750
9978		-80.078125
9979		-89.843750
9980		-82.031250
9981		-89.843750
9982		-85.937500
9983		-93.750000
9984		-85.937500
9985		-93.750000
9986		-85.937500
9987		-93.750000
9988		-87.890625
9989		-95.703125
9990		-87.890625
9991		-95.703125
9992		-87.890625
9993		-95.703125
9994		-87.890625
9995		-93.750000
9996		-87.890625
9997		-91.796875
9998		-87.890625
9999		-89.843750
10000		-87.890625
