Channel              :		CH1
Frequency            :		1.973kHz
Period               :		0.507ms
PK-PK                :		113.3mV
Probe attenuation    :		1X
Voltage per ADC value:		0.122070mV
Time interval        :		2.00000us

index		CH1_Voltage(mV)
1		56.640625
2		56.640625
3		64.453125
4		58.593750
5		62.500000
6		58.593750
7		62.500000
8		56.640625
9		60.546875
10		56.640625
11		60.546875
12		56.640625
13		60.546875
14		54.687500
15		58.593750
16		54.687500
17		58.593750
18		52.734375
19		58.593750
20		50.781250
21		58.593750
22		50.781250
23		56.640625
24		50.781250
25		54.687500
26		48.828125
27		52.734375
28		46.875000
29		50.781250
30		46.875000
31		48.828125
32		44.921875
33		46.875000
34		41.015625
35		46.875000
36		39.062500
37		44.921875
38		37.109375
39		44.921875
40		35.156250
41		41.015625
42		33.203125
43		39.062500
44		31.250000
45		37.109375
46		29.296875
47		33.203125
48		27.343750
49		31.250000
50		23.437500
51		29.296875
52		21.484375
53		29.296875
54		19.531250
55		27.343750
56		15.625000
57		23.437500
58		13.671875
59		19.531250
60		11.718750
61		17.578125
62		9.765625
63		17.578125
64		7.812500
65		11.718750
66		3.906250
67		9.765625
68		0.000000
69		7.812500
70		-1.953125
71		5.859375
72		-3.906250
73		3.906250
74		-5.859375
75		0.000000
76		-7.812500
77		-1.953125
78		-9.765625
79		-5.859375
80		-11.718750
81		-7.812500
82		-15.625000
83		-11.718750
84		-21.484375
85		-13.671875
86		-21.484375
87		-13.671875
88		-23.437500
89		-15.625000
90		-27.343750
91		-17.578125
92		-27.343750
93		-21.484375
94		-31.250000
95		-23.437500
96		-31.250000
97		-23.437500
98		-31.250000
99		-27.343750
100		-33.203125
101		-29.296875
102		-37.109375
103		-29.296875
104		-39.062500
105		-31.250000
106		-39.062500
107		-31.250000
108		-41.015625
109		-33.203125
110		-41.015625
111		-35.156250
112		-41.015625
113		-35.156250
114		-41.015625
115		-39.062500
116		-41.015625
117		-39.062500
118		-44.921875
119		-37.109375
120		-44.921875
121		-39.062500
122		-44.921875
123		-39.062500
124		-44.921875
125		-39.062500
126		-46.875000
127		-39.062500
128		-44.921875
129		-39.062500
130		-44.921875
131		-37.109375
132		-42.968750
133		-39.062500
134		-42.968750
135		-37.109375
136		-42.968750
137		-35.156250
138		-42.968750
139		-35.156250
140		-41.015625
141		-35.156250
142		-41.015625
143		-33.203125
144		-39.062500
145		-33.203125
146		-37.109375
147		-31.250000
148		-35.156250
149		-31.250000
150		-33.203125
151		-29.296875
152		-33.203125
153		-25.390625
154		-33.203125
155		-25.390625
156		-29.296875
157		-21.484375
158		-29.296875
159		-19.531250
160		-27.343750
161		-17.578125
162		-23.437500
163		-15.625000
164		-23.437500
165		-15.625000
166		-17.578125
167		-13.671875
168		-15.625000
169		-7.812500
170		-15.625000
171		-5.859375
172		-11.718750
173		-3.906250
174		-11.718750
175		-1.953125
176		-7.812500
177		0.000000
178		-3.906250
179		1.953125
180		-1.953125
181		3.906250
182		1.953125
183		5.859375
184		3.906250
185		7.812500
186		5.859375
187		13.671875
188		7.812500
189		15.625000
190		9.765625
191		17.578125
192		11.718750
193		21.484375
194		15.625000
195		25.390625
196		17.578125
197		25.390625
198		21.484375
199		25.390625
200		23.437500
201		27.343750
202		25.390625
203		33.203125
204		27.343750
205		35.156250
206		27.343750
207		37.109375
208		31.250000
209		39.062500
210		33.203125
211		41.015625
212		35.156250
213		42.968750
214		39.062500
215		44.921875
216		41.015625
217		44.921875
218		42.968750
219		48.828125
220		42.968750
221		50.781250
222		44.921875
223		52.734375
224		46.875000
225		52.734375
226		46.875000
227		54.687500
228		48.828125
229		56.640625
230		48.828125
231		56.640625
232		52.734375
233		56.640625
234		54.687500
235		56.640625
236		52.734375
237		60.546875
238		52.734375
239		60.546875
240		54.687500
241		62.500000
242		54.687500
243		62.500000
244		56.640625
245		62.500000
246		56.640625
247		64.453125
248		56.640625
249		64.453125
250		60.546875
251		62.500000
252		56.640625
253		64.453125
254		56.640625
255		64.453125
256		56.640625
257		64.453125
258		56.640625
259		64.453125
260		56.640625
261		62.500000
262		54.687500
263		62.500000
264		54.687500
265		62.500000
266		56.640625
267		58.593750
268		56.640625
269		58.593750
270		52.734375
271		58.593750
272		52.734375
273		58.593750
274		50.781250
275		56.640625
276		48.828125
277		54.687500
278		48.828125
279		54.687500
280		46.875000
281		52.734375
282		46.875000
283		50.781250
284		44.921875
285		48.828125
286		41.015625
287		48.828125
288		39.062500
289		46.875000
290		37.109375
291		44.921875
292		35.156250
293		42.968750
294		33.203125
295		41.015625
296		31.250000
297		39.062500
298		29.296875
299		37.109375
300		29.296875
301		33.203125
302		23.437500
303		31.250000
304		21.484375
305		31.250000
306		19.531250
307		27.343750
308		17.578125
309		25.390625
310		15.625000
311		23.437500
312		11.718750
313		21.484375
314		9.765625
315		17.578125
316		9.765625
317		13.671875
318		5.859375
319		11.718750
320		1.953125
321		9.765625
322		0.000000
323		7.812500
324		-3.906250
325		5.859375
326		-5.859375
327		1.953125
328		-9.765625
329		0.000000
330		-11.718750
331		-3.906250
332		-11.718750
333		-5.859375
334		-13.671875
335		-9.765625
336		-17.578125
337		-11.718750
338		-21.484375
339		-11.718750
340		-23.437500
341		-15.625000
342		-25.390625
343		-17.578125
344		-27.343750
345		-19.531250
346		-29.296875
347		-21.484375
348		-31.250000
349		-23.437500
350		-31.250000
351		-27.343750
352		-31.250000
353		-29.296875
354		-35.156250
355		-29.296875
356		-37.109375
357		-29.296875
358		-39.062500
359		-31.250000
360		-41.015625
361		-33.203125
362		-41.015625
363		-33.203125
364		-42.968750
365		-35.156250
366		-41.015625
367		-37.109375
368		-41.015625
369		-39.062500
370		-44.921875
371		-37.109375
372		-44.921875
373		-39.062500
374		-44.921875
375		-39.062500
376		-44.921875
377		-39.062500
378		-46.875000
379		-37.109375
380		-44.921875
381		-39.062500
382		-44.921875
383		-37.109375
384		-42.968750
385		-41.015625
386		-42.968750
387		-37.109375
388		-44.921875
389		-37.109375
390		-42.968750
391		-37.109375
392		-42.968750
393		-35.156250
394		-41.015625
395		-35.156250
396		-41.015625
397		-33.203125
398		-39.062500
399		-31.250000
400		-35.156250
401		-33.203125
402		-35.156250
403		-31.250000
404		-35.156250
405		-27.343750
406		-33.203125
407		-25.390625
408		-31.250000
409		-23.437500
410		-29.296875
411		-21.484375
412		-27.343750
413		-19.531250
414		-25.390625
415		-17.578125
416		-23.437500
417		-17.578125
418		-19.531250
419		-15.625000
420		-17.578125
421		-9.765625
422		-15.625000
423		-7.812500
424		-15.625000
425		-5.859375
426		-11.718750
427		-3.906250
428		-9.765625
429		-1.953125
430		-7.812500
431		1.953125
432		-3.906250
433		1.953125
434		0.000000
435		3.906250
436		1.953125
437		7.812500
438		3.906250
439		11.718750
440		5.859375
441		13.671875
442		7.812500
443		17.578125
444		9.765625
445		19.531250
446		13.671875
447		21.484375
448		15.625000
449		23.437500
450		19.531250
451		23.437500
452		23.437500
453		27.343750
454		23.437500
455		31.250000
456		25.390625
457		33.203125
458		27.343750
459		35.156250
460		29.296875
461		39.062500
462		31.250000
463		39.062500
464		33.203125
465		41.015625
466		35.156250
467		44.921875
468		41.015625
469		42.968750
470		41.015625
471		46.875000
472		41.015625
473		48.828125
474		42.968750
475		50.781250
476		44.921875
477		52.734375
478		46.875000
479		54.687500
480		46.875000
481		54.687500
482		48.828125
483		56.640625
484		52.734375
485		54.687500
486		54.687500
487		56.640625
488		52.734375
489		58.593750
490		54.687500
491		60.546875
492		54.687500
493		60.546875
494		54.687500
495		62.500000
496		54.687500
497		62.500000
498		56.640625
499		62.500000
500		56.640625
501		62.500000
502		58.593750
503		60.546875
504		56.640625
505		64.453125
506		56.640625
507		64.453125
508		56.640625
509		64.453125
510		56.640625
511		64.453125
512		56.640625
513		62.500000
514		56.640625
515		62.500000
516		54.687500
517		62.500000
518		56.640625
519		58.593750
520		56.640625
521		58.593750
522		52.734375
523		60.546875
524		52.734375
525		58.593750
526		50.781250
527		58.593750
528		48.828125
529		56.640625
530		48.828125
531		56.640625
532		46.875000
533		54.687500
534		46.875000
535		52.734375
536		46.875000
537		50.781250
538		41.015625
539		48.828125
540		41.015625
541		48.828125
542		39.062500
543		46.875000
544		37.109375
545		44.921875
546		35.156250
547		42.968750
548		31.250000
549		41.015625
550		31.250000
551		39.062500
552		29.296875
553		33.203125
554		27.343750
555		31.250000
556		23.437500
557		31.250000
558		19.531250
559		29.296875
560		17.578125
561		27.343750
562		15.625000
563		23.437500
564		13.671875
565		21.484375
566		11.718750
567		19.531250
568		9.765625
569		13.671875
570		7.812500
571		11.718750
572		3.906250
573		11.718750
574		0.000000
575		9.765625
576		-1.953125
577		5.859375
578		-3.906250
579		3.906250
580		-7.812500
581		1.953125
582		-9.765625
583		-1.953125
584		-9.765625
585		-3.906250
586		-11.718750
587		-7.812500
588		-17.578125
589		-9.765625
590		-19.531250
591		-11.718750
592		-21.484375
593		-13.671875
594		-23.437500
595		-15.625000
596		-27.343750
597		-17.578125
598		-27.343750
599		-19.531250
600		-29.296875
601		-21.484375
602		-29.296875
603		-25.390625
604		-31.250000
605		-27.343750
606		-35.156250
607		-27.343750
608		-37.109375
609		-29.296875
610		-39.062500
611		-31.250000
612		-41.015625
613		-31.250000
614		-41.015625
615		-33.203125
616		-42.968750
617		-35.156250
618		-42.968750
619		-35.156250
620		-41.015625
621		-39.062500
622		-44.921875
623		-37.109375
624		-44.921875
625		-37.109375
626		-44.921875
627		-39.062500
628		-44.921875
629		-39.062500
630		-44.921875
631		-39.062500
632		-44.921875
633		-39.062500
634		-44.921875
635		-39.062500
636		-42.968750
637		-41.015625
638		-42.968750
639		-39.062500
640		-44.921875
641		-37.109375
642		-42.968750
643		-37.109375
644		-42.968750
645		-35.156250
646		-42.968750
647		-35.156250
648		-41.015625
649		-33.203125
650		-41.015625
651		-33.203125
652		-37.109375
653		-33.203125
654		-35.156250
655		-31.250000
656		-35.156250
657		-27.343750
658		-35.156250
659		-27.343750
660		-33.203125
661		-25.390625
662		-31.250000
663		-23.437500
664		-29.296875
665		-21.484375
666		-27.343750
667		-19.531250
668		-25.390625
669		-17.578125
670		-19.531250
671		-17.578125
672		-17.578125
673		-11.718750
674		-17.578125
675		-9.765625
676		-15.625000
677		-7.812500
678		-13.671875
679		-3.906250
680		-11.718750
681		-1.953125
682		-9.765625
683		0.000000
684		-5.859375
685		1.953125
686		-1.953125
687		3.906250
688		1.953125
689		5.859375
690		1.953125
691		9.765625
692		3.906250
693		11.718750
694		7.812500
695		15.625000
696		7.812500
697		17.578125
698		11.718750
699		21.484375
700		13.671875
701		23.437500
702		17.578125
703		23.437500
704		21.484375
705		25.390625
706		23.437500
707		29.296875
708		23.437500
709		31.250000
710		27.343750
711		35.156250
712		27.343750
713		37.109375
714		31.250000
715		39.062500
716		33.203125
717		41.015625
718		35.156250
719		41.015625
720		39.062500
721		42.968750
722		41.015625
723		44.921875
724		41.015625
725		48.828125
726		42.968750
727		50.781250
728		44.921875
729		52.734375
730		44.921875
731		52.734375
732		46.875000
733		54.687500
734		48.828125
735		56.640625
736		50.781250
737		54.687500
738		52.734375
739		56.640625
740		52.734375
741		58.593750
742		52.734375
743		60.546875
744		54.687500
745		60.546875
746		54.687500
747		62.500000
748		54.687500
749		62.500000
750		54.687500
751		64.453125
752		56.640625
753		62.500000
754		58.593750
755		60.546875
756		56.640625
757		64.453125
758		56.640625
759		64.453125
760		56.640625
761		64.453125
762		56.640625
763		64.453125
764		56.640625
765		64.453125
766		56.640625
767		64.453125
768		54.687500
769		62.500000
770		56.640625
771		60.546875
772		56.640625
773		60.546875
774		52.734375
775		60.546875
776		52.734375
777		60.546875
778		50.781250
779		58.593750
780		50.781250
781		58.593750
782		48.828125
783		56.640625
784		46.875000
785		56.640625
786		48.828125
787		54.687500
788		46.875000
789		50.781250
790		42.968750
791		50.781250
792		41.015625
793		48.828125
794		39.062500
795		46.875000
796		37.109375
797		46.875000
798		35.156250
799		42.968750
800		33.203125
801		42.968750
802		31.250000
803		39.062500
804		31.250000
805		35.156250
806		29.296875
807		33.203125
808		25.390625
809		33.203125
810		23.437500
811		31.250000
812		19.531250
813		29.296875
814		17.578125
815		27.343750
816		15.625000
817		23.437500
818		11.718750
819		21.484375
820		11.718750
821		17.578125
822		9.765625
823		13.671875
824		3.906250
825		11.718750
826		1.953125
827		11.718750
828		0.000000
829		7.812500
830		-1.953125
831		5.859375
832		-5.859375
833		3.906250
834		-7.812500
835		0.000000
836		-9.765625
837		-1.953125
838		-11.718750
839		-7.812500
840		-13.671875
841		-9.765625
842		-17.578125
843		-9.765625
844		-19.531250
845		-11.718750
846		-23.437500
847		-13.671875
848		-25.390625
849		-17.578125
850		-27.343750
851		-19.531250
852		-29.296875
853		-19.531250
854		-27.343750
855		-25.390625
856		-29.296875
857		-27.343750
858		-33.203125
859		-27.343750
860		-35.156250
861		-27.343750
862		-37.109375
863		-29.296875
864		-39.062500
865		-31.250000
866		-41.015625
867		-33.203125
868		-41.015625
869		-33.203125
870		-41.015625
871		-35.156250
872		-41.015625
873		-37.109375
874		-44.921875
875		-37.109375
876		-44.921875
877		-37.109375
878		-44.921875
879		-37.109375
880		-44.921875
881		-39.062500
882		-44.921875
883		-39.062500
884		-44.921875
885		-39.062500
886		-44.921875
887		-39.062500
888		-42.968750
889		-41.015625
890		-42.968750
891		-41.015625
892		-44.921875
893		-37.109375
894		-44.921875
895		-37.109375
896		-42.968750
897		-35.156250
898		-42.968750
899		-35.156250
900		-41.015625
901		-35.156250
902		-41.015625
903		-33.203125
904		-37.109375
905		-33.203125
906		-35.156250
907		-33.203125
908		-35.156250
909		-29.296875
910		-35.156250
911		-27.343750
912		-33.203125
913		-25.390625
914		-31.250000
915		-23.437500
916		-29.296875
917		-21.484375
918		-29.296875
919		-19.531250
920		-25.390625
921		-19.531250
922		-21.484375
923		-17.578125
924		-19.531250
925		-15.625000
926		-19.531250
927		-11.718750
928		-17.578125
929		-7.812500
930		-15.625000
931		-5.859375
932		-11.718750
933		-3.906250
934		-9.765625
935		-1.953125
936		-7.812500
937		0.000000
938		-1.953125
939		1.953125
940		0.000000
941		3.906250
942		0.000000
943		7.812500
944		1.953125
945		11.718750
946		3.906250
947		13.671875
948		7.812500
949		15.625000
950		9.765625
951		19.531250
952		13.671875
953		21.484375
954		15.625000
955		21.484375
956		19.531250
957		23.437500
958		21.484375
959		29.296875
960		23.437500
961		31.250000
962		25.390625
963		33.203125
964		27.343750
965		35.156250
966		29.296875
967		37.109375
968		31.250000
969		39.062500
970		33.203125
971		41.015625
972		37.109375
973		41.015625
974		39.062500
975		42.968750
976		39.062500
977		46.875000
978		41.015625
979		48.828125
980		42.968750
981		50.781250
982		42.968750
983		52.734375
984		44.921875
985		54.687500
986		46.875000
987		54.687500
988		48.828125
989		54.687500
990		52.734375
991		54.687500
992		52.734375
993		58.593750
994		52.734375
995		60.546875
996		52.734375
997		60.546875
998		54.687500
999		60.546875
1000		54.687500
1001		62.500000
1002		54.687500
1003		62.500000
1004		56.640625
1005		62.500000
1006		58.593750
1007		60.546875
1008		58.593750
1009		62.500000
1010		56.640625
1011		62.500000
1012		56.640625
1013		64.453125
1014		56.640625
1015		64.453125
1016		56.640625
1017		64.453125
1018		56.640625
1019		62.500000
1020		54.687500
1021		62.500000
1022		56.640625
1023		60.546875
1024		56.640625
1025		60.546875
1026		52.734375
1027		60.546875
1028		52.734375
1029		60.546875
1030		50.781250
1031		58.593750
1032		50.781250
1033		58.593750
1034		48.828125
1035		56.640625
1036		48.828125
1037		56.640625
1038		48.828125
1039		54.687500
1040		46.875000
1041		50.781250
1042		44.921875
1043		50.781250
1044		41.015625
1045		48.828125
1046		41.015625
1047		48.828125
1048		39.062500
1049		46.875000
1050		37.109375
1051		44.921875
1052		33.203125
1053		42.968750
1054		33.203125
1055		41.015625
1056		31.250000
1057		37.109375
1058		29.296875
1059		35.156250
1060		25.390625
1061		33.203125
1062		23.437500
1063		31.250000
1064		21.484375
1065		29.296875
1066		17.578125
1067		27.343750
1068		15.625000
1069		23.437500
1070		13.671875
1071		21.484375
1072		11.718750
1073		19.531250
1074		9.765625
1075		13.671875
1076		5.859375
1077		13.671875
1078		3.906250
1079		11.718750
1080		0.000000
1081		7.812500
1082		-1.953125
1083		5.859375
1084		-5.859375
1085		3.906250
1086		-7.812500
1087		0.000000
1088		-9.765625
1089		-1.953125
1090		-9.765625
1091		-5.859375
1092		-13.671875
1093		-7.812500
1094		-17.578125
1095		-7.812500
1096		-19.531250
1097		-11.718750
1098		-21.484375
1099		-13.671875
1100		-25.390625
1101		-15.625000
1102		-25.390625
1103		-17.578125
1104		-27.343750
1105		-19.531250
1106		-27.343750
1107		-25.390625
1108		-29.296875
1109		-25.390625
1110		-35.156250
1111		-25.390625
1112		-35.156250
1113		-27.343750
1114		-37.109375
1115		-29.296875
1116		-39.062500
1117		-31.250000
1118		-41.015625
1119		-33.203125
1120		-41.015625
1121		-33.203125
1122		-41.015625
1123		-35.156250
1124		-41.015625
1125		-39.062500
1126		-42.968750
1127		-39.062500
1128		-44.921875
1129		-39.062500
1130		-44.921875
1131		-39.062500
1132		-46.875000
1133		-39.062500
1134		-46.875000
1135		-39.062500
1136		-46.875000
1137		-41.015625
1138		-46.875000
1139		-39.062500
1140		-44.921875
1141		-42.968750
1142		-44.921875
1143		-41.015625
1144		-46.875000
1145		-39.062500
1146		-46.875000
1147		-39.062500
1148		-44.921875
1149		-39.062500
1150		-44.921875
1151		-37.109375
1152		-44.921875
1153		-37.109375
1154		-42.968750
1155		-35.156250
1156		-42.968750
1157		-35.156250
1158		-39.062500
1159		-35.156250
1160		-39.062500
1161		-31.250000
1162		-37.109375
1163		-29.296875
1164		-37.109375
1165		-27.343750
1166		-33.203125
1167		-25.390625
1168		-33.203125
1169		-25.390625
1170		-31.250000
1171		-23.437500
1172		-29.296875
1173		-21.484375
1174		-23.437500
1175		-19.531250
1176		-23.437500
1177		-17.578125
1178		-21.484375
1179		-13.671875
1180		-19.531250
1181		-11.718750
1182		-17.578125
1183		-9.765625
1184		-15.625000
1185		-7.812500
1186		-13.671875
1187		-3.906250
1188		-11.718750
1189		-1.953125
1190		-5.859375
1191		-1.953125
1192		-3.906250
1193		0.000000
1194		-1.953125
1195		5.859375
1196		0.000000
1197		7.812500
1198		1.953125
1199		9.765625
1200		5.859375
1201		13.671875
1202		7.812500
1203		15.625000
1204		9.765625
1205		17.578125
1206		11.718750
1207		17.578125
1208		17.578125
1209		21.484375
1210		19.531250
1211		25.390625
1212		19.531250
1213		27.343750
1214		21.484375
1215		31.250000
1216		23.437500
1217		33.203125
1218		25.390625
1219		35.156250
1220		27.343750
1221		37.109375
1222		29.296875
1223		39.062500
1224		35.156250
1225		39.062500
1226		37.109375
1227		41.015625
1228		37.109375
1229		44.921875
1230		39.062500
1231		46.875000
1232		41.015625
1233		48.828125
1234		42.968750
1235		50.781250
1236		42.968750
1237		50.781250
1238		44.921875
1239		52.734375
1240		46.875000
1241		52.734375
1242		50.781250
1243		52.734375
1244		50.781250
1245		56.640625
1246		50.781250
1247		58.593750
1248		50.781250
1249		58.593750
1250		52.734375
1251		60.546875
1252		52.734375
1253		60.546875
1254		54.687500
1255		60.546875
1256		54.687500
1257		62.500000
1258		56.640625
1259		60.546875
1260		56.640625
1261		60.546875
1262		54.687500
1263		62.500000
1264		56.640625
1265		62.500000
1266		54.687500
1267		62.500000
1268		56.640625
1269		62.500000
1270		56.640625
1271		62.500000
1272		54.687500
1273		62.500000
1274		56.640625
1275		60.546875
1276		56.640625
1277		58.593750
1278		52.734375
1279		60.546875
1280		52.734375
1281		60.546875
1282		52.734375
1283		60.546875
1284		50.781250
1285		58.593750
1286		50.781250
1287		56.640625
1288		48.828125
1289		56.640625
1290		48.828125
1291		54.687500
1292		48.828125
1293		50.781250
1294		44.921875
1295		50.781250
1296		42.968750
1297		50.781250
1298		41.015625
1299		48.828125
1300		39.062500
1301		46.875000
1302		37.109375
1303		46.875000
1304		35.156250
1305		44.921875
1306		33.203125
1307		41.015625
1308		33.203125
1309		37.109375
1310		31.250000
1311		35.156250
1312		27.343750
1313		35.156250
1314		25.390625
1315		33.203125
1316		23.437500
1317		31.250000
1318		19.531250
1319		27.343750
1320		17.578125
1321		25.390625
1322		13.671875
1323		23.437500
1324		15.625000
1325		21.484375
1326		11.718750
1327		15.625000
1328		7.812500
1329		13.671875
1330		3.906250
1331		13.671875
1332		1.953125
1333		11.718750
1334		0.000000
1335		7.812500
1336		-1.953125
1337		5.859375
1338		-5.859375
1339		1.953125
1340		-7.812500
1341		0.000000
1342		-9.765625
1343		-3.906250
1344		-11.718750
1345		-5.859375
1346		-15.625000
1347		-7.812500
1348		-17.578125
1349		-9.765625
1350		-19.531250
1351		-11.718750
1352		-23.437500
1353		-13.671875
1354		-25.390625
1355		-15.625000
1356		-27.343750
1357		-19.531250
1358		-27.343750
1359		-21.484375
1360		-29.296875
1361		-25.390625
1362		-33.203125
1363		-25.390625
1364		-35.156250
1365		-27.343750
1366		-37.109375
1367		-27.343750
1368		-37.109375
1369		-29.296875
1370		-39.062500
1371		-31.250000
1372		-41.015625
1373		-33.203125
1374		-41.015625
1375		-35.156250
1376		-41.015625
1377		-37.109375
1378		-42.968750
1379		-37.109375
1380		-44.921875
1381		-37.109375
1382		-44.921875
1383		-39.062500
1384		-46.875000
1385		-39.062500
1386		-46.875000
1387		-39.062500
1388		-46.875000
1389		-39.062500
1390		-46.875000
1391		-39.062500
1392		-44.921875
1393		-42.968750
1394		-44.921875
1395		-42.968750
1396		-46.875000
1397		-39.062500
1398		-46.875000
1399		-39.062500
1400		-46.875000
1401		-39.062500
1402		-44.921875
1403		-37.109375
1404		-44.921875
1405		-37.109375
1406		-42.968750
1407		-37.109375
1408		-42.968750
1409		-35.156250
1410		-39.062500
1411		-35.156250
1412		-39.062500
1413		-31.250000
1414		-39.062500
1415		-31.250000
1416		-37.109375
1417		-29.296875
1418		-35.156250
1419		-27.343750
1420		-33.203125
1421		-25.390625
1422		-31.250000
1423		-23.437500
1424		-29.296875
1425		-21.484375
1426		-25.390625
1427		-21.484375
1428		-23.437500
1429		-19.531250
1430		-23.437500
1431		-15.625000
1432		-21.484375
1433		-13.671875
1434		-19.531250
1435		-11.718750
1436		-17.578125
1437		-7.812500
1438		-15.625000
1439		-5.859375
1440		-13.671875
1441		-3.906250
1442		-9.765625
1443		-3.906250
1444		-3.906250
1445		0.000000
1446		-3.906250
1447		3.906250
1448		-1.953125
1449		7.812500
1450		0.000000
1451		9.765625
1452		3.906250
1453		11.718750
1454		5.859375
1455		13.671875
1456		7.812500
1457		15.625000
1458		9.765625
1459		17.578125
1460		15.625000
1461		19.531250
1462		17.578125
1463		23.437500
1464		17.578125
1465		27.343750
1466		19.531250
1467		27.343750
1468		23.437500
1469		31.250000
1470		25.390625
1471		33.203125
1472		27.343750
1473		35.156250
1474		29.296875
1475		37.109375
1476		33.203125
1477		37.109375
1478		35.156250
1479		39.062500
1480		35.156250
1481		42.968750
1482		37.109375
1483		44.921875
1484		39.062500
1485		46.875000
1486		41.015625
1487		48.828125
1488		42.968750
1489		50.781250
1490		42.968750
1491		52.734375
1492		46.875000
1493		52.734375
1494		48.828125
1495		52.734375
1496		50.781250
1497		56.640625
1498		50.781250
1499		56.640625
1500		50.781250
1501		58.593750
1502		50.781250
1503		58.593750
1504		52.734375
1505		60.546875
1506		52.734375
1507		60.546875
1508		54.687500
1509		60.546875
1510		56.640625
1511		60.546875
1512		58.593750
1513		60.546875
1514		56.640625
1515		62.500000
1516		56.640625
1517		62.500000
1518		56.640625
1519		62.500000
1520		56.640625
1521		62.500000
1522		56.640625
1523		62.500000
1524		54.687500
1525		62.500000
1526		56.640625
1527		62.500000
1528		56.640625
1529		60.546875
1530		54.687500
1531		60.546875
1532		54.687500
1533		60.546875
1534		52.734375
1535		60.546875
1536		52.734375
1537		58.593750
1538		50.781250
1539		58.593750
1540		48.828125
1541		56.640625
1542		48.828125
1543		56.640625
1544		48.828125
1545		52.734375
1546		46.875000
1547		50.781250
1548		44.921875
1549		52.734375
1550		42.968750
1551		50.781250
1552		41.015625
1553		48.828125
1554		39.062500
1555		46.875000
1556		37.109375
1557		44.921875
1558		35.156250
1559		42.968750
1560		35.156250
1561		39.062500
1562		33.203125
1563		37.109375
1564		27.343750
1565		35.156250
1566		27.343750
1567		35.156250
1568		23.437500
1569		33.203125
1570		21.484375
1571		29.296875
1572		19.531250
1573		27.343750
1574		17.578125
1575		25.390625
1576		15.625000
1577		21.484375
1578		13.671875
1579		17.578125
1580		7.812500
1581		15.625000
1582		5.859375
1583		15.625000
1584		3.906250
1585		11.718750
1586		1.953125
1587		9.765625
1588		-1.953125
1589		7.812500
1590		-3.906250
1591		3.906250
1592		-5.859375
1593		1.953125
1594		-5.859375
1595		-1.953125
1596		-9.765625
1597		-5.859375
1598		-13.671875
1599		-5.859375
1600		-17.578125
1601		-7.812500
1602		-19.531250
1603		-9.765625
1604		-21.484375
1605		-11.718750
1606		-23.437500
1607		-15.625000
1608		-25.390625
1609		-17.578125
1610		-25.390625
1611		-19.531250
1612		-27.343750
1613		-23.437500
1614		-33.203125
1615		-25.390625
1616		-33.203125
1617		-25.390625
1618		-35.156250
1619		-27.343750
1620		-37.109375
1621		-29.296875
1622		-39.062500
1623		-31.250000
1624		-39.062500
1625		-33.203125
1626		-41.015625
1627		-33.203125
1628		-39.062500
1629		-37.109375
1630		-42.968750
1631		-37.109375
1632		-44.921875
1633		-37.109375
1634		-44.921875
1635		-37.109375
1636		-46.875000
1637		-39.062500
1638		-46.875000
1639		-39.062500
1640		-46.875000
1641		-39.062500
1642		-46.875000
1643		-39.062500
1644		-44.921875
1645		-42.968750
1646		-44.921875
1647		-41.015625
1648		-46.875000
1649		-39.062500
1650		-46.875000
1651		-39.062500
1652		-46.875000
1653		-39.062500
1654		-44.921875
1655		-39.062500
1656		-44.921875
1657		-37.109375
1658		-42.968750
1659		-37.109375
1660		-42.968750
1661		-37.109375
1662		-39.062500
1663		-37.109375
1664		-39.062500
1665		-33.203125
1666		-39.062500
1667		-31.250000
1668		-37.109375
1669		-31.250000
1670		-37.109375
1671		-29.296875
1672		-35.156250
1673		-27.343750
1674		-33.203125
1675		-25.390625
1676		-31.250000
1677		-23.437500
1678		-27.343750
1679		-23.437500
1680		-25.390625
1681		-21.484375
1682		-25.390625
1683		-15.625000
1684		-23.437500
1685		-13.671875
1686		-19.531250
1687		-11.718750
1688		-17.578125
1689		-9.765625
1690		-17.578125
1691		-7.812500
1692		-13.671875
1693		-3.906250
1694		-11.718750
1695		-3.906250
1696		-7.812500
1697		-1.953125
1698		-3.906250
1699		1.953125
1700		-3.906250
1701		5.859375
1702		-1.953125
1703		7.812500
1704		1.953125
1705		9.765625
1706		3.906250
1707		13.671875
1708		5.859375
1709		15.625000
1710		9.765625
1711		15.625000
1712		13.671875
1713		17.578125
1714		15.625000
1715		23.437500
1716		17.578125
1717		23.437500
1718		19.531250
1719		27.343750
1720		21.484375
1721		29.296875
1722		23.437500
1723		33.203125
1724		25.390625
1725		35.156250
1726		27.343750
1727		37.109375
1728		33.203125
1729		35.156250
1730		35.156250
1731		39.062500
1732		35.156250
1733		42.968750
1734		37.109375
1735		44.921875
1736		37.109375
1737		46.875000
1738		39.062500
1739		46.875000
1740		41.015625
1741		48.828125
1742		42.968750
1743		50.781250
1744		44.921875
1745		50.781250
1746		48.828125
1747		52.734375
1748		46.875000
1749		56.640625
1750		48.828125
1751		56.640625
1752		50.781250
1753		58.593750
1754		50.781250
1755		58.593750
1756		52.734375
1757		58.593750
1758		52.734375
1759		60.546875
1760		54.687500
1761		60.546875
1762		56.640625
1763		58.593750
1764		56.640625
1765		60.546875
1766		56.640625
1767		62.500000
1768		54.687500
1769		62.500000
1770		54.687500
1771		62.500000
1772		54.687500
1773		62.500000
1774		54.687500
1775		62.500000
1776		56.640625
1777		62.500000
1778		56.640625
1779		62.500000
1780		56.640625
1781		60.546875
1782		54.687500
1783		60.546875
1784		52.734375
1785		60.546875
1786		52.734375
1787		60.546875
1788		52.734375
1789		60.546875
1790		50.781250
1791		58.593750
1792		50.781250
1793		58.593750
1794		50.781250
1795		56.640625
1796		50.781250
1797		52.734375
1798		46.875000
1799		52.734375
1800		44.921875
1801		52.734375
1802		42.968750
1803		50.781250
1804		41.015625
1805		48.828125
1806		39.062500
1807		46.875000
1808		37.109375
1809		46.875000
1810		35.156250
1811		44.921875
1812		35.156250
1813		39.062500
1814		33.203125
1815		37.109375
1816		29.296875
1817		37.109375
1818		27.343750
1819		35.156250
1820		25.390625
1821		33.203125
1822		23.437500
1823		31.250000
1824		19.531250
1825		29.296875
1826		17.578125
1827		25.390625
1828		17.578125
1829		23.437500
1830		15.625000
1831		19.531250
1832		11.718750
1833		17.578125
1834		7.812500
1835		15.625000
1836		5.859375
1837		13.671875
1838		1.953125
1839		9.765625
1840		0.000000
1841		7.812500
1842		-3.906250
1843		5.859375
1844		-3.906250
1845		3.906250
1846		-5.859375
1847		-1.953125
1848		-7.812500
1849		-3.906250
1850		-13.671875
1851		-5.859375
1852		-15.625000
1853		-7.812500
1854		-15.625000
1855		-11.718750
1856		-19.531250
1857		-11.718750
1858		-21.484375
1859		-13.671875
1860		-23.437500
1861		-15.625000
1862		-25.390625
1863		-19.531250
1864		-27.343750
1865		-23.437500
1866		-29.296875
1867		-25.390625
1868		-31.250000
1869		-27.343750
1870		-31.250000
1871		-27.343750
1872		-37.109375
1873		-29.296875
1874		-37.109375
1875		-29.296875
1876		-39.062500
1877		-31.250000
1878		-41.015625
1879		-33.203125
1880		-39.062500
1881		-37.109375
1882		-41.015625
1883		-37.109375
1884		-41.015625
1885		-37.109375
1886		-42.968750
1887		-39.062500
1888		-42.968750
1889		-39.062500
1890		-44.921875
1891		-39.062500
1892		-46.875000
1893		-39.062500
1894		-46.875000
1895		-39.062500
1896		-44.921875
1897		-42.968750
1898		-44.921875
1899		-42.968750
1900		-44.921875
1901		-41.015625
1902		-44.921875
1903		-41.015625
1904		-44.921875
1905		-41.015625
1906		-42.968750
1907		-41.015625
1908		-44.921875
1909		-39.062500
1910		-44.921875
1911		-37.109375
1912		-42.968750
1913		-39.062500
1914		-41.015625
1915		-37.109375
1916		-39.062500
1917		-35.156250
1918		-39.062500
1919		-35.156250
1920		-37.109375
1921		-33.203125
1922		-35.156250
1923		-31.250000
1924		-33.203125
1925		-29.296875
1926		-33.203125
1927		-25.390625
1928		-31.250000
1929		-25.390625
1930		-27.343750
1931		-25.390625
1932		-25.390625
1933		-23.437500
1934		-25.390625
1935		-19.531250
1936		-21.484375
1937		-17.578125
1938		-19.531250
1939		-15.625000
1940		-17.578125
1941		-13.671875
1942		-15.625000
1943		-11.718750
1944		-13.671875
1945		-7.812500
1946		-9.765625
1947		-5.859375
1948		-7.812500
1949		-3.906250
1950		-5.859375
1951		-1.953125
1952		-3.906250
1953		1.953125
1954		0.000000
1955		3.906250
1956		1.953125
1957		5.859375
1958		3.906250
1959		7.812500
1960		7.812500
1961		13.671875
1962		9.765625
1963		13.671875
1964		11.718750
1965		15.625000
1966		13.671875
1967		19.531250
1968		17.578125
1969		21.484375
1970		19.531250
1971		23.437500
1972		21.484375
1973		25.390625
1974		25.390625
1975		29.296875
1976		27.343750
1977		31.250000
1978		29.296875
1979		33.203125
1980		29.296875
1981		35.156250
1982		33.203125
1983		37.109375
1984		35.156250
1985		39.062500
1986		37.109375
1987		41.015625
1988		39.062500
1989		42.968750
1990		41.015625
1991		44.921875
1992		42.968750
1993		46.875000
1994		44.921875
1995		48.828125
1996		46.875000
1997		50.781250
1998		48.828125
1999		50.781250
2000		48.828125
2001		52.734375
2002		50.781250
2003		54.687500
2004		50.781250
2005		54.687500
2006		52.734375
2007		56.640625
2008		54.687500
2009		56.640625
2010		54.687500
2011		58.593750
2012		54.687500
2013		60.546875
2014		56.640625
2015		58.593750
2016		56.640625
2017		60.546875
2018		56.640625
2019		60.546875
2020		58.593750
2021		60.546875
2022		58.593750
2023		60.546875
2024		58.593750
2025		62.500000
2026		58.593750
2027		62.500000
2028		58.593750
2029		60.546875
2030		56.640625
2031		62.500000
2032		58.593750
2033		60.546875
2034		56.640625
2035		60.546875
2036		56.640625
2037		60.546875
2038		56.640625
2039		58.593750
2040		54.687500
2041		58.593750
2042		54.687500
2043		58.593750
2044		52.734375
2045		56.640625
2046		50.781250
2047		56.640625
2048		50.781250
2049		54.687500
2050		50.781250
2051		52.734375
2052		48.828125
2053		52.734375
2054		46.875000
2055		50.781250
2056		44.921875
2057		48.828125
2058		42.968750
2059		46.875000
2060		41.015625
2061		44.921875
2062		39.062500
2063		44.921875
2064		39.062500
2065		42.968750
2066		35.156250
2067		39.062500
2068		33.203125
2069		37.109375
2070		31.250000
2071		35.156250
2072		29.296875
2073		33.203125
2074		27.343750
2075		31.250000
2076		25.390625
2077		29.296875
2078		21.484375
2079		27.343750
2080		19.531250
2081		23.437500
2082		17.578125
2083		21.484375
2084		13.671875
2085		19.531250
2086		11.718750
2087		17.578125
2088		9.765625
2089		13.671875
2090		7.812500
2091		11.718750
2092		3.906250
2093		7.812500
2094		1.953125
2095		5.859375
2096		-1.953125
2097		3.906250
2098		-3.906250
2099		0.000000
2100		-5.859375
2101		-1.953125
2102		-9.765625
2103		-3.906250
2104		-11.718750
2105		-7.812500
2106		-13.671875
2107		-9.765625
2108		-15.625000
2109		-11.718750
2110		-17.578125
2111		-13.671875
2112		-19.531250
2113		-15.625000
2114		-23.437500
2115		-17.578125
2116		-25.390625
2117		-21.484375
2118		-27.343750
2119		-23.437500
2120		-29.296875
2121		-25.390625
2122		-31.250000
2123		-27.343750
2124		-33.203125
2125		-27.343750
2126		-35.156250
2127		-31.250000
2128		-35.156250
2129		-31.250000
2130		-37.109375
2131		-33.203125
2132		-39.062500
2133		-35.156250
2134		-39.062500
2135		-37.109375
2136		-41.015625
2137		-37.109375
2138		-41.015625
2139		-37.109375
2140		-42.968750
2141		-39.062500
2142		-42.968750
2143		-39.062500
2144		-42.968750
2145		-41.015625
2146		-44.921875
2147		-41.015625
2148		-44.921875
2149		-41.015625
2150		-44.921875
2151		-41.015625
2152		-44.921875
2153		-41.015625
2154		-44.921875
2155		-41.015625
2156		-44.921875
2157		-41.015625
2158		-42.968750
2159		-41.015625
2160		-42.968750
2161		-41.015625
2162		-42.968750
2163		-39.062500
2164		-42.968750
2165		-37.109375
2166		-41.015625
2167		-37.109375
2168		-39.062500
2169		-37.109375
2170		-39.062500
2171		-35.156250
2172		-37.109375
2173		-33.203125
2174		-37.109375
2175		-31.250000
2176		-33.203125
2177		-29.296875
2178		-33.203125
2179		-29.296875
2180		-31.250000
2181		-25.390625
2182		-29.296875
2183		-25.390625
2184		-27.343750
2185		-23.437500
2186		-25.390625
2187		-21.484375
2188		-23.437500
2189		-19.531250
2190		-21.484375
2191		-17.578125
2192		-17.578125
2193		-15.625000
2194		-17.578125
2195		-11.718750
2196		-13.671875
2197		-9.765625
2198		-11.718750
2199		-7.812500
2200		-9.765625
2201		-5.859375
2202		-7.812500
2203		-1.953125
2204		-3.906250
2205		0.000000
2206		-1.953125
2207		3.906250
2208		0.000000
2209		5.859375
2210		3.906250
2211		7.812500
2212		5.859375
2213		9.765625
2214		7.812500
2215		13.671875
2216		11.718750
2217		15.625000
2218		13.671875
2219		17.578125
2220		13.671875
2221		19.531250
2222		17.578125
2223		23.437500
2224		21.484375
2225		25.390625
2226		23.437500
2227		27.343750
2228		25.390625
2229		29.296875
2230		27.343750
2231		33.203125
2232		29.296875
2233		35.156250
2234		31.250000
2235		35.156250
2236		35.156250
2237		39.062500
2238		37.109375
2239		41.015625
2240		39.062500
2241		42.968750
2242		41.015625
2243		44.921875
2244		42.968750
2245		44.921875
2246		42.968750
2247		46.875000
2248		44.921875
2249		48.828125
2250		46.875000
2251		50.781250
2252		48.828125
2253		52.734375
2254		50.781250
2255		54.687500
2256		50.781250
2257		54.687500
2258		52.734375
2259		54.687500
2260		52.734375
2261		56.640625
2262		54.687500
2263		58.593750
2264		54.687500
2265		60.546875
2266		56.640625
2267		58.593750
2268		56.640625
2269		58.593750
2270		56.640625
2271		60.546875
2272		56.640625
2273		60.546875
2274		58.593750
2275		62.500000
2276		58.593750
2277		60.546875
2278		58.593750
2279		62.500000
2280		58.593750
2281		60.546875
2282		58.593750
2283		62.500000
2284		58.593750
2285		60.546875
2286		56.640625
2287		60.546875
2288		56.640625
2289		60.546875
2290		56.640625
2291		60.546875
2292		54.687500
2293		58.593750
2294		54.687500
2295		58.593750
2296		54.687500
2297		56.640625
2298		52.734375
2299		56.640625
2300		52.734375
2301		54.687500
2302		50.781250
2303		52.734375
2304		48.828125
2305		54.687500
2306		46.875000
2307		50.781250
2308		46.875000
2309		50.781250
2310		44.921875
2311		48.828125
2312		42.968750
2313		46.875000
2314		41.015625
2315		44.921875
2316		39.062500
2317		42.968750
2318		37.109375
2319		41.015625
2320		35.156250
2321		39.062500
2322		33.203125
2323		37.109375
2324		31.250000
2325		35.156250
2326		27.343750
2327		33.203125
2328		25.390625
2329		31.250000
2330		23.437500
2331		27.343750
2332		21.484375
2333		25.390625
2334		19.531250
2335		23.437500
2336		15.625000
2337		19.531250
2338		13.671875
2339		17.578125
2340		11.718750
2341		15.625000
2342		7.812500
2343		13.671875
2344		5.859375
2345		9.765625
2346		3.906250
2347		7.812500
2348		0.000000
2349		5.859375
2350		-1.953125
2351		1.953125
2352		-3.906250
2353		0.000000
2354		-7.812500
2355		-1.953125
2356		-9.765625
2357		-3.906250
2358		-11.718750
2359		-7.812500
2360		-13.671875
2361		-9.765625
2362		-17.578125
2363		-11.718750
2364		-19.531250
2365		-15.625000
2366		-21.484375
2367		-17.578125
2368		-23.437500
2369		-19.531250
2370		-25.390625
2371		-21.484375
2372		-27.343750
2373		-23.437500
2374		-29.296875
2375		-25.390625
2376		-31.250000
2377		-27.343750
2378		-33.203125
2379		-29.296875
2380		-35.156250
2381		-31.250000
2382		-37.109375
2383		-33.203125
2384		-37.109375
2385		-33.203125
2386		-39.062500
2387		-35.156250
2388		-39.062500
2389		-35.156250
2390		-41.015625
2391		-37.109375
2392		-42.968750
2393		-37.109375
2394		-42.968750
2395		-39.062500
2396		-42.968750
2397		-39.062500
2398		-44.921875
2399		-41.015625
2400		-44.921875
2401		-41.015625
2402		-42.968750
2403		-41.015625
2404		-44.921875
2405		-41.015625
2406		-44.921875
2407		-41.015625
2408		-44.921875
2409		-41.015625
2410		-42.968750
2411		-41.015625
2412		-42.968750
2413		-41.015625
2414		-42.968750
2415		-39.062500
2416		-41.015625
2417		-39.062500
2418		-41.015625
2419		-37.109375
2420		-39.062500
2421		-37.109375
2422		-41.015625
2423		-35.156250
2424		-39.062500
2425		-35.156250
2426		-37.109375
2427		-33.203125
2428		-35.156250
2429		-31.250000
2430		-33.203125
2431		-29.296875
2432		-31.250000
2433		-27.343750
2434		-29.296875
2435		-27.343750
2436		-27.343750
2437		-23.437500
2438		-27.343750
2439		-21.484375
2440		-25.390625
2441		-19.531250
2442		-21.484375
2443		-17.578125
2444		-19.531250
2445		-15.625000
2446		-17.578125
2447		-13.671875
2448		-15.625000
2449		-11.718750
2450		-13.671875
2451		-7.812500
2452		-9.765625
2453		-5.859375
2454		-7.812500
2455		-3.906250
2456		-5.859375
2457		0.000000
2458		-3.906250
2459		1.953125
2460		-1.953125
2461		5.859375
2462		1.953125
2463		5.859375
2464		3.906250
2465		9.765625
2466		7.812500
2467		11.718750
2468		9.765625
2469		13.671875
2470		11.718750
2471		15.625000
2472		13.671875
2473		19.531250
2474		17.578125
2475		21.484375
2476		19.531250
2477		23.437500
2478		21.484375
2479		27.343750
2480		25.390625
2481		29.296875
2482		25.390625
2483		31.250000
2484		29.296875
2485		33.203125
2486		31.250000
2487		35.156250
2488		33.203125
2489		39.062500
2490		35.156250
2491		39.062500
2492		37.109375
2493		41.015625
2494		39.062500
2495		42.968750
2496		41.015625
2497		44.921875
2498		42.968750
2499		46.875000
2500		44.921875
2501		48.828125
2502		46.875000
2503		50.781250
2504		48.828125
2505		50.781250
2506		48.828125
2507		52.734375
2508		50.781250
2509		54.687500
2510		52.734375
2511		54.687500
2512		52.734375
2513		56.640625
2514		54.687500
2515		58.593750
2516		54.687500
2517		58.593750
2518		56.640625
2519		58.593750
2520		56.640625
2521		60.546875
2522		56.640625
2523		60.546875
2524		58.593750
2525		60.546875
2526		58.593750
2527		62.500000
2528		58.593750
2529		62.500000
2530		58.593750
2531		62.500000
2532		58.593750
2533		62.500000
2534		58.593750
2535		62.500000
2536		58.593750
2537		60.546875
2538		56.640625
2539		60.546875
2540		56.640625
2541		60.546875
2542		56.640625
2543		60.546875
2544		56.640625
2545		60.546875
2546		56.640625
2547		58.593750
2548		54.687500
2549		58.593750
2550		54.687500
2551		58.593750
2552		52.734375
2553		56.640625
2554		52.734375
2555		54.687500
2556		50.781250
2557		54.687500
2558		48.828125
2559		52.734375
2560		46.875000
2561		52.734375
2562		46.875000
2563		48.828125
2564		44.921875
2565		48.828125
2566		42.968750
2567		46.875000
2568		41.015625
2569		44.921875
2570		39.062500
2571		42.968750
2572		35.156250
2573		41.015625
2574		33.203125
2575		39.062500
2576		31.250000
2577		37.109375
2578		31.250000
2579		35.156250
2580		27.343750
2581		31.250000
2582		25.390625
2583		29.296875
2584		23.437500
2585		27.343750
2586		19.531250
2587		25.390625
2588		17.578125
2589		23.437500
2590		15.625000
2591		21.484375
2592		13.671875
2593		17.578125
2594		9.765625
2595		15.625000
2596		7.812500
2597		11.718750
2598		3.906250
2599		9.765625
2600		3.906250
2601		7.812500
2602		0.000000
2603		5.859375
2604		-1.953125
2605		1.953125
2606		-5.859375
2607		0.000000
2608		-7.812500
2609		-1.953125
2610		-9.765625
2611		-5.859375
2612		-13.671875
2613		-7.812500
2614		-13.671875
2615		-9.765625
2616		-17.578125
2617		-11.718750
2618		-19.531250
2619		-15.625000
2620		-21.484375
2621		-17.578125
2622		-25.390625
2623		-19.531250
2624		-25.390625
2625		-21.484375
2626		-27.343750
2627		-23.437500
2628		-31.250000
2629		-25.390625
2630		-31.250000
2631		-27.343750
2632		-33.203125
2633		-29.296875
2634		-35.156250
2635		-31.250000
2636		-35.156250
2637		-33.203125
2638		-37.109375
2639		-35.156250
2640		-39.062500
2641		-33.203125
2642		-39.062500
2643		-37.109375
2644		-41.015625
2645		-37.109375
2646		-41.015625
2647		-39.062500
2648		-42.968750
2649		-39.062500
2650		-42.968750
2651		-39.062500
2652		-42.968750
2653		-39.062500
2654		-42.968750
2655		-41.015625
2656		-42.968750
2657		-41.015625
2658		-44.921875
2659		-41.015625
2660		-44.921875
2661		-41.015625
2662		-42.968750
2663		-41.015625
2664		-42.968750
2665		-39.062500
2666		-42.968750
2667		-39.062500
2668		-42.968750
2669		-39.062500
2670		-41.015625
2671		-39.062500
2672		-41.015625
2673		-37.109375
2674		-39.062500
2675		-37.109375
2676		-39.062500
2677		-35.156250
2678		-37.109375
2679		-33.203125
2680		-35.156250
2681		-31.250000
2682		-35.156250
2683		-31.250000
2684		-33.203125
2685		-29.296875
2686		-31.250000
2687		-27.343750
2688		-29.296875
2689		-25.390625
2690		-27.343750
2691		-23.437500
2692		-25.390625
2693		-21.484375
2694		-23.437500
2695		-19.531250
2696		-21.484375
2697		-17.578125
2698		-19.531250
2699		-15.625000
2700		-17.578125
2701		-11.718750
2702		-13.671875
2703		-9.765625
2704		-11.718750
2705		-7.812500
2706		-9.765625
2707		-3.906250
2708		-7.812500
2709		-1.953125
2710		-3.906250
2711		0.000000
2712		-1.953125
2713		1.953125
2714		0.000000
2715		3.906250
2716		1.953125
2717		7.812500
2718		5.859375
2719		9.765625
2720		7.812500
2721		11.718750
2722		9.765625
2723		13.671875
2724		13.671875
2725		17.578125
2726		15.625000
2727		19.531250
2728		17.578125
2729		23.437500
2730		19.531250
2731		25.390625
2732		21.484375
2733		27.343750
2734		23.437500
2735		31.250000
2736		27.343750
2737		31.250000
2738		29.296875
2739		33.203125
2740		31.250000
2741		35.156250
2742		33.203125
2743		39.062500
2744		35.156250
2745		41.015625
2746		39.062500
2747		42.968750
2748		39.062500
2749		42.968750
2750		41.015625
2751		44.921875
2752		42.968750
2753		46.875000
2754		44.921875
2755		48.828125
2756		46.875000
2757		50.781250
2758		46.875000
2759		52.734375
2760		48.828125
2761		52.734375
2762		50.781250
2763		54.687500
2764		52.734375
2765		56.640625
2766		52.734375
2767		56.640625
2768		54.687500
2769		58.593750
2770		54.687500
2771		58.593750
2772		56.640625
2773		58.593750
2774		56.640625
2775		60.546875
2776		56.640625
2777		60.546875
2778		58.593750
2779		60.546875
2780		58.593750
2781		60.546875
2782		58.593750
2783		62.500000
2784		58.593750
2785		60.546875
2786		58.593750
2787		62.500000
2788		58.593750
2789		60.546875
2790		58.593750
2791		62.500000
2792		58.593750
2793		60.546875
2794		58.593750
2795		60.546875
2796		56.640625
2797		60.546875
2798		56.640625
2799		58.593750
2800		54.687500
2801		58.593750
2802		54.687500
2803		56.640625
2804		52.734375
2805		56.640625
2806		52.734375
2807		54.687500
2808		50.781250
2809		54.687500
2810		50.781250
2811		52.734375
2812		48.828125
2813		52.734375
2814		46.875000
2815		50.781250
2816		44.921875
2817		48.828125
2818		42.968750
2819		46.875000
2820		41.015625
2821		44.921875
2822		39.062500
2823		42.968750
2824		37.109375
2825		41.015625
2826		35.156250
2827		39.062500
2828		33.203125
2829		37.109375
2830		31.250000
2831		35.156250
2832		29.296875
2833		33.203125
2834		27.343750
2835		31.250000
2836		25.390625
2837		29.296875
2838		21.484375
2839		25.390625
2840		19.531250
2841		23.437500
2842		17.578125
2843		21.484375
2844		13.671875
2845		19.531250
2846		11.718750
2847		15.625000
2848		9.765625
2849		13.671875
2850		5.859375
2851		11.718750
2852		3.906250
2853		7.812500
2854		1.953125
2855		5.859375
2856		0.000000
2857		3.906250
2858		-3.906250
2859		1.953125
2860		-5.859375
2861		-1.953125
2862		-9.765625
2863		-3.906250
2864		-11.718750
2865		-7.812500
2866		-13.671875
2867		-9.765625
2868		-15.625000
2869		-11.718750
2870		-17.578125
2871		-13.671875
2872		-19.531250
2873		-15.625000
2874		-23.437500
2875		-19.531250
2876		-25.390625
2877		-21.484375
2878		-27.343750
2879		-23.437500
2880		-29.296875
2881		-25.390625
2882		-31.250000
2883		-27.343750
2884		-33.203125
2885		-29.296875
2886		-35.156250
2887		-29.296875
2888		-35.156250
2889		-31.250000
2890		-37.109375
2891		-33.203125
2892		-39.062500
2893		-35.156250
2894		-39.062500
2895		-35.156250
2896		-41.015625
2897		-37.109375
2898		-41.015625
2899		-39.062500
2900		-41.015625
2901		-39.062500
2902		-42.968750
2903		-39.062500
2904		-42.968750
2905		-39.062500
2906		-42.968750
2907		-41.015625
2908		-44.921875
2909		-41.015625
2910		-44.921875
2911		-41.015625
2912		-44.921875
2913		-41.015625
2914		-44.921875
2915		-41.015625
2916		-44.921875
2917		-41.015625
2918		-42.968750
2919		-39.062500
2920		-42.968750
2921		-39.062500
2922		-42.968750
2923		-39.062500
2924		-41.015625
2925		-39.062500
2926		-41.015625
2927		-37.109375
2928		-39.062500
2929		-35.156250
2930		-37.109375
2931		-35.156250
2932		-37.109375
2933		-33.203125
2934		-35.156250
2935		-31.250000
2936		-33.203125
2937		-29.296875
2938		-33.203125
2939		-29.296875
2940		-29.296875
2941		-27.343750
2942		-27.343750
2943		-23.437500
2944		-27.343750
2945		-21.484375
2946		-25.390625
2947		-21.484375
2948		-23.437500
2949		-17.578125
2950		-19.531250
2951		-15.625000
2952		-17.578125
2953		-13.671875
2954		-15.625000
2955		-11.718750
2956		-13.671875
2957		-7.812500
2958		-11.718750
2959		-5.859375
2960		-9.765625
2961		-3.906250
2962		-5.859375
2963		-1.953125
2964		-3.906250
2965		1.953125
2966		0.000000
2967		3.906250
2968		1.953125
2969		5.859375
2970		3.906250
2971		9.765625
2972		7.812500
2973		9.765625
2974		9.765625
2975		13.671875
2976		11.718750
2977		15.625000
2978		13.671875
2979		17.578125
2980		15.625000
2981		21.484375
2982		19.531250
2983		23.437500
2984		21.484375
2985		25.390625
2986		23.437500
2987		27.343750
2988		25.390625
2989		31.250000
2990		29.296875
2991		33.203125
2992		31.250000
2993		35.156250
2994		33.203125
2995		37.109375
2996		35.156250
2997		41.015625
2998		37.109375
2999		41.015625
3000		39.062500
3001		42.968750
3002		41.015625
3003		44.921875
3004		42.968750
3005		46.875000
3006		44.921875
3007		46.875000
3008		46.875000
3009		50.781250
3010		46.875000
3011		52.734375
3012		48.828125
3013		52.734375
3014		50.781250
3015		54.687500
3016		52.734375
3017		56.640625
3018		52.734375
3019		56.640625
3020		52.734375
3021		56.640625
3022		54.687500
3023		58.593750
3024		56.640625
3025		58.593750
3026		56.640625
3027		60.546875
3028		56.640625
3029		60.546875
3030		56.640625
3031		62.500000
3032		58.593750
3033		62.500000
3034		58.593750
3035		62.500000
3036		58.593750
3037		62.500000
3038		58.593750
3039		62.500000
3040		58.593750
3041		62.500000
3042		58.593750
3043		60.546875
3044		58.593750
3045		62.500000
3046		58.593750
3047		62.500000
3048		56.640625
3049		60.546875
3050		56.640625
3051		60.546875
3052		56.640625
3053		60.546875
3054		54.687500
3055		58.593750
3056		54.687500
3057		56.640625
3058		52.734375
3059		56.640625
3060		52.734375
3061		56.640625
3062		50.781250
3063		54.687500
3064		48.828125
3065		52.734375
3066		48.828125
3067		52.734375
3068		46.875000
3069		50.781250
3070		44.921875
3071		48.828125
3072		42.968750
3073		48.828125
3074		41.015625
3075		44.921875
3076		39.062500
3077		42.968750
3078		37.109375
3079		41.015625
3080		35.156250
3081		39.062500
3082		33.203125
3083		37.109375
3084		31.250000
3085		35.156250
3086		29.296875
3087		33.203125
3088		25.390625
3089		31.250000
3090		23.437500
3091		27.343750
3092		21.484375
3093		25.390625
3094		19.531250
3095		23.437500
3096		15.625000
3097		21.484375
3098		13.671875
3099		17.578125
3100		9.765625
3101		15.625000
3102		7.812500
3103		13.671875
3104		5.859375
3105		9.765625
3106		3.906250
3107		7.812500
3108		1.953125
3109		5.859375
3110		-1.953125
3111		1.953125
3112		-3.906250
3113		0.000000
3114		-5.859375
3115		-1.953125
3116		-9.765625
3117		-5.859375
3118		-11.718750
3119		-7.812500
3120		-15.625000
3121		-9.765625
3122		-15.625000
3123		-11.718750
3124		-19.531250
3125		-13.671875
3126		-21.484375
3127		-17.578125
3128		-23.437500
3129		-17.578125
3130		-25.390625
3131		-19.531250
3132		-27.343750
3133		-23.437500
3134		-29.296875
3135		-23.437500
3136		-31.250000
3137		-27.343750
3138		-33.203125
3139		-29.296875
3140		-35.156250
3141		-31.250000
3142		-35.156250
3143		-33.203125
3144		-37.109375
3145		-33.203125
3146		-37.109375
3147		-35.156250
3148		-39.062500
3149		-35.156250
3150		-41.015625
3151		-37.109375
3152		-41.015625
3153		-37.109375
3154		-41.015625
3155		-39.062500
3156		-42.968750
3157		-39.062500
3158		-42.968750
3159		-41.015625
3160		-42.968750
3161		-39.062500
3162		-42.968750
3163		-41.015625
3164		-42.968750
3165		-41.015625
3166		-42.968750
3167		-41.015625
3168		-42.968750
3169		-39.062500
3170		-42.968750
3171		-39.062500
3172		-42.968750
3173		-39.062500
3174		-41.015625
3175		-39.062500
3176		-41.015625
3177		-39.062500
3178		-41.015625
3179		-37.109375
3180		-39.062500
3181		-35.156250
3182		-39.062500
3183		-35.156250
3184		-37.109375
3185		-33.203125
3186		-37.109375
3187		-31.250000
3188		-35.156250
3189		-31.250000
3190		-33.203125
3191		-29.296875
3192		-31.250000
3193		-27.343750
3194		-29.296875
3195		-25.390625
3196		-27.343750
3197		-23.437500
3198		-25.390625
3199		-21.484375
3200		-23.437500
3201		-19.531250
3202		-21.484375
3203		-17.578125
3204		-19.531250
3205		-15.625000
3206		-17.578125
3207		-13.671875
3208		-15.625000
3209		-11.718750
3210		-11.718750
3211		-7.812500
3212		-9.765625
3213		-5.859375
3214		-7.812500
3215		-1.953125
3216		-5.859375
3217		0.000000
3218		-1.953125
3219		1.953125
3220		0.000000
3221		3.906250
3222		1.953125
3223		7.812500
3224		3.906250
3225		9.765625
3226		7.812500
3227		11.718750
3228		9.765625
3229		13.671875
3230		11.718750
3231		17.578125
3232		15.625000
3233		19.531250
3234		15.625000
3235		21.484375
3236		19.531250
3237		23.437500
3238		21.484375
3239		27.343750
3240		25.390625
3241		29.296875
3242		27.343750
3243		31.250000
3244		29.296875
3245		33.203125
3246		31.250000
3247		35.156250
3248		33.203125
3249		37.109375
3250		35.156250
3251		39.062500
3252		37.109375
3253		41.015625
3254		39.062500
3255		42.968750
3256		41.015625
3257		46.875000
3258		42.968750
3259		46.875000
3260		44.921875
3261		48.828125
3262		46.875000
3263		50.781250
3264		48.828125
3265		52.734375
3266		48.828125
3267		52.734375
3268		50.781250
3269		54.687500
3270		52.734375
3271		56.640625
3272		52.734375
3273		58.593750
3274		52.734375
3275		56.640625
3276		56.640625
3277		58.593750
3278		56.640625
3279		60.546875
3280		56.640625
3281		60.546875
3282		56.640625
3283		60.546875
3284		58.593750
3285		62.500000
3286		58.593750
3287		62.500000
3288		58.593750
3289		62.500000
3290		58.593750
3291		62.500000
3292		58.593750
3293		60.546875
3294		58.593750
3295		60.546875
3296		58.593750
3297		62.500000
3298		58.593750
3299		60.546875
3300		56.640625
3301		60.546875
3302		56.640625
3303		60.546875
3304		56.640625
3305		58.593750
3306		56.640625
3307		60.546875
3308		54.687500
3309		58.593750
3310		54.687500
3311		56.640625
3312		50.781250
3313		56.640625
3314		50.781250
3315		54.687500
3316		50.781250
3317		54.687500
3318		48.828125
3319		52.734375
3320		46.875000
3321		50.781250
3322		44.921875
3323		48.828125
3324		44.921875
3325		48.828125
3326		42.968750
3327		44.921875
3328		39.062500
3329		42.968750
3330		39.062500
3331		42.968750
3332		37.109375
3333		41.015625
3334		35.156250
3335		39.062500
3336		31.250000
3337		35.156250
3338		29.296875
3339		33.203125
3340		25.390625
3341		31.250000
3342		25.390625
3343		29.296875
3344		23.437500
3345		27.343750
3346		19.531250
3347		25.390625
3348		17.578125
3349		21.484375
3350		15.625000
3351		19.531250
3352		13.671875
3353		15.625000
3354		9.765625
3355		13.671875
3356		7.812500
3357		11.718750
3358		5.859375
3359		9.765625
3360		1.953125
3361		5.859375
3362		0.000000
3363		3.906250
3364		-1.953125
3365		1.953125
3366		-5.859375
3367		0.000000
3368		-7.812500
3369		-3.906250
3370		-9.765625
3371		-5.859375
3372		-11.718750
3373		-7.812500
3374		-15.625000
3375		-11.718750
3376		-17.578125
3377		-13.671875
3378		-19.531250
3379		-15.625000
3380		-21.484375
3381		-17.578125
3382		-23.437500
3383		-19.531250
3384		-25.390625
3385		-21.484375
3386		-29.296875
3387		-23.437500
3388		-29.296875
3389		-25.390625
3390		-31.250000
3391		-27.343750
3392		-33.203125
3393		-29.296875
3394		-35.156250
3395		-31.250000
3396		-37.109375
3397		-33.203125
3398		-37.109375
3399		-33.203125
3400		-39.062500
3401		-35.156250
3402		-39.062500
3403		-37.109375
3404		-41.015625
3405		-39.062500
3406		-42.968750
3407		-39.062500
3408		-42.968750
3409		-39.062500
3410		-42.968750
3411		-41.015625
3412		-42.968750
3413		-41.015625
3414		-44.921875
3415		-41.015625
3416		-44.921875
3417		-41.015625
3418		-44.921875
3419		-41.015625
3420		-44.921875
3421		-41.015625
3422		-42.968750
3423		-41.015625
3424		-44.921875
3425		-39.062500
3426		-42.968750
3427		-41.015625
3428		-41.015625
3429		-39.062500
3430		-41.015625
3431		-37.109375
3432		-41.015625
3433		-37.109375
3434		-39.062500
3435		-35.156250
3436		-39.062500
3437		-35.156250
3438		-37.109375
3439		-33.203125
3440		-35.156250
3441		-31.250000
3442		-35.156250
3443		-31.250000
3444		-33.203125
3445		-29.296875
3446		-31.250000
3447		-27.343750
3448		-29.296875
3449		-25.390625
3450		-27.343750
3451		-23.437500
3452		-25.390625
3453		-21.484375
3454		-23.437500
3455		-19.531250
3456		-21.484375
3457		-17.578125
3458		-19.531250
3459		-13.671875
3460		-15.625000
3461		-11.718750
3462		-13.671875
3463		-9.765625
3464		-11.718750
3465		-7.812500
3466		-9.765625
3467		-3.906250
3468		-7.812500
3469		-1.953125
3470		-5.859375
3471		0.000000
3472		-1.953125
3473		1.953125
3474		0.000000
3475		5.859375
3476		1.953125
3477		7.812500
3478		5.859375
3479		11.718750
3480		7.812500
3481		13.671875
3482		9.765625
3483		15.625000
3484		13.671875
3485		17.578125
3486		15.625000
3487		21.484375
3488		19.531250
3489		23.437500
3490		21.484375
3491		25.390625
3492		23.437500
3493		27.343750
3494		25.390625
3495		29.296875
3496		27.343750
3497		33.203125
3498		29.296875
3499		35.156250
3500		33.203125
3501		37.109375
3502		35.156250
3503		39.062500
3504		37.109375
3505		41.015625
3506		39.062500
3507		42.968750
3508		41.015625
3509		44.921875
3510		42.968750
3511		44.921875
3512		44.921875
3513		48.828125
3514		44.921875
3515		48.828125
3516		46.875000
3517		50.781250
3518		48.828125
3519		52.734375
3520		50.781250
3521		52.734375
3522		50.781250
3523		54.687500
3524		52.734375
3525		56.640625
3526		54.687500
3527		56.640625
3528		54.687500
3529		58.593750
3530		54.687500
3531		58.593750
3532		56.640625
3533		60.546875
3534		56.640625
3535		60.546875
3536		56.640625
3537		60.546875
3538		58.593750
3539		62.500000
3540		58.593750
3541		62.500000
3542		58.593750
3543		62.500000
3544		58.593750
3545		62.500000
3546		58.593750
3547		60.546875
3548		58.593750
3549		62.500000
3550		58.593750
3551		62.500000
3552		58.593750
3553		60.546875
3554		58.593750
3555		60.546875
3556		56.640625
3557		60.546875
3558		56.640625
3559		60.546875
3560		54.687500
3561		58.593750
3562		54.687500
3563		56.640625
3564		54.687500
3565		56.640625
3566		52.734375
3567		54.687500
3568		50.781250
3569		54.687500
3570		48.828125
3571		52.734375
3572		46.875000
3573		52.734375
3574		46.875000
3575		50.781250
3576		44.921875
3577		48.828125
3578		42.968750
3579		46.875000
3580		41.015625
3581		44.921875
3582		39.062500
3583		42.968750
3584		37.109375
3585		42.968750
3586		35.156250
3587		39.062500
3588		33.203125
3589		37.109375
3590		31.250000
3591		35.156250
3592		29.296875
3593		33.203125
3594		27.343750
3595		31.250000
3596		25.390625
3597		29.296875
3598		21.484375
3599		25.390625
3600		19.531250
3601		23.437500
3602		15.625000
3603		21.484375
3604		13.671875
3605		17.578125
3606		11.718750
3607		17.578125
3608		9.765625
3609		13.671875
3610		5.859375
3611		11.718750
3612		3.906250
3613		7.812500
3614		0.000000
3615		5.859375
3616		0.000000
3617		3.906250
3618		-3.906250
3619		0.000000
3620		-5.859375
3621		-1.953125
3622		-9.765625
3623		-3.906250
3624		-11.718750
3625		-7.812500
3626		-15.625000
3627		-9.765625
3628		-15.625000
3629		-11.718750
3630		-17.578125
3631		-13.671875
3632		-19.531250
3633		-17.578125
3634		-23.437500
3635		-17.578125
3636		-25.390625
3637		-21.484375
3638		-27.343750
3639		-23.437500
3640		-29.296875
3641		-25.390625
3642		-31.250000
3643		-27.343750
3644		-33.203125
3645		-29.296875
3646		-33.203125
3647		-31.250000
3648		-35.156250
3649		-31.250000
3650		-37.109375
3651		-33.203125
3652		-39.062500
3653		-35.156250
3654		-39.062500
3655		-35.156250
3656		-41.015625
3657		-37.109375
3658		-41.015625
3659		-37.109375
3660		-41.015625
3661		-37.109375
3662		-42.968750
3663		-41.015625
3664		-42.968750
3665		-41.015625
3666		-44.921875
3667		-41.015625
3668		-42.968750
3669		-41.015625
3670		-42.968750
3671		-41.015625
3672		-42.968750
3673		-41.015625
3674		-44.921875
3675		-41.015625
3676		-42.968750
3677		-39.062500
3678		-42.968750
3679		-39.062500
3680		-42.968750
3681		-39.062500
3682		-42.968750
3683		-39.062500
3684		-41.015625
3685		-37.109375
3686		-41.015625
3687		-37.109375
3688		-39.062500
3689		-35.156250
3690		-37.109375
3691		-33.203125
3692		-37.109375
3693		-33.203125
3694		-35.156250
3695		-31.250000
3696		-33.203125
3697		-29.296875
3698		-31.250000
3699		-27.343750
3700		-29.296875
3701		-25.390625
3702		-27.343750
3703		-23.437500
3704		-25.390625
3705		-21.484375
3706		-25.390625
3707		-19.531250
3708		-21.484375
3709		-17.578125
3710		-19.531250
3711		-15.625000
3712		-17.578125
3713		-13.671875
3714		-15.625000
3715		-11.718750
3716		-13.671875
3717		-7.812500
3718		-11.718750
3719		-5.859375
3720		-7.812500
3721		-3.906250
3722		-5.859375
3723		0.000000
3724		-3.906250
3725		1.953125
3726		-1.953125
3727		3.906250
3728		1.953125
3729		5.859375
3730		3.906250
3731		7.812500
3732		7.812500
3733		11.718750
3734		9.765625
3735		13.671875
3736		11.718750
3737		15.625000
3738		13.671875
3739		19.531250
3740		17.578125
3741		21.484375
3742		19.531250
3743		25.390625
3744		21.484375
3745		25.390625
3746		25.390625
3747		29.296875
3748		27.343750
3749		31.250000
3750		27.343750
3751		33.203125
3752		31.250000
3753		35.156250
3754		33.203125
3755		37.109375
3756		35.156250
3757		39.062500
3758		37.109375
3759		41.015625
3760		39.062500
3761		42.968750
3762		39.062500
3763		44.921875
3764		42.968750
3765		46.875000
3766		44.921875
3767		48.828125
3768		44.921875
3769		50.781250
3770		46.875000
3771		50.781250
3772		48.828125
3773		52.734375
3774		50.781250
3775		54.687500
3776		52.734375
3777		54.687500
3778		52.734375
3779		56.640625
3780		54.687500
3781		56.640625
3782		54.687500
3783		58.593750
3784		56.640625
3785		60.546875
3786		56.640625
3787		60.546875
3788		56.640625
3789		60.546875
3790		58.593750
3791		60.546875
3792		58.593750
3793		62.500000
3794		58.593750
3795		62.500000
3796		58.593750
3797		62.500000
3798		58.593750
3799		62.500000
3800		58.593750
3801		62.500000
3802		58.593750
3803		62.500000
3804		58.593750
3805		62.500000
3806		56.640625
3807		62.500000
3808		56.640625
3809		60.546875
3810		56.640625
3811		60.546875
3812		56.640625
3813		60.546875
3814		54.687500
3815		58.593750
3816		54.687500
3817		58.593750
3818		52.734375
3819		56.640625
3820		52.734375
3821		54.687500
3822		50.781250
3823		54.687500
3824		48.828125
3825		52.734375
3826		46.875000
3827		50.781250
3828		44.921875
3829		50.781250
3830		44.921875
3831		48.828125
3832		42.968750
3833		46.875000
3834		41.015625
3835		44.921875
3836		39.062500
3837		42.968750
3838		37.109375
3839		41.015625
3840		35.156250
3841		39.062500
3842		33.203125
3843		37.109375
3844		31.250000
3845		35.156250
3846		29.296875
3847		33.203125
3848		25.390625
3849		29.296875
3850		23.437500
3851		27.343750
3852		21.484375
3853		25.390625
3854		17.578125
3855		23.437500
3856		15.625000
3857		21.484375
3858		13.671875
3859		17.578125
3860		9.765625
3861		15.625000
3862		7.812500
3863		13.671875
3864		5.859375
3865		9.765625
3866		1.953125
3867		7.812500
3868		0.000000
3869		3.906250
3870		-1.953125
3871		1.953125
3872		-3.906250
3873		0.000000
3874		-7.812500
3875		-1.953125
3876		-9.765625
3877		-5.859375
3878		-11.718750
3879		-7.812500
3880		-13.671875
3881		-9.765625
3882		-17.578125
3883		-13.671875
3884		-19.531250
3885		-13.671875
3886		-21.484375
3887		-17.578125
3888		-23.437500
3889		-19.531250
3890		-25.390625
3891		-21.484375
3892		-27.343750
3893		-23.437500
3894		-29.296875
3895		-25.390625
3896		-31.250000
3897		-27.343750
3898		-33.203125
3899		-29.296875
3900		-35.156250
3901		-31.250000
3902		-35.156250
3903		-33.203125
3904		-37.109375
3905		-33.203125
3906		-39.062500
3907		-35.156250
3908		-41.015625
3909		-35.156250
3910		-41.015625
3911		-37.109375
3912		-42.968750
3913		-37.109375
3914		-41.015625
3915		-39.062500
3916		-42.968750
3917		-41.015625
3918		-42.968750
3919		-39.062500
3920		-42.968750
3921		-41.015625
3922		-42.968750
3923		-41.015625
3924		-44.921875
3925		-41.015625
3926		-44.921875
3927		-41.015625
3928		-42.968750
3929		-41.015625
3930		-44.921875
3931		-39.062500
3932		-42.968750
3933		-39.062500
3934		-42.968750
3935		-39.062500
3936		-41.015625
3937		-37.109375
3938		-41.015625
3939		-37.109375
3940		-39.062500
3941		-35.156250
3942		-39.062500
3943		-35.156250
3944		-37.109375
3945		-33.203125
3946		-35.156250
3947		-31.250000
3948		-33.203125
3949		-31.250000
3950		-31.250000
3951		-27.343750
3952		-31.250000
3953		-27.343750
3954		-29.296875
3955		-25.390625
3956		-27.343750
3957		-23.437500
3958		-25.390625
3959		-21.484375
3960		-23.437500
3961		-19.531250
3962		-21.484375
3963		-15.625000
3964		-17.578125
3965		-15.625000
3966		-17.578125
3967		-11.718750
3968		-15.625000
3969		-9.765625
3970		-11.718750
3971		-7.812500
3972		-9.765625
3973		-5.859375
3974		-7.812500
3975		-3.906250
3976		-3.906250
3977		0.000000
3978		-1.953125
3979		1.953125
3980		0.000000
3981		3.906250
3982		3.906250
3983		7.812500
3984		5.859375
3985		9.765625
3986		7.812500
3987		11.718750
3988		11.718750
3989		15.625000
3990		13.671875
3991		17.578125
3992		15.625000
3993		19.531250
3994		17.578125
3995		23.437500
3996		21.484375
3997		25.390625
3998		23.437500
3999		27.343750
4000		25.390625
4001		29.296875
4002		27.343750
4003		31.250000
4004		29.296875
4005		35.156250
4006		33.203125
4007		37.109375
4008		35.156250
4009		39.062500
4010		37.109375
4011		41.015625
4012		39.062500
4013		42.968750
4014		41.015625
4015		42.968750
4016		42.968750
4017		46.875000
4018		42.968750
4019		48.828125
4020		44.921875
4021		48.828125
4022		46.875000
4023		50.781250
4024		48.828125
4025		52.734375
4026		50.781250
4027		54.687500
4028		50.781250
4029		54.687500
4030		52.734375
4031		56.640625
4032		52.734375
4033		56.640625
4034		54.687500
4035		58.593750
4036		56.640625
4037		58.593750
4038		56.640625
4039		60.546875
4040		56.640625
4041		60.546875
4042		56.640625
4043		60.546875
4044		58.593750
4045		62.500000
4046		58.593750
4047		62.500000
4048		58.593750
4049		60.546875
4050		60.546875
4051		62.500000
4052		58.593750
4053		62.500000
4054		58.593750
4055		62.500000
4056		58.593750
4057		62.500000
4058		58.593750
4059		62.500000
4060		58.593750
4061		60.546875
4062		58.593750
4063		60.546875
4064		56.640625
4065		60.546875
4066		56.640625
4067		58.593750
4068		54.687500
4069		58.593750
4070		54.687500
4071		56.640625
4072		52.734375
4073		56.640625
4074		50.781250
4075		54.687500
4076		50.781250
4077		54.687500
4078		48.828125
4079		52.734375
4080		46.875000
4081		50.781250
4082		46.875000
4083		48.828125
4084		44.921875
4085		46.875000
4086		42.968750
4087		46.875000
4088		41.015625
4089		44.921875
4090		39.062500
4091		42.968750
4092		35.156250
4093		41.015625
4094		35.156250
4095		39.062500
4096		31.250000
4097		37.109375
4098		29.296875
4099		35.156250
4100		27.343750
4101		31.250000
4102		25.390625
4103		29.296875
4104		21.484375
4105		27.343750
4106		19.531250
4107		25.390625
4108		17.578125
4109		23.437500
4110		15.625000
4111		19.531250
4112		13.671875
4113		17.578125
4114		9.765625
4115		15.625000
4116		7.812500
4117		11.718750
4118		5.859375
4119		9.765625
4120		1.953125
4121		5.859375
4122		0.000000
4123		3.906250
4124		-1.953125
4125		1.953125
4126		-5.859375
4127		-1.953125
4128		-7.812500
4129		-3.906250
4130		-9.765625
4131		-5.859375
4132		-11.718750
4133		-7.812500
4134		-15.625000
4135		-11.718750
4136		-17.578125
4137		-13.671875
4138		-19.531250
4139		-15.625000
4140		-21.484375
4141		-17.578125
4142		-23.437500
4143		-19.531250
4144		-25.390625
4145		-21.484375
4146		-27.343750
4147		-23.437500
4148		-29.296875
4149		-25.390625
4150		-31.250000
4151		-27.343750
4152		-33.203125
4153		-29.296875
4154		-35.156250
4155		-31.250000
4156		-35.156250
4157		-31.250000
4158		-37.109375
4159		-35.156250
4160		-39.062500
4161		-35.156250
4162		-39.062500
4163		-37.109375
4164		-41.015625
4165		-37.109375
4166		-41.015625
4167		-39.062500
4168		-41.015625
4169		-39.062500
4170		-42.968750
4171		-39.062500
4172		-42.968750
4173		-39.062500
4174		-42.968750
4175		-39.062500
4176		-44.921875
4177		-41.015625
4178		-42.968750
4179		-41.015625
4180		-42.968750
4181		-41.015625
4182		-44.921875
4183		-39.062500
4184		-42.968750
4185		-39.062500
4186		-42.968750
4187		-39.062500
4188		-41.015625
4189		-37.109375
4190		-41.015625
4191		-37.109375
4192		-39.062500
4193		-35.156250
4194		-39.062500
4195		-35.156250
4196		-37.109375
4197		-33.203125
4198		-37.109375
4199		-33.203125
4200		-35.156250
4201		-31.250000
4202		-33.203125
4203		-29.296875
4204		-31.250000
4205		-27.343750
4206		-29.296875
4207		-25.390625
4208		-29.296875
4209		-23.437500
4210		-25.390625
4211		-21.484375
4212		-25.390625
4213		-19.531250
4214		-21.484375
4215		-15.625000
4216		-19.531250
4217		-15.625000
4218		-17.578125
4219		-13.671875
4220		-15.625000
4221		-11.718750
4222		-13.671875
4223		-7.812500
4224		-11.718750
4225		-5.859375
4226		-7.812500
4227		-3.906250
4228		-5.859375
4229		-1.953125
4230		-3.906250
4231		1.953125
4232		-1.953125
4233		3.906250
4234		1.953125
4235		5.859375
4236		3.906250
4237		9.765625
4238		5.859375
4239		11.718750
4240		9.765625
4241		13.671875
4242		11.718750
4243		15.625000
4244		13.671875
4245		19.531250
4246		17.578125
4247		21.484375
4248		19.531250
4249		23.437500
4250		21.484375
4251		25.390625
4252		23.437500
4253		27.343750
4254		27.343750
4255		31.250000
4256		29.296875
4257		33.203125
4258		31.250000
4259		35.156250
4260		33.203125
4261		37.109375
4262		35.156250
4263		39.062500
4264		37.109375
4265		41.015625
4266		39.062500
4267		42.968750
4268		41.015625
4269		44.921875
4270		42.968750
4271		46.875000
4272		44.921875
4273		48.828125
4274		44.921875
4275		50.781250
4276		48.828125
4277		52.734375
4278		48.828125
4279		52.734375
4280		50.781250
4281		54.687500
4282		52.734375
4283		56.640625
4284		54.687500
4285		56.640625
4286		54.687500
4287		56.640625
4288		54.687500
4289		58.593750
4290		56.640625
4291		60.546875
4292		56.640625
4293		60.546875
4294		58.593750
4295		60.546875
4296		58.593750
4297		60.546875
4298		58.593750
4299		62.500000
4300		58.593750
4301		62.500000
4302		60.546875
4303		62.500000
4304		58.593750
4305		62.500000
4306		58.593750
4307		62.500000
4308		58.593750
4309		62.500000
4310		58.593750
4311		62.500000
4312		58.593750
4313		62.500000
4314		58.593750
4315		60.546875
4316		56.640625
4317		60.546875
4318		56.640625
4319		58.593750
4320		56.640625
4321		58.593750
4322		54.687500
4323		58.593750
4324		52.734375
4325		56.640625
4326		52.734375
4327		56.640625
4328		50.781250
4329		54.687500
4330		48.828125
4331		54.687500
4332		48.828125
4333		52.734375
4334		46.875000
4335		50.781250
4336		44.921875
4337		48.828125
4338		42.968750
4339		46.875000
4340		41.015625
4341		46.875000
4342		39.062500
4343		44.921875
4344		37.109375
4345		42.968750
4346		35.156250
4347		41.015625
4348		33.203125
4349		37.109375
4350		31.250000
4351		37.109375
4352		29.296875
4353		33.203125
4354		25.390625
4355		31.250000
4356		23.437500
4357		29.296875
4358		21.484375
4359		27.343750
4360		19.531250
4361		25.390625
4362		17.578125
4363		23.437500
4364		13.671875
4365		19.531250
4366		11.718750
4367		17.578125
4368		9.765625
4369		13.671875
4370		7.812500
4371		11.718750
4372		3.906250
4373		9.765625
4374		1.953125
4375		5.859375
4376		0.000000
4377		3.906250
4378		-3.906250
4379		1.953125
4380		-5.859375
4381		-1.953125
4382		-9.765625
4383		-3.906250
4384		-9.765625
4385		-5.859375
4386		-13.671875
4387		-9.765625
4388		-15.625000
4389		-9.765625
4390		-17.578125
4391		-11.718750
4392		-21.484375
4393		-15.625000
4394		-23.437500
4395		-17.578125
4396		-25.390625
4397		-19.531250
4398		-27.343750
4399		-21.484375
4400		-29.296875
4401		-23.437500
4402		-31.250000
4403		-27.343750
4404		-33.203125
4405		-29.296875
4406		-35.156250
4407		-29.296875
4408		-35.156250
4409		-29.296875
4410		-37.109375
4411		-31.250000
4412		-39.062500
4413		-33.203125
4414		-39.062500
4415		-35.156250
4416		-41.015625
4417		-35.156250
4418		-41.015625
4419		-37.109375
4420		-41.015625
4421		-39.062500
4422		-42.968750
4423		-39.062500
4424		-42.968750
4425		-39.062500
4426		-44.921875
4427		-39.062500
4428		-44.921875
4429		-39.062500
4430		-44.921875
4431		-39.062500
4432		-44.921875
4433		-39.062500
4434		-42.968750
4435		-39.062500
4436		-42.968750
4437		-39.062500
4438		-42.968750
4439		-37.109375
4440		-42.968750
4441		-37.109375
4442		-41.015625
4443		-37.109375
4444		-41.015625
4445		-35.156250
4446		-39.062500
4447		-33.203125
4448		-39.062500
4449		-33.203125
4450		-37.109375
4451		-33.203125
4452		-35.156250
4453		-31.250000
4454		-33.203125
4455		-29.296875
4456		-33.203125
4457		-27.343750
4458		-31.250000
4459		-25.390625
4460		-29.296875
4461		-23.437500
4462		-27.343750
4463		-23.437500
4464		-25.390625
4465		-19.531250
4466		-23.437500
4467		-17.578125
4468		-21.484375
4469		-17.578125
4470		-19.531250
4471		-15.625000
4472		-15.625000
4473		-11.718750
4474		-13.671875
4475		-9.765625
4476		-11.718750
4477		-7.812500
4478		-9.765625
4479		-5.859375
4480		-5.859375
4481		-1.953125
4482		-3.906250
4483		0.000000
4484		-1.953125
4485		1.953125
4486		0.000000
4487		3.906250
4488		3.906250
4489		7.812500
4490		5.859375
4491		9.765625
4492		7.812500
4493		11.718750
4494		11.718750
4495		15.625000
4496		13.671875
4497		17.578125
4498		15.625000
4499		19.531250
4500		17.578125
4501		23.437500
4502		21.484375
4503		25.390625
4504		23.437500
4505		27.343750
4506		25.390625
4507		29.296875
4508		27.343750
4509		31.250000
4510		29.296875
4511		33.203125
4512		31.250000
4513		35.156250
4514		35.156250
4515		39.062500
4516		37.109375
4517		41.015625
4518		39.062500
4519		41.015625
4520		41.015625
4521		44.921875
4522		42.968750
4523		44.921875
4524		44.921875
4525		48.828125
4526		44.921875
4527		48.828125
4528		46.875000
4529		50.781250
4530		48.828125
4531		52.734375
4532		50.781250
4533		52.734375
4534		52.734375
4535		54.687500
4536		52.734375
4537		56.640625
4538		54.687500
4539		56.640625
4540		54.687500
4541		58.593750
4542		56.640625
4543		58.593750
4544		56.640625
4545		58.593750
4546		58.593750
4547		60.546875
4548		58.593750
4549		60.546875
4550		58.593750
4551		60.546875
4552		58.593750
4553		62.500000
4554		60.546875
4555		62.500000
4556		60.546875
4557		62.500000
4558		60.546875
4559		62.500000
4560		60.546875
4561		62.500000
4562		58.593750
4563		62.500000
4564		58.593750
4565		62.500000
4566		58.593750
4567		60.546875
4568		58.593750
4569		60.546875
4570		58.593750
4571		60.546875
4572		54.687500
4573		62.500000
4574		52.734375
4575		62.500000
4576		52.734375
4577		60.546875
4578		52.734375
4579		60.546875
4580		52.734375
4581		54.687500
4582		50.781250
4583		54.687500
4584		50.781250
4585		52.734375
4586		48.828125
4587		52.734375
4588		46.875000
4589		50.781250
4590		42.968750
4591		50.781250
4592		41.015625
4593		50.781250
4594		39.062500
4595		48.828125
4596		39.062500
4597		42.968750
4598		37.109375
4599		41.015625
4600		35.156250
4601		39.062500
4602		33.203125
4603		37.109375
4604		31.250000
4605		35.156250
4606		25.390625
4607		33.203125
4608		23.437500
4609		33.203125
4610		21.484375
4611		31.250000
4612		19.531250
4613		29.296875
4614		19.531250
4615		23.437500
4616		17.578125
4617		21.484375
4618		13.671875
4619		17.578125
4620		11.718750
4621		15.625000
4622		7.812500
4623		13.671875
4624		3.906250
4625		13.671875
4626		0.000000
4627		11.718750
4628		-1.953125
4629		9.765625
4630		-1.953125
4631		1.953125
4632		-3.906250
4633		0.000000
4634		-7.812500
4635		-1.953125
4636		-9.765625
4637		-5.859375
4638		-11.718750
4639		-5.859375
4640		-17.578125
4641		-7.812500
4642		-19.531250
4643		-9.765625
4644		-21.484375
4645		-11.718750
4646		-21.484375
4647		-17.578125
4648		-23.437500
4649		-19.531250
4650		-25.390625
4651		-21.484375
4652		-27.343750
4653		-23.437500
4654		-29.296875
4655		-25.390625
4656		-33.203125
4657		-25.390625
4658		-35.156250
4659		-25.390625
4660		-37.109375
4661		-27.343750
4662		-37.109375
4663		-27.343750
4664		-37.109375
4665		-33.203125
4666		-37.109375
4667		-35.156250
4668		-39.062500
4669		-35.156250
4670		-39.062500
4671		-37.109375
4672		-41.015625
4673		-37.109375
4674		-44.921875
4675		-33.203125
4676		-46.875000
4677		-35.156250
4678		-44.921875
4679		-35.156250
4680		-42.968750
4681		-39.062500
4682		-42.968750
4683		-41.015625
4684		-42.968750
4685		-41.015625
4686		-42.968750
4687		-41.015625
4688		-42.968750
4689		-41.015625
4690		-44.921875
4691		-35.156250
4692		-44.921875
4693		-35.156250
4694		-44.921875
4695		-33.203125
4696		-42.968750
4697		-35.156250
4698		-39.062500
4699		-37.109375
4700		-39.062500
4701		-35.156250
4702		-37.109375
4703		-33.203125
4704		-35.156250
4705		-33.203125
4706		-35.156250
4707		-31.250000
4708		-37.109375
4709		-27.343750
4710		-35.156250
4711		-25.390625
4712		-33.203125
4713		-23.437500
4714		-29.296875
4715		-25.390625
4716		-25.390625
4717		-23.437500
4718		-25.390625
4719		-21.484375
4720		-21.484375
4721		-19.531250
4722		-19.531250
4723		-15.625000
4724		-21.484375
4725		-9.765625
4726		-17.578125
4727		-7.812500
4728		-17.578125
4729		-5.859375
4730		-11.718750
4731		-7.812500
4732		-7.812500
4733		-3.906250
4734		-5.859375
4735		-1.953125
4736		-3.906250
4737		0.000000
4738		-1.953125
4739		1.953125
4740		1.953125
4741		7.812500
4742		0.000000
4743		11.718750
4744		1.953125
4745		13.671875
4746		5.859375
4747		15.625000
4748		11.718750
4749		15.625000
4750		13.671875
4751		17.578125
4752		15.625000
4753		19.531250
4754		19.531250
4755		23.437500
4756		21.484375
4757		25.390625
4758		23.437500
4759		27.343750
4760		23.437500
4761		33.203125
4762		25.390625
4763		35.156250
4764		31.250000
4765		35.156250
4766		33.203125
4767		37.109375
4768		35.156250
4769		39.062500
4770		37.109375
4771		41.015625
4772		39.062500
4773		42.968750
4774		41.015625
4775		44.921875
4776		42.968750
4777		48.828125
4778		42.968750
4779		50.781250
4780		46.875000
4781		48.828125
4782		48.828125
4783		50.781250
4784		48.828125
4785		52.734375
4786		50.781250
4787		54.687500
4788		52.734375
4789		54.687500
4790		52.734375
4791		56.640625
4792		54.687500
4793		58.593750
4794		54.687500
4795		60.546875
4796		54.687500
4797		60.546875
4798		56.640625
4799		60.546875
4800		58.593750
4801		60.546875
4802		58.593750
4803		60.546875
4804		58.593750
4805		62.500000
4806		58.593750
4807		62.500000
4808		60.546875
4809		62.500000
4810		58.593750
4811		62.500000
4812		60.546875
4813		62.500000
4814		60.546875
4815		62.500000
4816		60.546875
4817		62.500000
4818		58.593750
4819		62.500000
4820		58.593750
4821		62.500000
4822		58.593750
4823		60.546875
4824		56.640625
4825		60.546875
4826		56.640625
4827		58.593750
4828		56.640625
4829		58.593750
4830		54.687500
4831		58.593750
4832		54.687500
4833		56.640625
4834		52.734375
4835		54.687500
4836		50.781250
4837		54.687500
4838		48.828125
4839		52.734375
4840		48.828125
4841		50.781250
4842		46.875000
4843		50.781250
4844		44.921875
4845		48.828125
4846		42.968750
4847		46.875000
4848		41.015625
4849		44.921875
4850		39.062500
4851		42.968750
4852		37.109375
4853		41.015625
4854		35.156250
4855		39.062500
4856		33.203125
4857		37.109375
4858		29.296875
4859		35.156250
4860		27.343750
4861		33.203125
4862		25.390625
4863		29.296875
4864		23.437500
4865		27.343750
4866		19.531250
4867		25.390625
4868		17.578125
4869		23.437500
4870		15.625000
4871		19.531250
4872		13.671875
4873		17.578125
4874		9.765625
4875		15.625000
4876		7.812500
4877		13.671875
4878		5.859375
4879		9.765625
4880		3.906250
4881		7.812500
4882		0.000000
4883		3.906250
4884		-1.953125
4885		1.953125
4886		-3.906250
4887		0.000000
4888		-7.812500
4889		-1.953125
4890		-9.765625
4891		-5.859375
4892		-11.718750
4893		-7.812500
4894		-13.671875
4895		-9.765625
4896		-15.625000
4897		-11.718750
4898		-19.531250
4899		-13.671875
4900		-21.484375
4901		-15.625000
4902		-23.437500
4903		-19.531250
4904		-25.390625
4905		-21.484375
4906		-27.343750
4907		-23.437500
4908		-29.296875
4909		-25.390625
4910		-31.250000
4911		-25.390625
4912		-31.250000
4913		-27.343750
4914		-33.203125
4915		-29.296875
4916		-35.156250
4917		-31.250000
4918		-37.109375
4919		-33.203125
4920		-37.109375
4921		-35.156250
4922		-39.062500
4923		-35.156250
4924		-39.062500
4925		-37.109375
4926		-42.968750
4927		-35.156250
4928		-41.015625
4929		-37.109375
4930		-41.015625
4931		-37.109375
4932		-41.015625
4933		-39.062500
4934		-42.968750
4935		-39.062500
4936		-41.015625
4937		-39.062500
4938		-41.015625
4939		-39.062500
4940		-41.015625
4941		-39.062500
4942		-42.968750
4943		-37.109375
4944		-41.015625
4945		-39.062500
4946		-41.015625
4947		-39.062500
4948		-39.062500
4949		-37.109375
4950		-41.015625
4951		-35.156250
4952		-39.062500
4953		-35.156250
4954		-37.109375
4955		-35.156250
4956		-37.109375
4957		-33.203125
4958		-35.156250
4959		-31.250000
4960		-35.156250
4961		-29.296875
4962		-33.203125
4963		-29.296875
4964		-31.250000
4965		-27.343750
4966		-29.296875
4967		-25.390625
4968		-27.343750
4969		-23.437500
4970		-25.390625
4971		-21.484375
4972		-23.437500
4973		-19.531250
4974		-21.484375
4975		-17.578125
4976		-19.531250
4977		-13.671875
4978		-17.578125
4979		-11.718750
4980		-13.671875
4981		-9.765625
4982		-11.718750
4983		-5.859375
4984		-9.765625
4985		-3.906250
4986		-5.859375
4987		-3.906250
4988		-3.906250
4989		0.000000
4990		-1.953125
4991		1.953125
4992		0.000000
4993		7.812500
4994		1.953125
4995		7.812500
4996		5.859375
4997		9.765625
4998		7.812500
4999		11.718750
5000		9.765625
5001		15.625000
5002		11.718750
5003		17.578125
5004		15.625000
5005		19.531250
5006		17.578125
5007		21.484375
5008		21.484375
5009		25.390625
5010		21.484375
5011		27.343750
5012		25.390625
5013		29.296875
5014		27.343750
5015		31.250000
5016		31.250000
5017		35.156250
5018		31.250000
5019		37.109375
5020		35.156250
5021		39.062500
5022		37.109375
5023		41.015625
5024		39.062500
5025		42.968750
5026		41.015625
5027		44.921875
5028		41.015625
5029		46.875000
5030		44.921875
5031		48.828125
5032		46.875000
5033		48.828125
5034		46.875000
5035		52.734375
5036		48.828125
5037		52.734375
5038		50.781250
5039		54.687500
5040		52.734375
5041		54.687500
5042		52.734375
5043		56.640625
5044		54.687500
5045		56.640625
5046		54.687500
5047		58.593750
5048		56.640625
5049		58.593750
5050		56.640625
5051		60.546875
5052		58.593750
5053		60.546875
5054		58.593750
5055		60.546875
5056		58.593750
5057		62.500000
5058		60.546875
5059		62.500000
5060		58.593750
5061		62.500000
5062		58.593750
5063		62.500000
5064		60.546875
5065		62.500000
5066		60.546875
5067		62.500000
5068		60.546875
5069		62.500000
5070		60.546875
5071		62.500000
5072		58.593750
5073		62.500000
5074		58.593750
5075		62.500000
5076		58.593750
5077		60.546875
5078		58.593750
5079		60.546875
5080		56.640625
5081		58.593750
5082		56.640625
5083		58.593750
5084		54.687500
5085		58.593750
5086		54.687500
5087		56.640625
5088		52.734375
5089		54.687500
5090		50.781250
5091		54.687500
5092		48.828125
5093		52.734375
5094		48.828125
5095		50.781250
5096		46.875000
5097		50.781250
5098		44.921875
5099		48.828125
5100		42.968750
5101		46.875000
5102		41.015625
5103		44.921875
5104		39.062500
5105		42.968750
5106		37.109375
5107		41.015625
5108		35.156250
5109		39.062500
5110		33.203125
5111		37.109375
5112		29.296875
5113		33.203125
5114		27.343750
5115		31.250000
5116		25.390625
5117		29.296875
5118		23.437500
5119		27.343750
5120		21.484375
5121		23.437500
5122		17.578125
5123		21.484375
5124		15.625000
5125		19.531250
5126		13.671875
5127		17.578125
5128		9.765625
5129		13.671875
5130		7.812500
5131		11.718750
5132		5.859375
5133		9.765625
5134		1.953125
5135		5.859375
5136		0.000000
5137		3.906250
5138		-1.953125
5139		1.953125
5140		-5.859375
5141		-1.953125
5142		-7.812500
5143		-3.906250
5144		-9.765625
5145		-5.859375
5146		-11.718750
5147		-7.812500
5148		-15.625000
5149		-11.718750
5150		-17.578125
5151		-13.671875
5152		-19.531250
5153		-15.625000
5154		-21.484375
5155		-17.578125
5156		-23.437500
5157		-19.531250
5158		-25.390625
5159		-21.484375
5160		-27.343750
5161		-23.437500
5162		-29.296875
5163		-23.437500
5164		-31.250000
5165		-27.343750
5166		-33.203125
5167		-29.296875
5168		-33.203125
5169		-31.250000
5170		-35.156250
5171		-31.250000
5172		-37.109375
5173		-33.203125
5174		-37.109375
5175		-33.203125
5176		-39.062500
5177		-35.156250
5178		-41.015625
5179		-35.156250
5180		-41.015625
5181		-37.109375
5182		-41.015625
5183		-39.062500
5184		-41.015625
5185		-39.062500
5186		-41.015625
5187		-39.062500
5188		-41.015625
5189		-39.062500
5190		-41.015625
5191		-39.062500
5192		-41.015625
5193		-39.062500
5194		-42.968750
5195		-37.109375
5196		-42.968750
5197		-37.109375
5198		-41.015625
5199		-39.062500
5200		-41.015625
5201		-37.109375
5202		-39.062500
5203		-37.109375
5204		-39.062500
5205		-35.156250
5206		-37.109375
5207		-35.156250
5208		-37.109375
5209		-33.203125
5210		-35.156250
5211		-33.203125
5212		-35.156250
5213		-29.296875
5214		-33.203125
5215		-29.296875
5216		-31.250000
5217		-27.343750
5218		-29.296875
5219		-25.390625
5220		-27.343750
5221		-23.437500
5222		-25.390625
5223		-21.484375
5224		-23.437500
5225		-19.531250
5226		-21.484375
5227		-17.578125
5228		-21.484375
5229		-13.671875
5230		-19.531250
5231		-11.718750
5232		-15.625000
5233		-11.718750
5234		-13.671875
5235		-9.765625
5236		-9.765625
5237		-5.859375
5238		-7.812500
5239		-3.906250
5240		-5.859375
5241		-1.953125
5242		-3.906250
5243		0.000000
5244		-1.953125
5245		3.906250
5246		0.000000
5247		7.812500
5248		1.953125
5249		7.812500
5250		7.812500
5251		11.718750
5252		9.765625
5253		13.671875
5254		11.718750
5255		15.625000
5256		13.671875
5257		19.531250
5258		17.578125
5259		21.484375
5260		19.531250
5261		23.437500
5262		19.531250
5263		27.343750
5264		23.437500
5265		29.296875
5266		27.343750
5267		31.250000
5268		29.296875
5269		33.203125
5270		31.250000
5271		35.156250
5272		33.203125
5273		37.109375
5274		35.156250
5275		39.062500
5276		37.109375
5277		41.015625
5278		39.062500
5279		44.921875
5280		39.062500
5281		46.875000
5282		42.968750
5283		46.875000
5284		44.921875
5285		48.828125
5286		46.875000
5287		50.781250
5288		48.828125
5289		52.734375
5290		50.781250
5291		52.734375
5292		50.781250
5293		54.687500
5294		52.734375
5295		56.640625
5296		52.734375
5297		58.593750
5298		52.734375
5299		60.546875
5300		56.640625
5301		58.593750
5302		56.640625
5303		60.546875
5304		58.593750
5305		60.546875
5306		58.593750
5307		62.500000
5308		58.593750
5309		62.500000
5310		60.546875
5311		62.500000
5312		58.593750
5313		64.453125
5314		58.593750
5315		64.453125
5316		60.546875
5317		62.500000
5318		60.546875
5319		62.500000
5320		60.546875
5321		64.453125
5322		60.546875
5323		62.500000
5324		60.546875
5325		62.500000
5326		60.546875
5327		62.500000
5328		58.593750
5329		62.500000
5330		56.640625
5331		62.500000
5332		56.640625
5333		62.500000
5334		56.640625
5335		60.546875
5336		56.640625
5337		58.593750
5338		54.687500
5339		58.593750
5340		52.734375
5341		56.640625
5342		52.734375
5343		54.687500
5344		50.781250
5345		54.687500
5346		48.828125
5347		54.687500
5348		46.875000
5349		52.734375
5350		46.875000
5351		48.828125
5352		44.921875
5353		46.875000
5354		41.015625
5355		46.875000
5356		41.015625
5357		44.921875
5358		39.062500
5359		41.015625
5360		37.109375
5361		39.062500
5362		33.203125
5363		37.109375
5364		31.250000
5365		37.109375
5366		29.296875
5367		35.156250
5368		27.343750
5369		31.250000
5370		25.390625
5371		29.296875
5372		21.484375
5373		25.390625
5374		19.531250
5375		23.437500
5376		17.578125
5377		21.484375
5378		15.625000
5379		19.531250
5380		11.718750
5381		17.578125
5382		9.765625
5383		13.671875
5384		7.812500
5385		11.718750
5386		3.906250
5387		7.812500
5388		1.953125
5389		5.859375
5390		0.000000
5391		3.906250
5392		-3.906250
5393		1.953125
5394		-5.859375
5395		-1.953125
5396		-7.812500
5397		-3.906250
5398		-11.718750
5399		-5.859375
5400		-13.671875
5401		-7.812500
5402		-15.625000
5403		-11.718750
5404		-17.578125
5405		-13.671875
5406		-19.531250
5407		-15.625000
5408		-21.484375
5409		-17.578125
5410		-23.437500
5411		-19.531250
5412		-25.390625
5413		-21.484375
5414		-27.343750
5415		-23.437500
5416		-29.296875
5417		-25.390625
5418		-31.250000
5419		-27.343750
5420		-33.203125
5421		-29.296875
5422		-33.203125
5423		-31.250000
5424		-35.156250
5425		-31.250000
5426		-37.109375
5427		-33.203125
5428		-37.109375
5429		-35.156250
5430		-39.062500
5431		-35.156250
5432		-39.062500
5433		-37.109375
5434		-39.062500
5435		-37.109375
5436		-41.015625
5437		-37.109375
5438		-41.015625
5439		-39.062500
5440		-41.015625
5441		-39.062500
5442		-41.015625
5443		-39.062500
5444		-41.015625
5445		-39.062500
5446		-41.015625
5447		-39.062500
5448		-41.015625
5449		-39.062500
5450		-41.015625
5451		-39.062500
5452		-41.015625
5453		-37.109375
5454		-39.062500
5455		-37.109375
5456		-39.062500
5457		-35.156250
5458		-37.109375
5459		-35.156250
5460		-37.109375
5461		-33.203125
5462		-35.156250
5463		-33.203125
5464		-35.156250
5465		-31.250000
5466		-33.203125
5467		-29.296875
5468		-31.250000
5469		-27.343750
5470		-29.296875
5471		-27.343750
5472		-27.343750
5473		-25.390625
5474		-27.343750
5475		-23.437500
5476		-23.437500
5477		-21.484375
5478		-21.484375
5479		-19.531250
5480		-21.484375
5481		-17.578125
5482		-17.578125
5483		-13.671875
5484		-15.625000
5485		-11.718750
5486		-13.671875
5487		-9.765625
5488		-11.718750
5489		-7.812500
5490		-9.765625
5491		-3.906250
5492		-7.812500
5493		-1.953125
5494		-3.906250
5495		0.000000
5496		-1.953125
5497		1.953125
5498		0.000000
5499		5.859375
5500		3.906250
5501		7.812500
5502		5.859375
5503		9.765625
5504		7.812500
5505		11.718750
5506		11.718750
5507		15.625000
5508		13.671875
5509		17.578125
5510		15.625000
5511		19.531250
5512		17.578125
5513		21.484375
5514		21.484375
5515		25.390625
5516		23.437500
5517		27.343750
5518		25.390625
5519		29.296875
5520		27.343750
5521		31.250000
5522		31.250000
5523		35.156250
5524		33.203125
5525		37.109375
5526		35.156250
5527		39.062500
5528		37.109375
5529		41.015625
5530		39.062500
5531		42.968750
5532		41.015625
5533		44.921875
5534		42.968750
5535		46.875000
5536		44.921875
5537		48.828125
5538		46.875000
5539		48.828125
5540		48.828125
5541		50.781250
5542		48.828125
5543		52.734375
5544		50.781250
5545		54.687500
5546		52.734375
5547		54.687500
5548		54.687500
5549		56.640625
5550		54.687500
5551		58.593750
5552		56.640625
5553		58.593750
5554		56.640625
5555		60.546875
5556		58.593750
5557		60.546875
5558		58.593750
5559		60.546875
5560		58.593750
5561		62.500000
5562		60.546875
5563		62.500000
5564		60.546875
5565		62.500000
5566		60.546875
5567		62.500000
5568		60.546875
5569		64.453125
5570		60.546875
5571		64.453125
5572		60.546875
5573		64.453125
5574		60.546875
5575		62.500000
5576		60.546875
5577		62.500000
5578		60.546875
5579		62.500000
5580		60.546875
5581		62.500000
5582		58.593750
5583		62.500000
5584		58.593750
5585		62.500000
5586		58.593750
5587		60.546875
5588		56.640625
5589		58.593750
5590		54.687500
5591		58.593750
5592		54.687500
5593		56.640625
5594		52.734375
5595		56.640625
5596		52.734375
5597		54.687500
5598		50.781250
5599		52.734375
5600		48.828125
5601		52.734375
5602		46.875000
5603		50.781250
5604		44.921875
5605		48.828125
5606		42.968750
5607		46.875000
5608		41.015625
5609		44.921875
5610		39.062500
5611		42.968750
5612		37.109375
5613		41.015625
5614		35.156250
5615		39.062500
5616		33.203125
5617		37.109375
5618		31.250000
5619		35.156250
5620		29.296875
5621		33.203125
5622		27.343750
5623		31.250000
5624		23.437500
5625		27.343750
5626		21.484375
5627		25.390625
5628		19.531250
5629		23.437500
5630		15.625000
5631		21.484375
5632		13.671875
5633		17.578125
5634		11.718750
5635		15.625000
5636		9.765625
5637		13.671875
5638		5.859375
5639		9.765625
5640		3.906250
5641		7.812500
5642		0.000000
5643		5.859375
5644		-1.953125
5645		1.953125
5646		-3.906250
5647		0.000000
5648		-5.859375
5649		-1.953125
5650		-9.765625
5651		-5.859375
5652		-11.718750
5653		-7.812500
5654		-13.671875
5655		-9.765625
5656		-15.625000
5657		-11.718750
5658		-17.578125
5659		-13.671875
5660		-19.531250
5661		-15.625000
5662		-23.437500
5663		-19.531250
5664		-25.390625
5665		-21.484375
5666		-27.343750
5667		-23.437500
5668		-29.296875
5669		-25.390625
5670		-29.296875
5671		-27.343750
5672		-31.250000
5673		-29.296875
5674		-33.203125
5675		-29.296875
5676		-35.156250
5677		-31.250000
5678		-35.156250
5679		-33.203125
5680		-37.109375
5681		-33.203125
5682		-37.109375
5683		-35.156250
5684		-39.062500
5685		-35.156250
5686		-39.062500
5687		-37.109375
5688		-41.015625
5689		-37.109375
5690		-41.015625
5691		-37.109375
5692		-41.015625
5693		-39.062500
5694		-41.015625
5695		-39.062500
5696		-41.015625
5697		-39.062500
5698		-41.015625
5699		-39.062500
5700		-41.015625
5701		-39.062500
5702		-41.015625
5703		-39.062500
5704		-41.015625
5705		-39.062500
5706		-39.062500
5707		-37.109375
5708		-39.062500
5709		-37.109375
5710		-39.062500
5711		-35.156250
5712		-37.109375
5713		-35.156250
5714		-37.109375
5715		-33.203125
5716		-35.156250
5717		-33.203125
5718		-35.156250
5719		-31.250000
5720		-33.203125
5721		-29.296875
5722		-31.250000
5723		-27.343750
5724		-29.296875
5725		-25.390625
5726		-27.343750
5727		-23.437500
5728		-25.390625
5729		-23.437500
5730		-23.437500
5731		-19.531250
5732		-21.484375
5733		-17.578125
5734		-19.531250
5735		-15.625000
5736		-17.578125
5737		-13.671875
5738		-15.625000
5739		-11.718750
5740		-13.671875
5741		-9.765625
5742		-11.718750
5743		-5.859375
5744		-7.812500
5745		-3.906250
5746		-5.859375
5747		-1.953125
5748		-3.906250
5749		0.000000
5750		-1.953125
5751		3.906250
5752		0.000000
5753		5.859375
5754		3.906250
5755		7.812500
5756		5.859375
5757		9.765625
5758		7.812500
5759		13.671875
5760		11.718750
5761		15.625000
5762		13.671875
5763		17.578125
5764		15.625000
5765		21.484375
5766		19.531250
5767		23.437500
5768		21.484375
5769		25.390625
5770		23.437500
5771		27.343750
5772		25.390625
5773		29.296875
5774		29.296875
5775		33.203125
5776		31.250000
5777		35.156250
5778		33.203125
5779		37.109375
5780		35.156250
5781		39.062500
5782		37.109375
5783		41.015625
5784		39.062500
5785		42.968750
5786		41.015625
5787		44.921875
5788		42.968750
5789		46.875000
5790		44.921875
5791		48.828125
5792		46.875000
5793		50.781250
5794		48.828125
5795		50.781250
5796		48.828125
5797		52.734375
5798		50.781250
5799		54.687500
5800		52.734375
5801		54.687500
5802		54.687500
5803		56.640625
5804		54.687500
5805		58.593750
5806		56.640625
5807		58.593750
5808		56.640625
5809		60.546875
5810		58.593750
5811		60.546875
5812		58.593750
5813		60.546875
5814		58.593750
5815		60.546875
5816		60.546875
5817		62.500000
5818		60.546875
5819		62.500000
5820		60.546875
5821		62.500000
5822		60.546875
5823		62.500000
5824		60.546875
5825		62.500000
5826		60.546875
5827		62.500000
5828		60.546875
5829		62.500000
5830		60.546875
5831		62.500000
5832		58.593750
5833		62.500000
5834		58.593750
5835		62.500000
5836		58.593750
5837		60.546875
5838		58.593750
5839		60.546875
5840		56.640625
5841		60.546875
5842		56.640625
5843		58.593750
5844		54.687500
5845		58.593750
5846		52.734375
5847		56.640625
5848		52.734375
5849		54.687500
5850		50.781250
5851		54.687500
5852		48.828125
5853		52.734375
5854		48.828125
5855		50.781250
5856		46.875000
5857		48.828125
5858		44.921875
5859		46.875000
5860		42.968750
5861		46.875000
5862		41.015625
5863		44.921875
5864		39.062500
5865		42.968750
5866		37.109375
5867		41.015625
5868		35.156250
5869		39.062500
5870		33.203125
5871		35.156250
5872		29.296875
5873		33.203125
5874		27.343750
5875		31.250000
5876		25.390625
5877		29.296875
5878		23.437500
5879		27.343750
5880		19.531250
5881		23.437500
5882		17.578125
5883		21.484375
5884		15.625000
5885		19.531250
5886		11.718750
5887		17.578125
5888		9.765625
5889		13.671875
5890		7.812500
5891		11.718750
5892		5.859375
5893		9.765625
5894		1.953125
5895		5.859375
5896		0.000000
5897		3.906250
5898		-3.906250
5899		0.000000
5900		-5.859375
5901		-1.953125
5902		-7.812500
5903		-3.906250
5904		-9.765625
5905		-5.859375
5906		-11.718750
5907		-7.812500
5908		-15.625000
5909		-11.718750
5910		-17.578125
5911		-13.671875
5912		-19.531250
5913		-15.625000
5914		-21.484375
5915		-17.578125
5916		-23.437500
5917		-19.531250
5918		-25.390625
5919		-21.484375
5920		-27.343750
5921		-23.437500
5922		-29.296875
5923		-25.390625
5924		-31.250000
5925		-27.343750
5926		-33.203125
5927		-29.296875
5928		-35.156250
5929		-31.250000
5930		-35.156250
5931		-31.250000
5932		-37.109375
5933		-33.203125
5934		-37.109375
5935		-35.156250
5936		-39.062500
5937		-35.156250
5938		-39.062500
5939		-37.109375
5940		-41.015625
5941		-37.109375
5942		-41.015625
5943		-39.062500
5944		-41.015625
5945		-39.062500
5946		-41.015625
5947		-39.062500
5948		-41.015625
5949		-39.062500
5950		-42.968750
5951		-39.062500
5952		-42.968750
5953		-39.062500
5954		-41.015625
5955		-39.062500
5956		-41.015625
5957		-39.062500
5958		-41.015625
5959		-39.062500
5960		-41.015625
5961		-37.109375
5962		-39.062500
5963		-37.109375
5964		-39.062500
5965		-35.156250
5966		-37.109375
5967		-35.156250
5968		-37.109375
5969		-33.203125
5970		-35.156250
5971		-31.250000
5972		-33.203125
5973		-29.296875
5974		-31.250000
5975		-29.296875
5976		-31.250000
5977		-27.343750
5978		-29.296875
5979		-25.390625
5980		-27.343750
5981		-23.437500
5982		-25.390625
5983		-21.484375
5984		-23.437500
5985		-19.531250
5986		-21.484375
5987		-17.578125
5988		-19.531250
5989		-15.625000
5990		-17.578125
5991		-13.671875
5992		-13.671875
5993		-11.718750
5994		-11.718750
5995		-7.812500
5996		-9.765625
5997		-5.859375
5998		-7.812500
5999		-3.906250
6000		-5.859375
6001		-1.953125
6002		-1.953125
6003		1.953125
6004		0.000000
6005		3.906250
6006		1.953125
6007		5.859375
6008		3.906250
6009		9.765625
6010		7.812500
6011		11.718750
6012		9.765625
6013		13.671875
6014		11.718750
6015		15.625000
6016		15.625000
6017		19.531250
6018		17.578125
6019		21.484375
6020		19.531250
6021		23.437500
6022		23.437500
6023		27.343750
6024		25.390625
6025		29.296875
6026		27.343750
6027		31.250000
6028		29.296875
6029		33.203125
6030		31.250000
6031		35.156250
6032		33.203125
6033		37.109375
6034		35.156250
6035		41.015625
6036		39.062500
6037		41.015625
6038		41.015625
6039		42.968750
6040		42.968750
6041		44.921875
6042		42.968750
6043		46.875000
6044		44.921875
6045		48.828125
6046		46.875000
6047		50.781250
6048		48.828125
6049		52.734375
6050		50.781250
6051		52.734375
6052		52.734375
6053		54.687500
6054		52.734375
6055		56.640625
6056		54.687500
6057		56.640625
6058		54.687500
6059		58.593750
6060		56.640625
6061		58.593750
6062		56.640625
6063		60.546875
6064		58.593750
6065		60.546875
6066		58.593750
6067		62.500000
6068		60.546875
6069		62.500000
6070		60.546875
6071		62.500000
6072		60.546875
6073		62.500000
6074		60.546875
6075		62.500000
6076		60.546875
6077		62.500000
6078		60.546875
6079		62.500000
6080		60.546875
6081		62.500000
6082		60.546875
6083		62.500000
6084		60.546875
6085		62.500000
6086		60.546875
6087		62.500000
6088		58.593750
6089		62.500000
6090		58.593750
6091		60.546875
6092		58.593750
6093		60.546875
6094		56.640625
6095		60.546875
6096		56.640625
6097		58.593750
6098		54.687500
6099		56.640625
6100		52.734375
6101		56.640625
6102		52.734375
6103		54.687500
6104		50.781250
6105		54.687500
6106		48.828125
6107		52.734375
6108		46.875000
6109		50.781250
6110		46.875000
6111		48.828125
6112		44.921875
6113		46.875000
6114		42.968750
6115		44.921875
6116		39.062500
6117		44.921875
6118		37.109375
6119		41.015625
6120		35.156250
6121		39.062500
6122		33.203125
6123		37.109375
6124		31.250000
6125		35.156250
6126		29.296875
6127		33.203125
6128		27.343750
6129		31.250000
6130		23.437500
6131		29.296875
6132		21.484375
6133		25.390625
6134		19.531250
6135		23.437500
6136		17.578125
6137		21.484375
6138		13.671875
6139		19.531250
6140		11.718750
6141		15.625000
6142		9.765625
6143		13.671875
6144		5.859375
6145		9.765625
6146		3.906250
6147		7.812500
6148		1.953125
6149		5.859375
6150		0.000000
6151		3.906250
6152		-3.906250
6153		0.000000
6154		-5.859375
6155		-1.953125
6156		-7.812500
6157		-3.906250
6158		-11.718750
6159		-7.812500
6160		-13.671875
6161		-9.765625
6162		-15.625000
6163		-11.718750
6164		-17.578125
6165		-13.671875
6166		-19.531250
6167		-15.625000
6168		-21.484375
6169		-17.578125
6170		-23.437500
6171		-21.484375
6172		-25.390625
6173		-23.437500
6174		-29.296875
6175		-25.390625
6176		-29.296875
6177		-25.390625
6178		-31.250000
6179		-27.343750
6180		-33.203125
6181		-29.296875
6182		-35.156250
6183		-31.250000
6184		-35.156250
6185		-33.203125
6186		-37.109375
6187		-33.203125
6188		-37.109375
6189		-35.156250
6190		-41.015625
6191		-35.156250
6192		-39.062500
6193		-37.109375
6194		-41.015625
6195		-37.109375
6196		-41.015625
6197		-39.062500
6198		-41.015625
6199		-39.062500
6200		-41.015625
6201		-39.062500
6202		-41.015625
6203		-39.062500
6204		-41.015625
6205		-39.062500
6206		-41.015625
6207		-39.062500
6208		-41.015625
6209		-39.062500
6210		-41.015625
6211		-37.109375
6212		-41.015625
6213		-37.109375
6214		-39.062500
6215		-37.109375
6216		-39.062500
6217		-37.109375
6218		-37.109375
6219		-35.156250
6220		-37.109375
6221		-33.203125
6222		-37.109375
6223		-33.203125
6224		-35.156250
6225		-29.296875
6226		-33.203125
6227		-29.296875
6228		-33.203125
6229		-25.390625
6230		-29.296875
6231		-27.343750
6232		-27.343750
6233		-25.390625
6234		-27.343750
6235		-23.437500
6236		-25.390625
6237		-21.484375
6238		-23.437500
6239		-19.531250
6240		-21.484375
6241		-15.625000
6242		-19.531250
6243		-15.625000
6244		-15.625000
6245		-11.718750
6246		-15.625000
6247		-9.765625
6248		-11.718750
6249		-5.859375
6250		-9.765625
6251		-5.859375
6252		-7.812500
6253		-1.953125
6254		-3.906250
6255		0.000000
6256		-1.953125
6257		1.953125
6258		-1.953125
6259		5.859375
6260		1.953125
6261		7.812500
6262		5.859375
6263		11.718750
6264		7.812500
6265		11.718750
6266		7.812500
6267		15.625000
6268		13.671875
6269		17.578125
6270		15.625000
6271		19.531250
6272		15.625000
6273		23.437500
6274		19.531250
6275		27.343750
6276		21.484375
6277		27.343750
6278		25.390625
6279		29.296875
6280		25.390625
6281		31.250000
6282		29.296875
6283		37.109375
6284		33.203125
6285		37.109375
6286		35.156250
6287		37.109375
6288		37.109375
6289		42.968750
6290		35.156250
6291		44.921875
6292		41.015625
6293		44.921875
6294		41.015625
6295		46.875000
6296		42.968750
6297		48.828125
6298		46.875000
6299		48.828125
6300		46.875000
6301		52.734375
6302		48.828125
6303		52.734375
6304		50.781250
6305		54.687500
6306		50.781250
6307		58.593750
6308		50.781250
6309		56.640625
6310		52.734375
6311		58.593750
6312		54.687500
6313		60.546875
6314		54.687500
6315		62.500000
6316		52.734375
6317		62.500000
6318		58.593750
6319		60.546875
6320		58.593750
6321		62.500000
6322		58.593750
6323		62.500000
6324		56.640625
6325		64.453125
6326		58.593750
6327		62.500000
6328		60.546875
6329		64.453125
6330		58.593750
6331		66.406250
6332		56.640625
6333		66.406250
6334		60.546875
6335		62.500000
6336		60.546875
6337		62.500000
6338		58.593750
6339		64.453125
6340		56.640625
6341		66.406250
6342		56.640625
6343		62.500000
6344		58.593750
6345		60.546875
6346		54.687500
6347		62.500000
6348		52.734375
6349		62.500000
6350		52.734375
6351		62.500000
6352		52.734375
6353		56.640625
6354		50.781250
6355		54.687500
6356		48.828125
6357		56.640625
6358		46.875000
6359		56.640625
6360		48.828125
6361		52.734375
6362		44.921875
6363		48.828125
6364		41.015625
6365		50.781250
6366		39.062500
6367		48.828125
6368		41.015625
6369		44.921875
6370		39.062500
6371		42.968750
6372		35.156250
6373		41.015625
6374		33.203125
6375		41.015625
6376		31.250000
6377		37.109375
6378		31.250000
6379		35.156250
6380		25.390625
6381		35.156250
6382		23.437500
6383		31.250000
6384		21.484375
6385		31.250000
6386		19.531250
6387		25.390625
6388		17.578125
6389		21.484375
6390		13.671875
6391		21.484375
6392		11.718750
6393		17.578125
6394		9.765625
6395		13.671875
6396		3.906250
6397		11.718750
6398		3.906250
6399		13.671875
6400		0.000000
6401		9.765625
6402		0.000000
6403		3.906250
6404		-1.953125
6405		1.953125
6406		-5.859375
6407		0.000000
6408		-9.765625
6409		0.000000
6410		-9.765625
6411		-5.859375
6412		-13.671875
6413		-7.812500
6414		-17.578125
6415		-7.812500
6416		-19.531250
6417		-11.718750
6418		-19.531250
6419		-15.625000
6420		-21.484375
6421		-17.578125
6422		-25.390625
6423		-19.531250
6424		-29.296875
6425		-19.531250
6426		-27.343750
6427		-21.484375
6428		-29.296875
6429		-25.390625
6430		-33.203125
6431		-25.390625
6432		-35.156250
6433		-25.390625
6434		-35.156250
6435		-27.343750
6436		-35.156250
6437		-31.250000
6438		-37.109375
6439		-33.203125
6440		-41.015625
6441		-31.250000
6442		-41.015625
6443		-33.203125
6444		-39.062500
6445		-35.156250
6446		-41.015625
6447		-37.109375
6448		-42.968750
6449		-35.156250
6450		-42.968750
6451		-37.109375
6452		-41.015625
6453		-39.062500
6454		-41.015625
6455		-39.062500
6456		-42.968750
6457		-37.109375
6458		-44.921875
6459		-37.109375
6460		-42.968750
6461		-37.109375
6462		-41.015625
6463		-39.062500
6464		-42.968750
6465		-35.156250
6466		-42.968750
6467		-35.156250
6468		-42.968750
6469		-35.156250
6470		-39.062500
6471		-35.156250
6472		-37.109375
6473		-35.156250
6474		-37.109375
6475		-31.250000
6476		-37.109375
6477		-31.250000
6478		-33.203125
6479		-31.250000
6480		-33.203125
6481		-27.343750
6482		-35.156250
6483		-25.390625
6484		-31.250000
6485		-23.437500
6486		-27.343750
6487		-25.390625
6488		-25.390625
6489		-21.484375
6490		-25.390625
6491		-19.531250
6492		-23.437500
6493		-15.625000
6494		-21.484375
6495		-15.625000
6496		-17.578125
6497		-13.671875
6498		-15.625000
6499		-11.718750
6500		-13.671875
6501		-5.859375
6502		-11.718750
6503		-5.859375
6504		-7.812500
6505		-3.906250
6506		-5.859375
6507		-1.953125
6508		-5.859375
6509		3.906250
6510		-1.953125
6511		3.906250
6512		1.953125
6513		5.859375
6514		3.906250
6515		9.765625
6516		5.859375
6517		11.718750
6518		9.765625
6519		13.671875
6520		11.718750
6521		15.625000
6522		13.671875
6523		17.578125
6524		17.578125
6525		21.484375
6526		19.531250
6527		23.437500
6528		19.531250
6529		25.390625
6530		23.437500
6531		27.343750
6532		23.437500
6533		31.250000
6534		29.296875
6535		33.203125
6536		31.250000
6537		35.156250
6538		33.203125
6539		37.109375
6540		35.156250
6541		39.062500
6542		37.109375
6543		41.015625
6544		39.062500
6545		42.968750
6546		41.015625
6547		44.921875
6548		42.968750
6549		46.875000
6550		44.921875
6551		48.828125
6552		46.875000
6553		50.781250
6554		48.828125
6555		50.781250
6556		50.781250
6557		52.734375
6558		50.781250
6559		54.687500
6560		52.734375
6561		54.687500
6562		54.687500
6563		58.593750
6564		54.687500
6565		58.593750
6566		56.640625
6567		58.593750
6568		56.640625
6569		60.546875
6570		58.593750
6571		60.546875
6572		58.593750
6573		60.546875
6574		58.593750
6575		62.500000
6576		58.593750
6577		62.500000
6578		58.593750
6579		64.453125
6580		58.593750
6581		64.453125
6582		58.593750
6583		64.453125
6584		60.546875
6585		64.453125
6586		60.546875
6587		62.500000
6588		60.546875
6589		62.500000
6590		58.593750
6591		64.453125
6592		58.593750
6593		64.453125
6594		58.593750
6595		62.500000
6596		56.640625
6597		62.500000
6598		56.640625
6599		60.546875
6600		56.640625
6601		60.546875
6602		54.687500
6603		60.546875
6604		54.687500
6605		58.593750
6606		52.734375
6607		56.640625
6608		50.781250
6609		56.640625
6610		48.828125
6611		54.687500
6612		48.828125
6613		54.687500
6614		46.875000
6615		52.734375
6616		44.921875
6617		50.781250
6618		42.968750
6619		48.828125
6620		42.968750
6621		46.875000
6622		41.015625
6623		44.921875
6624		37.109375
6625		42.968750
6626		35.156250
6627		41.015625
6628		33.203125
6629		39.062500
6630		31.250000
6631		37.109375
6632		29.296875
6633		35.156250
6634		27.343750
6635		33.203125
6636		25.390625
6637		29.296875
6638		23.437500
6639		25.390625
6640		19.531250
6641		23.437500
6642		17.578125
6643		21.484375
6644		13.671875
6645		19.531250
6646		9.765625
6647		17.578125
6648		9.765625
6649		13.671875
6650		5.859375
6651		11.718750
6652		3.906250
6653		9.765625
6654		1.953125
6655		5.859375
6656		0.000000
6657		3.906250
6658		-3.906250
6659		1.953125
6660		-5.859375
6661		0.000000
6662		-9.765625
6663		-1.953125
6664		-11.718750
6665		-3.906250
6666		-13.671875
6667		-9.765625
6668		-15.625000
6669		-11.718750
6670		-17.578125
6671		-13.671875
6672		-19.531250
6673		-15.625000
6674		-21.484375
6675		-17.578125
6676		-23.437500
6677		-19.531250
6678		-27.343750
6679		-21.484375
6680		-29.296875
6681		-23.437500
6682		-31.250000
6683		-25.390625
6684		-31.250000
6685		-27.343750
6686		-33.203125
6687		-29.296875
6688		-35.156250
6689		-31.250000
6690		-35.156250
6691		-33.203125
6692		-37.109375
6693		-33.203125
6694		-37.109375
6695		-35.156250
6696		-41.015625
6697		-35.156250
6698		-41.015625
6699		-33.203125
6700		-41.015625
6701		-37.109375
6702		-42.968750
6703		-37.109375
6704		-41.015625
6705		-39.062500
6706		-41.015625
6707		-39.062500
6708		-42.968750
6709		-39.062500
6710		-42.968750
6711		-39.062500
6712		-41.015625
6713		-39.062500
6714		-42.968750
6715		-37.109375
6716		-41.015625
6717		-37.109375
6718		-41.015625
6719		-37.109375
6720		-39.062500
6721		-37.109375
6722		-39.062500
6723		-37.109375
6724		-39.062500
6725		-35.156250
6726		-37.109375
6727		-33.203125
6728		-37.109375
6729		-33.203125
6730		-37.109375
6731		-29.296875
6732		-33.203125
6733		-29.296875
6734		-31.250000
6735		-29.296875
6736		-31.250000
6737		-27.343750
6738		-29.296875
6739		-25.390625
6740		-27.343750
6741		-23.437500
6742		-25.390625
6743		-21.484375
6744		-23.437500
6745		-19.531250
6746		-21.484375
6747		-17.578125
6748		-19.531250
6749		-13.671875
6750		-17.578125
6751		-11.718750
6752		-13.671875
6753		-9.765625
6754		-13.671875
6755		-7.812500
6756		-9.765625
6757		-5.859375
6758		-7.812500
6759		-1.953125
6760		-5.859375
6761		-1.953125
6762		-1.953125
6763		1.953125
6764		0.000000
6765		3.906250
6766		1.953125
6767		7.812500
6768		3.906250
6769		9.765625
6770		7.812500
6771		11.718750
6772		9.765625
6773		13.671875
6774		13.671875
6775		17.578125
6776		13.671875
6777		19.531250
6778		17.578125
6779		21.484375
6780		19.531250
6781		25.390625
6782		21.484375
6783		27.343750
6784		25.390625
6785		29.296875
6786		27.343750
6787		33.203125
6788		29.296875
6789		33.203125
6790		31.250000
6791		35.156250
6792		33.203125
6793		39.062500
6794		35.156250
6795		41.015625
6796		39.062500
6797		42.968750
6798		39.062500
6799		44.921875
6800		42.968750
6801		46.875000
6802		44.921875
6803		46.875000
6804		44.921875
6805		48.828125
6806		46.875000
6807		50.781250
6808		48.828125
6809		52.734375
6810		50.781250
6811		54.687500
6812		50.781250
6813		54.687500
6814		52.734375
6815		56.640625
6816		54.687500
6817		58.593750
6818		54.687500
6819		58.593750
6820		54.687500
6821		60.546875
6822		56.640625
6823		60.546875
6824		58.593750
6825		60.546875
6826		58.593750
6827		62.500000
6828		58.593750
6829		62.500000
6830		58.593750
6831		62.500000
6832		60.546875
6833		62.500000
6834		60.546875
6835		64.453125
6836		60.546875
6837		64.453125
6838		60.546875
6839		64.453125
6840		60.546875
6841		62.500000
6842		58.593750
6843		62.500000
6844		60.546875
6845		62.500000
6846		58.593750
6847		62.500000
6848		58.593750
6849		62.500000
6850		58.593750
6851		62.500000
6852		56.640625
6853		60.546875
6854		56.640625
6855		60.546875
6856		54.687500
6857		58.593750
6858		54.687500
6859		56.640625
6860		52.734375
6861		56.640625
6862		50.781250
6863		54.687500
6864		50.781250
6865		54.687500
6866		48.828125
6867		52.734375
6868		46.875000
6869		50.781250
6870		44.921875
6871		48.828125
6872		42.968750
6873		46.875000
6874		41.015625
6875		44.921875
6876		39.062500
6877		42.968750
6878		37.109375
6879		41.015625
6880		35.156250
6881		39.062500
6882		33.203125
6883		37.109375
6884		31.250000
6885		35.156250
6886		29.296875
6887		33.203125
6888		27.343750
6889		31.250000
6890		23.437500
6891		27.343750
6892		21.484375
6893		25.390625
6894		17.578125
6895		23.437500
6896		15.625000
6897		19.531250
6898		13.671875
6899		19.531250
6900		11.718750
6901		15.625000
6902		7.812500
6903		13.671875
6904		5.859375
6905		9.765625
6906		3.906250
6907		7.812500
6908		0.000000
6909		3.906250
6910		-1.953125
6911		3.906250
6912		-3.906250
6913		0.000000
6914		-7.812500
6915		-1.953125
6916		-9.765625
6917		-3.906250
6918		-11.718750
6919		-7.812500
6920		-13.671875
6921		-9.765625
6922		-15.625000
6923		-11.718750
6924		-17.578125
6925		-15.625000
6926		-21.484375
6927		-17.578125
6928		-23.437500
6929		-19.531250
6930		-25.390625
6931		-21.484375
6932		-27.343750
6933		-23.437500
6934		-29.296875
6935		-23.437500
6936		-29.296875
6937		-27.343750
6938		-31.250000
6939		-27.343750
6940		-33.203125
6941		-29.296875
6942		-35.156250
6943		-31.250000
6944		-37.109375
6945		-31.250000
6946		-37.109375
6947		-33.203125
6948		-39.062500
6949		-35.156250
6950		-39.062500
6951		-35.156250
6952		-39.062500
6953		-37.109375
6954		-41.015625
6955		-37.109375
6956		-41.015625
6957		-37.109375
6958		-41.015625
6959		-39.062500
6960		-42.968750
6961		-39.062500
6962		-41.015625
6963		-39.062500
6964		-42.968750
6965		-39.062500
6966		-41.015625
6967		-39.062500
6968		-41.015625
6969		-37.109375
6970		-41.015625
6971		-37.109375
6972		-41.015625
6973		-37.109375
6974		-39.062500
6975		-37.109375
6976		-39.062500
6977		-35.156250
6978		-39.062500
6979		-35.156250
6980		-37.109375
6981		-33.203125
6982		-35.156250
6983		-33.203125
6984		-35.156250
6985		-31.250000
6986		-33.203125
6987		-29.296875
6988		-31.250000
6989		-27.343750
6990		-29.296875
6991		-27.343750
6992		-27.343750
6993		-25.390625
6994		-27.343750
6995		-23.437500
6996		-23.437500
6997		-19.531250
6998		-21.484375
6999		-17.578125
7000		-19.531250
7001		-15.625000
7002		-19.531250
7003		-13.671875
7004		-15.625000
7005		-11.718750
7006		-13.671875
7007		-9.765625
7008		-11.718750
7009		-5.859375
7010		-7.812500
7011		-3.906250
7012		-5.859375
7013		-1.953125
7014		-3.906250
7015		0.000000
7016		-1.953125
7017		1.953125
7018		0.000000
7019		5.859375
7020		3.906250
7021		7.812500
7022		5.859375
7023		9.765625
7024		9.765625
7025		13.671875
7026		11.718750
7027		15.625000
7028		13.671875
7029		17.578125
7030		15.625000
7031		21.484375
7032		19.531250
7033		23.437500
7034		21.484375
7035		25.390625
7036		23.437500
7037		27.343750
7038		25.390625
7039		29.296875
7040		27.343750
7041		33.203125
7042		31.250000
7043		35.156250
7044		33.203125
7045		37.109375
7046		35.156250
7047		39.062500
7048		37.109375
7049		41.015625
7050		39.062500
7051		42.968750
7052		41.015625
7053		44.921875
7054		42.968750
7055		46.875000
7056		44.921875
7057		48.828125
7058		46.875000
7059		50.781250
7060		46.875000
7061		52.734375
7062		48.828125
7063		52.734375
7064		50.781250
7065		54.687500
7066		52.734375
7067		56.640625
7068		52.734375
7069		56.640625
7070		54.687500
7071		58.593750
7072		54.687500
7073		60.546875
7074		56.640625
7075		60.546875
7076		58.593750
7077		60.546875
7078		58.593750
7079		62.500000
7080		58.593750
7081		62.500000
7082		58.593750
7083		62.500000
7084		58.593750
7085		62.500000
7086		60.546875
7087		62.500000
7088		60.546875
7089		64.453125
7090		60.546875
7091		64.453125
7092		60.546875
7093		62.500000
7094		60.546875
7095		64.453125
7096		60.546875
7097		62.500000
7098		58.593750
7099		62.500000
7100		58.593750
7101		62.500000
7102		58.593750
7103		62.500000
7104		58.593750
7105		60.546875
7106		56.640625
7107		60.546875
7108		56.640625
7109		58.593750
7110		54.687500
7111		58.593750
7112		52.734375
7113		58.593750
7114		50.781250
7115		56.640625
7116		50.781250
7117		54.687500
7118		48.828125
7119		52.734375
7120		48.828125
7121		50.781250
7122		46.875000
7123		50.781250
7124		44.921875
7125		48.828125
7126		42.968750
7127		46.875000
7128		41.015625
7129		44.921875
7130		39.062500
7131		42.968750
7132		37.109375
7133		41.015625
7134		33.203125
7135		39.062500
7136		33.203125
7137		37.109375
7138		29.296875
7139		35.156250
7140		27.343750
7141		31.250000
7142		25.390625
7143		29.296875
7144		21.484375
7145		27.343750
7146		19.531250
7147		25.390625
7148		17.578125
7149		21.484375
7150		15.625000
7151		19.531250
7152		11.718750
7153		17.578125
7154		9.765625
7155		15.625000
7156		5.859375
7157		11.718750
7158		5.859375
7159		9.765625
7160		1.953125
7161		5.859375
7162		0.000000
7163		3.906250
7164		-1.953125
7165		1.953125
7166		-5.859375
7167		-1.953125
7168		-7.812500
7169		-3.906250
7170		-11.718750
7171		-5.859375
7172		-11.718750
7173		-7.812500
7174		-15.625000
7175		-9.765625
7176		-17.578125
7177		-13.671875
7178		-19.531250
7179		-15.625000
7180		-21.484375
7181		-17.578125
7182		-25.390625
7183		-19.531250
7184		-25.390625
7185		-21.484375
7186		-27.343750
7187		-23.437500
7188		-29.296875
7189		-25.390625
7190		-31.250000
7191		-27.343750
7192		-33.203125
7193		-29.296875
7194		-33.203125
7195		-31.250000
7196		-37.109375
7197		-31.250000
7198		-37.109375
7199		-33.203125
7200		-39.062500
7201		-35.156250
7202		-39.062500
7203		-35.156250
7204		-39.062500
7205		-37.109375
7206		-41.015625
7207		-37.109375
7208		-41.015625
7209		-37.109375
7210		-41.015625
7211		-39.062500
7212		-42.968750
7213		-39.062500
7214		-41.015625
7215		-39.062500
7216		-42.968750
7217		-39.062500
7218		-42.968750
7219		-39.062500
7220		-42.968750
7221		-39.062500
7222		-41.015625
7223		-39.062500
7224		-41.015625
7225		-37.109375
7226		-39.062500
7227		-37.109375
7228		-39.062500
7229		-35.156250
7230		-39.062500
7231		-35.156250
7232		-37.109375
7233		-35.156250
7234		-37.109375
7235		-33.203125
7236		-37.109375
7237		-31.250000
7238		-33.203125
7239		-29.296875
7240		-33.203125
7241		-27.343750
7242		-31.250000
7243		-27.343750
7244		-29.296875
7245		-25.390625
7246		-27.343750
7247		-23.437500
7248		-25.390625
7249		-21.484375
7250		-23.437500
7251		-19.531250
7252		-21.484375
7253		-17.578125
7254		-19.531250
7255		-15.625000
7256		-17.578125
7257		-13.671875
7258		-15.625000
7259		-11.718750
7260		-11.718750
7261		-9.765625
7262		-9.765625
7263		-5.859375
7264		-7.812500
7265		-3.906250
7266		-5.859375
7267		0.000000
7268		-3.906250
7269		1.953125
7270		0.000000
7271		3.906250
7272		1.953125
7273		5.859375
7274		3.906250
7275		9.765625
7276		7.812500
7277		11.718750
7278		9.765625
7279		13.671875
7280		11.718750
7281		17.578125
7282		13.671875
7283		19.531250
7284		17.578125
7285		21.484375
7286		19.531250
7287		23.437500
7288		21.484375
7289		25.390625
7290		23.437500
7291		29.296875
7292		25.390625
7293		31.250000
7294		29.296875
7295		33.203125
7296		31.250000
7297		35.156250
7298		33.203125
7299		37.109375
7300		35.156250
7301		39.062500
7302		37.109375
7303		42.968750
7304		39.062500
7305		42.968750
7306		41.015625
7307		44.921875
7308		42.968750
7309		46.875000
7310		44.921875
7311		48.828125
7312		46.875000
7313		50.781250
7314		48.828125
7315		52.734375
7316		48.828125
7317		54.687500
7318		50.781250
7319		54.687500
7320		52.734375
7321		56.640625
7322		54.687500
7323		58.593750
7324		54.687500
7325		58.593750
7326		56.640625
7327		60.546875
7328		56.640625
7329		60.546875
7330		58.593750
7331		62.500000
7332		58.593750
7333		62.500000
7334		60.546875
7335		62.500000
7336		60.546875
7337		62.500000
7338		60.546875
7339		64.453125
7340		60.546875
7341		64.453125
7342		60.546875
7343		64.453125
7344		60.546875
7345		62.500000
7346		60.546875
7347		64.453125
7348		60.546875
7349		64.453125
7350		60.546875
7351		62.500000
7352		58.593750
7353		62.500000
7354		58.593750
7355		62.500000
7356		58.593750
7357		62.500000
7358		58.593750
7359		60.546875
7360		56.640625
7361		60.546875
7362		56.640625
7363		58.593750
7364		54.687500
7365		58.593750
7366		52.734375
7367		56.640625
7368		50.781250
7369		56.640625
7370		50.781250
7371		54.687500
7372		48.828125
7373		52.734375
7374		46.875000
7375		50.781250
7376		44.921875
7377		50.781250
7378		44.921875
7379		46.875000
7380		42.968750
7381		46.875000
7382		41.015625
7383		44.921875
7384		37.109375
7385		42.968750
7386		35.156250
7387		41.015625
7388		33.203125
7389		39.062500
7390		31.250000
7391		35.156250
7392		29.296875
7393		33.203125
7394		27.343750
7395		31.250000
7396		25.390625
7397		29.296875
7398		21.484375
7399		27.343750
7400		19.531250
7401		23.437500
7402		17.578125
7403		21.484375
7404		13.671875
7405		19.531250
7406		11.718750
7407		15.625000
7408		7.812500
7409		13.671875
7410		7.812500
7411		11.718750
7412		3.906250
7413		7.812500
7414		1.953125
7415		5.859375
7416		0.000000
7417		3.906250
7418		-3.906250
7419		1.953125
7420		-5.859375
7421		-1.953125
7422		-7.812500
7423		-3.906250
7424		-9.765625
7425		-5.859375
7426		-13.671875
7427		-9.765625
7428		-15.625000
7429		-11.718750
7430		-19.531250
7431		-13.671875
7432		-19.531250
7433		-15.625000
7434		-21.484375
7435		-17.578125
7436		-23.437500
7437		-19.531250
7438		-27.343750
7439		-21.484375
7440		-27.343750
7441		-23.437500
7442		-31.250000
7443		-25.390625
7444		-31.250000
7445		-27.343750
7446		-33.203125
7447		-29.296875
7448		-35.156250
7449		-31.250000
7450		-35.156250
7451		-31.250000
7452		-37.109375
7453		-33.203125
7454		-37.109375
7455		-35.156250
7456		-39.062500
7457		-35.156250
7458		-39.062500
7459		-37.109375
7460		-41.015625
7461		-37.109375
7462		-41.015625
7463		-39.062500
7464		-42.968750
7465		-37.109375
7466		-41.015625
7467		-39.062500
7468		-42.968750
7469		-39.062500
7470		-41.015625
7471		-39.062500
7472		-41.015625
7473		-39.062500
7474		-41.015625
7475		-37.109375
7476		-41.015625
7477		-37.109375
7478		-41.015625
7479		-37.109375
7480		-39.062500
7481		-37.109375
7482		-41.015625
7483		-35.156250
7484		-39.062500
7485		-35.156250
7486		-37.109375
7487		-33.203125
7488		-35.156250
7489		-33.203125
7490		-35.156250
7491		-31.250000
7492		-33.203125
7493		-29.296875
7494		-33.203125
7495		-27.343750
7496		-29.296875
7497		-27.343750
7498		-29.296875
7499		-25.390625
7500		-27.343750
7501		-23.437500
7502		-25.390625
7503		-21.484375
7504		-23.437500
7505		-19.531250
7506		-19.531250
7507		-17.578125
7508		-19.531250
7509		-13.671875
7510		-15.625000
7511		-11.718750
7512		-13.671875
7513		-9.765625
7514		-11.718750
7515		-5.859375
7516		-9.765625
7517		-5.859375
7518		-5.859375
7519		-1.953125
7520		-3.906250
7521		0.000000
7522		-1.953125
7523		1.953125
7524		0.000000
7525		5.859375
7526		3.906250
7527		7.812500
7528		5.859375
7529		9.765625
7530		7.812500
7531		11.718750
7532		9.765625
7533		15.625000
7534		13.671875
7535		17.578125
7536		15.625000
7537		19.531250
7538		17.578125
7539		21.484375
7540		19.531250
7541		25.390625
7542		23.437500
7543		27.343750
7544		25.390625
7545		29.296875
7546		27.343750
7547		31.250000
7548		29.296875
7549		35.156250
7550		33.203125
7551		37.109375
7552		33.203125
7553		39.062500
7554		37.109375
7555		41.015625
7556		39.062500
7557		42.968750
7558		41.015625
7559		44.921875
7560		41.015625
7561		46.875000
7562		44.921875
7563		46.875000
7564		46.875000
7565		48.828125
7566		46.875000
7567		50.781250
7568		48.828125
7569		52.734375
7570		50.781250
7571		54.687500
7572		52.734375
7573		56.640625
7574		52.734375
7575		56.640625
7576		54.687500
7577		58.593750
7578		54.687500
7579		58.593750
7580		56.640625
7581		58.593750
7582		56.640625
7583		60.546875
7584		58.593750
7585		62.500000
7586		58.593750
7587		62.500000
7588		58.593750
7589		64.453125
7590		60.546875
7591		62.500000
7592		60.546875
7593		64.453125
7594		60.546875
7595		64.453125
7596		60.546875
7597		62.500000
7598		60.546875
7599		64.453125
7600		60.546875
7601		64.453125
7602		60.546875
7603		62.500000
7604		60.546875
7605		62.500000
7606		58.593750
7607		62.500000
7608		58.593750
7609		62.500000
7610		56.640625
7611		62.500000
7612		58.593750
7613		60.546875
7614		56.640625
7615		58.593750
7616		54.687500
7617		58.593750
7618		52.734375
7619		58.593750
7620		52.734375
7621		56.640625
7622		50.781250
7623		54.687500
7624		50.781250
7625		54.687500
7626		48.828125
7627		52.734375
7628		46.875000
7629		50.781250
7630		44.921875
7631		48.828125
7632		42.968750
7633		46.875000
7634		41.015625
7635		44.921875
7636		39.062500
7637		44.921875
7638		37.109375
7639		41.015625
7640		35.156250
7641		39.062500
7642		33.203125
7643		37.109375
7644		29.296875
7645		35.156250
7646		27.343750
7647		33.203125
7648		27.343750
7649		29.296875
7650		23.437500
7651		29.296875
7652		21.484375
7653		25.390625
7654		19.531250
7655		23.437500
7656		15.625000
7657		21.484375
7658		13.671875
7659		17.578125
7660		11.718750
7661		15.625000
7662		7.812500
7663		13.671875
7664		5.859375
7665		9.765625
7666		3.906250
7667		7.812500
7668		0.000000
7669		5.859375
7670		-1.953125
7671		1.953125
7672		-3.906250
7673		0.000000
7674		-5.859375
7675		-1.953125
7676		-9.765625
7677		-5.859375
7678		-11.718750
7679		-7.812500
7680		-13.671875
7681		-9.765625
7682		-17.578125
7683		-11.718750
7684		-19.531250
7685		-13.671875
7686		-21.484375
7687		-17.578125
7688		-23.437500
7689		-19.531250
7690		-25.390625
7691		-21.484375
7692		-27.343750
7693		-21.484375
7694		-29.296875
7695		-25.390625
7696		-29.296875
7697		-27.343750
7698		-31.250000
7699		-29.296875
7700		-33.203125
7701		-29.296875
7702		-35.156250
7703		-31.250000
7704		-37.109375
7705		-33.203125
7706		-37.109375
7707		-35.156250
7708		-39.062500
7709		-35.156250
7710		-39.062500
7711		-35.156250
7712		-41.015625
7713		-37.109375
7714		-41.015625
7715		-37.109375
7716		-42.968750
7717		-37.109375
7718		-41.015625
7719		-39.062500
7720		-42.968750
7721		-39.062500
7722		-41.015625
7723		-39.062500
7724		-42.968750
7725		-39.062500
7726		-42.968750
7727		-39.062500
7728		-42.968750
7729		-37.109375
7730		-41.015625
7731		-39.062500
7732		-41.015625
7733		-37.109375
7734		-39.062500
7735		-37.109375
7736		-39.062500
7737		-35.156250
7738		-37.109375
7739		-35.156250
7740		-37.109375
7741		-33.203125
7742		-35.156250
7743		-33.203125
7744		-35.156250
7745		-31.250000
7746		-33.203125
7747		-29.296875
7748		-31.250000
7749		-27.343750
7750		-29.296875
7751		-25.390625
7752		-27.343750
7753		-23.437500
7754		-25.390625
7755		-21.484375
7756		-25.390625
7757		-19.531250
7758		-21.484375
7759		-17.578125
7760		-19.531250
7761		-15.625000
7762		-17.578125
7763		-13.671875
7764		-15.625000
7765		-11.718750
7766		-13.671875
7767		-7.812500
7768		-11.718750
7769		-5.859375
7770		-7.812500
7771		-3.906250
7772		-5.859375
7773		-1.953125
7774		-3.906250
7775		0.000000
7776		-1.953125
7777		3.906250
7778		1.953125
7779		5.859375
7780		3.906250
7781		7.812500
7782		5.859375
7783		11.718750
7784		7.812500
7785		13.671875
7786		11.718750
7787		15.625000
7788		13.671875
7789		17.578125
7790		17.578125
7791		21.484375
7792		19.531250
7793		23.437500
7794		21.484375
7795		25.390625
7796		23.437500
7797		27.343750
7798		27.343750
7799		31.250000
7800		29.296875
7801		33.203125
7802		29.296875
7803		35.156250
7804		33.203125
7805		37.109375
7806		35.156250
7807		39.062500
7808		37.109375
7809		41.015625
7810		39.062500
7811		42.968750
7812		41.015625
7813		44.921875
7814		42.968750
7815		46.875000
7816		44.921875
7817		48.828125
7818		44.921875
7819		50.781250
7820		48.828125
7821		52.734375
7822		48.828125
7823		54.687500
7824		50.781250
7825		54.687500
7826		52.734375
7827		56.640625
7828		54.687500
7829		58.593750
7830		54.687500
7831		58.593750
7832		56.640625
7833		58.593750
7834		56.640625
7835		60.546875
7836		58.593750
7837		62.500000
7838		58.593750
7839		60.546875
7840		58.593750
7841		62.500000
7842		60.546875
7843		62.500000
7844		60.546875
7845		62.500000
7846		58.593750
7847		64.453125
7848		60.546875
7849		62.500000
7850		60.546875
7851		64.453125
7852		60.546875
7853		64.453125
7854		60.546875
7855		64.453125
7856		60.546875
7857		62.500000
7858		58.593750
7859		62.500000
7860		58.593750
7861		62.500000
7862		56.640625
7863		62.500000
7864		58.593750
7865		60.546875
7866		56.640625
7867		60.546875
7868		56.640625
7869		60.546875
7870		54.687500
7871		58.593750
7872		52.734375
7873		56.640625
7874		52.734375
7875		54.687500
7876		50.781250
7877		54.687500
7878		48.828125
7879		52.734375
7880		46.875000
7881		52.734375
7882		46.875000
7883		50.781250
7884		42.968750
7885		48.828125
7886		42.968750
7887		46.875000
7888		41.015625
7889		44.921875
7890		39.062500
7891		42.968750
7892		35.156250
7893		41.015625
7894		35.156250
7895		39.062500
7896		31.250000
7897		37.109375
7898		29.296875
7899		33.203125
7900		27.343750
7901		31.250000
7902		25.390625
7903		29.296875
7904		23.437500
7905		27.343750
7906		19.531250
7907		25.390625
7908		17.578125
7909		21.484375
7910		15.625000
7911		19.531250
7912		11.718750
7913		17.578125
7914		9.765625
7915		15.625000
7916		7.812500
7917		11.718750
7918		3.906250
7919		9.765625
7920		1.953125
7921		5.859375
7922		0.000000
7923		3.906250
7924		-3.906250
7925		1.953125
7926		-5.859375
7927		-1.953125
7928		-7.812500
7929		-3.906250
7930		-9.765625
7931		-5.859375
7932		-13.671875
7933		-7.812500
7934		-15.625000
7935		-11.718750
7936		-17.578125
7937		-11.718750
7938		-19.531250
7939		-15.625000
7940		-21.484375
7941		-17.578125
7942		-25.390625
7943		-19.531250
7944		-25.390625
7945		-21.484375
7946		-29.296875
7947		-23.437500
7948		-29.296875
7949		-25.390625
7950		-31.250000
7951		-27.343750
7952		-33.203125
7953		-29.296875
7954		-35.156250
7955		-29.296875
7956		-35.156250
7957		-31.250000
7958		-37.109375
7959		-33.203125
7960		-39.062500
7961		-35.156250
7962		-39.062500
7963		-35.156250
7964		-39.062500
7965		-35.156250
7966		-39.062500
7967		-37.109375
7968		-41.015625
7969		-37.109375
7970		-41.015625
7971		-39.062500
7972		-41.015625
7973		-39.062500
7974		-41.015625
7975		-39.062500
7976		-41.015625
7977		-39.062500
7978		-41.015625
7979		-39.062500
7980		-41.015625
7981		-37.109375
7982		-41.015625
7983		-39.062500
7984		-41.015625
7985		-37.109375
7986		-41.015625
7987		-37.109375
7988		-39.062500
7989		-35.156250
7990		-39.062500
7991		-35.156250
7992		-37.109375
7993		-33.203125
7994		-37.109375
7995		-33.203125
7996		-35.156250
7997		-31.250000
7998		-35.156250
7999		-31.250000
8000		-31.250000
8001		-29.296875
8002		-31.250000
8003		-27.343750
8004		-29.296875
8005		-25.390625
8006		-27.343750
8007		-23.437500
8008		-25.390625
8009		-21.484375
8010		-23.437500
8011		-19.531250
8012		-21.484375
8013		-17.578125
8014		-19.531250
8015		-15.625000
8016		-17.578125
8017		-13.671875
8018		-13.671875
8019		-9.765625
8020		-13.671875
8021		-7.812500
8022		-11.718750
8023		-5.859375
8024		-7.812500
8025		-3.906250
8026		-5.859375
8027		0.000000
8028		-1.953125
8029		1.953125
8030		0.000000
8031		5.859375
8032		1.953125
8033		5.859375
8034		5.859375
8035		9.765625
8036		7.812500
8037		11.718750
8038		9.765625
8039		15.625000
8040		13.671875
8041		17.578125
8042		13.671875
8043		19.531250
8044		17.578125
8045		21.484375
8046		19.531250
8047		25.390625
8048		21.484375
8049		25.390625
8050		25.390625
8051		29.296875
8052		27.343750
8053		31.250000
8054		29.296875
8055		33.203125
8056		31.250000
8057		35.156250
8058		33.203125
8059		37.109375
8060		35.156250
8061		39.062500
8062		37.109375
8063		41.015625
8064		39.062500
8065		44.921875
8066		41.015625
8067		44.921875
8068		42.968750
8069		46.875000
8070		44.921875
8071		50.781250
8072		46.875000
8073		50.781250
8074		48.828125
8075		52.734375
8076		50.781250
8077		54.687500
8078		50.781250
8079		54.687500
8080		52.734375
8081		56.640625
8082		52.734375
8083		56.640625
8084		54.687500
8085		58.593750
8086		56.640625
8087		60.546875
8088		56.640625
8089		60.546875
8090		56.640625
8091		60.546875
8092		58.593750
8093		62.500000
8094		58.593750
8095		62.500000
8096		58.593750
8097		62.500000
8098		58.593750
8099		62.500000
8100		60.546875
8101		62.500000
8102		60.546875
8103		62.500000
8104		58.593750
8105		64.453125
8106		60.546875
8107		62.500000
8108		60.546875
8109		62.500000
8110		58.593750
8111		62.500000
8112		58.593750
8113		62.500000
8114		58.593750
8115		62.500000
8116		58.593750
8117		62.500000
8118		56.640625
8119		60.546875
8120		54.687500
8121		60.546875
8122		54.687500
8123		58.593750
8124		54.687500
8125		56.640625
8126		52.734375
8127		56.640625
8128		50.781250
8129		54.687500
8130		50.781250
8131		54.687500
8132		48.828125
8133		52.734375
8134		46.875000
8135		50.781250
8136		44.921875
8137		48.828125
8138		42.968750
8139		48.828125
8140		41.015625
8141		44.921875
8142		39.062500
8143		42.968750
8144		37.109375
8145		41.015625
8146		35.156250
8147		41.015625
8148		31.250000
8149		37.109375
8150		31.250000
8151		35.156250
8152		29.296875
8153		33.203125
8154		25.390625
8155		31.250000
8156		23.437500
8157		27.343750
8158		21.484375
8159		25.390625
8160		19.531250
8161		23.437500
8162		15.625000
8163		21.484375
8164		13.671875
8165		17.578125
8166		11.718750
8167		15.625000
8168		7.812500
8169		11.718750
8170		5.859375
8171		9.765625
8172		3.906250
8173		7.812500
8174		0.000000
8175		5.859375
8176		-1.953125
8177		3.906250
8178		-5.859375
8179		0.000000
8180		-5.859375
8181		-1.953125
8182		-9.765625
8183		-5.859375
8184		-11.718750
8185		-7.812500
8186		-13.671875
8187		-9.765625
8188		-15.625000
8189		-11.718750
8190		-19.531250
8191		-13.671875
8192		-21.484375
8193		-17.578125
8194		-23.437500
8195		-19.531250
8196		-25.390625
8197		-21.484375
8198		-27.343750
8199		-21.484375
8200		-29.296875
8201		-25.390625
8202		-31.250000
8203		-27.343750
8204		-33.203125
8205		-27.343750
8206		-33.203125
8207		-29.296875
8208		-35.156250
8209		-31.250000
8210		-37.109375
8211		-33.203125
8212		-37.109375
8213		-33.203125
8214		-39.062500
8215		-35.156250
8216		-39.062500
8217		-35.156250
8218		-39.062500
8219		-37.109375
8220		-41.015625
8221		-37.109375
8222		-42.968750
8223		-39.062500
8224		-42.968750
8225		-39.062500
8226		-42.968750
8227		-39.062500
8228		-42.968750
8229		-39.062500
8230		-41.015625
8231		-39.062500
8232		-42.968750
8233		-37.109375
8234		-41.015625
8235		-39.062500
8236		-41.015625
8237		-39.062500
8238		-41.015625
8239		-37.109375
8240		-41.015625
8241		-37.109375
8242		-41.015625
8243		-35.156250
8244		-39.062500
8245		-35.156250
8246		-37.109375
8247		-33.203125
8248		-35.156250
8249		-33.203125
8250		-35.156250
8251		-31.250000
8252		-33.203125
8253		-29.296875
8254		-31.250000
8255		-27.343750
8256		-29.296875
8257		-27.343750
8258		-29.296875
8259		-25.390625
8260		-27.343750
8261		-23.437500
8262		-25.390625
8263		-21.484375
8264		-23.437500
8265		-19.531250
8266		-21.484375
8267		-15.625000
8268		-19.531250
8269		-15.625000
8270		-15.625000
8271		-11.718750
8272		-15.625000
8273		-9.765625
8274		-11.718750
8275		-7.812500
8276		-9.765625
8277		-5.859375
8278		-7.812500
8279		-1.953125
8280		-3.906250
8281		0.000000
8282		-1.953125
8283		1.953125
8284		-1.953125
8285		3.906250
8286		3.906250
8287		7.812500
8288		5.859375
8289		9.765625
8290		7.812500
8291		11.718750
8292		11.718750
8293		15.625000
8294		13.671875
8295		17.578125
8296		15.625000
8297		19.531250
8298		17.578125
8299		23.437500
8300		21.484375
8301		25.390625
8302		23.437500
8303		27.343750
8304		25.390625
8305		29.296875
8306		27.343750
8307		33.203125
8308		29.296875
8309		35.156250
8310		31.250000
8311		37.109375
8312		35.156250
8313		39.062500
8314		35.156250
8315		41.015625
8316		39.062500
8317		42.968750
8318		41.015625
8319		44.921875
8320		42.968750
8321		46.875000
8322		42.968750
8323		48.828125
8324		46.875000
8325		50.781250
8326		46.875000
8327		50.781250
8328		48.828125
8329		52.734375
8330		50.781250
8331		54.687500
8332		52.734375
8333		56.640625
8334		52.734375
8335		56.640625
8336		54.687500
8337		58.593750
8338		54.687500
8339		60.546875
8340		56.640625
8341		58.593750
8342		56.640625
8343		60.546875
8344		58.593750
8345		60.546875
8346		58.593750
8347		62.500000
8348		58.593750
8349		62.500000
8350		58.593750
8351		62.500000
8352		60.546875
8353		62.500000
8354		60.546875
8355		62.500000
8356		60.546875
8357		64.453125
8358		60.546875
8359		62.500000
8360		60.546875
8361		64.453125
8362		58.593750
8363		62.500000
8364		58.593750
8365		62.500000
8366		58.593750
8367		62.500000
8368		58.593750
8369		62.500000
8370		58.593750
8371		60.546875
8372		56.640625
8373		60.546875
8374		56.640625
8375		58.593750
8376		54.687500
8377		58.593750
8378		52.734375
8379		56.640625
8380		52.734375
8381		56.640625
8382		50.781250
8383		54.687500
8384		48.828125
8385		52.734375
8386		48.828125
8387		50.781250
8388		44.921875
8389		50.781250
8390		44.921875
8391		48.828125
8392		42.968750
8393		46.875000
8394		41.015625
8395		44.921875
8396		39.062500
8397		42.968750
8398		35.156250
8399		41.015625
8400		35.156250
8401		39.062500
8402		33.203125
8403		37.109375
8404		29.296875
8405		33.203125
8406		27.343750
8407		31.250000
8408		25.390625
8409		29.296875
8410		21.484375
8411		27.343750
8412		19.531250
8413		23.437500
8414		17.578125
8415		21.484375
8416		15.625000
8417		19.531250
8418		13.671875
8419		17.578125
8420		9.765625
8421		13.671875
8422		5.859375
8423		11.718750
8424		3.906250
8425		9.765625
8426		1.953125
8427		5.859375
8428		0.000000
8429		3.906250
8430		-1.953125
8431		1.953125
8432		-5.859375
8433		-1.953125
8434		-7.812500
8435		-3.906250
8436		-9.765625
8437		-5.859375
8438		-11.718750
8439		-7.812500
8440		-15.625000
8441		-9.765625
8442		-17.578125
8443		-13.671875
8444		-19.531250
8445		-15.625000
8446		-21.484375
8447		-17.578125
8448		-23.437500
8449		-19.531250
8450		-25.390625
8451		-21.484375
8452		-27.343750
8453		-23.437500
8454		-29.296875
8455		-25.390625
8456		-31.250000
8457		-27.343750
8458		-33.203125
8459		-29.296875
8460		-35.156250
8461		-29.296875
8462		-35.156250
8463		-33.203125
8464		-37.109375
8465		-33.203125
8466		-39.062500
8467		-35.156250
8468		-39.062500
8469		-35.156250
8470		-41.015625
8471		-37.109375
8472		-41.015625
8473		-37.109375
8474		-41.015625
8475		-37.109375
8476		-42.968750
8477		-39.062500
8478		-41.015625
8479		-39.062500
8480		-42.968750
8481		-39.062500
8482		-42.968750
8483		-39.062500
8484		-42.968750
8485		-39.062500
8486		-41.015625
8487		-39.062500
8488		-41.015625
8489		-39.062500
8490		-41.015625
8491		-37.109375
8492		-41.015625
8493		-37.109375
8494		-41.015625
8495		-37.109375
8496		-39.062500
8497		-35.156250
8498		-39.062500
8499		-35.156250
8500		-37.109375
8501		-33.203125
8502		-37.109375
8503		-33.203125
8504		-35.156250
8505		-31.250000
8506		-33.203125
8507		-29.296875
8508		-31.250000
8509		-27.343750
8510		-29.296875
8511		-25.390625
8512		-27.343750
8513		-25.390625
8514		-25.390625
8515		-21.484375
8516		-25.390625
8517		-19.531250
8518		-23.437500
8519		-17.578125
8520		-19.531250
8521		-15.625000
8522		-17.578125
8523		-13.671875
8524		-17.578125
8525		-11.718750
8526		-13.671875
8527		-9.765625
8528		-11.718750
8529		-5.859375
8530		-7.812500
8531		-3.906250
8532		-5.859375
8533		-1.953125
8534		-3.906250
8535		0.000000
8536		-1.953125
8537		1.953125
8538		1.953125
8539		5.859375
8540		3.906250
8541		7.812500
8542		5.859375
8543		9.765625
8544		7.812500
8545		13.671875
8546		9.765625
8547		15.625000
8548		13.671875
8549		17.578125
8550		15.625000
8551		21.484375
8552		19.531250
8553		23.437500
8554		21.484375
8555		25.390625
8556		23.437500
8557		27.343750
8558		25.390625
8559		29.296875
8560		27.343750
8561		33.203125
8562		31.250000
8563		35.156250
8564		33.203125
8565		37.109375
8566		35.156250
8567		39.062500
8568		37.109375
8569		41.015625
8570		39.062500
8571		42.968750
8572		41.015625
8573		44.921875
8574		42.968750
8575		46.875000
8576		44.921875
8577		48.828125
8578		46.875000
8579		50.781250
8580		46.875000
8581		50.781250
8582		48.828125
8583		52.734375
8584		50.781250
8585		54.687500
8586		50.781250
8587		56.640625
8588		52.734375
8589		56.640625
8590		54.687500
8591		58.593750
8592		54.687500
8593		58.593750
8594		56.640625
8595		58.593750
8596		56.640625
8597		60.546875
8598		58.593750
8599		62.500000
8600		58.593750
8601		62.500000
8602		58.593750
8603		62.500000
8604		60.546875
8605		62.500000
8606		60.546875
8607		62.500000
8608		58.593750
8609		62.500000
8610		60.546875
8611		62.500000
8612		60.546875
8613		62.500000
8614		60.546875
8615		62.500000
8616		58.593750
8617		62.500000
8618		58.593750
8619		62.500000
8620		58.593750
8621		62.500000
8622		56.640625
8623		60.546875
8624		56.640625
8625		60.546875
8626		56.640625
8627		58.593750
8628		54.687500
8629		58.593750
8630		54.687500
8631		56.640625
8632		52.734375
8633		56.640625
8634		50.781250
8635		54.687500
8636		48.828125
8637		52.734375
8638		48.828125
8639		52.734375
8640		46.875000
8641		50.781250
8642		44.921875
8643		50.781250
8644		42.968750
8645		46.875000
8646		41.015625
8647		44.921875
8648		39.062500
8649		42.968750
8650		37.109375
8651		41.015625
8652		35.156250
8653		39.062500
8654		33.203125
8655		37.109375
8656		31.250000
8657		35.156250
8658		29.296875
8659		33.203125
8660		25.390625
8661		31.250000
8662		23.437500
8663		27.343750
8664		21.484375
8665		27.343750
8666		19.531250
8667		23.437500
8668		15.625000
8669		21.484375
8670		13.671875
8671		17.578125
8672		11.718750
8673		15.625000
8674		7.812500
8675		13.671875
8676		5.859375
8677		9.765625
8678		3.906250
8679		7.812500
8680		1.953125
8681		5.859375
8682		-1.953125
8683		1.953125
8684		-3.906250
8685		1.953125
8686		-7.812500
8687		-1.953125
8688		-9.765625
8689		-5.859375
8690		-11.718750
8691		-7.812500
8692		-15.625000
8693		-9.765625
8694		-15.625000
8695		-11.718750
8696		-19.531250
8697		-13.671875
8698		-21.484375
8699		-17.578125
8700		-23.437500
8701		-17.578125
8702		-25.390625
8703		-21.484375
8704		-27.343750
8705		-21.484375
8706		-29.296875
8707		-25.390625
8708		-31.250000
8709		-27.343750
8710		-33.203125
8711		-29.296875
8712		-35.156250
8713		-31.250000
8714		-35.156250
8715		-31.250000
8716		-37.109375
8717		-33.203125
8718		-39.062500
8719		-35.156250
8720		-39.062500
8721		-35.156250
8722		-39.062500
8723		-37.109375
8724		-41.015625
8725		-37.109375
8726		-41.015625
8727		-37.109375
8728		-41.015625
8729		-39.062500
8730		-42.968750
8731		-39.062500
8732		-42.968750
8733		-39.062500
8734		-42.968750
8735		-41.015625
8736		-42.968750
8737		-39.062500
8738		-42.968750
8739		-39.062500
8740		-42.968750
8741		-39.062500
8742		-42.968750
8743		-39.062500
8744		-41.015625
8745		-39.062500
8746		-41.015625
8747		-39.062500
8748		-41.015625
8749		-37.109375
8750		-39.062500
8751		-35.156250
8752		-39.062500
8753		-35.156250
8754		-37.109375
8755		-33.203125
8756		-35.156250
8757		-33.203125
8758		-35.156250
8759		-29.296875
8760		-33.203125
8761		-29.296875
8762		-31.250000
8763		-27.343750
8764		-29.296875
8765		-25.390625
8766		-29.296875
8767		-23.437500
8768		-25.390625
8769		-21.484375
8770		-23.437500
8771		-19.531250
8772		-21.484375
8773		-17.578125
8774		-19.531250
8775		-15.625000
8776		-17.578125
8777		-13.671875
8778		-15.625000
8779		-11.718750
8780		-13.671875
8781		-7.812500
8782		-11.718750
8783		-5.859375
8784		-7.812500
8785		-3.906250
8786		-5.859375
8787		-1.953125
8788		-3.906250
8789		1.953125
8790		0.000000
8791		3.906250
8792		1.953125
8793		5.859375
8794		3.906250
8795		7.812500
8796		5.859375
8797		11.718750
8798		9.765625
8799		13.671875
8800		11.718750
8801		17.578125
8802		13.671875
8803		19.531250
8804		15.625000
8805		21.484375
8806		19.531250
8807		23.437500
8808		21.484375
8809		25.390625
8810		23.437500
8811		29.296875
8812		25.390625
8813		31.250000
8814		29.296875
8815		33.203125
8816		31.250000
8817		35.156250
8818		33.203125
8819		37.109375
8820		35.156250
8821		41.015625
8822		37.109375
8823		41.015625
8824		39.062500
8825		42.968750
8826		41.015625
8827		44.921875
8828		41.015625
8829		48.828125
8830		44.921875
8831		48.828125
8832		46.875000
8833		50.781250
8834		48.828125
8835		52.734375
8836		48.828125
8837		54.687500
8838		50.781250
8839		54.687500
8840		52.734375
8841		56.640625
8842		54.687500
8843		58.593750
8844		52.734375
8845		60.546875
8846		54.687500
8847		60.546875
8848		56.640625
8849		58.593750
8850		56.640625
8851		60.546875
8852		56.640625
8853		60.546875
8854		58.593750
8855		62.500000
8856		58.593750
8857		62.500000
8858		58.593750
8859		62.500000
8860		58.593750
8861		64.453125
8862		58.593750
8863		64.453125
8864		56.640625
8865		64.453125
8866		58.593750
8867		62.500000
8868		58.593750
8869		62.500000
8870		58.593750
8871		62.500000
8872		58.593750
8873		62.500000
8874		56.640625
8875		60.546875
8876		54.687500
8877		62.500000
8878		54.687500
8879		60.546875
8880		54.687500
8881		60.546875
8882		52.734375
8883		60.546875
8884		52.734375
8885		58.593750
8886		50.781250
8887		56.640625
8888		50.781250
8889		54.687500
8890		48.828125
8891		52.734375
8892		48.828125
8893		50.781250
8894		42.968750
8895		52.734375
8896		42.968750
8897		48.828125
8898		41.015625
8899		46.875000
8900		39.062500
8901		44.921875
8902		39.062500
8903		42.968750
8904		35.156250
8905		41.015625
8906		35.156250
8907		39.062500
8908		33.203125
8909		37.109375
8910		29.296875
8911		35.156250
8912		25.390625
8913		33.203125
8914		23.437500
8915		31.250000
8916		21.484375
8917		29.296875
8918		17.578125
8919		27.343750
8920		15.625000
8921		23.437500
8922		15.625000
8923		19.531250
8924		13.671875
8925		17.578125
8926		9.765625
8927		13.671875
8928		5.859375
8929		13.671875
8930		1.953125
8931		11.718750
8932		0.000000
8933		7.812500
8934		-1.953125
8935		5.859375
8936		-3.906250
8937		3.906250
8938		-5.859375
8939		1.953125
8940		-7.812500
8941		-3.906250
8942		-9.765625
8943		-5.859375
8944		-13.671875
8945		-7.812500
8946		-17.578125
8947		-7.812500
8948		-19.531250
8949		-11.718750
8950		-21.484375
8951		-13.671875
8952		-23.437500
8953		-15.625000
8954		-25.390625
8955		-17.578125
8956		-25.390625
8957		-21.484375
8958		-27.343750
8959		-23.437500
8960		-31.250000
8961		-25.390625
8962		-33.203125
8963		-25.390625
8964		-35.156250
8965		-27.343750
8966		-37.109375
8967		-29.296875
8968		-39.062500
8969		-29.296875
8970		-39.062500
8971		-31.250000
8972		-39.062500
8973		-33.203125
8974		-39.062500
8975		-37.109375
8976		-41.015625
8977		-37.109375
8978		-42.968750
8979		-35.156250
8980		-44.921875
8981		-37.109375
8982		-44.921875
8983		-37.109375
8984		-44.921875
8985		-37.109375
8986		-44.921875
8987		-37.109375
8988		-44.921875
8989		-37.109375
8990		-44.921875
8991		-39.062500
8992		-42.968750
8993		-41.015625
8994		-44.921875
8995		-37.109375
8996		-44.921875
8997		-37.109375
8998		-44.921875
8999		-37.109375
9000		-44.921875
9001		-35.156250
9002		-41.015625
9003		-35.156250
9004		-41.015625
9005		-33.203125
9006		-41.015625
9007		-33.203125
9008		-37.109375
9009		-33.203125
9010		-35.156250
9011		-31.250000
9012		-35.156250
9013		-29.296875
9014		-35.156250
9015		-27.343750
9016		-33.203125
9017		-25.390625
9018		-31.250000
9019		-23.437500
9020		-29.296875
9021		-21.484375
9022		-27.343750
9023		-19.531250
9024		-23.437500
9025		-19.531250
9026		-21.484375
9027		-17.578125
9028		-21.484375
9029		-13.671875
9030		-19.531250
9031		-11.718750
9032		-17.578125
9033		-7.812500
9034		-15.625000
9035		-5.859375
9036		-13.671875
9037		-3.906250
9038		-9.765625
9039		0.000000
9040		-5.859375
9041		0.000000
9042		-1.953125
9043		1.953125
9044		0.000000
9045		5.859375
9046		0.000000
9047		9.765625
9048		1.953125
9049		9.765625
9050		5.859375
9051		13.671875
9052		7.812500
9053		15.625000
9054		9.765625
9055		17.578125
9056		13.671875
9057		21.484375
9058		17.578125
9059		21.484375
9060		19.531250
9061		23.437500
9062		21.484375
9063		29.296875
9064		23.437500
9065		29.296875
9066		25.390625
9067		33.203125
9068		27.343750
9069		35.156250
9070		29.296875
9071		37.109375
9072		31.250000
9073		39.062500
9074		35.156250
9075		39.062500
9076		37.109375
9077		41.015625
9078		39.062500
9079		44.921875
9080		39.062500
9081		46.875000
9082		41.015625
9083		48.828125
9084		42.968750
9085		50.781250
9086		44.921875
9087		52.734375
9088		44.921875
9089		52.734375
9090		46.875000
9091		54.687500
9092		50.781250
9093		54.687500
9094		52.734375
9095		56.640625
9096		52.734375
9097		58.593750
9098		52.734375
9099		58.593750
9100		54.687500
9101		60.546875
9102		54.687500
9103		60.546875
9104		54.687500
9105		60.546875
9106		56.640625
9107		62.500000
9108		58.593750
9109		60.546875
9110		58.593750
9111		62.500000
9112		56.640625
9113		64.453125
9114		56.640625
9115		64.453125
9116		56.640625
9117		64.453125
9118		56.640625
9119		64.453125
9120		56.640625
9121		64.453125
9122		56.640625
9123		64.453125
9124		56.640625
9125		64.453125
9126		58.593750
9127		60.546875
9128		54.687500
9129		60.546875
9130		54.687500
9131		60.546875
9132		52.734375
9133		60.546875
9134		52.734375
9135		60.546875
9136		50.781250
9137		58.593750
9138		50.781250
9139		58.593750
9140		48.828125
9141		56.640625
9142		48.828125
9143		52.734375
9144		48.828125
9145		50.781250
9146		44.921875
9147		52.734375
9148		42.968750
9149		50.781250
9150		41.015625
9151		48.828125
9152		39.062500
9153		46.875000
9154		37.109375
9155		44.921875
9156		35.156250
9157		42.968750
9158		33.203125
9159		41.015625
9160		33.203125
9161		37.109375
9162		29.296875
9163		35.156250
9164		27.343750
9165		35.156250
9166		25.390625
9167		31.250000
9168		21.484375
9169		29.296875
9170		19.531250
9171		27.343750
9172		17.578125
9173		25.390625
9174		15.625000
9175		23.437500
9176		13.671875
9177		17.578125
9178		11.718750
9179		15.625000
9180		5.859375
9181		15.625000
9182		3.906250
9183		13.671875
9184		1.953125
9185		9.765625
9186		0.000000
9187		7.812500
9188		-3.906250
9189		5.859375
9190		-5.859375
9191		1.953125
9192		-7.812500
9193		-1.953125
9194		-9.765625
9195		-5.859375
9196		-13.671875
9197		-7.812500
9198		-15.625000
9199		-7.812500
9200		-17.578125
9201		-9.765625
9202		-21.484375
9203		-13.671875
9204		-23.437500
9205		-13.671875
9206		-25.390625
9207		-15.625000
9208		-27.343750
9209		-19.531250
9210		-27.343750
9211		-23.437500
9212		-31.250000
9213		-25.390625
9214		-33.203125
9215		-25.390625
9216		-35.156250
9217		-27.343750
9218		-37.109375
9219		-29.296875
9220		-37.109375
9221		-29.296875
9222		-39.062500
9223		-31.250000
9224		-41.015625
9225		-33.203125
9226		-39.062500
9227		-37.109375
9228		-41.015625
9229		-37.109375
9230		-42.968750
9231		-37.109375
9232		-44.921875
9233		-37.109375
9234		-44.921875
9235		-37.109375
9236		-44.921875
9237		-37.109375
9238		-44.921875
9239		-39.062500
9240		-46.875000
9241		-39.062500
9242		-46.875000
9243		-39.062500
9244		-42.968750
9245		-41.015625
9246		-44.921875
9247		-39.062500
9248		-44.921875
9249		-37.109375
9250		-44.921875
9251		-37.109375
9252		-44.921875
9253		-37.109375
9254		-42.968750
9255		-37.109375
9256		-42.968750
9257		-35.156250
9258		-41.015625
9259		-35.156250
9260		-39.062500
9261		-35.156250
9262		-37.109375
9263		-33.203125
9264		-39.062500
9265		-29.296875
9266		-37.109375
9267		-29.296875
9268		-35.156250
9269		-27.343750
9270		-33.203125
9271		-25.390625
9272		-31.250000
9273		-23.437500
9274		-29.296875
9275		-21.484375
9276		-25.390625
9277		-21.484375
9278		-23.437500
9279		-19.531250
9280		-21.484375
9281		-15.625000
9282		-21.484375
9283		-11.718750
9284		-19.531250
9285		-11.718750
9286		-17.578125
9287		-7.812500
9288		-13.671875
9289		-5.859375
9290		-11.718750
9291		-3.906250
9292		-9.765625
9293		-1.953125
9294		-3.906250
9295		0.000000
9296		-1.953125
9297		3.906250
9298		-1.953125
9299		5.859375
9300		0.000000
9301		9.765625
9302		3.906250
9303		11.718750
9304		5.859375
9305		13.671875
9306		7.812500
9307		15.625000
9308		9.765625
9309		19.531250
9310		15.625000
9311		19.531250
9312		17.578125
9313		21.484375
9314		19.531250
9315		25.390625
9316		19.531250
9317		29.296875
9318		23.437500
9319		31.250000
9320		25.390625
9321		33.203125
9322		27.343750
9323		35.156250
9324		29.296875
9325		39.062500
9326		33.203125
9327		39.062500
9328		35.156250
9329		41.015625
9330		37.109375
9331		42.968750
9332		37.109375
9333		46.875000
9334		39.062500
9335		46.875000
9336		41.015625
9337		48.828125
9338		42.968750
9339		50.781250
9340		44.921875
9341		52.734375
9342		46.875000
9343		52.734375
9344		50.781250
9345		52.734375
9346		50.781250
9347		54.687500
9348		48.828125
9349		58.593750
9350		50.781250
9351		58.593750
9352		52.734375
9353		60.546875
9354		52.734375
9355		60.546875
9356		54.687500
9357		60.546875
9358		54.687500
9359		62.500000
9360		58.593750
9361		60.546875
9362		58.593750
9363		60.546875
9364		56.640625
9365		64.453125
9366		56.640625
9367		64.453125
9368		56.640625
9369		64.453125
9370		56.640625
9371		64.453125
9372		56.640625
9373		64.453125
9374		56.640625
9375		64.453125
9376		56.640625
9377		62.500000
9378		58.593750
9379		60.546875
9380		56.640625
9381		62.500000
9382		54.687500
9383		62.500000
9384		52.734375
9385		60.546875
9386		52.734375
9387		60.546875
9388		50.781250
9389		58.593750
9390		50.781250
9391		58.593750
9392		48.828125
9393		56.640625
9394		50.781250
9395		52.734375
9396		48.828125
9397		52.734375
9398		44.921875
9399		52.734375
9400		42.968750
9401		50.781250
9402		42.968750
9403		50.781250
9404		41.015625
9405		48.828125
9406		39.062500
9407		46.875000
9408		37.109375
9409		44.921875
9410		35.156250
9411		42.968750
9412		33.203125
9413		37.109375
9414		29.296875
9415		37.109375
9416		27.343750
9417		35.156250
9418		25.390625
9419		33.203125
9420		23.437500
9421		31.250000
9422		19.531250
9423		29.296875
9424		17.578125
9425		27.343750
9426		15.625000
9427		23.437500
9428		15.625000
9429		19.531250
9430		9.765625
9431		17.578125
9432		7.812500
9433		15.625000
9434		5.859375
9435		13.671875
9436		1.953125
9437		11.718750
9438		-1.953125
9439		7.812500
9440		-3.906250
9441		5.859375
9442		-5.859375
9443		1.953125
9444		-5.859375
9445		0.000000
9446		-7.812500
9447		-3.906250
9448		-13.671875
9449		-5.859375
9450		-15.625000
9451		-5.859375
9452		-17.578125
9453		-9.765625
9454		-19.531250
9455		-11.718750
9456		-21.484375
9457		-13.671875
9458		-23.437500
9459		-15.625000
9460		-25.390625
9461		-17.578125
9462		-27.343750
9463		-23.437500
9464		-29.296875
9465		-25.390625
9466		-33.203125
9467		-23.437500
9468		-35.156250
9469		-25.390625
9470		-35.156250
9471		-27.343750
9472		-37.109375
9473		-29.296875
9474		-39.062500
9475		-31.250000
9476		-39.062500
9477		-33.203125
9478		-39.062500
9479		-35.156250
9480		-39.062500
9481		-37.109375
9482		-42.968750
9483		-35.156250
9484		-44.921875
9485		-37.109375
9486		-44.921875
9487		-37.109375
9488		-44.921875
9489		-39.062500
9490		-44.921875
9491		-39.062500
9492		-46.875000
9493		-39.062500
9494		-46.875000
9495		-39.062500
9496		-42.968750
9497		-41.015625
9498		-46.875000
9499		-39.062500
9500		-46.875000
9501		-39.062500
9502		-44.921875
9503		-37.109375
9504		-44.921875
9505		-37.109375
9506		-42.968750
9507		-37.109375
9508		-42.968750
9509		-35.156250
9510		-42.968750
9511		-35.156250
9512		-39.062500
9513		-37.109375
9514		-37.109375
9515		-35.156250
9516		-39.062500
9517		-31.250000
9518		-37.109375
9519		-29.296875
9520		-37.109375
9521		-29.296875
9522		-35.156250
9523		-25.390625
9524		-33.203125
9525		-23.437500
9526		-31.250000
9527		-23.437500
9528		-29.296875
9529		-23.437500
9530		-23.437500
9531		-21.484375
9532		-23.437500
9533		-15.625000
9534		-23.437500
9535		-15.625000
9536		-21.484375
9537		-11.718750
9538		-17.578125
9539		-9.765625
9540		-15.625000
9541		-7.812500
9542		-13.671875
9543		-5.859375
9544		-11.718750
9545		-3.906250
9546		-5.859375
9547		-1.953125
9548		-3.906250
9549		3.906250
9550		-3.906250
9551		5.859375
9552		-1.953125
9553		7.812500
9554		1.953125
9555		9.765625
9556		3.906250
9557		13.671875
9558		5.859375
9559		15.625000
9560		9.765625
9561		17.578125
9562		13.671875
9563		17.578125
9564		17.578125
9565		21.484375
9566		17.578125
9567		25.390625
9568		17.578125
9569		27.343750
9570		21.484375
9571		29.296875
9572		23.437500
9573		31.250000
9574		25.390625
9575		35.156250
9576		27.343750
9577		37.109375
9578		31.250000
9579		37.109375
9580		35.156250
9581		39.062500
9582		37.109375
9583		42.968750
9584		37.109375
9585		44.921875
9586		39.062500
9587		46.875000
9588		41.015625
9589		48.828125
9590		42.968750
9591		50.781250
9592		42.968750
9593		52.734375
9594		44.921875
9595		52.734375
9596		48.828125
9597		52.734375
9598		50.781250
9599		52.734375
9600		48.828125
9601		56.640625
9602		50.781250
9603		58.593750
9604		50.781250
9605		58.593750
9606		52.734375
9607		60.546875
9608		52.734375
9609		60.546875
9610		54.687500
9611		62.500000
9612		56.640625
9613		60.546875
9614		58.593750
9615		60.546875
9616		56.640625
9617		62.500000
9618		56.640625
9619		62.500000
9620		56.640625
9621		64.453125
9622		56.640625
9623		62.500000
9624		56.640625
9625		64.453125
9626		56.640625
9627		64.453125
9628		56.640625
9629		62.500000
9630		58.593750
9631		60.546875
9632		54.687500
9633		60.546875
9634		54.687500
9635		60.546875
9636		52.734375
9637		60.546875
9638		52.734375
9639		60.546875
9640		52.734375
9641		60.546875
9642		50.781250
9643		58.593750
9644		50.781250
9645		56.640625
9646		50.781250
9647		54.687500
9648		48.828125
9649		52.734375
9650		44.921875
9651		52.734375
9652		44.921875
9653		52.734375
9654		42.968750
9655		50.781250
9656		41.015625
9657		48.828125
9658		39.062500
9659		46.875000
9660		37.109375
9661		44.921875
9662		35.156250
9663		42.968750
9664		35.156250
9665		39.062500
9666		31.250000
9667		37.109375
9668		29.296875
9669		37.109375
9670		25.390625
9671		35.156250
9672		23.437500
9673		33.203125
9674		21.484375
9675		29.296875
9676		19.531250
9677		27.343750
9678		17.578125
9679		25.390625
9680		15.625000
9681		21.484375
9682		13.671875
9683		17.578125
9684		9.765625
9685		15.625000
9686		5.859375
9687		15.625000
9688		3.906250
9689		11.718750
9690		1.953125
9691		9.765625
9692		-1.953125
9693		7.812500
9694		-3.906250
9695		5.859375
9696		-3.906250
9697		1.953125
9698		-5.859375
9699		-1.953125
9700		-11.718750
9701		-3.906250
9702		-13.671875
9703		-5.859375
9704		-17.578125
9705		-7.812500
9706		-19.531250
9707		-11.718750
9708		-21.484375
9709		-13.671875
9710		-23.437500
9711		-15.625000
9712		-23.437500
9713		-17.578125
9714		-25.390625
9715		-21.484375
9716		-29.296875
9717		-23.437500
9718		-31.250000
9719		-23.437500
9720		-33.203125
9721		-25.390625
9722		-35.156250
9723		-27.343750
9724		-37.109375
9725		-29.296875
9726		-39.062500
9727		-31.250000
9728		-39.062500
9729		-31.250000
9730		-39.062500
9731		-35.156250
9732		-39.062500
9733		-37.109375
9734		-42.968750
9735		-37.109375
9736		-44.921875
9737		-37.109375
9738		-44.921875
9739		-37.109375
9740		-44.921875
9741		-39.062500
9742		-46.875000
9743		-39.062500
9744		-46.875000
9745		-39.062500
9746		-46.875000
9747		-39.062500
9748		-44.921875
9749		-41.015625
9750		-44.921875
9751		-39.062500
9752		-46.875000
9753		-39.062500
9754		-46.875000
9755		-39.062500
9756		-44.921875
9757		-39.062500
9758		-44.921875
9759		-37.109375
9760		-44.921875
9761		-37.109375
9762		-44.921875
9763		-37.109375
9764		-41.015625
9765		-37.109375
9766		-39.062500
9767		-35.156250
9768		-41.015625
9769		-33.203125
9770		-39.062500
9771		-31.250000
9772		-37.109375
9773		-29.296875
9774		-37.109375
9775		-27.343750
9776		-33.203125
9777		-25.390625
9778		-33.203125
9779		-25.390625
9780		-31.250000
9781		-25.390625
9782		-25.390625
9783		-23.437500
9784		-25.390625
9785		-19.531250
9786		-25.390625
9787		-17.578125
9788		-23.437500
9789		-13.671875
9790		-21.484375
9791		-11.718750
9792		-17.578125
9793		-9.765625
9794		-15.625000
9795		-5.859375
9796		-13.671875
9797		-5.859375
9798		-7.812500
9799		-3.906250
9800		-5.859375
9801		-1.953125
9802		-5.859375
9803		1.953125
9804		-3.906250
9805		3.906250
9806		-1.953125
9807		7.812500
9808		1.953125
9809		9.765625
9810		3.906250
9811		11.718750
9812		7.812500
9813		15.625000
9814		11.718750
9815		15.625000
9816		13.671875
9817		17.578125
9818		15.625000
9819		23.437500
9820		15.625000
9821		25.390625
9822		19.531250
9823		27.343750
9824		21.484375
9825		29.296875
9826		23.437500
9827		33.203125
9828		25.390625
9829		35.156250
9830		29.296875
9831		35.156250
9832		33.203125
9833		37.109375
9834		35.156250
9835		41.015625
9836		35.156250
9837		42.968750
9838		37.109375
9839		44.921875
9840		39.062500
9841		46.875000
9842		41.015625
9843		48.828125
9844		41.015625
9845		48.828125
9846		42.968750
9847		50.781250
9848		46.875000
9849		50.781250
9850		48.828125
9851		52.734375
9852		48.828125
9853		54.687500
9854		48.828125
9855		56.640625
9856		50.781250
9857		58.593750
9858		52.734375
9859		58.593750
9860		52.734375
9861		60.546875
9862		52.734375
9863		60.546875
9864		54.687500
9865		60.546875
9866		56.640625
9867		58.593750
9868		56.640625
9869		62.500000
9870		54.687500
9871		62.500000
9872		54.687500
9873		62.500000
9874		56.640625
9875		62.500000
9876		56.640625
9877		62.500000
9878		54.687500
9879		62.500000
9880		56.640625
9881		62.500000
9882		58.593750
9883		60.546875
9884		56.640625
9885		60.546875
9886		54.687500
9887		62.500000
9888		52.734375
9889		60.546875
9890		52.734375
9891		60.546875
9892		52.734375
9893		58.593750
9894		50.781250
9895		58.593750
9896		50.781250
9897		58.593750
9898		50.781250
9899		54.687500
9900		50.781250
9901		52.734375
9902		46.875000
9903		52.734375
9904		44.921875
9905		52.734375
9906		42.968750
9907		50.781250
9908		41.015625
9909		48.828125
9910		39.062500
9911		46.875000
9912		37.109375
9913		44.921875
9914		37.109375
9915		42.968750
9916		35.156250
9917		39.062500
9918		31.250000
9919		39.062500
9920		29.296875
9921		37.109375
9922		27.343750
9923		35.156250
9924		23.437500
9925		33.203125
9926		23.437500
9927		31.250000
9928		19.531250
9929		29.296875
9930		17.578125
9931		25.390625
9932		17.578125
9933		21.484375
9934		15.625000
9935		19.531250
9936		9.765625
9937		17.578125
9938		7.812500
9939		17.578125
9940		5.859375
9941		13.671875
9942		1.953125
9943		11.718750
9944		0.000000
9945		7.812500
9946		-3.906250
9947		5.859375
9948		-3.906250
9949		3.906250
9950		-5.859375
9951		-1.953125
9952		-9.765625
9953		-3.906250
9954		-13.671875
9955		-3.906250
9956		-15.625000
9957		-7.812500
9958		-17.578125
9959		-9.765625
9960		-19.531250
9961		-11.718750
9962		-23.437500
9963		-13.671875
9964		-23.437500
9965		-17.578125
9966		-25.390625
9967		-21.484375
9968		-27.343750
9969		-23.437500
9970		-31.250000
9971		-23.437500
9972		-33.203125
9973		-25.390625
9974		-35.156250
9975		-27.343750
9976		-35.156250
9977		-29.296875
9978		-37.109375
9979		-31.250000
9980		-39.062500
9981		-31.250000
9982		-39.062500
9983		-33.203125
9984		-39.062500
9985		-37.109375
9986		-42.968750
9987		-35.156250
9988		-42.968750
9989		-37.109375
9990		-44.921875
9991		-37.109375
9992		-44.921875
9993		-37.109375
9994		-46.875000
9995		-39.062500
9996		-46.875000
9997		-39.062500
9998		-46.875000
9999		-39.062500
10000		-44.921875
