Channel              :		CH1
Frequency            :		1.987kHz
Period               :		0.503ms
PK-PK                :		207.0mV
Probe attenuation    :		1X
Voltage per ADC value:		0.122070mV
Time interval        :		2.00000us

index		CH1_Voltage(mV)
1		82.031250
2		82.031250
3		80.078125
4		83.984375
5		82.031250
6		87.890625
7		83.984375
8		87.890625
9		87.890625
10		89.843750
11		89.843750
12		91.796875
13		89.843750
14		93.750000
15		91.796875
16		95.703125
17		93.750000
18		97.656250
19		93.750000
20		97.656250
21		95.703125
22		99.609375
23		95.703125
24		99.609375
25		97.656250
26		99.609375
27		95.703125
28		99.609375
29		97.656250
30		99.609375
31		97.656250
32		99.609375
33		95.703125
34		99.609375
35		95.703125
36		99.609375
37		95.703125
38		97.656250
39		93.750000
40		97.656250
41		93.750000
42		95.703125
43		91.796875
44		93.750000
45		89.843750
46		93.750000
47		87.890625
48		91.796875
49		85.937500
50		89.843750
51		83.984375
52		87.890625
53		80.078125
54		85.937500
55		78.125000
56		83.984375
57		76.171875
58		82.031250
59		72.265625
60		78.125000
61		70.312500
62		74.218750
63		66.406250
64		70.312500
65		62.500000
66		68.359375
67		58.593750
68		64.453125
69		54.687500
70		60.546875
71		50.781250
72		56.640625
73		46.875000
74		52.734375
75		42.968750
76		48.828125
77		39.062500
78		44.921875
79		33.203125
80		41.015625
81		29.296875
82		37.109375
83		25.390625
84		31.250000
85		19.531250
86		27.343750
87		15.625000
88		21.484375
89		9.765625
90		17.578125
91		5.859375
92		13.671875
93		1.953125
94		7.812500
95		-3.906250
96		1.953125
97		-9.765625
98		-1.953125
99		-13.671875
100		-7.812500
101		-17.578125
102		-11.718750
103		-23.437500
104		-17.578125
105		-27.343750
106		-21.484375
107		-33.203125
108		-27.343750
109		-37.109375
110		-31.250000
111		-42.968750
112		-35.156250
113		-46.875000
114		-39.062500
115		-50.781250
116		-44.921875
117		-54.687500
118		-48.828125
119		-58.593750
120		-52.734375
121		-62.500000
122		-56.640625
123		-66.406250
124		-60.546875
125		-70.312500
126		-64.453125
127		-72.265625
128		-68.359375
129		-76.171875
130		-70.312500
131		-78.125000
132		-74.218750
133		-82.031250
134		-76.171875
135		-83.984375
136		-80.078125
137		-87.890625
138		-82.031250
139		-87.890625
140		-83.984375
141		-89.843750
142		-85.937500
143		-91.796875
144		-87.890625
145		-93.750000
146		-89.843750
147		-93.750000
148		-89.843750
149		-95.703125
150		-91.796875
151		-95.703125
152		-91.796875
153		-95.703125
154		-91.796875
155		-95.703125
156		-91.796875
157		-95.703125
158		-91.796875
159		-93.750000
160		-91.796875
161		-93.750000
162		-91.796875
163		-93.750000
164		-89.843750
165		-91.796875
166		-87.890625
167		-89.843750
168		-85.937500
169		-87.890625
170		-83.984375
171		-87.890625
172		-83.984375
173		-85.937500
174		-80.078125
175		-82.031250
176		-78.125000
177		-80.078125
178		-74.218750
179		-76.171875
180		-72.265625
181		-74.218750
182		-68.359375
183		-70.312500
184		-66.406250
185		-68.359375
186		-62.500000
187		-62.500000
188		-58.593750
189		-60.546875
190		-54.687500
191		-54.687500
192		-50.781250
193		-50.781250
194		-44.921875
195		-46.875000
196		-39.062500
197		-42.968750
198		-37.109375
199		-37.109375
200		-33.203125
201		-33.203125
202		-27.343750
203		-29.296875
204		-23.437500
205		-23.437500
206		-17.578125
207		-19.531250
208		-13.671875
209		-13.671875
210		-7.812500
211		-9.765625
212		-3.906250
213		-5.859375
214		1.953125
215		0.000000
216		5.859375
217		3.906250
218		11.718750
219		9.765625
220		15.625000
221		13.671875
222		21.484375
223		19.531250
224		25.390625
225		23.437500
226		29.296875
227		29.296875
228		35.156250
229		33.203125
230		39.062500
231		37.109375
232		42.968750
233		41.015625
234		46.875000
235		46.875000
236		50.781250
237		50.781250
238		56.640625
239		54.687500
240		58.593750
241		56.640625
242		62.500000
243		62.500000
244		66.406250
245		64.453125
246		70.312500
247		68.359375
248		72.265625
249		72.265625
250		76.171875
251		74.218750
252		80.078125
253		78.125000
254		82.031250
255		80.078125
256		83.984375
257		82.031250
258		87.890625
259		83.984375
260		87.890625
261		87.890625
262		91.796875
263		87.890625
264		93.750000
265		89.843750
266		95.703125
267		91.796875
268		95.703125
269		93.750000
270		97.656250
271		95.703125
272		97.656250
273		95.703125
274		99.609375
275		95.703125
276		99.609375
277		97.656250
278		99.609375
279		97.656250
280		101.562500
281		97.656250
282		99.609375
283		95.703125
284		99.609375
285		95.703125
286		99.609375
287		95.703125
288		99.609375
289		93.750000
290		97.656250
291		93.750000
292		97.656250
293		93.750000
294		95.703125
295		91.796875
296		93.750000
297		89.843750
298		93.750000
299		87.890625
300		91.796875
301		83.984375
302		89.843750
303		83.984375
304		87.890625
305		80.078125
306		85.937500
307		78.125000
308		82.031250
309		76.171875
310		80.078125
311		72.265625
312		76.171875
313		68.359375
314		74.218750
315		66.406250
316		70.312500
317		62.500000
318		68.359375
319		58.593750
320		64.453125
321		54.687500
322		60.546875
323		50.781250
324		56.640625
325		46.875000
326		52.734375
327		41.015625
328		48.828125
329		39.062500
330		44.921875
331		33.203125
332		39.062500
333		27.343750
334		35.156250
335		23.437500
336		31.250000
337		19.531250
338		25.390625
339		13.671875
340		21.484375
341		9.765625
342		15.625000
343		5.859375
344		11.718750
345		0.000000
346		5.859375
347		-3.906250
348		1.953125
349		-9.765625
350		-3.906250
351		-13.671875
352		-7.812500
353		-19.531250
354		-13.671875
355		-23.437500
356		-17.578125
357		-29.296875
358		-21.484375
359		-33.203125
360		-27.343750
361		-39.062500
362		-31.250000
363		-42.968750
364		-37.109375
365		-46.875000
366		-39.062500
367		-50.781250
368		-44.921875
369		-54.687500
370		-50.781250
371		-58.593750
372		-54.687500
373		-64.453125
374		-58.593750
375		-68.359375
376		-62.500000
377		-70.312500
378		-64.453125
379		-74.218750
380		-68.359375
381		-76.171875
382		-72.265625
383		-80.078125
384		-74.218750
385		-82.031250
386		-78.125000
387		-83.984375
388		-80.078125
389		-87.890625
390		-82.031250
391		-89.843750
392		-85.937500
393		-91.796875
394		-85.937500
395		-91.796875
396		-87.890625
397		-93.750000
398		-89.843750
399		-93.750000
400		-91.796875
401		-95.703125
402		-91.796875
403		-95.703125
404		-93.750000
405		-95.703125
406		-93.750000
407		-95.703125
408		-93.750000
409		-97.656250
410		-91.796875
411		-95.703125
412		-91.796875
413		-93.750000
414		-91.796875
415		-93.750000
416		-89.843750
417		-91.796875
418		-87.890625
419		-91.796875
420		-87.890625
421		-89.843750
422		-85.937500
423		-87.890625
424		-83.984375
425		-85.937500
426		-80.078125
427		-83.984375
428		-78.125000
429		-80.078125
430		-76.171875
431		-76.171875
432		-72.265625
433		-74.218750
434		-70.312500
435		-70.312500
436		-64.453125
437		-68.359375
438		-60.546875
439		-64.453125
440		-58.593750
441		-60.546875
442		-54.687500
443		-56.640625
444		-50.781250
445		-50.781250
446		-44.921875
447		-46.875000
448		-41.015625
449		-44.921875
450		-37.109375
451		-39.062500
452		-31.250000
453		-33.203125
454		-27.343750
455		-29.296875
456		-23.437500
457		-25.390625
458		-17.578125
459		-19.531250
460		-13.671875
461		-15.625000
462		-7.812500
463		-9.765625
464		-3.906250
465		-5.859375
466		1.953125
467		0.000000
468		5.859375
469		3.906250
470		9.765625
471		7.812500
472		15.625000
473		13.671875
474		21.484375
475		19.531250
476		25.390625
477		23.437500
478		29.296875
479		27.343750
480		35.156250
481		33.203125
482		39.062500
483		37.109375
484		42.968750
485		41.015625
486		46.875000
487		44.921875
488		52.734375
489		50.781250
490		56.640625
491		52.734375
492		58.593750
493		56.640625
494		62.500000
495		60.546875
496		66.406250
497		64.453125
498		70.312500
499		68.359375
500		72.265625
501		72.265625
502		76.171875
503		74.218750
504		78.125000
505		76.171875
506		82.031250
507		78.125000
508		83.984375
509		82.031250
510		85.937500
511		83.984375
512		87.890625
513		85.937500
514		89.843750
515		87.890625
516		91.796875
517		89.843750
518		93.750000
519		91.796875
520		95.703125
521		91.796875
522		95.703125
523		93.750000
524		97.656250
525		95.703125
526		99.609375
527		95.703125
528		99.609375
529		95.703125
530		99.609375
531		97.656250
532		99.609375
533		95.703125
534		99.609375
535		95.703125
536		99.609375
537		95.703125
538		99.609375
539		95.703125
540		97.656250
541		93.750000
542		97.656250
543		93.750000
544		95.703125
545		91.796875
546		95.703125
547		89.843750
548		93.750000
549		87.890625
550		93.750000
551		85.937500
552		91.796875
553		83.984375
554		87.890625
555		82.031250
556		87.890625
557		80.078125
558		83.984375
559		78.125000
560		82.031250
561		74.218750
562		80.078125
563		72.265625
564		76.171875
565		68.359375
566		74.218750
567		64.453125
568		70.312500
569		62.500000
570		66.406250
571		58.593750
572		64.453125
573		52.734375
574		58.593750
575		48.828125
576		56.640625
577		44.921875
578		50.781250
579		41.015625
580		46.875000
581		37.109375
582		42.968750
583		31.250000
584		39.062500
585		27.343750
586		33.203125
587		23.437500
588		29.296875
589		17.578125
590		25.390625
591		13.671875
592		19.531250
593		7.812500
594		15.625000
595		3.906250
596		9.765625
597		0.000000
598		5.859375
599		-5.859375
600		0.000000
601		-9.765625
602		-3.906250
603		-15.625000
604		-9.765625
605		-19.531250
606		-13.671875
607		-25.390625
608		-17.578125
609		-29.296875
610		-23.437500
611		-35.156250
612		-27.343750
613		-39.062500
614		-33.203125
615		-42.968750
616		-37.109375
617		-48.828125
618		-41.015625
619		-52.734375
620		-46.875000
621		-56.640625
622		-50.781250
623		-60.546875
624		-54.687500
625		-64.453125
626		-58.593750
627		-68.359375
628		-62.500000
629		-70.312500
630		-64.453125
631		-74.218750
632		-70.312500
633		-78.125000
634		-72.265625
635		-80.078125
636		-76.171875
637		-82.031250
638		-78.125000
639		-85.937500
640		-82.031250
641		-87.890625
642		-83.984375
643		-89.843750
644		-83.984375
645		-91.796875
646		-87.890625
647		-91.796875
648		-89.843750
649		-95.703125
650		-91.796875
651		-95.703125
652		-91.796875
653		-95.703125
654		-91.796875
655		-95.703125
656		-93.750000
657		-95.703125
658		-93.750000
659		-95.703125
660		-93.750000
661		-95.703125
662		-91.796875
663		-95.703125
664		-91.796875
665		-93.750000
666		-91.796875
667		-95.703125
668		-89.843750
669		-91.796875
670		-89.843750
671		-91.796875
672		-85.937500
673		-89.843750
674		-85.937500
675		-87.890625
676		-82.031250
677		-85.937500
678		-80.078125
679		-83.984375
680		-78.125000
681		-80.078125
682		-76.171875
683		-76.171875
684		-72.265625
685		-74.218750
686		-68.359375
687		-70.312500
688		-64.453125
689		-66.406250
690		-62.500000
691		-64.453125
692		-58.593750
693		-60.546875
694		-54.687500
695		-56.640625
696		-50.781250
697		-50.781250
698		-44.921875
699		-46.875000
700		-41.015625
701		-42.968750
702		-37.109375
703		-39.062500
704		-31.250000
705		-33.203125
706		-27.343750
707		-29.296875
708		-23.437500
709		-23.437500
710		-17.578125
711		-19.531250
712		-13.671875
713		-15.625000
714		-7.812500
715		-9.765625
716		-3.906250
717		-3.906250
718		1.953125
719		0.000000
720		5.859375
721		3.906250
722		11.718750
723		9.765625
724		15.625000
725		13.671875
726		21.484375
727		19.531250
728		25.390625
729		23.437500
730		29.296875
731		29.296875
732		35.156250
733		33.203125
734		41.015625
735		37.109375
736		44.921875
737		42.968750
738		46.875000
739		46.875000
740		52.734375
741		50.781250
742		54.687500
743		52.734375
744		60.546875
745		58.593750
746		64.453125
747		62.500000
748		66.406250
749		64.453125
750		70.312500
751		68.359375
752		76.171875
753		70.312500
754		78.125000
755		72.265625
756		80.078125
757		76.171875
758		83.984375
759		78.125000
760		85.937500
761		82.031250
762		87.890625
763		83.984375
764		87.890625
765		87.890625
766		89.843750
767		87.890625
768		93.750000
769		87.890625
770		95.703125
771		89.843750
772		97.656250
773		91.796875
774		97.656250
775		91.796875
776		99.609375
777		93.750000
778		99.609375
779		95.703125
780		99.609375
781		95.703125
782		99.609375
783		97.656250
784		99.609375
785		93.750000
786		101.562500
787		93.750000
788		101.562500
789		93.750000
790		101.562500
791		91.796875
792		99.609375
793		91.796875
794		99.609375
795		91.796875
796		97.656250
797		91.796875
798		95.703125
799		89.843750
800		93.750000
801		85.937500
802		93.750000
803		85.937500
804		91.796875
805		82.031250
806		89.843750
807		80.078125
808		87.890625
809		78.125000
810		85.937500
811		74.218750
812		83.984375
813		74.218750
814		80.078125
815		72.265625
816		76.171875
817		66.406250
818		72.265625
819		62.500000
820		70.312500
821		60.546875
822		66.406250
823		56.640625
824		64.453125
825		52.734375
826		58.593750
827		46.875000
828		54.687500
829		44.921875
830		50.781250
831		41.015625
832		46.875000
833		35.156250
834		42.968750
835		29.296875
836		39.062500
837		25.390625
838		35.156250
839		19.531250
840		29.296875
841		15.625000
842		25.390625
843		11.718750
844		21.484375
845		7.812500
846		15.625000
847		3.906250
848		9.765625
849		-1.953125
850		3.906250
851		-5.859375
852		0.000000
853		-13.671875
854		-1.953125
855		-17.578125
856		-7.812500
857		-23.437500
858		-11.718750
859		-27.343750
860		-17.578125
861		-33.203125
862		-23.437500
863		-35.156250
864		-27.343750
865		-39.062500
866		-33.203125
867		-44.921875
868		-39.062500
869		-50.781250
870		-41.015625
871		-54.687500
872		-44.921875
873		-58.593750
874		-48.828125
875		-62.500000
876		-52.734375
877		-66.406250
878		-58.593750
879		-70.312500
880		-60.546875
881		-72.265625
882		-66.406250
883		-74.218750
884		-70.312500
885		-80.078125
886		-74.218750
887		-82.031250
888		-74.218750
889		-85.937500
890		-76.171875
891		-87.890625
892		-80.078125
893		-89.843750
894		-82.031250
895		-91.796875
896		-83.984375
897		-91.796875
898		-85.937500
899		-93.750000
900		-89.843750
901		-95.703125
902		-91.796875
903		-97.656250
904		-89.843750
905		-97.656250
906		-91.796875
907		-99.609375
908		-91.796875
909		-99.609375
910		-91.796875
911		-99.609375
912		-91.796875
913		-97.656250
914		-91.796875
915		-95.703125
916		-93.750000
917		-93.750000
918		-91.796875
919		-95.703125
920		-89.843750
921		-93.750000
922		-87.890625
923		-93.750000
924		-85.937500
925		-91.796875
926		-83.984375
927		-89.843750
928		-82.031250
929		-87.890625
930		-78.125000
931		-83.984375
932		-78.125000
933		-80.078125
934		-76.171875
935		-76.171875
936		-70.312500
937		-76.171875
938		-66.406250
939		-74.218750
940		-62.500000
941		-68.359375
942		-60.546875
943		-64.453125
944		-54.687500
945		-60.546875
946		-50.781250
947		-56.640625
948		-48.828125
949		-50.781250
950		-44.921875
951		-46.875000
952		-41.015625
953		-44.921875
954		-35.156250
955		-39.062500
956		-29.296875
957		-35.156250
958		-25.390625
959		-31.250000
960		-21.484375
961		-27.343750
962		-15.625000
963		-21.484375
964		-9.765625
965		-15.625000
966		-7.812500
967		-9.765625
968		-3.906250
969		-3.906250
970		3.906250
971		-1.953125
972		7.812500
973		3.906250
974		13.671875
975		7.812500
976		17.578125
977		11.718750
978		23.437500
979		17.578125
980		27.343750
981		21.484375
982		29.296875
983		29.296875
984		35.156250
985		33.203125
986		41.015625
987		35.156250
988		44.921875
989		39.062500
990		50.781250
991		42.968750
992		52.734375
993		46.875000
994		56.640625
995		50.781250
996		60.546875
997		54.687500
998		64.453125
999		62.500000
1000		66.406250
1001		64.453125
1002		70.312500
1003		68.359375
1004		76.171875
1005		68.359375
1006		78.125000
1007		72.265625
1008		80.078125
1009		76.171875
1010		83.984375
1011		78.125000
1012		85.937500
1013		80.078125
1014		87.890625
1015		82.031250
1016		89.843750
1017		85.937500
1018		89.843750
1019		87.890625
1020		93.750000
1021		87.890625
1022		95.703125
1023		89.843750
1024		97.656250
1025		89.843750
1026		97.656250
1027		91.796875
1028		99.609375
1029		91.796875
1030		99.609375
1031		93.750000
1032		99.609375
1033		95.703125
1034		99.609375
1035		95.703125
1036		99.609375
1037		93.750000
1038		101.562500
1039		93.750000
1040		101.562500
1041		93.750000
1042		99.609375
1043		91.796875
1044		99.609375
1045		91.796875
1046		99.609375
1047		89.843750
1048		97.656250
1049		89.843750
1050		97.656250
1051		89.843750
1052		93.750000
1053		85.937500
1054		93.750000
1055		83.984375
1056		91.796875
1057		82.031250
1058		89.843750
1059		80.078125
1060		87.890625
1061		76.171875
1062		85.937500
1063		74.218750
1064		82.031250
1065		72.265625
1066		80.078125
1067		70.312500
1068		74.218750
1069		66.406250
1070		72.265625
1071		60.546875
1072		70.312500
1073		58.593750
1074		66.406250
1075		54.687500
1076		64.453125
1077		50.781250
1078		60.546875
1079		46.875000
1080		54.687500
1081		42.968750
1082		50.781250
1083		39.062500
1084		46.875000
1085		35.156250
1086		41.015625
1087		29.296875
1088		37.109375
1089		25.390625
1090		35.156250
1091		19.531250
1092		29.296875
1093		15.625000
1094		25.390625
1095		9.765625
1096		19.531250
1097		5.859375
1098		15.625000
1099		1.953125
1100		11.718750
1101		-1.953125
1102		3.906250
1103		-9.765625
1104		-1.953125
1105		-13.671875
1106		-3.906250
1107		-19.531250
1108		-9.765625
1109		-23.437500
1110		-15.625000
1111		-29.296875
1112		-17.578125
1113		-35.156250
1114		-23.437500
1115		-37.109375
1116		-27.343750
1117		-41.015625
1118		-35.156250
1119		-44.921875
1120		-39.062500
1121		-50.781250
1122		-42.968750
1123		-56.640625
1124		-46.875000
1125		-58.593750
1126		-50.781250
1127		-62.500000
1128		-54.687500
1129		-66.406250
1130		-58.593750
1131		-72.265625
1132		-62.500000
1133		-72.265625
1134		-66.406250
1135		-76.171875
1136		-70.312500
1137		-80.078125
1138		-74.218750
1139		-83.984375
1140		-76.171875
1141		-85.937500
1142		-78.125000
1143		-87.890625
1144		-80.078125
1145		-91.796875
1146		-83.984375
1147		-93.750000
1148		-83.984375
1149		-93.750000
1150		-85.937500
1151		-93.750000
1152		-89.843750
1153		-93.750000
1154		-91.796875
1155		-97.656250
1156		-91.796875
1157		-99.609375
1158		-91.796875
1159		-99.609375
1160		-91.796875
1161		-99.609375
1162		-91.796875
1163		-99.609375
1164		-91.796875
1165		-99.609375
1166		-91.796875
1167		-97.656250
1168		-91.796875
1169		-95.703125
1170		-91.796875
1171		-95.703125
1172		-89.843750
1173		-95.703125
1174		-87.890625
1175		-93.750000
1176		-85.937500
1177		-91.796875
1178		-83.984375
1179		-89.843750
1180		-82.031250
1181		-87.890625
1182		-80.078125
1183		-85.937500
1184		-78.125000
1185		-80.078125
1186		-76.171875
1187		-78.125000
1188		-70.312500
1189		-74.218750
1190		-66.406250
1191		-72.265625
1192		-64.453125
1193		-70.312500
1194		-60.546875
1195		-66.406250
1196		-56.640625
1197		-60.546875
1198		-50.781250
1199		-56.640625
1200		-48.828125
1201		-50.781250
1202		-44.921875
1203		-46.875000
1204		-41.015625
1205		-44.921875
1206		-33.203125
1207		-39.062500
1208		-29.296875
1209		-35.156250
1210		-25.390625
1211		-31.250000
1212		-21.484375
1213		-25.390625
1214		-15.625000
1215		-21.484375
1216		-9.765625
1217		-15.625000
1218		-7.812500
1219		-9.765625
1220		-1.953125
1221		-3.906250
1222		3.906250
1223		-1.953125
1224		9.765625
1225		3.906250
1226		13.671875
1227		7.812500
1228		19.531250
1229		13.671875
1230		23.437500
1231		17.578125
1232		27.343750
1233		21.484375
1234		31.250000
1235		29.296875
1236		35.156250
1237		33.203125
1238		39.062500
1239		37.109375
1240		44.921875
1241		41.015625
1242		50.781250
1243		44.921875
1244		52.734375
1245		48.828125
1246		58.593750
1247		52.734375
1248		62.500000
1249		54.687500
1250		64.453125
1251		60.546875
1252		66.406250
1253		66.406250
1254		70.312500
1255		68.359375
1256		74.218750
1257		70.312500
1258		78.125000
1259		72.265625
1260		82.031250
1261		74.218750
1262		83.984375
1263		78.125000
1264		85.937500
1265		80.078125
1266		87.890625
1267		82.031250
1268		89.843750
1269		87.890625
1270		89.843750
1271		87.890625
1272		93.750000
1273		87.890625
1274		95.703125
1275		89.843750
1276		97.656250
1277		91.796875
1278		97.656250
1279		91.796875
1280		99.609375
1281		93.750000
1282		99.609375
1283		93.750000
1284		101.562500
1285		95.703125
1286		99.609375
1287		95.703125
1288		99.609375
1289		93.750000
1290		101.562500
1291		93.750000
1292		101.562500
1293		93.750000
1294		101.562500
1295		93.750000
1296		99.609375
1297		91.796875
1298		99.609375
1299		91.796875
1300		97.656250
1301		91.796875
1302		97.656250
1303		89.843750
1304		93.750000
1305		85.937500
1306		93.750000
1307		83.984375
1308		91.796875
1309		82.031250
1310		89.843750
1311		80.078125
1312		87.890625
1313		78.125000
1314		85.937500
1315		74.218750
1316		83.984375
1317		72.265625
1318		82.031250
1319		70.312500
1320		76.171875
1321		68.359375
1322		72.265625
1323		62.500000
1324		70.312500
1325		58.593750
1326		68.359375
1327		54.687500
1328		62.500000
1329		50.781250
1330		60.546875
1331		46.875000
1332		56.640625
1333		42.968750
1334		50.781250
1335		41.015625
1336		46.875000
1337		35.156250
1338		41.015625
1339		29.296875
1340		37.109375
1341		25.390625
1342		33.203125
1343		19.531250
1344		29.296875
1345		15.625000
1346		25.390625
1347		9.765625
1348		21.484375
1349		5.859375
1350		15.625000
1351		1.953125
1352		9.765625
1353		-1.953125
1354		3.906250
1355		-7.812500
1356		-1.953125
1357		-13.671875
1358		-3.906250
1359		-19.531250
1360		-7.812500
1361		-23.437500
1362		-13.671875
1363		-29.296875
1364		-17.578125
1365		-33.203125
1366		-23.437500
1367		-37.109375
1368		-27.343750
1369		-41.015625
1370		-35.156250
1371		-44.921875
1372		-39.062500
1373		-50.781250
1374		-42.968750
1375		-56.640625
1376		-46.875000
1377		-60.546875
1378		-50.781250
1379		-64.453125
1380		-54.687500
1381		-66.406250
1382		-58.593750
1383		-70.312500
1384		-62.500000
1385		-72.265625
1386		-64.453125
1387		-74.218750
1388		-70.312500
1389		-80.078125
1390		-74.218750
1391		-83.984375
1392		-74.218750
1393		-85.937500
1394		-78.125000
1395		-87.890625
1396		-80.078125
1397		-89.843750
1398		-82.031250
1399		-91.796875
1400		-83.984375
1401		-93.750000
1402		-85.937500
1403		-93.750000
1404		-89.843750
1405		-93.750000
1406		-91.796875
1407		-97.656250
1408		-89.843750
1409		-97.656250
1410		-91.796875
1411		-99.609375
1412		-91.796875
1413		-97.656250
1414		-91.796875
1415		-97.656250
1416		-91.796875
1417		-97.656250
1418		-91.796875
1419		-95.703125
1420		-91.796875
1421		-93.750000
1422		-91.796875
1423		-93.750000
1424		-87.890625
1425		-93.750000
1426		-85.937500
1427		-91.796875
1428		-83.984375
1429		-91.796875
1430		-82.031250
1431		-87.890625
1432		-80.078125
1433		-85.937500
1434		-78.125000
1435		-83.984375
1436		-76.171875
1437		-78.125000
1438		-74.218750
1439		-76.171875
1440		-70.312500
1441		-74.218750
1442		-66.406250
1443		-72.265625
1444		-62.500000
1445		-68.359375
1446		-58.593750
1447		-64.453125
1448		-54.687500
1449		-60.546875
1450		-50.781250
1451		-56.640625
1452		-46.875000
1453		-48.828125
1454		-44.921875
1455		-44.921875
1456		-39.062500
1457		-41.015625
1458		-33.203125
1459		-39.062500
1460		-29.296875
1461		-33.203125
1462		-23.437500
1463		-29.296875
1464		-19.531250
1465		-25.390625
1466		-13.671875
1467		-19.531250
1468		-9.765625
1469		-13.671875
1470		-5.859375
1471		-7.812500
1472		-1.953125
1473		-3.906250
1474		3.906250
1475		0.000000
1476		9.765625
1477		3.906250
1478		13.671875
1479		9.765625
1480		19.531250
1481		13.671875
1482		25.390625
1483		17.578125
1484		29.296875
1485		21.484375
1486		33.203125
1487		29.296875
1488		35.156250
1489		33.203125
1490		41.015625
1491		37.109375
1492		46.875000
1493		41.015625
1494		50.781250
1495		44.921875
1496		54.687500
1497		48.828125
1498		58.593750
1499		52.734375
1500		62.500000
1501		56.640625
1502		66.406250
1503		62.500000
1504		68.359375
1505		66.406250
1506		70.312500
1507		70.312500
1508		76.171875
1509		70.312500
1510		80.078125
1511		72.265625
1512		82.031250
1513		76.171875
1514		83.984375
1515		78.125000
1516		87.890625
1517		80.078125
1518		89.843750
1519		83.984375
1520		89.843750
1521		87.890625
1522		91.796875
1523		89.843750
1524		93.750000
1525		87.890625
1526		95.703125
1527		89.843750
1528		97.656250
1529		91.796875
1530		99.609375
1531		91.796875
1532		99.609375
1533		93.750000
1534		99.609375
1535		93.750000
1536		101.562500
1537		97.656250
1538		99.609375
1539		95.703125
1540		99.609375
1541		93.750000
1542		101.562500
1543		93.750000
1544		101.562500
1545		93.750000
1546		99.609375
1547		91.796875
1548		99.609375
1549		91.796875
1550		99.609375
1551		89.843750
1552		97.656250
1553		89.843750
1554		95.703125
1555		89.843750
1556		93.750000
1557		85.937500
1558		91.796875
1559		83.984375
1560		91.796875
1561		82.031250
1562		89.843750
1563		78.125000
1564		87.890625
1565		76.171875
1566		85.937500
1567		74.218750
1568		82.031250
1569		72.265625
1570		80.078125
1571		70.312500
1572		74.218750
1573		66.406250
1574		72.265625
1575		60.546875
1576		70.312500
1577		58.593750
1578		66.406250
1579		54.687500
1580		62.500000
1581		50.781250
1582		58.593750
1583		46.875000
1584		56.640625
1585		41.015625
1586		50.781250
1587		39.062500
1588		46.875000
1589		35.156250
1590		41.015625
1591		27.343750
1592		37.109375
1593		23.437500
1594		33.203125
1595		19.531250
1596		29.296875
1597		13.671875
1598		25.390625
1599		7.812500
1600		19.531250
1601		3.906250
1602		15.625000
1603		1.953125
1604		9.765625
1605		-3.906250
1606		3.906250
1607		-7.812500
1608		-1.953125
1609		-13.671875
1610		-3.906250
1611		-19.531250
1612		-9.765625
1613		-25.390625
1614		-13.671875
1615		-29.296875
1616		-19.531250
1617		-35.156250
1618		-23.437500
1619		-39.062500
1620		-29.296875
1621		-41.015625
1622		-35.156250
1623		-44.921875
1624		-39.062500
1625		-52.734375
1626		-42.968750
1627		-56.640625
1628		-46.875000
1629		-58.593750
1630		-50.781250
1631		-64.453125
1632		-54.687500
1633		-68.359375
1634		-58.593750
1635		-72.265625
1636		-62.500000
1637		-74.218750
1638		-66.406250
1639		-76.171875
1640		-70.312500
1641		-80.078125
1642		-74.218750
1643		-83.984375
1644		-76.171875
1645		-85.937500
1646		-78.125000
1647		-89.843750
1648		-80.078125
1649		-91.796875
1650		-82.031250
1651		-93.750000
1652		-85.937500
1653		-93.750000
1654		-85.937500
1655		-93.750000
1656		-89.843750
1657		-93.750000
1658		-91.796875
1659		-97.656250
1660		-91.796875
1661		-97.656250
1662		-91.796875
1663		-97.656250
1664		-91.796875
1665		-97.656250
1666		-91.796875
1667		-97.656250
1668		-91.796875
1669		-97.656250
1670		-91.796875
1671		-95.703125
1672		-91.796875
1673		-93.750000
1674		-91.796875
1675		-95.703125
1676		-87.890625
1677		-93.750000
1678		-85.937500
1679		-91.796875
1680		-83.984375
1681		-89.843750
1682		-82.031250
1683		-89.843750
1684		-80.078125
1685		-85.937500
1686		-78.125000
1687		-83.984375
1688		-76.171875
1689		-78.125000
1690		-74.218750
1691		-76.171875
1692		-72.265625
1693		-74.218750
1694		-66.406250
1695		-72.265625
1696		-62.500000
1697		-68.359375
1698		-58.593750
1699		-64.453125
1700		-54.687500
1701		-60.546875
1702		-50.781250
1703		-56.640625
1704		-44.921875
1705		-50.781250
1706		-44.921875
1707		-44.921875
1708		-39.062500
1709		-41.015625
1710		-33.203125
1711		-37.109375
1712		-27.343750
1713		-33.203125
1714		-23.437500
1715		-29.296875
1716		-19.531250
1717		-25.390625
1718		-13.671875
1719		-19.531250
1720		-9.765625
1721		-13.671875
1722		-5.859375
1723		-7.812500
1724		-1.953125
1725		-3.906250
1726		5.859375
1727		0.000000
1728		9.765625
1729		3.906250
1730		15.625000
1731		9.765625
1732		19.531250
1733		15.625000
1734		25.390625
1735		17.578125
1736		29.296875
1737		23.437500
1738		33.203125
1739		29.296875
1740		37.109375
1741		35.156250
1742		41.015625
1743		37.109375
1744		46.875000
1745		41.015625
1746		50.781250
1747		44.921875
1748		54.687500
1749		48.828125
1750		58.593750
1751		52.734375
1752		62.500000
1753		56.640625
1754		66.406250
1755		60.546875
1756		68.359375
1757		66.406250
1758		70.312500
1759		68.359375
1760		76.171875
1761		70.312500
1762		80.078125
1763		74.218750
1764		82.031250
1765		76.171875
1766		83.984375
1767		80.078125
1768		87.890625
1769		82.031250
1770		87.890625
1771		82.031250
1772		89.843750
1773		87.890625
1774		91.796875
1775		89.843750
1776		93.750000
1777		89.843750
1778		97.656250
1779		89.843750
1780		97.656250
1781		91.796875
1782		99.609375
1783		91.796875
1784		99.609375
1785		91.796875
1786		99.609375
1787		93.750000
1788		99.609375
1789		95.703125
1790		99.609375
1791		97.656250
1792		99.609375
1793		93.750000
1794		101.562500
1795		93.750000
1796		101.562500
1797		93.750000
1798		99.609375
1799		93.750000
1800		99.609375
1801		91.796875
1802		99.609375
1803		91.796875
1804		97.656250
1805		89.843750
1806		97.656250
1807		89.843750
1808		93.750000
1809		85.937500
1810		91.796875
1811		83.984375
1812		91.796875
1813		82.031250
1814		89.843750
1815		78.125000
1816		87.890625
1817		76.171875
1818		85.937500
1819		74.218750
1820		82.031250
1821		72.265625
1822		80.078125
1823		70.312500
1824		74.218750
1825		66.406250
1826		72.265625
1827		60.546875
1828		68.359375
1829		56.640625
1830		66.406250
1831		52.734375
1832		62.500000
1833		48.828125
1834		58.593750
1835		44.921875
1836		54.687500
1837		42.968750
1838		50.781250
1839		39.062500
1840		46.875000
1841		35.156250
1842		41.015625
1843		27.343750
1844		35.156250
1845		23.437500
1846		33.203125
1847		19.531250
1848		27.343750
1849		13.671875
1850		23.437500
1851		7.812500
1852		19.531250
1853		3.906250
1854		13.671875
1855		1.953125
1856		9.765625
1857		-3.906250
1858		1.953125
1859		-7.812500
1860		-1.953125
1861		-15.625000
1862		-5.859375
1863		-21.484375
1864		-9.765625
1865		-25.390625
1866		-15.625000
1867		-29.296875
1868		-19.531250
1869		-33.203125
1870		-25.390625
1871		-39.062500
1872		-29.296875
1873		-41.015625
1874		-35.156250
1875		-46.875000
1876		-41.015625
1877		-52.734375
1878		-44.921875
1879		-56.640625
1880		-46.875000
1881		-60.546875
1882		-50.781250
1883		-64.453125
1884		-54.687500
1885		-68.359375
1886		-58.593750
1887		-72.265625
1888		-62.500000
1889		-74.218750
1890		-66.406250
1891		-76.171875
1892		-72.265625
1893		-82.031250
1894		-74.218750
1895		-83.984375
1896		-76.171875
1897		-87.890625
1898		-78.125000
1899		-87.890625
1900		-80.078125
1901		-91.796875
1902		-83.984375
1903		-93.750000
1904		-85.937500
1905		-93.750000
1906		-85.937500
1907		-93.750000
1908		-89.843750
1909		-93.750000
1910		-91.796875
1911		-97.656250
1912		-91.796875
1913		-99.609375
1914		-91.796875
1915		-99.609375
1916		-91.796875
1917		-99.609375
1918		-91.796875
1919		-99.609375
1920		-91.796875
1921		-99.609375
1922		-91.796875
1923		-97.656250
1924		-91.796875
1925		-93.750000
1926		-91.796875
1927		-93.750000
1928		-87.890625
1929		-93.750000
1930		-85.937500
1931		-93.750000
1932		-83.984375
1933		-91.796875
1934		-82.031250
1935		-89.843750
1936		-80.078125
1937		-85.937500
1938		-78.125000
1939		-83.984375
1940		-76.171875
1941		-78.125000
1942		-74.218750
1943		-76.171875
1944		-70.312500
1945		-74.218750
1946		-66.406250
1947		-70.312500
1948		-62.500000
1949		-68.359375
1950		-58.593750
1951		-64.453125
1952		-54.687500
1953		-60.546875
1954		-50.781250
1955		-56.640625
1956		-46.875000
1957		-52.734375
1958		-42.968750
1959		-44.921875
1960		-39.062500
1961		-41.015625
1962		-33.203125
1963		-39.062500
1964		-27.343750
1965		-33.203125
1966		-23.437500
1967		-29.296875
1968		-19.531250
1969		-23.437500
1970		-13.671875
1971		-19.531250
1972		-7.812500
1973		-13.671875
1974		-5.859375
1975		-7.812500
1976		-1.953125
1977		-1.953125
1978		5.859375
1979		0.000000
1980		11.718750
1981		3.906250
1982		15.625000
1983		9.765625
1984		19.531250
1985		13.671875
1986		25.390625
1987		19.531250
1988		29.296875
1989		23.437500
1990		33.203125
1991		29.296875
1992		37.109375
1993		35.156250
1994		41.015625
1995		37.109375
1996		46.875000
1997		41.015625
1998		52.734375
1999		44.921875
2000		54.687500
2001		48.828125
2002		58.593750
2003		52.734375
2004		62.500000
2005		58.593750
2006		66.406250
2007		60.546875
2008		68.359375
2009		66.406250
2010		70.312500
2011		68.359375
2012		76.171875
2013		70.312500
2014		80.078125
2015		72.265625
2016		82.031250
2017		76.171875
2018		83.984375
2019		78.125000
2020		85.937500
2021		80.078125
2022		89.843750
2023		82.031250
2024		89.843750
2025		85.937500
2026		91.796875
2027		89.843750
2028		93.750000
2029		87.890625
2030		95.703125
2031		89.843750
2032		97.656250
2033		91.796875
2034		97.656250
2035		91.796875
2036		99.609375
2037		91.796875
2038		99.609375
2039		93.750000
2040		101.562500
2041		93.750000
2042		99.609375
2043		95.703125
2044		99.609375
2045		93.750000
2046		101.562500
2047		93.750000
2048		99.609375
2049		91.796875
2050		99.609375
2051		91.796875
2052		99.609375
2053		89.843750
2054		97.656250
2055		89.843750
2056		97.656250
2057		89.843750
2058		95.703125
2059		87.890625
2060		91.796875
2061		85.937500
2062		91.796875
2063		82.031250
2064		91.796875
2065		80.078125
2066		89.843750
2067		78.125000
2068		85.937500
2069		76.171875
2070		83.984375
2071		72.265625
2072		82.031250
2073		70.312500
2074		78.125000
2075		68.359375
2076		74.218750
2077		66.406250
2078		70.312500
2079		60.546875
2080		68.359375
2081		56.640625
2082		64.453125
2083		52.734375
2084		62.500000
2085		48.828125
2086		58.593750
2087		44.921875
2088		52.734375
2089		39.062500
2090		50.781250
2091		39.062500
2092		44.921875
2093		33.203125
2094		39.062500
2095		25.390625
2096		35.156250
2097		21.484375
2098		33.203125
2099		17.578125
2100		27.343750
2101		11.718750
2102		23.437500
2103		7.812500
2104		19.531250
2105		1.953125
2106		13.671875
2107		-1.953125
2108		7.812500
2109		-3.906250
2110		1.953125
2111		-9.765625
2112		-3.906250
2113		-15.625000
2114		-7.812500
2115		-21.484375
2116		-11.718750
2117		-25.390625
2118		-15.625000
2119		-31.250000
2120		-21.484375
2121		-37.109375
2122		-25.390625
2123		-41.015625
2124		-29.296875
2125		-42.968750
2126		-35.156250
2127		-46.875000
2128		-41.015625
2129		-54.687500
2130		-44.921875
2131		-58.593750
2132		-48.828125
2133		-62.500000
2134		-52.734375
2135		-64.453125
2136		-56.640625
2137		-68.359375
2138		-60.546875
2139		-72.265625
2140		-64.453125
2141		-74.218750
2142		-68.359375
2143		-78.125000
2144		-72.265625
2145		-82.031250
2146		-76.171875
2147		-83.984375
2148		-76.171875
2149		-87.890625
2150		-80.078125
2151		-89.843750
2152		-82.031250
2153		-91.796875
2154		-83.984375
2155		-95.703125
2156		-85.937500
2157		-95.703125
2158		-87.890625
2159		-93.750000
2160		-89.843750
2161		-95.703125
2162		-91.796875
2163		-97.656250
2164		-91.796875
2165		-99.609375
2166		-91.796875
2167		-99.609375
2168		-91.796875
2169		-99.609375
2170		-91.796875
2171		-99.609375
2172		-91.796875
2173		-99.609375
2174		-91.796875
2175		-97.656250
2176		-91.796875
2177		-95.703125
2178		-91.796875
2179		-95.703125
2180		-87.890625
2181		-93.750000
2182		-85.937500
2183		-93.750000
2184		-85.937500
2185		-91.796875
2186		-82.031250
2187		-89.843750
2188		-80.078125
2189		-87.890625
2190		-78.125000
2191		-83.984375
2192		-76.171875
2193		-78.125000
2194		-74.218750
2195		-76.171875
2196		-70.312500
2197		-74.218750
2198		-66.406250
2199		-72.265625
2200		-62.500000
2201		-68.359375
2202		-58.593750
2203		-62.500000
2204		-52.734375
2205		-60.546875
2206		-50.781250
2207		-54.687500
2208		-44.921875
2209		-52.734375
2210		-42.968750
2211		-44.921875
2212		-39.062500
2213		-41.015625
2214		-33.203125
2215		-37.109375
2216		-27.343750
2217		-33.203125
2218		-23.437500
2219		-29.296875
2220		-17.578125
2221		-23.437500
2222		-13.671875
2223		-19.531250
2224		-7.812500
2225		-13.671875
2226		-5.859375
2227		-7.812500
2228		0.000000
2229		-1.953125
2230		3.906250
2231		0.000000
2232		9.765625
2233		5.859375
2234		15.625000
2235		9.765625
2236		21.484375
2237		15.625000
2238		25.390625
2239		19.531250
2240		29.296875
2241		23.437500
2242		33.203125
2243		31.250000
2244		37.109375
2245		35.156250
2246		41.015625
2247		39.062500
2248		46.875000
2249		41.015625
2250		50.781250
2251		46.875000
2252		54.687500
2253		48.828125
2254		60.546875
2255		52.734375
2256		62.500000
2257		56.640625
2258		66.406250
2259		60.546875
2260		68.359375
2261		66.406250
2262		72.265625
2263		70.312500
2264		76.171875
2265		70.312500
2266		80.078125
2267		74.218750
2268		82.031250
2269		76.171875
2270		83.984375
2271		78.125000
2272		87.890625
2273		82.031250
2274		89.843750
2275		83.984375
2276		91.796875
2277		87.890625
2278		91.796875
2279		89.843750
2280		91.796875
2281		89.843750
2282		95.703125
2283		89.843750
2284		97.656250
2285		91.796875
2286		97.656250
2287		91.796875
2288		99.609375
2289		91.796875
2290		99.609375
2291		93.750000
2292		99.609375
2293		93.750000
2294		99.609375
2295		95.703125
2296		97.656250
2297		93.750000
2298		101.562500
2299		93.750000
2300		99.609375
2301		91.796875
2302		99.609375
2303		91.796875
2304		99.609375
2305		89.843750
2306		99.609375
2307		89.843750
2308		97.656250
2309		87.890625
2310		95.703125
2311		87.890625
2312		91.796875
2313		87.890625
2314		89.843750
2315		82.031250
2316		89.843750
2317		80.078125
2318		87.890625
2319		78.125000
2320		85.937500
2321		76.171875
2322		83.984375
2323		72.265625
2324		80.078125
2325		68.359375
2326		78.125000
2327		68.359375
2328		74.218750
2329		64.453125
2330		70.312500
2331		58.593750
2332		66.406250
2333		54.687500
2334		64.453125
2335		50.781250
2336		60.546875
2337		48.828125
2338		56.640625
2339		44.921875
2340		52.734375
2341		39.062500
2342		48.828125
2343		37.109375
2344		44.921875
2345		33.203125
2346		39.062500
2347		27.343750
2348		35.156250
2349		21.484375
2350		31.250000
2351		15.625000
2352		27.343750
2353		11.718750
2354		21.484375
2355		7.812500
2356		17.578125
2357		1.953125
2358		11.718750
2359		-1.953125
2360		7.812500
2361		-5.859375
2362		0.000000
2363		-9.765625
2364		-3.906250
2365		-17.578125
2366		-7.812500
2367		-21.484375
2368		-11.718750
2369		-27.343750
2370		-15.625000
2371		-31.250000
2372		-21.484375
2373		-35.156250
2374		-25.390625
2375		-41.015625
2376		-31.250000
2377		-42.968750
2378		-35.156250
2379		-48.828125
2380		-41.015625
2381		-52.734375
2382		-46.875000
2383		-58.593750
2384		-48.828125
2385		-62.500000
2386		-52.734375
2387		-66.406250
2388		-56.640625
2389		-70.312500
2390		-60.546875
2391		-72.265625
2392		-64.453125
2393		-76.171875
2394		-66.406250
2395		-78.125000
2396		-74.218750
2397		-80.078125
2398		-76.171875
2399		-85.937500
2400		-76.171875
2401		-87.890625
2402		-80.078125
2403		-89.843750
2404		-82.031250
2405		-91.796875
2406		-83.984375
2407		-93.750000
2408		-85.937500
2409		-95.703125
2410		-87.890625
2411		-95.703125
2412		-89.843750
2413		-95.703125
2414		-91.796875
2415		-99.609375
2416		-91.796875
2417		-99.609375
2418		-91.796875
2419		-99.609375
2420		-91.796875
2421		-99.609375
2422		-91.796875
2423		-99.609375
2424		-91.796875
2425		-99.609375
2426		-91.796875
2427		-99.609375
2428		-91.796875
2429		-95.703125
2430		-91.796875
2431		-93.750000
2432		-89.843750
2433		-95.703125
2434		-85.937500
2435		-93.750000
2436		-83.984375
2437		-91.796875
2438		-83.984375
2439		-89.843750
2440		-80.078125
2441		-85.937500
2442		-78.125000
2443		-83.984375
2444		-76.171875
2445		-78.125000
2446		-74.218750
2447		-76.171875
2448		-70.312500
2449		-74.218750
2450		-66.406250
2451		-70.312500
2452		-62.500000
2453		-68.359375
2454		-58.593750
2455		-64.453125
2456		-54.687500
2457		-60.546875
2458		-50.781250
2459		-56.640625
2460		-46.875000
2461		-52.734375
2462		-42.968750
2463		-44.921875
2464		-39.062500
2465		-41.015625
2466		-31.250000
2467		-39.062500
2468		-27.343750
2469		-33.203125
2470		-23.437500
2471		-29.296875
2472		-17.578125
2473		-23.437500
2474		-13.671875
2475		-17.578125
2476		-7.812500
2477		-13.671875
2478		-5.859375
2479		-5.859375
2480		0.000000
2481		-1.953125
2482		5.859375
2483		1.953125
2484		11.718750
2485		5.859375
2486		15.625000
2487		9.765625
2488		21.484375
2489		13.671875
2490		25.390625
2491		19.531250
2492		29.296875
2493		23.437500
2494		35.156250
2495		29.296875
2496		37.109375
2497		35.156250
2498		41.015625
2499		39.062500
2500		46.875000
2501		41.015625
2502		50.781250
2503		46.875000
2504		56.640625
2505		50.781250
2506		60.546875
2507		54.687500
2508		62.500000
2509		58.593750
2510		68.359375
2511		60.546875
2512		68.359375
2513		66.406250
2514		72.265625
2515		70.312500
2516		76.171875
2517		70.312500
2518		80.078125
2519		74.218750
2520		82.031250
2521		76.171875
2522		85.937500
2523		80.078125
2524		87.890625
2525		82.031250
2526		89.843750
2527		83.984375
2528		91.796875
2529		87.890625
2530		91.796875
2531		89.843750
2532		93.750000
2533		87.890625
2534		95.703125
2535		89.843750
2536		97.656250
2537		91.796875
2538		99.609375
2539		91.796875
2540		99.609375
2541		93.750000
2542		99.609375
2543		91.796875
2544		99.609375
2545		93.750000
2546		101.562500
2547		95.703125
2548		97.656250
2549		93.750000
2550		101.562500
2551		91.796875
2552		99.609375
2553		91.796875
2554		99.609375
2555		91.796875
2556		99.609375
2557		89.843750
2558		97.656250
2559		87.890625
2560		97.656250
2561		87.890625
2562		95.703125
2563		87.890625
2564		91.796875
2565		85.937500
2566		89.843750
2567		82.031250
2568		89.843750
2569		80.078125
2570		87.890625
2571		78.125000
2572		85.937500
2573		74.218750
2574		83.984375
2575		72.265625
2576		80.078125
2577		70.312500
2578		78.125000
2579		68.359375
2580		74.218750
2581		64.453125
2582		70.312500
2583		58.593750
2584		66.406250
2585		56.640625
2586		64.453125
2587		52.734375
2588		60.546875
2589		46.875000
2590		56.640625
2591		42.968750
2592		52.734375
2593		39.062500
2594		48.828125
2595		37.109375
2596		44.921875
2597		33.203125
2598		39.062500
2599		25.390625
2600		33.203125
2601		19.531250
2602		31.250000
2603		15.625000
2604		27.343750
2605		11.718750
2606		21.484375
2607		5.859375
2608		17.578125
2609		1.953125
2610		11.718750
2611		-1.953125
2612		7.812500
2613		-5.859375
2614		0.000000
2615		-11.718750
2616		-3.906250
2617		-17.578125
2618		-7.812500
2619		-23.437500
2620		-11.718750
2621		-27.343750
2622		-17.578125
2623		-33.203125
2624		-21.484375
2625		-37.109375
2626		-27.343750
2627		-41.015625
2628		-31.250000
2629		-42.968750
2630		-37.109375
2631		-48.828125
2632		-42.968750
2633		-54.687500
2634		-46.875000
2635		-58.593750
2636		-48.828125
2637		-62.500000
2638		-52.734375
2639		-66.406250
2640		-56.640625
2641		-70.312500
2642		-60.546875
2643		-74.218750
2644		-64.453125
2645		-76.171875
2646		-68.359375
2647		-78.125000
2648		-72.265625
2649		-82.031250
2650		-76.171875
2651		-85.937500
2652		-78.125000
2653		-87.890625
2654		-80.078125
2655		-89.843750
2656		-82.031250
2657		-91.796875
2658		-83.984375
2659		-93.750000
2660		-85.937500
2661		-95.703125
2662		-87.890625
2663		-95.703125
2664		-89.843750
2665		-95.703125
2666		-93.750000
2667		-99.609375
2668		-91.796875
2669		-99.609375
2670		-91.796875
2671		-99.609375
2672		-91.796875
2673		-99.609375
2674		-91.796875
2675		-99.609375
2676		-91.796875
2677		-99.609375
2678		-91.796875
2679		-97.656250
2680		-91.796875
2681		-95.703125
2682		-91.796875
2683		-95.703125
2684		-87.890625
2685		-93.750000
2686		-85.937500
2687		-93.750000
2688		-85.937500
2689		-91.796875
2690		-82.031250
2691		-87.890625
2692		-80.078125
2693		-87.890625
2694		-78.125000
2695		-83.984375
2696		-74.218750
2697		-78.125000
2698		-74.218750
2699		-76.171875
2700		-70.312500
2701		-72.265625
2702		-66.406250
2703		-72.265625
2704		-62.500000
2705		-66.406250
2706		-58.593750
2707		-62.500000
2708		-52.734375
2709		-58.593750
2710		-50.781250
2711		-56.640625
2712		-46.875000
2713		-50.781250
2714		-42.968750
2715		-44.921875
2716		-39.062500
2717		-41.015625
2718		-31.250000
2719		-39.062500
2720		-27.343750
2721		-33.203125
2722		-23.437500
2723		-29.296875
2724		-17.578125
2725		-23.437500
2726		-13.671875
2727		-19.531250
2728		-7.812500
2729		-13.671875
2730		-3.906250
2731		-7.812500
2732		0.000000
2733		-1.953125
2734		3.906250
2735		1.953125
2736		11.718750
2737		5.859375
2738		15.625000
2739		11.718750
2740		21.484375
2741		15.625000
2742		27.343750
2743		19.531250
2744		29.296875
2745		25.390625
2746		35.156250
2747		29.296875
2748		37.109375
2749		35.156250
2750		41.015625
2751		41.015625
2752		48.828125
2753		41.015625
2754		52.734375
2755		46.875000
2756		56.640625
2757		50.781250
2758		58.593750
2759		54.687500
2760		64.453125
2761		58.593750
2762		66.406250
2763		62.500000
2764		68.359375
2765		66.406250
2766		72.265625
2767		70.312500
2768		76.171875
2769		70.312500
2770		80.078125
2771		74.218750
2772		82.031250
2773		76.171875
2774		83.984375
2775		80.078125
2776		87.890625
2777		82.031250
2778		89.843750
2779		82.031250
2780		91.796875
2781		87.890625
2782		91.796875
2783		89.843750
2784		91.796875
2785		87.890625
2786		95.703125
2787		89.843750
2788		97.656250
2789		91.796875
2790		97.656250
2791		91.796875
2792		99.609375
2793		93.750000
2794		99.609375
2795		93.750000
2796		99.609375
2797		93.750000
2798		99.609375
2799		95.703125
2800		97.656250
2801		93.750000
2802		99.609375
2803		93.750000
2804		99.609375
2805		91.796875
2806		99.609375
2807		91.796875
2808		99.609375
2809		89.843750
2810		97.656250
2811		89.843750
2812		97.656250
2813		87.890625
2814		95.703125
2815		87.890625
2816		91.796875
2817		85.937500
2818		89.843750
2819		82.031250
2820		89.843750
2821		80.078125
2822		87.890625
2823		78.125000
2824		85.937500
2825		74.218750
2826		83.984375
2827		70.312500
2828		80.078125
2829		68.359375
2830		78.125000
2831		68.359375
2832		74.218750
2833		64.453125
2834		68.359375
2835		58.593750
2836		66.406250
2837		54.687500
2838		64.453125
2839		50.781250
2840		60.546875
2841		46.875000
2842		56.640625
2843		42.968750
2844		52.734375
2845		39.062500
2846		48.828125
2847		35.156250
2848		42.968750
2849		31.250000
2850		37.109375
2851		27.343750
2852		33.203125
2853		21.484375
2854		31.250000
2855		15.625000
2856		25.390625
2857		9.765625
2858		21.484375
2859		5.859375
2860		15.625000
2861		0.000000
2862		11.718750
2863		-3.906250
2864		5.859375
2865		-5.859375
2866		0.000000
2867		-11.718750
2868		-5.859375
2869		-19.531250
2870		-9.765625
2871		-23.437500
2872		-11.718750
2873		-29.296875
2874		-17.578125
2875		-33.203125
2876		-21.484375
2877		-37.109375
2878		-27.343750
2879		-41.015625
2880		-31.250000
2881		-44.921875
2882		-37.109375
2883		-48.828125
2884		-42.968750
2885		-54.687500
2886		-46.875000
2887		-60.546875
2888		-48.828125
2889		-64.453125
2890		-54.687500
2891		-68.359375
2892		-58.593750
2893		-72.265625
2894		-62.500000
2895		-74.218750
2896		-66.406250
2897		-78.125000
2898		-68.359375
2899		-78.125000
2900		-74.218750
2901		-82.031250
2902		-78.125000
2903		-85.937500
2904		-78.125000
2905		-87.890625
2906		-80.078125
2907		-89.843750
2908		-83.984375
2909		-93.750000
2910		-83.984375
2911		-95.703125
2912		-85.937500
2913		-95.703125
2914		-87.890625
2915		-95.703125
2916		-89.843750
2917		-95.703125
2918		-93.750000
2919		-99.609375
2920		-91.796875
2921		-99.609375
2922		-93.750000
2923		-99.609375
2924		-93.750000
2925		-99.609375
2926		-93.750000
2927		-99.609375
2928		-91.796875
2929		-99.609375
2930		-91.796875
2931		-99.609375
2932		-91.796875
2933		-95.703125
2934		-91.796875
2935		-93.750000
2936		-91.796875
2937		-95.703125
2938		-87.890625
2939		-93.750000
2940		-85.937500
2941		-91.796875
2942		-83.984375
2943		-89.843750
2944		-80.078125
2945		-85.937500
2946		-78.125000
2947		-83.984375
2948		-74.218750
2949		-78.125000
2950		-74.218750
2951		-76.171875
2952		-70.312500
2953		-72.265625
2954		-66.406250
2955		-70.312500
2956		-60.546875
2957		-68.359375
2958		-58.593750
2959		-62.500000
2960		-54.687500
2961		-60.546875
2962		-50.781250
2963		-54.687500
2964		-44.921875
2965		-50.781250
2966		-42.968750
2967		-44.921875
2968		-39.062500
2969		-39.062500
2970		-31.250000
2971		-37.109375
2972		-27.343750
2973		-33.203125
2974		-21.484375
2975		-27.343750
2976		-17.578125
2977		-23.437500
2978		-11.718750
2979		-19.531250
2980		-7.812500
2981		-11.718750
2982		-3.906250
2983		-7.812500
2984		0.000000
2985		-1.953125
2986		3.906250
2987		1.953125
2988		11.718750
2989		5.859375
2990		15.625000
2991		9.765625
2992		21.484375
2993		15.625000
2994		25.390625
2995		19.531250
2996		31.250000
2997		25.390625
2998		35.156250
2999		29.296875
3000		37.109375
3001		35.156250
3002		41.015625
3003		41.015625
3004		48.828125
3005		42.968750
3006		52.734375
3007		46.875000
3008		56.640625
3009		50.781250
3010		60.546875
3011		54.687500
3012		64.453125
3013		56.640625
3014		66.406250
3015		60.546875
3016		68.359375
3017		66.406250
3018		72.265625
3019		70.312500
3020		78.125000
3021		72.265625
3022		80.078125
3023		74.218750
3024		82.031250
3025		76.171875
3026		85.937500
3027		78.125000
3028		85.937500
3029		80.078125
3030		89.843750
3031		83.984375
3032		91.796875
3033		85.937500
3034		91.796875
3035		89.843750
3036		93.750000
3037		87.890625
3038		95.703125
3039		89.843750
3040		97.656250
3041		91.796875
3042		97.656250
3043		91.796875
3044		99.609375
3045		91.796875
3046		99.609375
3047		93.750000
3048		99.609375
3049		93.750000
3050		99.609375
3051		95.703125
3052		99.609375
3053		93.750000
3054		99.609375
3055		91.796875
3056		99.609375
3057		91.796875
3058		99.609375
3059		91.796875
3060		99.609375
3061		89.843750
3062		97.656250
3063		87.890625
3064		95.703125
3065		87.890625
3066		95.703125
3067		87.890625
3068		91.796875
3069		85.937500
3070		89.843750
3071		82.031250
3072		89.843750
3073		80.078125
3074		87.890625
3075		76.171875
3076		85.937500
3077		74.218750
3078		82.031250
3079		70.312500
3080		80.078125
3081		68.359375
3082		76.171875
3083		68.359375
3084		74.218750
3085		64.453125
3086		68.359375
3087		58.593750
3088		66.406250
3089		54.687500
3090		64.453125
3091		50.781250
3092		60.546875
3093		46.875000
3094		56.640625
3095		42.968750
3096		52.734375
3097		37.109375
3098		48.828125
3099		35.156250
3100		42.968750
3101		31.250000
3102		37.109375
3103		25.390625
3104		33.203125
3105		21.484375
3106		31.250000
3107		15.625000
3108		25.390625
3109		9.765625
3110		21.484375
3111		5.859375
3112		17.578125
3113		0.000000
3114		11.718750
3115		-3.906250
3116		5.859375
3117		-5.859375
3118		1.953125
3119		-11.718750
3120		-5.859375
3121		-19.531250
3122		-9.765625
3123		-23.437500
3124		-11.718750
3125		-27.343750
3126		-17.578125
3127		-33.203125
3128		-23.437500
3129		-39.062500
3130		-27.343750
3131		-42.968750
3132		-33.203125
3133		-44.921875
3134		-37.109375
3135		-48.828125
3136		-42.968750
3137		-54.687500
3138		-48.828125
3139		-58.593750
3140		-48.828125
3141		-62.500000
3142		-54.687500
3143		-66.406250
3144		-58.593750
3145		-72.265625
3146		-62.500000
3147		-74.218750
3148		-64.453125
3149		-78.125000
3150		-68.359375
3151		-78.125000
3152		-74.218750
3153		-82.031250
3154		-76.171875
3155		-85.937500
3156		-78.125000
3157		-87.890625
3158		-80.078125
3159		-89.843750
3160		-82.031250
3161		-93.750000
3162		-83.984375
3163		-93.750000
3164		-85.937500
3165		-95.703125
3166		-87.890625
3167		-97.656250
3168		-89.843750
3169		-95.703125
3170		-93.750000
3171		-97.656250
3172		-91.796875
3173		-99.609375
3174		-91.796875
3175		-99.609375
3176		-91.796875
3177		-99.609375
3178		-93.750000
3179		-99.609375
3180		-91.796875
3181		-99.609375
3182		-91.796875
3183		-97.656250
3184		-89.843750
3185		-93.750000
3186		-91.796875
3187		-93.750000
3188		-89.843750
3189		-93.750000
3190		-85.937500
3191		-91.796875
3192		-83.984375
3193		-89.843750
3194		-82.031250
3195		-87.890625
3196		-80.078125
3197		-85.937500
3198		-76.171875
3199		-82.031250
3200		-74.218750
3201		-78.125000
3202		-72.265625
3203		-74.218750
3204		-70.312500
3205		-72.265625
3206		-64.453125
3207		-70.312500
3208		-60.546875
3209		-66.406250
3210		-56.640625
3211		-62.500000
3212		-52.734375
3213		-56.640625
3214		-48.828125
3215		-54.687500
3216		-42.968750
3217		-50.781250
3218		-41.015625
3219		-42.968750
3220		-37.109375
3221		-39.062500
3222		-31.250000
3223		-35.156250
3224		-25.390625
3225		-31.250000
3226		-21.484375
3227		-27.343750
3228		-15.625000
3229		-21.484375
3230		-11.718750
3231		-17.578125
3232		-7.812500
3233		-11.718750
3234		-1.953125
3235		-5.859375
3236		1.953125
3237		0.000000
3238		5.859375
3239		3.906250
3240		13.671875
3241		7.812500
3242		17.578125
3243		11.718750
3244		23.437500
3245		17.578125
3246		27.343750
3247		21.484375
3248		31.250000
3249		25.390625
3250		37.109375
3251		29.296875
3252		39.062500
3253		37.109375
3254		42.968750
3255		41.015625
3256		48.828125
3257		42.968750
3258		52.734375
3259		46.875000
3260		56.640625
3261		50.781250
3262		60.546875
3263		54.687500
3264		64.453125
3265		58.593750
3266		68.359375
3267		62.500000
3268		70.312500
3269		68.359375
3270		72.265625
3271		72.265625
3272		76.171875
3273		72.265625
3274		80.078125
3275		76.171875
3276		83.984375
3277		78.125000
3278		85.937500
3279		80.078125
3280		87.890625
3281		82.031250
3282		89.843750
3283		83.984375
3284		91.796875
3285		85.937500
3286		91.796875
3287		89.843750
3288		93.750000
3289		89.843750
3290		97.656250
3291		89.843750
3292		99.609375
3293		91.796875
3294		99.609375
3295		91.796875
3296		99.609375
3297		93.750000
3298		99.609375
3299		93.750000
3300		101.562500
3301		93.750000
3302		101.562500
3303		95.703125
3304		97.656250
3305		95.703125
3306		99.609375
3307		93.750000
3308		99.609375
3309		91.796875
3310		99.609375
3311		91.796875
3312		99.609375
3313		91.796875
3314		97.656250
3315		89.843750
3316		97.656250
3317		87.890625
3318		95.703125
3319		87.890625
3320		91.796875
3321		85.937500
3322		89.843750
3323		82.031250
3324		89.843750
3325		80.078125
3326		87.890625
3327		76.171875
3328		85.937500
3329		74.218750
3330		83.984375
3331		72.265625
3332		80.078125
3333		68.359375
3334		76.171875
3335		68.359375
3336		74.218750
3337		64.453125
3338		68.359375
3339		58.593750
3340		66.406250
3341		54.687500
3342		62.500000
3343		50.781250
3344		58.593750
3345		46.875000
3346		54.687500
3347		44.921875
3348		50.781250
3349		39.062500
3350		48.828125
3351		35.156250
3352		42.968750
3353		31.250000
3354		37.109375
3355		27.343750
3356		33.203125
3357		19.531250
3358		29.296875
3359		15.625000
3360		25.390625
3361		9.765625
3362		21.484375
3363		5.859375
3364		15.625000
3365		1.953125
3366		11.718750
3367		-3.906250
3368		5.859375
3369		-7.812500
3370		1.953125
3371		-11.718750
3372		-5.859375
3373		-19.531250
3374		-9.765625
3375		-23.437500
3376		-13.671875
3377		-27.343750
3378		-17.578125
3379		-33.203125
3380		-23.437500
3381		-37.109375
3382		-27.343750
3383		-42.968750
3384		-33.203125
3385		-44.921875
3386		-37.109375
3387		-48.828125
3388		-42.968750
3389		-54.687500
3390		-46.875000
3391		-60.546875
3392		-50.781250
3393		-64.453125
3394		-54.687500
3395		-68.359375
3396		-58.593750
3397		-70.312500
3398		-62.500000
3399		-74.218750
3400		-66.406250
3401		-78.125000
3402		-68.359375
3403		-78.125000
3404		-74.218750
3405		-82.031250
3406		-78.125000
3407		-85.937500
3408		-80.078125
3409		-89.843750
3410		-80.078125
3411		-89.843750
3412		-82.031250
3413		-93.750000
3414		-83.984375
3415		-95.703125
3416		-87.890625
3417		-95.703125
3418		-87.890625
3419		-95.703125
3420		-89.843750
3421		-95.703125
3422		-93.750000
3423		-97.656250
3424		-91.796875
3425		-99.609375
3426		-91.796875
3427		-99.609375
3428		-91.796875
3429		-99.609375
3430		-91.796875
3431		-99.609375
3432		-91.796875
3433		-97.656250
3434		-91.796875
3435		-97.656250
3436		-89.843750
3437		-93.750000
3438		-91.796875
3439		-93.750000
3440		-89.843750
3441		-93.750000
3442		-85.937500
3443		-91.796875
3444		-83.984375
3445		-89.843750
3446		-82.031250
3447		-87.890625
3448		-80.078125
3449		-83.984375
3450		-78.125000
3451		-82.031250
3452		-74.218750
3453		-80.078125
3454		-72.265625
3455		-74.218750
3456		-68.359375
3457		-70.312500
3458		-64.453125
3459		-70.312500
3460		-60.546875
3461		-66.406250
3462		-56.640625
3463		-62.500000
3464		-52.734375
3465		-58.593750
3466		-48.828125
3467		-54.687500
3468		-44.921875
3469		-48.828125
3470		-41.015625
3471		-42.968750
3472		-37.109375
3473		-39.062500
3474		-33.203125
3475		-35.156250
3476		-25.390625
3477		-31.250000
3478		-19.531250
3479		-27.343750
3480		-15.625000
3481		-21.484375
3482		-11.718750
3483		-15.625000
3484		-5.859375
3485		-11.718750
3486		-1.953125
3487		-5.859375
3488		1.953125
3489		0.000000
3490		5.859375
3491		3.906250
3492		13.671875
3493		7.812500
3494		17.578125
3495		11.718750
3496		23.437500
3497		17.578125
3498		27.343750
3499		21.484375
3500		33.203125
3501		27.343750
3502		37.109375
3503		31.250000
3504		39.062500
3505		37.109375
3506		42.968750
3507		41.015625
3508		48.828125
3509		42.968750
3510		52.734375
3511		46.875000
3512		58.593750
3513		52.734375
3514		60.546875
3515		56.640625
3516		64.453125
3517		58.593750
3518		68.359375
3519		62.500000
3520		70.312500
3521		68.359375
3522		72.265625
3523		72.265625
3524		76.171875
3525		72.265625
3526		80.078125
3527		76.171875
3528		83.984375
3529		78.125000
3530		85.937500
3531		80.078125
3532		87.890625
3533		82.031250
3534		89.843750
3535		83.984375
3536		91.796875
3537		85.937500
3538		91.796875
3539		89.843750
3540		93.750000
3541		89.843750
3542		95.703125
3543		89.843750
3544		97.656250
3545		91.796875
3546		99.609375
3547		91.796875
3548		99.609375
3549		93.750000
3550		99.609375
3551		93.750000
3552		101.562500
3553		93.750000
3554		99.609375
3555		95.703125
3556		97.656250
3557		95.703125
3558		97.656250
3559		93.750000
3560		99.609375
3561		91.796875
3562		99.609375
3563		91.796875
3564		97.656250
3565		89.843750
3566		97.656250
3567		89.843750
3568		95.703125
3569		87.890625
3570		95.703125
3571		87.890625
3572		91.796875
3573		85.937500
3574		89.843750
3575		82.031250
3576		87.890625
3577		80.078125
3578		87.890625
3579		76.171875
3580		85.937500
3581		74.218750
3582		82.031250
3583		70.312500
3584		80.078125
3585		68.359375
3586		76.171875
3587		66.406250
3588		74.218750
3589		64.453125
3590		68.359375
3591		58.593750
3592		64.453125
3593		54.687500
3594		64.453125
3595		48.828125
3596		60.546875
3597		46.875000
3598		56.640625
3599		41.015625
3600		52.734375
3601		37.109375
3602		46.875000
3603		33.203125
3604		42.968750
3605		31.250000
3606		37.109375
3607		25.390625
3608		31.250000
3609		19.531250
3610		27.343750
3611		13.671875
3612		25.390625
3613		9.765625
3614		19.531250
3615		5.859375
3616		15.625000
3617		0.000000
3618		9.765625
3619		-5.859375
3620		5.859375
3621		-7.812500
3622		0.000000
3623		-11.718750
3624		-5.859375
3625		-19.531250
3626		-11.718750
3627		-23.437500
3628		-13.671875
3629		-29.296875
3630		-17.578125
3631		-33.203125
3632		-23.437500
3633		-39.062500
3634		-27.343750
3635		-42.968750
3636		-33.203125
3637		-44.921875
3638		-37.109375
3639		-48.828125
3640		-42.968750
3641		-52.734375
3642		-48.828125
3643		-60.546875
3644		-50.781250
3645		-64.453125
3646		-54.687500
3647		-68.359375
3648		-58.593750
3649		-72.265625
3650		-62.500000
3651		-74.218750
3652		-64.453125
3653		-78.125000
3654		-70.312500
3655		-78.125000
3656		-72.265625
3657		-82.031250
3658		-78.125000
3659		-85.937500
3660		-78.125000
3661		-87.890625
3662		-80.078125
3663		-91.796875
3664		-82.031250
3665		-93.750000
3666		-85.937500
3667		-95.703125
3668		-87.890625
3669		-95.703125
3670		-87.890625
3671		-97.656250
3672		-89.843750
3673		-95.703125
3674		-93.750000
3675		-97.656250
3676		-93.750000
3677		-99.609375
3678		-91.796875
3679		-99.609375
3680		-91.796875
3681		-99.609375
3682		-91.796875
3683		-99.609375
3684		-91.796875
3685		-99.609375
3686		-89.843750
3687		-97.656250
3688		-89.843750
3689		-93.750000
3690		-91.796875
3691		-93.750000
3692		-89.843750
3693		-93.750000
3694		-85.937500
3695		-91.796875
3696		-83.984375
3697		-89.843750
3698		-82.031250
3699		-87.890625
3700		-78.125000
3701		-85.937500
3702		-76.171875
3703		-82.031250
3704		-72.265625
3705		-80.078125
3706		-72.265625
3707		-74.218750
3708		-70.312500
3709		-70.312500
3710		-62.500000
3711		-70.312500
3712		-60.546875
3713		-66.406250
3714		-56.640625
3715		-62.500000
3716		-52.734375
3717		-58.593750
3718		-46.875000
3719		-54.687500
3720		-42.968750
3721		-48.828125
3722		-41.015625
3723		-42.968750
3724		-37.109375
3725		-37.109375
3726		-33.203125
3727		-35.156250
3728		-25.390625
3729		-31.250000
3730		-21.484375
3731		-27.343750
3732		-15.625000
3733		-21.484375
3734		-9.765625
3735		-17.578125
3736		-5.859375
3737		-11.718750
3738		0.000000
3739		-7.812500
3740		1.953125
3741		0.000000
3742		5.859375
3743		5.859375
3744		13.671875
3745		7.812500
3746		17.578125
3747		11.718750
3748		23.437500
3749		17.578125
3750		27.343750
3751		21.484375
3752		33.203125
3753		25.390625
3754		37.109375
3755		31.250000
3756		39.062500
3757		37.109375
3758		42.968750
3759		41.015625
3760		48.828125
3761		44.921875
3762		52.734375
3763		48.828125
3764		56.640625
3765		52.734375
3766		60.546875
3767		56.640625
3768		64.453125
3769		58.593750
3770		68.359375
3771		62.500000
3772		72.265625
3773		68.359375
3774		72.265625
3775		72.265625
3776		76.171875
3777		72.265625
3778		82.031250
3779		76.171875
3780		83.984375
3781		78.125000
3782		85.937500
3783		80.078125
3784		87.890625
3785		82.031250
3786		89.843750
3787		83.984375
3788		91.796875
3789		85.937500
3790		93.750000
3791		89.843750
3792		93.750000
3793		89.843750
3794		95.703125
3795		89.843750
3796		97.656250
3797		91.796875
3798		99.609375
3799		91.796875
3800		99.609375
3801		93.750000
3802		99.609375
3803		93.750000
3804		99.609375
3805		93.750000
3806		99.609375
3807		95.703125
3808		97.656250
3809		95.703125
3810		97.656250
3811		91.796875
3812		99.609375
3813		91.796875
3814		99.609375
3815		89.843750
3816		97.656250
3817		89.843750
3818		97.656250
3819		87.890625
3820		95.703125
3821		85.937500
3822		93.750000
3823		85.937500
3824		91.796875
3825		85.937500
3826		87.890625
3827		80.078125
3828		87.890625
3829		78.125000
3830		85.937500
3831		76.171875
3832		83.984375
3833		72.265625
3834		82.031250
3835		70.312500
3836		78.125000
3837		68.359375
3838		76.171875
3839		66.406250
3840		72.265625
3841		62.500000
3842		66.406250
3843		56.640625
3844		64.453125
3845		52.734375
3846		62.500000
3847		48.828125
3848		58.593750
3849		44.921875
3850		54.687500
3851		41.015625
3852		50.781250
3853		37.109375
3854		46.875000
3855		31.250000
3856		41.015625
3857		29.296875
3858		35.156250
3859		25.390625
3860		31.250000
3861		17.578125
3862		25.390625
3863		13.671875
3864		23.437500
3865		9.765625
3866		19.531250
3867		3.906250
3868		13.671875
3869		0.000000
3870		9.765625
3871		-5.859375
3872		3.906250
3873		-9.765625
3874		0.000000
3875		-13.671875
3876		-7.812500
3877		-21.484375
3878		-11.718750
3879		-25.390625
3880		-15.625000
3881		-31.250000
3882		-21.484375
3883		-35.156250
3884		-25.390625
3885		-39.062500
3886		-29.296875
3887		-44.921875
3888		-33.203125
3889		-48.828125
3890		-39.062500
3891		-50.781250
3892		-44.921875
3893		-54.687500
3894		-50.781250
3895		-60.546875
3896		-52.734375
3897		-64.453125
3898		-56.640625
3899		-70.312500
3900		-60.546875
3901		-74.218750
3902		-64.453125
3903		-76.171875
3904		-66.406250
3905		-80.078125
3906		-70.312500
3907		-80.078125
3908		-74.218750
3909		-83.984375
3910		-78.125000
3911		-87.890625
3912		-82.031250
3913		-89.843750
3914		-82.031250
3915		-91.796875
3916		-83.984375
3917		-93.750000
3918		-85.937500
3919		-95.703125
3920		-87.890625
3921		-97.656250
3922		-89.843750
3923		-97.656250
3924		-91.796875
3925		-97.656250
3926		-93.750000
3927		-99.609375
3928		-95.703125
3929		-99.609375
3930		-93.750000
3931		-101.562500
3932		-93.750000
3933		-101.562500
3934		-93.750000
3935		-101.562500
3936		-93.750000
3937		-99.609375
3938		-91.796875
3939		-99.609375
3940		-91.796875
3941		-95.703125
3942		-91.796875
3943		-93.750000
3944		-91.796875
3945		-93.750000
3946		-85.937500
3947		-91.796875
3948		-83.984375
3949		-91.796875
3950		-82.031250
3951		-89.843750
3952		-80.078125
3953		-87.890625
3954		-78.125000
3955		-83.984375
3956		-74.218750
3957		-80.078125
3958		-74.218750
3959		-74.218750
3960		-70.312500
3961		-72.265625
3962		-64.453125
3963		-70.312500
3964		-60.546875
3965		-66.406250
3966		-56.640625
3967		-62.500000
3968		-52.734375
3969		-58.593750
3970		-48.828125
3971		-54.687500
3972		-44.921875
3973		-50.781250
3974		-41.015625
3975		-42.968750
3976		-37.109375
3977		-39.062500
3978		-33.203125
3979		-35.156250
3980		-27.343750
3981		-31.250000
3982		-21.484375
3983		-27.343750
3984		-17.578125
3985		-21.484375
3986		-11.718750
3987		-17.578125
3988		-7.812500
3989		-13.671875
3990		-1.953125
3991		-7.812500
3992		0.000000
3993		0.000000
3994		5.859375
3995		3.906250
3996		13.671875
3997		7.812500
3998		17.578125
3999		11.718750
4000		21.484375
4001		17.578125
4002		25.390625
4003		21.484375
4004		31.250000
4005		25.390625
4006		35.156250
4007		31.250000
4008		39.062500
4009		37.109375
4010		42.968750
4011		41.015625
4012		48.828125
4013		42.968750
4014		52.734375
4015		46.875000
4016		56.640625
4017		50.781250
4018		60.546875
4019		54.687500
4020		64.453125
4021		58.593750
4022		66.406250
4023		62.500000
4024		70.312500
4025		66.406250
4026		72.265625
4027		70.312500
4028		76.171875
4029		72.265625
4030		80.078125
4031		74.218750
4032		82.031250
4033		78.125000
4034		85.937500
4035		80.078125
4036		87.890625
4037		82.031250
4038		89.843750
4039		83.984375
4040		91.796875
4041		85.937500
4042		91.796875
4043		89.843750
4044		93.750000
4045		89.843750
4046		93.750000
4047		89.843750
4048		97.656250
4049		89.843750
4050		97.656250
4051		91.796875
4052		97.656250
4053		93.750000
4054		99.609375
4055		93.750000
4056		99.609375
4057		93.750000
4058		99.609375
4059		95.703125
4060		97.656250
4061		95.703125
4062		97.656250
4063		91.796875
4064		97.656250
4065		91.796875
4066		99.609375
4067		89.843750
4068		97.656250
4069		89.843750
4070		95.703125
4071		87.890625
4072		93.750000
4073		85.937500
4074		93.750000
4075		85.937500
4076		91.796875
4077		83.984375
4078		87.890625
4079		82.031250
4080		85.937500
4081		78.125000
4082		85.937500
4083		78.125000
4084		83.984375
4085		74.218750
4086		80.078125
4087		72.265625
4088		78.125000
4089		68.359375
4090		74.218750
4091		64.453125
4092		70.312500
4093		62.500000
4094		68.359375
4095		58.593750
4096		62.500000
4097		50.781250
4098		60.546875
4099		48.828125
4100		56.640625
4101		46.875000
4102		52.734375
4103		41.015625
4104		48.828125
4105		37.109375
4106		42.968750
4107		31.250000
4108		41.015625
4109		29.296875
4110		35.156250
4111		25.390625
4112		29.296875
4113		17.578125
4114		25.390625
4115		15.625000
4116		23.437500
4117		9.765625
4118		15.625000
4119		5.859375
4120		11.718750
4121		0.000000
4122		5.859375
4123		-3.906250
4124		1.953125
4125		-9.765625
4126		-3.906250
4127		-13.671875
4128		-7.812500
4129		-21.484375
4130		-13.671875
4131		-25.390625
4132		-15.625000
4133		-29.296875
4134		-21.484375
4135		-33.203125
4136		-27.343750
4137		-39.062500
4138		-31.250000
4139		-42.968750
4140		-37.109375
4141		-46.875000
4142		-41.015625
4143		-50.781250
4144		-44.921875
4145		-54.687500
4146		-50.781250
4147		-60.546875
4148		-54.687500
4149		-62.500000
4150		-58.593750
4151		-66.406250
4152		-60.546875
4153		-70.312500
4154		-66.406250
4155		-74.218750
4156		-68.359375
4157		-78.125000
4158		-72.265625
4159		-80.078125
4160		-76.171875
4161		-82.031250
4162		-78.125000
4163		-85.937500
4164		-82.031250
4165		-87.890625
4166		-83.984375
4167		-89.843750
4168		-85.937500
4169		-91.796875
4170		-87.890625
4171		-93.750000
4172		-89.843750
4173		-95.703125
4174		-91.796875
4175		-97.656250
4176		-93.750000
4177		-95.703125
4178		-93.750000
4179		-97.656250
4180		-95.703125
4181		-97.656250
4182		-95.703125
4183		-97.656250
4184		-95.703125
4185		-97.656250
4186		-95.703125
4187		-97.656250
4188		-95.703125
4189		-95.703125
4190		-93.750000
4191		-95.703125
4192		-91.796875
4193		-95.703125
4194		-91.796875
4195		-93.750000
4196		-89.843750
4197		-91.796875
4198		-87.890625
4199		-89.843750
4200		-85.937500
4201		-87.890625
4202		-83.984375
4203		-85.937500
4204		-82.031250
4205		-83.984375
4206		-78.125000
4207		-80.078125
4208		-76.171875
4209		-78.125000
4210		-72.265625
4211		-74.218750
4212		-70.312500
4213		-70.312500
4214		-64.453125
4215		-68.359375
4216		-62.500000
4217		-62.500000
4218		-58.593750
4219		-58.593750
4220		-54.687500
4221		-54.687500
4222		-48.828125
4223		-52.734375
4224		-44.921875
4225		-46.875000
4226		-41.015625
4227		-42.968750
4228		-35.156250
4229		-37.109375
4230		-31.250000
4231		-33.203125
4232		-25.390625
4233		-27.343750
4234		-21.484375
4235		-23.437500
4236		-17.578125
4237		-17.578125
4238		-11.718750
4239		-13.671875
4240		-7.812500
4241		-9.765625
4242		-1.953125
4243		-5.859375
4244		1.953125
4245		1.953125
4246		7.812500
4247		5.859375
4248		11.718750
4249		11.718750
4250		15.625000
4251		13.671875
4252		21.484375
4253		19.531250
4254		25.390625
4255		23.437500
4256		31.250000
4257		29.296875
4258		35.156250
4259		33.203125
4260		39.062500
4261		39.062500
4262		42.968750
4263		42.968750
4264		48.828125
4265		44.921875
4266		52.734375
4267		50.781250
4268		56.640625
4269		54.687500
4270		60.546875
4271		58.593750
4272		64.453125
4273		62.500000
4274		66.406250
4275		64.453125
4276		70.312500
4277		68.359375
4278		72.265625
4279		72.265625
4280		76.171875
4281		74.218750
4282		80.078125
4283		78.125000
4284		82.031250
4285		80.078125
4286		83.984375
4287		82.031250
4288		87.890625
4289		83.984375
4290		87.890625
4291		85.937500
4292		89.843750
4293		87.890625
4294		91.796875
4295		89.843750
4296		93.750000
4297		91.796875
4298		95.703125
4299		91.796875
4300		95.703125
4301		93.750000
4302		97.656250
4303		93.750000
4304		97.656250
4305		95.703125
4306		99.609375
4307		95.703125
4308		97.656250
4309		95.703125
4310		99.609375
4311		95.703125
4312		97.656250
4313		95.703125
4314		97.656250
4315		95.703125
4316		97.656250
4317		93.750000
4318		97.656250
4319		91.796875
4320		95.703125
4321		91.796875
4322		93.750000
4323		89.843750
4324		95.703125
4325		89.843750
4326		91.796875
4327		85.937500
4328		91.796875
4329		85.937500
4330		87.890625
4331		82.031250
4332		85.937500
4333		80.078125
4334		83.984375
4335		76.171875
4336		82.031250
4337		74.218750
4338		80.078125
4339		72.265625
4340		76.171875
4341		68.359375
4342		74.218750
4343		66.406250
4344		70.312500
4345		62.500000
4346		66.406250
4347		58.593750
4348		64.453125
4349		54.687500
4350		60.546875
4351		50.781250
4352		56.640625
4353		46.875000
4354		52.734375
4355		42.968750
4356		48.828125
4357		37.109375
4358		42.968750
4359		33.203125
4360		39.062500
4361		29.296875
4362		35.156250
4363		25.390625
4364		29.296875
4365		19.531250
4366		25.390625
4367		15.625000
4368		21.484375
4369		9.765625
4370		15.625000
4371		3.906250
4372		11.718750
4373		0.000000
4374		5.859375
4375		-3.906250
4376		1.953125
4377		-9.765625
4378		-3.906250
4379		-13.671875
4380		-7.812500
4381		-19.531250
4382		-13.671875
4383		-25.390625
4384		-17.578125
4385		-29.296875
4386		-23.437500
4387		-33.203125
4388		-27.343750
4389		-39.062500
4390		-33.203125
4391		-42.968750
4392		-37.109375
4393		-48.828125
4394		-41.015625
4395		-52.734375
4396		-46.875000
4397		-54.687500
4398		-50.781250
4399		-60.546875
4400		-54.687500
4401		-64.453125
4402		-58.593750
4403		-68.359375
4404		-62.500000
4405		-70.312500
4406		-66.406250
4407		-74.218750
4408		-68.359375
4409		-78.125000
4410		-72.265625
4411		-80.078125
4412		-76.171875
4413		-83.984375
4414		-80.078125
4415		-85.937500
4416		-82.031250
4417		-87.890625
4418		-83.984375
4419		-89.843750
4420		-85.937500
4421		-91.796875
4422		-87.890625
4423		-93.750000
4424		-89.843750
4425		-95.703125
4426		-91.796875
4427		-97.656250
4428		-91.796875
4429		-95.703125
4430		-93.750000
4431		-97.656250
4432		-93.750000
4433		-97.656250
4434		-93.750000
4435		-97.656250
4436		-93.750000
4437		-97.656250
4438		-95.703125
4439		-97.656250
4440		-93.750000
4441		-97.656250
4442		-93.750000
4443		-95.703125
4444		-91.796875
4445		-95.703125
4446		-91.796875
4447		-93.750000
4448		-89.843750
4449		-91.796875
4450		-87.890625
4451		-89.843750
4452		-85.937500
4453		-87.890625
4454		-83.984375
4455		-85.937500
4456		-80.078125
4457		-83.984375
4458		-78.125000
4459		-80.078125
4460		-76.171875
4461		-78.125000
4462		-72.265625
4463		-74.218750
4464		-68.359375
4465		-70.312500
4466		-64.453125
4467		-66.406250
4468		-60.546875
4469		-64.453125
4470		-58.593750
4471		-60.546875
4472		-54.687500
4473		-54.687500
4474		-48.828125
4475		-50.781250
4476		-44.921875
4477		-46.875000
4478		-41.015625
4479		-42.968750
4480		-37.109375
4481		-37.109375
4482		-31.250000
4483		-33.203125
4484		-25.390625
4485		-29.296875
4486		-21.484375
4487		-23.437500
4488		-15.625000
4489		-17.578125
4490		-11.718750
4491		-13.671875
4492		-7.812500
4493		-9.765625
4494		-1.953125
4495		-3.906250
4496		1.953125
4497		1.953125
4498		7.812500
4499		5.859375
4500		11.718750
4501		9.765625
4502		17.578125
4503		15.625000
4504		21.484375
4505		19.531250
4506		25.390625
4507		25.390625
4508		31.250000
4509		29.296875
4510		35.156250
4511		33.203125
4512		39.062500
4513		39.062500
4514		42.968750
4515		42.968750
4516		48.828125
4517		46.875000
4518		52.734375
4519		50.781250
4520		56.640625
4521		54.687500
4522		60.546875
4523		58.593750
4524		64.453125
4525		62.500000
4526		66.406250
4527		64.453125
4528		70.312500
4529		68.359375
4530		72.265625
4531		72.265625
4532		76.171875
4533		74.218750
4534		80.078125
4535		78.125000
4536		82.031250
4537		80.078125
4538		83.984375
4539		82.031250
4540		87.890625
4541		83.984375
4542		87.890625
4543		85.937500
4544		91.796875
4545		87.890625
4546		91.796875
4547		89.843750
4548		93.750000
4549		91.796875
4550		95.703125
4551		91.796875
4552		95.703125
4553		93.750000
4554		97.656250
4555		93.750000
4556		97.656250
4557		95.703125
4558		97.656250
4559		95.703125
4560		97.656250
4561		95.703125
4562		97.656250
4563		95.703125
4564		97.656250
4565		95.703125
4566		97.656250
4567		93.750000
4568		97.656250
4569		93.750000
4570		97.656250
4571		91.796875
4572		95.703125
4573		91.796875
4574		93.750000
4575		89.843750
4576		93.750000
4577		87.890625
4578		91.796875
4579		85.937500
4580		89.843750
4581		83.984375
4582		87.890625
4583		82.031250
4584		85.937500
4585		80.078125
4586		85.937500
4587		76.171875
4588		82.031250
4589		74.218750
4590		78.125000
4591		72.265625
4592		76.171875
4593		68.359375
4594		72.265625
4595		64.453125
4596		70.312500
4597		60.546875
4598		66.406250
4599		58.593750
4600		62.500000
4601		54.687500
4602		58.593750
4603		50.781250
4604		54.687500
4605		44.921875
4606		50.781250
4607		41.015625
4608		46.875000
4609		37.109375
4610		42.968750
4611		33.203125
4612		39.062500
4613		29.296875
4614		35.156250
4615		23.437500
4616		29.296875
4617		19.531250
4618		25.390625
4619		13.671875
4620		19.531250
4621		9.765625
4622		17.578125
4623		3.906250
4624		11.718750
4625		0.000000
4626		5.859375
4627		-5.859375
4628		0.000000
4629		-9.765625
4630		-3.906250
4631		-15.625000
4632		-9.765625
4633		-21.484375
4634		-13.671875
4635		-25.390625
4636		-17.578125
4637		-29.296875
4638		-23.437500
4639		-35.156250
4640		-27.343750
4641		-39.062500
4642		-33.203125
4643		-42.968750
4644		-37.109375
4645		-48.828125
4646		-41.015625
4647		-52.734375
4648		-46.875000
4649		-56.640625
4650		-50.781250
4651		-60.546875
4652		-54.687500
4653		-64.453125
4654		-58.593750
4655		-68.359375
4656		-62.500000
4657		-70.312500
4658		-66.406250
4659		-76.171875
4660		-68.359375
4661		-78.125000
4662		-72.265625
4663		-80.078125
4664		-74.218750
4665		-83.984375
4666		-78.125000
4667		-85.937500
4668		-82.031250
4669		-89.843750
4670		-83.984375
4671		-89.843750
4672		-85.937500
4673		-91.796875
4674		-87.890625
4675		-93.750000
4676		-89.843750
4677		-95.703125
4678		-91.796875
4679		-95.703125
4680		-91.796875
4681		-95.703125
4682		-93.750000
4683		-97.656250
4684		-93.750000
4685		-97.656250
4686		-93.750000
4687		-97.656250
4688		-93.750000
4689		-97.656250
4690		-93.750000
4691		-97.656250
4692		-93.750000
4693		-97.656250
4694		-93.750000
4695		-95.703125
4696		-91.796875
4697		-95.703125
4698		-91.796875
4699		-93.750000
4700		-89.843750
4701		-91.796875
4702		-85.937500
4703		-89.843750
4704		-85.937500
4705		-87.890625
4706		-83.984375
4707		-83.984375
4708		-80.078125
4709		-82.031250
4710		-78.125000
4711		-80.078125
4712		-74.218750
4713		-76.171875
4714		-72.265625
4715		-72.265625
4716		-68.359375
4717		-70.312500
4718		-64.453125
4719		-66.406250
4720		-60.546875
4721		-62.500000
4722		-56.640625
4723		-58.593750
4724		-52.734375
4725		-54.687500
4726		-48.828125
4727		-50.781250
4728		-42.968750
4729		-44.921875
4730		-37.109375
4731		-41.015625
4732		-35.156250
4733		-37.109375
4734		-29.296875
4735		-33.203125
4736		-25.390625
4737		-27.343750
4738		-21.484375
4739		-21.484375
4740		-15.625000
4741		-17.578125
4742		-11.718750
4743		-11.718750
4744		-5.859375
4745		-7.812500
4746		-1.953125
4747		-1.953125
4748		3.906250
4749		1.953125
4750		7.812500
4751		7.812500
4752		13.671875
4753		11.718750
4754		17.578125
4755		15.625000
4756		23.437500
4757		21.484375
4758		27.343750
4759		25.390625
4760		33.203125
4761		31.250000
4762		37.109375
4763		35.156250
4764		41.015625
4765		39.062500
4766		44.921875
4767		42.968750
4768		48.828125
4769		46.875000
4770		52.734375
4771		52.734375
4772		56.640625
4773		54.687500
4774		60.546875
4775		60.546875
4776		64.453125
4777		62.500000
4778		68.359375
4779		66.406250
4780		72.265625
4781		68.359375
4782		74.218750
4783		72.265625
4784		78.125000
4785		76.171875
4786		80.078125
4787		78.125000
4788		82.031250
4789		80.078125
4790		85.937500
4791		83.984375
4792		87.890625
4793		85.937500
4794		89.843750
4795		87.890625
4796		91.796875
4797		87.890625
4798		93.750000
4799		91.796875
4800		93.750000
4801		91.796875
4802		95.703125
4803		93.750000
4804		95.703125
4805		93.750000
4806		97.656250
4807		93.750000
4808		97.656250
4809		95.703125
4810		99.609375
4811		95.703125
4812		99.609375
4813		95.703125
4814		99.609375
4815		95.703125
4816		99.609375
4817		95.703125
4818		97.656250
4819		93.750000
4820		99.609375
4821		93.750000
4822		97.656250
4823		93.750000
4824		95.703125
4825		91.796875
4826		95.703125
4827		91.796875
4828		93.750000
4829		87.890625
4830		93.750000
4831		87.890625
4832		91.796875
4833		85.937500
4834		87.890625
4835		82.031250
4836		85.937500
4837		80.078125
4838		85.937500
4839		78.125000
4840		82.031250
4841		74.218750
4842		80.078125
4843		72.265625
4844		76.171875
4845		68.359375
4846		74.218750
4847		64.453125
4848		70.312500
4849		62.500000
4850		66.406250
4851		58.593750
4852		64.453125
4853		54.687500
4854		60.546875
4855		50.781250
4856		56.640625
4857		46.875000
4858		52.734375
4859		42.968750
4860		48.828125
4861		37.109375
4862		44.921875
4863		33.203125
4864		39.062500
4865		29.296875
4866		35.156250
4867		23.437500
4868		31.250000
4869		19.531250
4870		25.390625
4871		15.625000
4872		21.484375
4873		9.765625
4874		15.625000
4875		5.859375
4876		11.718750
4877		0.000000
4878		7.812500
4879		-5.859375
4880		1.953125
4881		-9.765625
4882		-3.906250
4883		-13.671875
4884		-7.812500
4885		-19.531250
4886		-13.671875
4887		-23.437500
4888		-17.578125
4889		-29.296875
4890		-21.484375
4891		-33.203125
4892		-27.343750
4893		-39.062500
4894		-33.203125
4895		-42.968750
4896		-37.109375
4897		-46.875000
4898		-41.015625
4899		-50.781250
4900		-44.921875
4901		-56.640625
4902		-50.781250
4903		-60.546875
4904		-54.687500
4905		-64.453125
4906		-58.593750
4907		-66.406250
4908		-62.500000
4909		-70.312500
4910		-64.453125
4911		-74.218750
4912		-70.312500
4913		-78.125000
4914		-72.265625
4915		-80.078125
4916		-76.171875
4917		-82.031250
4918		-78.125000
4919		-85.937500
4920		-82.031250
4921		-87.890625
4922		-83.984375
4923		-89.843750
4924		-85.937500
4925		-91.796875
4926		-87.890625
4927		-93.750000
4928		-89.843750
4929		-93.750000
4930		-89.843750
4931		-95.703125
4932		-91.796875
4933		-95.703125
4934		-93.750000
4935		-95.703125
4936		-93.750000
4937		-97.656250
4938		-93.750000
4939		-97.656250
4940		-93.750000
4941		-97.656250
4942		-93.750000
4943		-95.703125
4944		-93.750000
4945		-95.703125
4946		-91.796875
4947		-95.703125
4948		-91.796875
4949		-95.703125
4950		-89.843750
4951		-91.796875
4952		-87.890625
4953		-89.843750
4954		-85.937500
4955		-87.890625
4956		-83.984375
4957		-87.890625
4958		-82.031250
4959		-83.984375
4960		-80.078125
4961		-82.031250
4962		-76.171875
4963		-78.125000
4964		-74.218750
4965		-76.171875
4966		-70.312500
4967		-72.265625
4968		-66.406250
4969		-68.359375
4970		-64.453125
4971		-66.406250
4972		-60.546875
4973		-60.546875
4974		-54.687500
4975		-56.640625
4976		-52.734375
4977		-52.734375
4978		-46.875000
4979		-48.828125
4980		-42.968750
4981		-44.921875
4982		-39.062500
4983		-41.015625
4984		-35.156250
4985		-35.156250
4986		-29.296875
4987		-31.250000
4988		-25.390625
4989		-25.390625
4990		-19.531250
4991		-21.484375
4992		-15.625000
4993		-17.578125
4994		-9.765625
4995		-11.718750
4996		-5.859375
4997		-7.812500
4998		0.000000
4999		-1.953125
5000		3.906250
5001		3.906250
5002		9.765625
5003		7.812500
5004		15.625000
5005		11.718750
5006		19.531250
5007		17.578125
5008		23.437500
5009		21.484375
5010		27.343750
5011		27.343750
5012		33.203125
5013		31.250000
5014		37.109375
5015		35.156250
5016		42.968750
5017		41.015625
5018		44.921875
5019		44.921875
5020		48.828125
5021		48.828125
5022		52.734375
5023		52.734375
5024		58.593750
5025		56.640625
5026		60.546875
5027		60.546875
5028		64.453125
5029		64.453125
5030		68.359375
5031		66.406250
5032		72.265625
5033		70.312500
5034		74.218750
5035		74.218750
5036		78.125000
5037		76.171875
5038		80.078125
5039		78.125000
5040		82.031250
5041		80.078125
5042		85.937500
5043		83.984375
5044		87.890625
5045		85.937500
5046		89.843750
5047		87.890625
5048		91.796875
5049		87.890625
5050		93.750000
5051		91.796875
5052		93.750000
5053		91.796875
5054		95.703125
5055		91.796875
5056		97.656250
5057		93.750000
5058		97.656250
5059		95.703125
5060		97.656250
5061		95.703125
5062		99.609375
5063		95.703125
5064		99.609375
5065		95.703125
5066		99.609375
5067		95.703125
5068		99.609375
5069		95.703125
5070		97.656250
5071		95.703125
5072		97.656250
5073		93.750000
5074		97.656250
5075		91.796875
5076		97.656250
5077		91.796875
5078		95.703125
5079		89.843750
5080		93.750000
5081		89.843750
5082		91.796875
5083		85.937500
5084		89.843750
5085		83.984375
5086		87.890625
5087		82.031250
5088		85.937500
5089		80.078125
5090		83.984375
5091		78.125000
5092		82.031250
5093		74.218750
5094		78.125000
5095		72.265625
5096		76.171875
5097		68.359375
5098		74.218750
5099		64.453125
5100		70.312500
5101		60.546875
5102		66.406250
5103		58.593750
5104		62.500000
5105		54.687500
5106		58.593750
5107		50.781250
5108		54.687500
5109		44.921875
5110		52.734375
5111		42.968750
5112		46.875000
5113		37.109375
5114		42.968750
5115		33.203125
5116		39.062500
5117		29.296875
5118		35.156250
5119		23.437500
5120		29.296875
5121		17.578125
5122		25.390625
5123		13.671875
5124		21.484375
5125		9.765625
5126		15.625000
5127		3.906250
5128		9.765625
5129		-1.953125
5130		5.859375
5131		-5.859375
5132		0.000000
5133		-9.765625
5134		-1.953125
5135		-15.625000
5136		-9.765625
5137		-19.531250
5138		-13.671875
5139		-25.390625
5140		-17.578125
5141		-29.296875
5142		-23.437500
5143		-33.203125
5144		-27.343750
5145		-39.062500
5146		-33.203125
5147		-42.968750
5148		-37.109375
5149		-46.875000
5150		-41.015625
5151		-50.781250
5152		-44.921875
5153		-56.640625
5154		-50.781250
5155		-60.546875
5156		-54.687500
5157		-64.453125
5158		-58.593750
5159		-68.359375
5160		-62.500000
5161		-70.312500
5162		-66.406250
5163		-74.218750
5164		-70.312500
5165		-78.125000
5166		-72.265625
5167		-80.078125
5168		-76.171875
5169		-82.031250
5170		-78.125000
5171		-87.890625
5172		-82.031250
5173		-87.890625
5174		-83.984375
5175		-89.843750
5176		-85.937500
5177		-91.796875
5178		-87.890625
5179		-93.750000
5180		-89.843750
5181		-93.750000
5182		-89.843750
5183		-95.703125
5184		-91.796875
5185		-95.703125
5186		-93.750000
5187		-95.703125
5188		-93.750000
5189		-97.656250
5190		-93.750000
5191		-97.656250
5192		-93.750000
5193		-97.656250
5194		-93.750000
5195		-97.656250
5196		-91.796875
5197		-95.703125
5198		-91.796875
5199		-93.750000
5200		-91.796875
5201		-93.750000
5202		-89.843750
5203		-91.796875
5204		-87.890625
5205		-89.843750
5206		-85.937500
5207		-87.890625
5208		-83.984375
5209		-85.937500
5210		-80.078125
5211		-83.984375
5212		-80.078125
5213		-82.031250
5214		-76.171875
5215		-78.125000
5216		-74.218750
5217		-74.218750
5218		-70.312500
5219		-72.265625
5220		-66.406250
5221		-68.359375
5222		-62.500000
5223		-64.453125
5224		-58.593750
5225		-60.546875
5226		-54.687500
5227		-56.640625
5228		-50.781250
5229		-52.734375
5230		-46.875000
5231		-48.828125
5232		-42.968750
5233		-44.921875
5234		-37.109375
5235		-39.062500
5236		-33.203125
5237		-35.156250
5238		-29.296875
5239		-29.296875
5240		-23.437500
5241		-25.390625
5242		-19.531250
5243		-21.484375
5244		-13.671875
5245		-15.625000
5246		-9.765625
5247		-11.718750
5248		-3.906250
5249		-5.859375
5250		0.000000
5251		0.000000
5252		5.859375
5253		3.906250
5254		9.765625
5255		7.812500
5256		15.625000
5257		11.718750
5258		19.531250
5259		17.578125
5260		25.390625
5261		23.437500
5262		29.296875
5263		27.343750
5264		33.203125
5265		31.250000
5266		37.109375
5267		37.109375
5268		42.968750
5269		41.015625
5270		46.875000
5271		44.921875
5272		50.781250
5273		48.828125
5274		54.687500
5275		52.734375
5276		58.593750
5277		56.640625
5278		62.500000
5279		60.546875
5280		66.406250
5281		64.453125
5282		70.312500
5283		68.359375
5284		72.265625
5285		70.312500
5286		76.171875
5287		74.218750
5288		78.125000
5289		76.171875
5290		82.031250
5291		78.125000
5292		83.984375
5293		82.031250
5294		85.937500
5295		83.984375
5296		87.890625
5297		85.937500
5298		91.796875
5299		87.890625
5300		91.796875
5301		89.843750
5302		93.750000
5303		91.796875
5304		95.703125
5305		93.750000
5306		95.703125
5307		93.750000
5308		97.656250
5309		95.703125
5310		97.656250
5311		95.703125
5312		99.609375
5313		95.703125
5314		99.609375
5315		97.656250
5316		99.609375
5317		95.703125
5318		99.609375
5319		95.703125
5320		99.609375
5321		95.703125
5322		97.656250
5323		93.750000
5324		99.609375
5325		93.750000
5326		97.656250
5327		93.750000
5328		97.656250
5329		91.796875
5330		95.703125
5331		89.843750
5332		93.750000
5333		87.890625
5334		91.796875
5335		85.937500
5336		91.796875
5337		85.937500
5338		87.890625
5339		83.984375
5340		85.937500
5341		80.078125
5342		85.937500
5343		78.125000
5344		82.031250
5345		74.218750
5346		80.078125
5347		72.265625
5348		76.171875
5349		68.359375
5350		72.265625
5351		64.453125
5352		70.312500
5353		62.500000
5354		66.406250
5355		58.593750
5356		62.500000
5357		54.687500
5358		60.546875
5359		50.781250
5360		56.640625
5361		46.875000
5362		50.781250
5363		41.015625
5364		48.828125
5365		37.109375
5366		42.968750
5367		33.203125
5368		39.062500
5369		27.343750
5370		35.156250
5371		23.437500
5372		29.296875
5373		17.578125
5374		25.390625
5375		13.671875
5376		19.531250
5377		9.765625
5378		15.625000
5379		3.906250
5380		11.718750
5381		-1.953125
5382		5.859375
5383		-5.859375
5384		1.953125
5385		-9.765625
5386		-3.906250
5387		-15.625000
5388		-9.765625
5389		-19.531250
5390		-13.671875
5391		-25.390625
5392		-17.578125
5393		-29.296875
5394		-23.437500
5395		-35.156250
5396		-27.343750
5397		-39.062500
5398		-33.203125
5399		-42.968750
5400		-37.109375
5401		-48.828125
5402		-41.015625
5403		-52.734375
5404		-46.875000
5405		-56.640625
5406		-50.781250
5407		-60.546875
5408		-54.687500
5409		-64.453125
5410		-58.593750
5411		-68.359375
5412		-62.500000
5413		-70.312500
5414		-66.406250
5415		-74.218750
5416		-68.359375
5417		-78.125000
5418		-72.265625
5419		-80.078125
5420		-76.171875
5421		-82.031250
5422		-78.125000
5423		-85.937500
5424		-82.031250
5425		-87.890625
5426		-82.031250
5427		-89.843750
5428		-85.937500
5429		-91.796875
5430		-87.890625
5431		-93.750000
5432		-89.843750
5433		-93.750000
5434		-91.796875
5435		-95.703125
5436		-91.796875
5437		-95.703125
5438		-91.796875
5439		-95.703125
5440		-93.750000
5441		-97.656250
5442		-91.796875
5443		-97.656250
5444		-93.750000
5445		-95.703125
5446		-93.750000
5447		-95.703125
5448		-91.796875
5449		-95.703125
5450		-91.796875
5451		-93.750000
5452		-89.843750
5453		-93.750000
5454		-89.843750
5455		-91.796875
5456		-87.890625
5457		-89.843750
5458		-85.937500
5459		-87.890625
5460		-83.984375
5461		-85.937500
5462		-82.031250
5463		-82.031250
5464		-78.125000
5465		-80.078125
5466		-76.171875
5467		-78.125000
5468		-72.265625
5469		-74.218750
5470		-68.359375
5471		-70.312500
5472		-66.406250
5473		-68.359375
5474		-62.500000
5475		-64.453125
5476		-58.593750
5477		-60.546875
5478		-54.687500
5479		-56.640625
5480		-50.781250
5481		-50.781250
5482		-46.875000
5483		-46.875000
5484		-41.015625
5485		-42.968750
5486		-37.109375
5487		-39.062500
5488		-33.203125
5489		-33.203125
5490		-27.343750
5491		-29.296875
5492		-23.437500
5493		-25.390625
5494		-19.531250
5495		-19.531250
5496		-13.671875
5497		-15.625000
5498		-9.765625
5499		-11.718750
5500		-3.906250
5501		-5.859375
5502		0.000000
5503		-1.953125
5504		5.859375
5505		3.906250
5506		9.765625
5507		9.765625
5508		15.625000
5509		13.671875
5510		19.531250
5511		19.531250
5512		25.390625
5513		23.437500
5514		29.296875
5515		27.343750
5516		35.156250
5517		33.203125
5518		39.062500
5519		37.109375
5520		42.968750
5521		41.015625
5522		46.875000
5523		44.921875
5524		50.781250
5525		48.828125
5526		54.687500
5527		52.734375
5528		58.593750
5529		56.640625
5530		62.500000
5531		60.546875
5532		66.406250
5533		64.453125
5534		70.312500
5535		68.359375
5536		72.265625
5537		70.312500
5538		76.171875
5539		74.218750
5540		78.125000
5541		76.171875
5542		82.031250
5543		80.078125
5544		83.984375
5545		82.031250
5546		85.937500
5547		83.984375
5548		87.890625
5549		87.890625
5550		89.843750
5551		87.890625
5552		91.796875
5553		89.843750
5554		93.750000
5555		91.796875
5556		95.703125
5557		93.750000
5558		95.703125
5559		93.750000
5560		97.656250
5561		95.703125
5562		97.656250
5563		95.703125
5564		99.609375
5565		95.703125
5566		99.609375
5567		95.703125
5568		99.609375
5569		95.703125
5570		99.609375
5571		95.703125
5572		99.609375
5573		95.703125
5574		99.609375
5575		93.750000
5576		97.656250
5577		93.750000
5578		97.656250
5579		93.750000
5580		97.656250
5581		91.796875
5582		95.703125
5583		89.843750
5584		95.703125
5585		89.843750
5586		91.796875
5587		85.937500
5588		91.796875
5589		85.937500
5590		87.890625
5591		82.031250
5592		85.937500
5593		80.078125
5594		83.984375
5595		76.171875
5596		82.031250
5597		74.218750
5598		80.078125
5599		72.265625
5600		76.171875
5601		68.359375
5602		74.218750
5603		64.453125
5604		70.312500
5605		62.500000
5606		66.406250
5607		58.593750
5608		62.500000
5609		52.734375
5610		58.593750
5611		50.781250
5612		56.640625
5613		46.875000
5614		50.781250
5615		41.015625
5616		48.828125
5617		37.109375
5618		42.968750
5619		33.203125
5620		39.062500
5621		27.343750
5622		35.156250
5623		23.437500
5624		29.296875
5625		17.578125
5626		25.390625
5627		13.671875
5628		19.531250
5629		9.765625
5630		15.625000
5631		3.906250
5632		11.718750
5633		0.000000
5634		5.859375
5635		-5.859375
5636		1.953125
5637		-11.718750
5638		-3.906250
5639		-15.625000
5640		-7.812500
5641		-19.531250
5642		-13.671875
5643		-25.390625
5644		-17.578125
5645		-29.296875
5646		-23.437500
5647		-35.156250
5648		-27.343750
5649		-39.062500
5650		-33.203125
5651		-42.968750
5652		-37.109375
5653		-46.875000
5654		-41.015625
5655		-52.734375
5656		-44.921875
5657		-56.640625
5658		-50.781250
5659		-60.546875
5660		-54.687500
5661		-64.453125
5662		-58.593750
5663		-68.359375
5664		-62.500000
5665		-70.312500
5666		-66.406250
5667		-74.218750
5668		-68.359375
5669		-78.125000
5670		-72.265625
5671		-80.078125
5672		-74.218750
5673		-82.031250
5674		-78.125000
5675		-85.937500
5676		-80.078125
5677		-87.890625
5678		-82.031250
5679		-89.843750
5680		-85.937500
5681		-91.796875
5682		-87.890625
5683		-91.796875
5684		-89.843750
5685		-93.750000
5686		-89.843750
5687		-95.703125
5688		-91.796875
5689		-95.703125
5690		-91.796875
5691		-95.703125
5692		-93.750000
5693		-95.703125
5694		-91.796875
5695		-95.703125
5696		-91.796875
5697		-95.703125
5698		-91.796875
5699		-95.703125
5700		-91.796875
5701		-93.750000
5702		-91.796875
5703		-93.750000
5704		-89.843750
5705		-91.796875
5706		-87.890625
5707		-89.843750
5708		-87.890625
5709		-87.890625
5710		-83.984375
5711		-87.890625
5712		-82.031250
5713		-83.984375
5714		-80.078125
5715		-82.031250
5716		-78.125000
5717		-80.078125
5718		-74.218750
5719		-78.125000
5720		-72.265625
5721		-74.218750
5722		-68.359375
5723		-70.312500
5724		-66.406250
5725		-66.406250
5726		-62.500000
5727		-62.500000
5728		-58.593750
5729		-58.593750
5730		-52.734375
5731		-54.687500
5732		-48.828125
5733		-50.781250
5734		-44.921875
5735		-46.875000
5736		-41.015625
5737		-42.968750
5738		-37.109375
5739		-37.109375
5740		-31.250000
5741		-33.203125
5742		-27.343750
5743		-29.296875
5744		-21.484375
5745		-25.390625
5746		-17.578125
5747		-19.531250
5748		-11.718750
5749		-13.671875
5750		-7.812500
5751		-9.765625
5752		-1.953125
5753		-5.859375
5754		1.953125
5755		0.000000
5756		5.859375
5757		5.859375
5758		11.718750
5759		9.765625
5760		15.625000
5761		15.625000
5762		21.484375
5763		19.531250
5764		27.343750
5765		23.437500
5766		29.296875
5767		29.296875
5768		35.156250
5769		33.203125
5770		39.062500
5771		37.109375
5772		44.921875
5773		41.015625
5774		48.828125
5775		46.875000
5776		52.734375
5777		50.781250
5778		56.640625
5779		54.687500
5780		60.546875
5781		58.593750
5782		64.453125
5783		60.546875
5784		68.359375
5785		64.453125
5786		70.312500
5787		68.359375
5788		74.218750
5789		72.265625
5790		76.171875
5791		74.218750
5792		80.078125
5793		78.125000
5794		83.984375
5795		80.078125
5796		85.937500
5797		82.031250
5798		87.890625
5799		83.984375
5800		89.843750
5801		85.937500
5802		91.796875
5803		87.890625
5804		93.750000
5805		89.843750
5806		95.703125
5807		91.796875
5808		95.703125
5809		93.750000
5810		95.703125
5811		93.750000
5812		99.609375
5813		93.750000
5814		99.609375
5815		95.703125
5816		99.609375
5817		95.703125
5818		101.562500
5819		95.703125
5820		101.562500
5821		95.703125
5822		101.562500
5823		95.703125
5824		101.562500
5825		95.703125
5826		99.609375
5827		95.703125
5828		99.609375
5829		93.750000
5830		99.609375
5831		91.796875
5832		97.656250
5833		91.796875
5834		95.703125
5835		89.843750
5836		95.703125
5837		87.890625
5838		93.750000
5839		85.937500
5840		91.796875
5841		85.937500
5842		89.843750
5843		83.984375
5844		85.937500
5845		80.078125
5846		85.937500
5847		78.125000
5848		83.984375
5849		74.218750
5850		80.078125
5851		70.312500
5852		78.125000
5853		68.359375
5854		74.218750
5855		64.453125
5856		72.265625
5857		62.500000
5858		68.359375
5859		58.593750
5860		62.500000
5861		54.687500
5862		58.593750
5863		48.828125
5864		54.687500
5865		46.875000
5866		50.781250
5867		41.015625
5868		46.875000
5869		37.109375
5870		42.968750
5871		33.203125
5872		39.062500
5873		29.296875
5874		33.203125
5875		23.437500
5876		29.296875
5877		19.531250
5878		25.390625
5879		13.671875
5880		21.484375
5881		9.765625
5882		15.625000
5883		3.906250
5884		11.718750
5885		0.000000
5886		5.859375
5887		-5.859375
5888		0.000000
5889		-11.718750
5890		-3.906250
5891		-15.625000
5892		-9.765625
5893		-19.531250
5894		-13.671875
5895		-25.390625
5896		-17.578125
5897		-29.296875
5898		-23.437500
5899		-33.203125
5900		-27.343750
5901		-39.062500
5902		-33.203125
5903		-42.968750
5904		-37.109375
5905		-46.875000
5906		-41.015625
5907		-50.781250
5908		-46.875000
5909		-56.640625
5910		-50.781250
5911		-58.593750
5912		-54.687500
5913		-64.453125
5914		-58.593750
5915		-66.406250
5916		-62.500000
5917		-70.312500
5918		-66.406250
5919		-74.218750
5920		-68.359375
5921		-76.171875
5922		-72.265625
5923		-80.078125
5924		-76.171875
5925		-82.031250
5926		-78.125000
5927		-83.984375
5928		-80.078125
5929		-85.937500
5930		-83.984375
5931		-87.890625
5932		-85.937500
5933		-89.843750
5934		-87.890625
5935		-91.796875
5936		-89.843750
5937		-93.750000
5938		-89.843750
5939		-93.750000
5940		-91.796875
5941		-93.750000
5942		-91.796875
5943		-95.703125
5944		-91.796875
5945		-95.703125
5946		-93.750000
5947		-95.703125
5948		-91.796875
5949		-95.703125
5950		-91.796875
5951		-93.750000
5952		-91.796875
5953		-93.750000
5954		-91.796875
5955		-91.796875
5956		-89.843750
5957		-91.796875
5958		-87.890625
5959		-89.843750
5960		-85.937500
5961		-87.890625
5962		-83.984375
5963		-87.890625
5964		-78.125000
5965		-85.937500
5966		-76.171875
5967		-83.984375
5968		-74.218750
5969		-78.125000
5970		-74.218750
5971		-76.171875
5972		-72.265625
5973		-72.265625
5974		-68.359375
5975		-70.312500
5976		-64.453125
5977		-66.406250
5978		-60.546875
5979		-64.453125
5980		-54.687500
5981		-60.546875
5982		-48.828125
5983		-56.640625
5984		-46.875000
5985		-50.781250
5986		-44.921875
5987		-44.921875
5988		-39.062500
5989		-41.015625
5990		-35.156250
5991		-37.109375
5992		-31.250000
5993		-31.250000
5994		-25.390625
5995		-27.343750
5996		-19.531250
5997		-25.390625
5998		-13.671875
5999		-21.484375
6000		-7.812500
6001		-15.625000
6002		-5.859375
6003		-7.812500
6004		-1.953125
6005		-3.906250
6006		3.906250
6007		1.953125
6008		7.812500
6009		5.859375
6010		11.718750
6011		11.718750
6012		17.578125
6013		13.671875
6014		23.437500
6015		17.578125
6016		29.296875
6017		23.437500
6018		33.203125
6019		29.296875
6020		35.156250
6021		35.156250
6022		41.015625
6023		39.062500
6024		44.921875
6025		42.968750
6026		48.828125
6027		46.875000
6028		52.734375
6029		50.781250
6030		60.546875
6031		52.734375
6032		64.453125
6033		56.640625
6034		68.359375
6035		60.546875
6036		68.359375
6037		66.406250
6038		70.312500
6039		70.312500
6040		74.218750
6041		72.265625
6042		76.171875
6043		76.171875
6044		80.078125
6045		78.125000
6046		82.031250
6047		78.125000
6048		87.890625
6049		80.078125
6050		89.843750
6051		82.031250
6052		93.750000
6053		87.890625
6054		91.796875
6055		89.843750
6056		93.750000
6057		91.796875
6058		95.703125
6059		93.750000
6060		95.703125
6061		93.750000
6062		97.656250
6063		91.796875
6064		101.562500
6065		91.796875
6066		103.515625
6067		93.750000
6068		103.515625
6069		97.656250
6070		99.609375
6071		97.656250
6072		99.609375
6073		97.656250
6074		99.609375
6075		97.656250
6076		99.609375
6077		97.656250
6078		99.609375
6079		91.796875
6080		101.562500
6081		91.796875
6082		101.562500
6083		89.843750
6084		99.609375
6085		89.843750
6086		99.609375
6087		91.796875
6088		93.750000
6089		89.843750
6090		93.750000
6091		87.890625
6092		91.796875
6093		85.937500
6094		89.843750
6095		83.984375
6096		87.890625
6097		78.125000
6098		87.890625
6099		74.218750
6100		85.937500
6101		72.265625
6102		82.031250
6103		72.265625
6104		76.171875
6105		68.359375
6106		74.218750
6107		66.406250
6108		70.312500
6109		62.500000
6110		66.406250
6111		58.593750
6112		62.500000
6113		50.781250
6114		60.546875
6115		46.875000
6116		58.593750
6117		42.968750
6118		54.687500
6119		41.015625
6120		50.781250
6121		37.109375
6122		42.968750
6123		33.203125
6124		39.062500
6125		29.296875
6126		35.156250
6127		23.437500
6128		29.296875
6129		19.531250
6130		25.390625
6131		13.671875
6132		23.437500
6133		7.812500
6134		17.578125
6135		3.906250
6136		13.671875
6137		0.000000
6138		5.859375
6139		-5.859375
6140		1.953125
6141		-9.765625
6142		-3.906250
6143		-15.625000
6144		-7.812500
6145		-19.531250
6146		-13.671875
6147		-25.390625
6148		-17.578125
6149		-31.250000
6150		-21.484375
6151		-33.203125
6152		-27.343750
6153		-39.062500
6154		-33.203125
6155		-42.968750
6156		-37.109375
6157		-46.875000
6158		-41.015625
6159		-50.781250
6160		-44.921875
6161		-56.640625
6162		-50.781250
6163		-60.546875
6164		-52.734375
6165		-64.453125
6166		-58.593750
6167		-68.359375
6168		-60.546875
6169		-70.312500
6170		-64.453125
6171		-74.218750
6172		-68.359375
6173		-76.171875
6174		-72.265625
6175		-80.078125
6176		-74.218750
6177		-82.031250
6178		-78.125000
6179		-83.984375
6180		-80.078125
6181		-85.937500
6182		-82.031250
6183		-89.843750
6184		-82.031250
6185		-91.796875
6186		-83.984375
6187		-91.796875
6188		-87.890625
6189		-91.796875
6190		-89.843750
6191		-93.750000
6192		-89.843750
6193		-93.750000
6194		-91.796875
6195		-93.750000
6196		-91.796875
6197		-93.750000
6198		-91.796875
6199		-93.750000
6200		-91.796875
6201		-93.750000
6202		-91.796875
6203		-93.750000
6204		-91.796875
6205		-93.750000
6206		-89.843750
6207		-91.796875
6208		-87.890625
6209		-89.843750
6210		-87.890625
6211		-87.890625
6212		-85.937500
6213		-85.937500
6214		-82.031250
6215		-85.937500
6216		-82.031250
6217		-82.031250
6218		-78.125000
6219		-80.078125
6220		-76.171875
6221		-78.125000
6222		-72.265625
6223		-74.218750
6224		-70.312500
6225		-72.265625
6226		-66.406250
6227		-68.359375
6228		-62.500000
6229		-64.453125
6230		-58.593750
6231		-60.546875
6232		-54.687500
6233		-56.640625
6234		-50.781250
6235		-52.734375
6236		-46.875000
6237		-48.828125
6238		-42.968750
6239		-44.921875
6240		-39.062500
6241		-39.062500
6242		-33.203125
6243		-35.156250
6244		-29.296875
6245		-31.250000
6246		-25.390625
6247		-25.390625
6248		-19.531250
6249		-21.484375
6250		-15.625000
6251		-17.578125
6252		-9.765625
6253		-11.718750
6254		-5.859375
6255		-5.859375
6256		0.000000
6257		-1.953125
6258		3.906250
6259		1.953125
6260		9.765625
6261		7.812500
6262		13.671875
6263		13.671875
6264		17.578125
6265		17.578125
6266		23.437500
6267		21.484375
6268		27.343750
6269		27.343750
6270		33.203125
6271		31.250000
6272		37.109375
6273		35.156250
6274		41.015625
6275		41.015625
6276		44.921875
6277		44.921875
6278		50.781250
6279		48.828125
6280		54.687500
6281		52.734375
6282		58.593750
6283		56.640625
6284		62.500000
6285		60.546875
6286		64.453125
6287		64.453125
6288		68.359375
6289		66.406250
6290		72.265625
6291		70.312500
6292		74.218750
6293		74.218750
6294		78.125000
6295		76.171875
6296		82.031250
6297		80.078125
6298		83.984375
6299		80.078125
6300		85.937500
6301		83.984375
6302		87.890625
6303		85.937500
6304		89.843750
6305		87.890625
6306		91.796875
6307		89.843750
6308		93.750000
6309		91.796875
6310		95.703125
6311		93.750000
6312		97.656250
6313		95.703125
6314		97.656250
6315		93.750000
6316		99.609375
6317		95.703125
6318		99.609375
6319		97.656250
6320		99.609375
6321		97.656250
6322		101.562500
6323		97.656250
6324		101.562500
6325		97.656250
6326		101.562500
6327		97.656250
6328		99.609375
6329		97.656250
6330		99.609375
6331		95.703125
6332		99.609375
6333		95.703125
6334		99.609375
6335		95.703125
6336		97.656250
6337		93.750000
6338		95.703125
6339		91.796875
6340		95.703125
6341		89.843750
6342		93.750000
6343		87.890625
6344		91.796875
6345		85.937500
6346		89.843750
6347		83.984375
6348		87.890625
6349		80.078125
6350		85.937500
6351		78.125000
6352		82.031250
6353		76.171875
6354		80.078125
6355		72.265625
6356		76.171875
6357		68.359375
6358		74.218750
6359		66.406250
6360		70.312500
6361		62.500000
6362		66.406250
6363		58.593750
6364		64.453125
6365		52.734375
6366		60.546875
6367		48.828125
6368		56.640625
6369		46.875000
6370		52.734375
6371		41.015625
6372		46.875000
6373		37.109375
6374		42.968750
6375		33.203125
6376		39.062500
6377		29.296875
6378		33.203125
6379		23.437500
6380		29.296875
6381		19.531250
6382		25.390625
6383		13.671875
6384		21.484375
6385		9.765625
6386		15.625000
6387		3.906250
6388		11.718750
6389		-1.953125
6390		5.859375
6391		-5.859375
6392		1.953125
6393		-9.765625
6394		-3.906250
6395		-15.625000
6396		-9.765625
6397		-19.531250
6398		-13.671875
6399		-25.390625
6400		-17.578125
6401		-29.296875
6402		-23.437500
6403		-33.203125
6404		-27.343750
6405		-39.062500
6406		-31.250000
6407		-42.968750
6408		-37.109375
6409		-46.875000
6410		-41.015625
6411		-50.781250
6412		-46.875000
6413		-54.687500
6414		-50.781250
6415		-60.546875
6416		-54.687500
6417		-62.500000
6418		-58.593750
6419		-66.406250
6420		-60.546875
6421		-70.312500
6422		-66.406250
6423		-74.218750
6424		-68.359375
6425		-76.171875
6426		-70.312500
6427		-78.125000
6428		-74.218750
6429		-82.031250
6430		-78.125000
6431		-83.984375
6432		-80.078125
6433		-85.937500
6434		-82.031250
6435		-87.890625
6436		-83.984375
6437		-89.843750
6438		-85.937500
6439		-91.796875
6440		-87.890625
6441		-91.796875
6442		-87.890625
6443		-91.796875
6444		-89.843750
6445		-93.750000
6446		-91.796875
6447		-93.750000
6448		-91.796875
6449		-93.750000
6450		-91.796875
6451		-93.750000
6452		-91.796875
6453		-93.750000
6454		-91.796875
6455		-93.750000
6456		-89.843750
6457		-91.796875
6458		-89.843750
6459		-91.796875
6460		-87.890625
6461		-89.843750
6462		-85.937500
6463		-87.890625
6464		-85.937500
6465		-85.937500
6466		-82.031250
6467		-83.984375
6468		-80.078125
6469		-82.031250
6470		-78.125000
6471		-80.078125
6472		-76.171875
6473		-76.171875
6474		-72.265625
6475		-74.218750
6476		-68.359375
6477		-70.312500
6478		-66.406250
6479		-66.406250
6480		-62.500000
6481		-64.453125
6482		-58.593750
6483		-60.546875
6484		-54.687500
6485		-56.640625
6486		-50.781250
6487		-52.734375
6488		-46.875000
6489		-48.828125
6490		-42.968750
6491		-42.968750
6492		-37.109375
6493		-39.062500
6494		-33.203125
6495		-35.156250
6496		-29.296875
6497		-31.250000
6498		-23.437500
6499		-25.390625
6500		-19.531250
6501		-21.484375
6502		-13.671875
6503		-15.625000
6504		-9.765625
6505		-11.718750
6506		-5.859375
6507		-5.859375
6508		0.000000
6509		-1.953125
6510		5.859375
6511		3.906250
6512		9.765625
6513		7.812500
6514		13.671875
6515		13.671875
6516		19.531250
6517		17.578125
6518		23.437500
6519		23.437500
6520		29.296875
6521		27.343750
6522		33.203125
6523		31.250000
6524		37.109375
6525		37.109375
6526		42.968750
6527		41.015625
6528		46.875000
6529		44.921875
6530		50.781250
6531		48.828125
6532		54.687500
6533		52.734375
6534		58.593750
6535		56.640625
6536		62.500000
6537		60.546875
6538		66.406250
6539		64.453125
6540		70.312500
6541		68.359375
6542		72.265625
6543		72.265625
6544		76.171875
6545		74.218750
6546		78.125000
6547		78.125000
6548		82.031250
6549		80.078125
6550		83.984375
6551		82.031250
6552		87.890625
6553		85.937500
6554		89.843750
6555		87.890625
6556		91.796875
6557		89.843750
6558		91.796875
6559		91.796875
6560		93.750000
6561		93.750000
6562		95.703125
6563		93.750000
6564		97.656250
6565		95.703125
6566		97.656250
6567		95.703125
6568		99.609375
6569		97.656250
6570		99.609375
6571		97.656250
6572		99.609375
6573		97.656250
6574		101.562500
6575		97.656250
6576		99.609375
6577		97.656250
6578		99.609375
6579		97.656250
6580		99.609375
6581		97.656250
6582		99.609375
6583		95.703125
6584		99.609375
6585		95.703125
6586		99.609375
6587		93.750000
6588		99.609375
6589		93.750000
6590		95.703125
6591		91.796875
6592		95.703125
6593		89.843750
6594		93.750000
6595		87.890625
6596		91.796875
6597		85.937500
6598		89.843750
6599		83.984375
6600		87.890625
6601		80.078125
6602		85.937500
6603		78.125000
6604		83.984375
6605		74.218750
6606		80.078125
6607		72.265625
6608		76.171875
6609		68.359375
6610		74.218750
6611		64.453125
6612		70.312500
6613		62.500000
6614		66.406250
6615		58.593750
6616		62.500000
6617		52.734375
6618		60.546875
6619		48.828125
6620		56.640625
6621		44.921875
6622		50.781250
6623		41.015625
6624		46.875000
6625		37.109375
6626		42.968750
6627		33.203125
6628		39.062500
6629		29.296875
6630		33.203125
6631		23.437500
6632		29.296875
6633		19.531250
6634		25.390625
6635		13.671875
6636		21.484375
6637		9.765625
6638		17.578125
6639		3.906250
6640		9.765625
6641		0.000000
6642		5.859375
6643		-5.859375
6644		0.000000
6645		-9.765625
6646		-3.906250
6647		-15.625000
6648		-9.765625
6649		-19.531250
6650		-13.671875
6651		-25.390625
6652		-17.578125
6653		-29.296875
6654		-21.484375
6655		-33.203125
6656		-27.343750
6657		-39.062500
6658		-33.203125
6659		-42.968750
6660		-37.109375
6661		-46.875000
6662		-41.015625
6663		-50.781250
6664		-46.875000
6665		-54.687500
6666		-50.781250
6667		-60.546875
6668		-54.687500
6669		-64.453125
6670		-56.640625
6671		-66.406250
6672		-60.546875
6673		-70.312500
6674		-64.453125
6675		-72.265625
6676		-68.359375
6677		-76.171875
6678		-72.265625
6679		-78.125000
6680		-74.218750
6681		-82.031250
6682		-78.125000
6683		-83.984375
6684		-80.078125
6685		-85.937500
6686		-80.078125
6687		-87.890625
6688		-83.984375
6689		-89.843750
6690		-85.937500
6691		-89.843750
6692		-87.890625
6693		-91.796875
6694		-89.843750
6695		-91.796875
6696		-89.843750
6697		-91.796875
6698		-89.843750
6699		-93.750000
6700		-91.796875
6701		-95.703125
6702		-89.843750
6703		-93.750000
6704		-89.843750
6705		-93.750000
6706		-89.843750
6707		-91.796875
6708		-89.843750
6709		-91.796875
6710		-89.843750
6711		-89.843750
6712		-87.890625
6713		-89.843750
6714		-85.937500
6715		-87.890625
6716		-83.984375
6717		-85.937500
6718		-82.031250
6719		-85.937500
6720		-78.125000
6721		-82.031250
6722		-76.171875
6723		-78.125000
6724		-74.218750
6725		-76.171875
6726		-72.265625
6727		-72.265625
6728		-68.359375
6729		-70.312500
6730		-64.453125
6731		-66.406250
6732		-60.546875
6733		-62.500000
6734		-56.640625
6735		-60.546875
6736		-52.734375
6737		-56.640625
6738		-48.828125
6739		-50.781250
6740		-44.921875
6741		-46.875000
6742		-41.015625
6743		-42.968750
6744		-37.109375
6745		-39.062500
6746		-31.250000
6747		-33.203125
6748		-27.343750
6749		-29.296875
6750		-23.437500
6751		-23.437500
6752		-17.578125
6753		-21.484375
6754		-11.718750
6755		-15.625000
6756		-7.812500
6757		-9.765625
6758		-3.906250
6759		-5.859375
6760		1.953125
6761		0.000000
6762		5.859375
6763		3.906250
6764		11.718750
6765		9.765625
6766		15.625000
6767		13.671875
6768		19.531250
6769		19.531250
6770		25.390625
6771		23.437500
6772		29.296875
6773		29.296875
6774		33.203125
6775		33.203125
6776		39.062500
6777		37.109375
6778		42.968750
6779		41.015625
6780		46.875000
6781		46.875000
6782		50.781250
6783		50.781250
6784		54.687500
6785		54.687500
6786		60.546875
6787		58.593750
6788		62.500000
6789		62.500000
6790		66.406250
6791		64.453125
6792		70.312500
6793		68.359375
6794		74.218750
6795		72.265625
6796		76.171875
6797		76.171875
6798		80.078125
6799		78.125000
6800		82.031250
6801		80.078125
6802		83.984375
6803		82.031250
6804		87.890625
6805		85.937500
6806		89.843750
6807		87.890625
6808		91.796875
6809		89.843750
6810		93.750000
6811		91.796875
6812		95.703125
6813		93.750000
6814		95.703125
6815		95.703125
6816		97.656250
6817		95.703125
6818		99.609375
6819		95.703125
6820		99.609375
6821		97.656250
6822		101.562500
6823		97.656250
6824		99.609375
6825		97.656250
6826		101.562500
6827		99.609375
6828		101.562500
6829		99.609375
6830		101.562500
6831		97.656250
6832		101.562500
6833		97.656250
6834		99.609375
6835		97.656250
6836		99.609375
6837		95.703125
6838		99.609375
6839		93.750000
6840		97.656250
6841		93.750000
6842		95.703125
6843		91.796875
6844		95.703125
6845		89.843750
6846		93.750000
6847		87.890625
6848		91.796875
6849		85.937500
6850		89.843750
6851		83.984375
6852		87.890625
6853		80.078125
6854		83.984375
6855		78.125000
6856		82.031250
6857		76.171875
6858		80.078125
6859		72.265625
6860		76.171875
6861		68.359375
6862		74.218750
6863		64.453125
6864		70.312500
6865		62.500000
6866		66.406250
6867		58.593750
6868		62.500000
6869		54.687500
6870		58.593750
6871		48.828125
6872		54.687500
6873		44.921875
6874		50.781250
6875		41.015625
6876		46.875000
6877		37.109375
6878		42.968750
6879		33.203125
6880		39.062500
6881		27.343750
6882		33.203125
6883		23.437500
6884		29.296875
6885		17.578125
6886		23.437500
6887		13.671875
6888		19.531250
6889		7.812500
6890		15.625000
6891		3.906250
6892		9.765625
6893		0.000000
6894		5.859375
6895		-5.859375
6896		0.000000
6897		-11.718750
6898		-3.906250
6899		-15.625000
6900		-9.765625
6901		-19.531250
6902		-13.671875
6903		-25.390625
6904		-19.531250
6905		-29.296875
6906		-23.437500
6907		-35.156250
6908		-29.296875
6909		-39.062500
6910		-33.203125
6911		-42.968750
6912		-37.109375
6913		-46.875000
6914		-42.968750
6915		-50.781250
6916		-46.875000
6917		-56.640625
6918		-50.781250
6919		-60.546875
6920		-54.687500
6921		-62.500000
6922		-58.593750
6923		-66.406250
6924		-62.500000
6925		-70.312500
6926		-66.406250
6927		-74.218750
6928		-68.359375
6929		-76.171875
6930		-72.265625
6931		-80.078125
6932		-76.171875
6933		-82.031250
6934		-78.125000
6935		-83.984375
6936		-80.078125
6937		-85.937500
6938		-82.031250
6939		-87.890625
6940		-83.984375
6941		-89.843750
6942		-85.937500
6943		-89.843750
6944		-87.890625
6945		-91.796875
6946		-89.843750
6947		-91.796875
6948		-89.843750
6949		-93.750000
6950		-89.843750
6951		-93.750000
6952		-91.796875
6953		-93.750000
6954		-91.796875
6955		-93.750000
6956		-91.796875
6957		-93.750000
6958		-89.843750
6959		-91.796875
6960		-89.843750
6961		-91.796875
6962		-89.843750
6963		-89.843750
6964		-87.890625
6965		-89.843750
6966		-85.937500
6967		-87.890625
6968		-83.984375
6969		-85.937500
6970		-82.031250
6971		-83.984375
6972		-80.078125
6973		-82.031250
6974		-78.125000
6975		-78.125000
6976		-74.218750
6977		-76.171875
6978		-72.265625
6979		-72.265625
6980		-68.359375
6981		-70.312500
6982		-64.453125
6983		-66.406250
6984		-60.546875
6985		-62.500000
6986		-58.593750
6987		-58.593750
6988		-52.734375
6989		-54.687500
6990		-48.828125
6991		-50.781250
6992		-44.921875
6993		-46.875000
6994		-41.015625
6995		-42.968750
6996		-37.109375
6997		-37.109375
6998		-31.250000
6999		-33.203125
7000		-27.343750
7001		-29.296875
7002		-23.437500
7003		-23.437500
7004		-17.578125
7005		-19.531250
7006		-13.671875
7007		-13.671875
7008		-7.812500
7009		-9.765625
7010		-3.906250
7011		-5.859375
7012		1.953125
7013		0.000000
7014		5.859375
7015		5.859375
7016		11.718750
7017		9.765625
7018		15.625000
7019		15.625000
7020		21.484375
7021		19.531250
7022		25.390625
7023		23.437500
7024		29.296875
7025		29.296875
7026		35.156250
7027		33.203125
7028		39.062500
7029		37.109375
7030		42.968750
7031		42.968750
7032		46.875000
7033		46.875000
7034		50.781250
7035		50.781250
7036		56.640625
7037		54.687500
7038		58.593750
7039		58.593750
7040		62.500000
7041		62.500000
7042		66.406250
7043		64.453125
7044		70.312500
7045		68.359375
7046		74.218750
7047		72.265625
7048		76.171875
7049		76.171875
7050		80.078125
7051		78.125000
7052		82.031250
7053		82.031250
7054		85.937500
7055		83.984375
7056		87.890625
7057		85.937500
7058		89.843750
7059		87.890625
7060		91.796875
7061		89.843750
7062		93.750000
7063		91.796875
7064		95.703125
7065		91.796875
7066		95.703125
7067		95.703125
7068		97.656250
7069		95.703125
7070		99.609375
7071		97.656250
7072		99.609375
7073		97.656250
7074		99.609375
7075		97.656250
7076		101.562500
7077		99.609375
7078		101.562500
7079		99.609375
7080		101.562500
7081		97.656250
7082		101.562500
7083		97.656250
7084		101.562500
7085		97.656250
7086		99.609375
7087		95.703125
7088		99.609375
7089		95.703125
7090		99.609375
7091		95.703125
7092		97.656250
7093		93.750000
7094		95.703125
7095		91.796875
7096		95.703125
7097		89.843750
7098		93.750000
7099		87.890625
7100		91.796875
7101		85.937500
7102		89.843750
7103		83.984375
7104		87.890625
7105		80.078125
7106		83.984375
7107		78.125000
7108		82.031250
7109		74.218750
7110		80.078125
7111		72.265625
7112		76.171875
7113		68.359375
7114		72.265625
7115		64.453125
7116		70.312500
7117		60.546875
7118		66.406250
7119		58.593750
7120		62.500000
7121		52.734375
7122		58.593750
7123		48.828125
7124		54.687500
7125		44.921875
7126		50.781250
7127		41.015625
7128		46.875000
7129		37.109375
7130		42.968750
7131		33.203125
7132		39.062500
7133		27.343750
7134		33.203125
7135		23.437500
7136		29.296875
7137		17.578125
7138		25.390625
7139		13.671875
7140		19.531250
7141		7.812500
7142		13.671875
7143		3.906250
7144		9.765625
7145		0.000000
7146		5.859375
7147		-5.859375
7148		0.000000
7149		-11.718750
7150		-5.859375
7151		-15.625000
7152		-9.765625
7153		-21.484375
7154		-13.671875
7155		-25.390625
7156		-19.531250
7157		-29.296875
7158		-23.437500
7159		-35.156250
7160		-29.296875
7161		-39.062500
7162		-33.203125
7163		-42.968750
7164		-37.109375
7165		-46.875000
7166		-41.015625
7167		-50.781250
7168		-46.875000
7169		-56.640625
7170		-50.781250
7171		-58.593750
7172		-54.687500
7173		-62.500000
7174		-58.593750
7175		-66.406250
7176		-62.500000
7177		-70.312500
7178		-64.453125
7179		-72.265625
7180		-68.359375
7181		-76.171875
7182		-72.265625
7183		-78.125000
7184		-74.218750
7185		-82.031250
7186		-78.125000
7187		-83.984375
7188		-80.078125
7189		-85.937500
7190		-82.031250
7191		-87.890625
7192		-83.984375
7193		-87.890625
7194		-85.937500
7195		-89.843750
7196		-87.890625
7197		-91.796875
7198		-87.890625
7199		-91.796875
7200		-89.843750
7201		-91.796875
7202		-89.843750
7203		-91.796875
7204		-89.843750
7205		-91.796875
7206		-89.843750
7207		-91.796875
7208		-89.843750
7209		-91.796875
7210		-89.843750
7211		-91.796875
7212		-89.843750
7213		-89.843750
7214		-87.890625
7215		-89.843750
7216		-85.937500
7217		-87.890625
7218		-83.984375
7219		-85.937500
7220		-83.984375
7221		-83.984375
7222		-80.078125
7223		-82.031250
7224		-78.125000
7225		-80.078125
7226		-76.171875
7227		-78.125000
7228		-74.218750
7229		-74.218750
7230		-70.312500
7231		-72.265625
7232		-68.359375
7233		-68.359375
7234		-64.453125
7235		-64.453125
7236		-60.546875
7237		-62.500000
7238		-56.640625
7239		-58.593750
7240		-52.734375
7241		-54.687500
7242		-48.828125
7243		-50.781250
7244		-44.921875
7245		-46.875000
7246		-39.062500
7247		-41.015625
7248		-35.156250
7249		-37.109375
7250		-31.250000
7251		-33.203125
7252		-25.390625
7253		-27.343750
7254		-21.484375
7255		-23.437500
7256		-17.578125
7257		-17.578125
7258		-11.718750
7259		-13.671875
7260		-7.812500
7261		-7.812500
7262		-1.953125
7263		-3.906250
7264		1.953125
7265		1.953125
7266		7.812500
7267		5.859375
7268		11.718750
7269		11.718750
7270		17.578125
7271		15.625000
7272		21.484375
7273		19.531250
7274		27.343750
7275		25.390625
7276		31.250000
7277		29.296875
7278		35.156250
7279		33.203125
7280		39.062500
7281		39.062500
7282		44.921875
7283		42.968750
7284		48.828125
7285		46.875000
7286		52.734375
7287		50.781250
7288		56.640625
7289		54.687500
7290		60.546875
7291		58.593750
7292		64.453125
7293		62.500000
7294		68.359375
7295		66.406250
7296		70.312500
7297		70.312500
7298		74.218750
7299		72.265625
7300		78.125000
7301		76.171875
7302		80.078125
7303		78.125000
7304		83.984375
7305		82.031250
7306		85.937500
7307		83.984375
7308		87.890625
7309		85.937500
7310		89.843750
7311		87.890625
7312		91.796875
7313		89.843750
7314		93.750000
7315		91.796875
7316		95.703125
7317		93.750000
7318		97.656250
7319		95.703125
7320		97.656250
7321		97.656250
7322		99.609375
7323		97.656250
7324		99.609375
7325		97.656250
7326		99.609375
7327		99.609375
7328		101.562500
7329		99.609375
7330		101.562500
7331		99.609375
7332		101.562500
7333		99.609375
7334		101.562500
7335		97.656250
7336		101.562500
7337		97.656250
7338		101.562500
7339		97.656250
7340		99.609375
7341		95.703125
7342		99.609375
7343		95.703125
7344		97.656250
7345		93.750000
7346		95.703125
7347		91.796875
7348		95.703125
7349		89.843750
7350		93.750000
7351		87.890625
7352		91.796875
7353		85.937500
7354		89.843750
7355		83.984375
7356		87.890625
7357		80.078125
7358		83.984375
7359		78.125000
7360		82.031250
7361		74.218750
7362		80.078125
7363		72.265625
7364		76.171875
7365		68.359375
7366		72.265625
7367		64.453125
7368		70.312500
7369		60.546875
7370		66.406250
7371		56.640625
7372		62.500000
7373		52.734375
7374		58.593750
7375		48.828125
7376		54.687500
7377		44.921875
7378		50.781250
7379		41.015625
7380		46.875000
7381		37.109375
7382		42.968750
7383		31.250000
7384		37.109375
7385		27.343750
7386		33.203125
7387		21.484375
7388		27.343750
7389		17.578125
7390		23.437500
7391		13.671875
7392		19.531250
7393		7.812500
7394		13.671875
7395		3.906250
7396		9.765625
7397		-1.953125
7398		3.906250
7399		-7.812500
7400		0.000000
7401		-11.718750
7402		-5.859375
7403		-17.578125
7404		-9.765625
7405		-21.484375
7406		-13.671875
7407		-25.390625
7408		-19.531250
7409		-31.250000
7410		-25.390625
7411		-35.156250
7412		-29.296875
7413		-39.062500
7414		-33.203125
7415		-44.921875
7416		-37.109375
7417		-48.828125
7418		-42.968750
7419		-52.734375
7420		-46.875000
7421		-56.640625
7422		-50.781250
7423		-60.546875
7424		-54.687500
7425		-64.453125
7426		-58.593750
7427		-68.359375
7428		-62.500000
7429		-70.312500
7430		-66.406250
7431		-74.218750
7432		-70.312500
7433		-76.171875
7434		-72.265625
7435		-80.078125
7436		-76.171875
7437		-82.031250
7438		-78.125000
7439		-83.984375
7440		-80.078125
7441		-85.937500
7442		-82.031250
7443		-87.890625
7444		-85.937500
7445		-89.843750
7446		-85.937500
7447		-89.843750
7448		-87.890625
7449		-91.796875
7450		-89.843750
7451		-91.796875
7452		-89.843750
7453		-93.750000
7454		-91.796875
7455		-93.750000
7456		-91.796875
7457		-93.750000
7458		-91.796875
7459		-93.750000
7460		-91.796875
7461		-93.750000
7462		-89.843750
7463		-91.796875
7464		-89.843750
7465		-91.796875
7466		-87.890625
7467		-89.843750
7468		-87.890625
7469		-87.890625
7470		-85.937500
7471		-87.890625
7472		-83.984375
7473		-85.937500
7474		-82.031250
7475		-82.031250
7476		-80.078125
7477		-80.078125
7478		-76.171875
7479		-78.125000
7480		-74.218750
7481		-74.218750
7482		-70.312500
7483		-72.265625
7484		-68.359375
7485		-68.359375
7486		-64.453125
7487		-66.406250
7488		-60.546875
7489		-62.500000
7490		-56.640625
7491		-58.593750
7492		-52.734375
7493		-54.687500
7494		-48.828125
7495		-50.781250
7496		-44.921875
7497		-46.875000
7498		-41.015625
7499		-41.015625
7500		-35.156250
7501		-37.109375
7502		-31.250000
7503		-33.203125
7504		-25.390625
7505		-27.343750
7506		-21.484375
7507		-23.437500
7508		-15.625000
7509		-17.578125
7510		-11.718750
7511		-13.671875
7512		-7.812500
7513		-7.812500
7514		-1.953125
7515		-3.906250
7516		1.953125
7517		0.000000
7518		7.812500
7519		5.859375
7520		11.718750
7521		11.718750
7522		17.578125
7523		15.625000
7524		21.484375
7525		19.531250
7526		25.390625
7527		25.390625
7528		31.250000
7529		29.296875
7530		35.156250
7531		33.203125
7532		41.015625
7533		39.062500
7534		44.921875
7535		42.968750
7536		48.828125
7537		46.875000
7538		52.734375
7539		50.781250
7540		56.640625
7541		54.687500
7542		60.546875
7543		58.593750
7544		64.453125
7545		62.500000
7546		68.359375
7547		66.406250
7548		70.312500
7549		70.312500
7550		74.218750
7551		72.265625
7552		78.125000
7553		76.171875
7554		80.078125
7555		78.125000
7556		82.031250
7557		82.031250
7558		85.937500
7559		83.984375
7560		87.890625
7561		85.937500
7562		89.843750
7563		87.890625
7564		91.796875
7565		89.843750
7566		93.750000
7567		91.796875
7568		95.703125
7569		93.750000
7570		97.656250
7571		95.703125
7572		97.656250
7573		95.703125
7574		99.609375
7575		97.656250
7576		99.609375
7577		97.656250
7578		99.609375
7579		97.656250
7580		101.562500
7581		99.609375
7582		101.562500
7583		99.609375
7584		101.562500
7585		97.656250
7586		101.562500
7587		97.656250
7588		99.609375
7589		97.656250
7590		99.609375
7591		97.656250
7592		99.609375
7593		95.703125
7594		99.609375
7595		93.750000
7596		97.656250
7597		93.750000
7598		95.703125
7599		91.796875
7600		93.750000
7601		89.843750
7602		93.750000
7603		87.890625
7604		91.796875
7605		85.937500
7606		89.843750
7607		83.984375
7608		85.937500
7609		80.078125
7610		83.984375
7611		78.125000
7612		82.031250
7613		72.265625
7614		78.125000
7615		72.265625
7616		76.171875
7617		66.406250
7618		72.265625
7619		64.453125
7620		68.359375
7621		60.546875
7622		66.406250
7623		56.640625
7624		62.500000
7625		52.734375
7626		58.593750
7627		48.828125
7628		54.687500
7629		42.968750
7630		50.781250
7631		41.015625
7632		46.875000
7633		35.156250
7634		41.015625
7635		31.250000
7636		39.062500
7637		23.437500
7638		33.203125
7639		21.484375
7640		29.296875
7641		17.578125
7642		23.437500
7643		11.718750
7644		19.531250
7645		7.812500
7646		13.671875
7647		1.953125
7648		9.765625
7649		-1.953125
7650		3.906250
7651		-5.859375
7652		-1.953125
7653		-11.718750
7654		-5.859375
7655		-15.625000
7656		-9.765625
7657		-21.484375
7658		-15.625000
7659		-25.390625
7660		-19.531250
7661		-31.250000
7662		-23.437500
7663		-35.156250
7664		-29.296875
7665		-41.015625
7666		-33.203125
7667		-44.921875
7668		-39.062500
7669		-48.828125
7670		-41.015625
7671		-52.734375
7672		-46.875000
7673		-56.640625
7674		-50.781250
7675		-60.546875
7676		-54.687500
7677		-64.453125
7678		-58.593750
7679		-68.359375
7680		-60.546875
7681		-70.312500
7682		-64.453125
7683		-74.218750
7684		-68.359375
7685		-78.125000
7686		-70.312500
7687		-80.078125
7688		-74.218750
7689		-83.984375
7690		-76.171875
7691		-83.984375
7692		-80.078125
7693		-87.890625
7694		-82.031250
7695		-89.843750
7696		-82.031250
7697		-91.796875
7698		-83.984375
7699		-91.796875
7700		-87.890625
7701		-93.750000
7702		-87.890625
7703		-95.703125
7704		-85.937500
7705		-97.656250
7706		-87.890625
7707		-93.750000
7708		-89.843750
7709		-93.750000
7710		-91.796875
7711		-93.750000
7712		-89.843750
7713		-93.750000
7714		-89.843750
7715		-93.750000
7716		-87.890625
7717		-91.796875
7718		-87.890625
7719		-91.796875
7720		-83.984375
7721		-87.890625
7722		-83.984375
7723		-87.890625
7724		-82.031250
7725		-83.984375
7726		-80.078125
7727		-82.031250
7728		-78.125000
7729		-82.031250
7730		-74.218750
7731		-78.125000
7732		-72.265625
7733		-74.218750
7734		-70.312500
7735		-72.265625
7736		-64.453125
7737		-70.312500
7738		-62.500000
7739		-66.406250
7740		-58.593750
7741		-60.546875
7742		-56.640625
7743		-56.640625
7744		-52.734375
7745		-54.687500
7746		-46.875000
7747		-52.734375
7748		-42.968750
7749		-44.921875
7750		-39.062500
7751		-41.015625
7752		-33.203125
7753		-39.062500
7754		-27.343750
7755		-31.250000
7756		-21.484375
7757		-27.343750
7758		-21.484375
7759		-21.484375
7760		-15.625000
7761		-17.578125
7762		-9.765625
7763		-13.671875
7764		-3.906250
7765		-9.765625
7766		-1.953125
7767		-1.953125
7768		3.906250
7769		0.000000
7770		11.718750
7771		3.906250
7772		13.671875
7773		9.765625
7774		17.578125
7775		15.625000
7776		23.437500
7777		21.484375
7778		29.296875
7779		25.390625
7780		35.156250
7781		29.296875
7782		37.109375
7783		35.156250
7784		41.015625
7785		39.062500
7786		46.875000
7787		41.015625
7788		50.781250
7789		44.921875
7790		56.640625
7791		50.781250
7792		56.640625
7793		56.640625
7794		60.546875
7795		58.593750
7796		66.406250
7797		60.546875
7798		70.312500
7799		66.406250
7800		72.265625
7801		70.312500
7802		76.171875
7803		72.265625
7804		82.031250
7805		76.171875
7806		82.031250
7807		76.171875
7808		83.984375
7809		82.031250
7810		85.937500
7811		83.984375
7812		89.843750
7813		85.937500
7814		93.750000
7815		87.890625
7816		93.750000
7817		91.796875
7818		93.750000
7819		89.843750
7820		99.609375
7821		89.843750
7822		99.609375
7823		91.796875
7824		99.609375
7825		95.703125
7826		99.609375
7827		97.656250
7828		99.609375
7829		97.656250
7830		101.562500
7831		95.703125
7832		103.515625
7833		97.656250
7834		101.562500
7835		99.609375
7836		101.562500
7837		95.703125
7838		105.468750
7839		95.703125
7840		103.515625
7841		97.656250
7842		99.609375
7843		97.656250
7844		99.609375
7845		93.750000
7846		99.609375
7847		91.796875
7848		99.609375
7849		91.796875
7850		99.609375
7851		91.796875
7852		95.703125
7853		87.890625
7854		93.750000
7855		85.937500
7856		95.703125
7857		83.984375
7858		91.796875
7859		82.031250
7860		85.937500
7861		80.078125
7862		83.984375
7863		76.171875
7864		82.031250
7865		72.265625
7866		82.031250
7867		72.265625
7868		76.171875
7869		66.406250
7870		72.265625
7871		62.500000
7872		72.265625
7873		60.546875
7874		66.406250
7875		56.640625
7876		62.500000
7877		52.734375
7878		58.593750
7879		46.875000
7880		54.687500
7881		42.968750
7882		50.781250
7883		41.015625
7884		46.875000
7885		35.156250
7886		41.015625
7887		31.250000
7888		39.062500
7889		27.343750
7890		33.203125
7891		21.484375
7892		31.250000
7893		17.578125
7894		23.437500
7895		11.718750
7896		17.578125
7897		3.906250
7898		13.671875
7899		1.953125
7900		9.765625
7901		-1.953125
7902		3.906250
7903		-9.765625
7904		-1.953125
7905		-11.718750
7906		-5.859375
7907		-17.578125
7908		-9.765625
7909		-21.484375
7910		-15.625000
7911		-27.343750
7912		-19.531250
7913		-31.250000
7914		-25.390625
7915		-37.109375
7916		-29.296875
7917		-41.015625
7918		-33.203125
7919		-44.921875
7920		-39.062500
7921		-48.828125
7922		-41.015625
7923		-52.734375
7924		-46.875000
7925		-56.640625
7926		-50.781250
7927		-60.546875
7928		-54.687500
7929		-64.453125
7930		-58.593750
7931		-68.359375
7932		-62.500000
7933		-72.265625
7934		-66.406250
7935		-74.218750
7936		-70.312500
7937		-76.171875
7938		-72.265625
7939		-80.078125
7940		-76.171875
7941		-82.031250
7942		-78.125000
7943		-83.984375
7944		-80.078125
7945		-85.937500
7946		-82.031250
7947		-87.890625
7948		-83.984375
7949		-89.843750
7950		-85.937500
7951		-91.796875
7952		-87.890625
7953		-91.796875
7954		-87.890625
7955		-91.796875
7956		-89.843750
7957		-93.750000
7958		-89.843750
7959		-93.750000
7960		-89.843750
7961		-91.796875
7962		-91.796875
7963		-93.750000
7964		-87.890625
7965		-93.750000
7966		-87.890625
7967		-91.796875
7968		-87.890625
7969		-91.796875
7970		-85.937500
7971		-89.843750
7972		-83.984375
7973		-89.843750
7974		-83.984375
7975		-87.890625
7976		-82.031250
7977		-83.984375
7978		-80.078125
7979		-82.031250
7980		-76.171875
7981		-80.078125
7982		-74.218750
7983		-78.125000
7984		-72.265625
7985		-74.218750
7986		-68.359375
7987		-72.265625
7988		-64.453125
7989		-68.359375
7990		-62.500000
7991		-64.453125
7992		-58.593750
7993		-60.546875
7994		-56.640625
7995		-56.640625
7996		-50.781250
7997		-52.734375
7998		-46.875000
7999		-50.781250
8000		-41.015625
8001		-44.921875
8002		-39.062500
8003		-42.968750
8004		-33.203125
8005		-37.109375
8006		-27.343750
8007		-33.203125
8008		-23.437500
8009		-27.343750
8010		-19.531250
8011		-21.484375
8012		-15.625000
8013		-17.578125
8014		-9.765625
8015		-13.671875
8016		-3.906250
8017		-9.765625
8018		0.000000
8019		-3.906250
8020		3.906250
8021		1.953125
8022		9.765625
8023		5.859375
8024		15.625000
8025		11.718750
8026		17.578125
8027		17.578125
8028		23.437500
8029		21.484375
8030		29.296875
8031		25.390625
8032		33.203125
8033		31.250000
8034		37.109375
8035		35.156250
8036		42.968750
8037		39.062500
8038		44.921875
8039		42.968750
8040		50.781250
8041		48.828125
8042		54.687500
8043		52.734375
8044		56.640625
8045		56.640625
8046		60.546875
8047		60.546875
8048		66.406250
8049		62.500000
8050		68.359375
8051		66.406250
8052		72.265625
8053		68.359375
8054		76.171875
8055		72.265625
8056		80.078125
8057		76.171875
8058		82.031250
8059		78.125000
8060		83.984375
8061		82.031250
8062		85.937500
8063		85.937500
8064		89.843750
8065		85.937500
8066		91.796875
8067		89.843750
8068		93.750000
8069		89.843750
8070		95.703125
8071		91.796875
8072		95.703125
8073		93.750000
8074		97.656250
8075		95.703125
8076		99.609375
8077		95.703125
8078		99.609375
8079		97.656250
8080		99.609375
8081		97.656250
8082		101.562500
8083		97.656250
8084		101.562500
8085		97.656250
8086		101.562500
8087		97.656250
8088		103.515625
8089		99.609375
8090		101.562500
8091		97.656250
8092		101.562500
8093		97.656250
8094		101.562500
8095		97.656250
8096		99.609375
8097		95.703125
8098		99.609375
8099		93.750000
8100		97.656250
8101		93.750000
8102		95.703125
8103		89.843750
8104		95.703125
8105		89.843750
8106		93.750000
8107		87.890625
8108		91.796875
8109		85.937500
8110		89.843750
8111		82.031250
8112		85.937500
8113		80.078125
8114		83.984375
8115		76.171875
8116		82.031250
8117		74.218750
8118		78.125000
8119		68.359375
8120		76.171875
8121		68.359375
8122		72.265625
8123		64.453125
8124		70.312500
8125		58.593750
8126		64.453125
8127		56.640625
8128		62.500000
8129		52.734375
8130		58.593750
8131		46.875000
8132		54.687500
8133		42.968750
8134		48.828125
8135		39.062500
8136		44.921875
8137		35.156250
8138		42.968750
8139		29.296875
8140		37.109375
8141		25.390625
8142		31.250000
8143		21.484375
8144		27.343750
8145		15.625000
8146		23.437500
8147		11.718750
8148		17.578125
8149		5.859375
8150		13.671875
8151		1.953125
8152		7.812500
8153		-1.953125
8154		3.906250
8155		-7.812500
8156		-1.953125
8157		-13.671875
8158		-5.859375
8159		-17.578125
8160		-11.718750
8161		-21.484375
8162		-15.625000
8163		-27.343750
8164		-21.484375
8165		-31.250000
8166		-25.390625
8167		-37.109375
8168		-29.296875
8169		-41.015625
8170		-35.156250
8171		-44.921875
8172		-37.109375
8173		-48.828125
8174		-42.968750
8175		-52.734375
8176		-46.875000
8177		-56.640625
8178		-50.781250
8179		-60.546875
8180		-54.687500
8181		-64.453125
8182		-58.593750
8183		-68.359375
8184		-62.500000
8185		-70.312500
8186		-66.406250
8187		-74.218750
8188		-70.312500
8189		-78.125000
8190		-72.265625
8191		-80.078125
8192		-76.171875
8193		-82.031250
8194		-78.125000
8195		-83.984375
8196		-80.078125
8197		-85.937500
8198		-82.031250
8199		-87.890625
8200		-83.984375
8201		-89.843750
8202		-85.937500
8203		-91.796875
8204		-85.937500
8205		-91.796875
8206		-87.890625
8207		-93.750000
8208		-89.843750
8209		-93.750000
8210		-89.843750
8211		-93.750000
8212		-89.843750
8213		-93.750000
8214		-91.796875
8215		-93.750000
8216		-89.843750
8217		-93.750000
8218		-89.843750
8219		-91.796875
8220		-87.890625
8221		-89.843750
8222		-85.937500
8223		-89.843750
8224		-85.937500
8225		-87.890625
8226		-83.984375
8227		-85.937500
8228		-82.031250
8229		-83.984375
8230		-80.078125
8231		-82.031250
8232		-78.125000
8233		-80.078125
8234		-74.218750
8235		-78.125000
8236		-72.265625
8237		-74.218750
8238		-68.359375
8239		-70.312500
8240		-66.406250
8241		-68.359375
8242		-62.500000
8243		-64.453125
8244		-58.593750
8245		-60.546875
8246		-54.687500
8247		-56.640625
8248		-50.781250
8249		-52.734375
8250		-46.875000
8251		-48.828125
8252		-41.015625
8253		-44.921875
8254		-39.062500
8255		-39.062500
8256		-33.203125
8257		-35.156250
8258		-29.296875
8259		-31.250000
8260		-23.437500
8261		-27.343750
8262		-19.531250
8263		-21.484375
8264		-15.625000
8265		-15.625000
8266		-9.765625
8267		-11.718750
8268		-5.859375
8269		-7.812500
8270		0.000000
8271		-1.953125
8272		5.859375
8273		1.953125
8274		9.765625
8275		7.812500
8276		13.671875
8277		11.718750
8278		17.578125
8279		17.578125
8280		23.437500
8281		21.484375
8282		29.296875
8283		25.390625
8284		33.203125
8285		31.250000
8286		37.109375
8287		35.156250
8288		41.015625
8289		39.062500
8290		44.921875
8291		44.921875
8292		50.781250
8293		48.828125
8294		54.687500
8295		52.734375
8296		58.593750
8297		56.640625
8298		62.500000
8299		60.546875
8300		66.406250
8301		62.500000
8302		68.359375
8303		66.406250
8304		74.218750
8305		70.312500
8306		76.171875
8307		74.218750
8308		78.125000
8309		76.171875
8310		82.031250
8311		80.078125
8312		83.984375
8313		82.031250
8314		85.937500
8315		85.937500
8316		89.843750
8317		85.937500
8318		91.796875
8319		87.890625
8320		93.750000
8321		89.843750
8322		93.750000
8323		91.796875
8324		97.656250
8325		93.750000
8326		97.656250
8327		95.703125
8328		99.609375
8329		97.656250
8330		99.609375
8331		97.656250
8332		99.609375
8333		97.656250
8334		101.562500
8335		97.656250
8336		101.562500
8337		97.656250
8338		101.562500
8339		97.656250
8340		101.562500
8341		97.656250
8342		101.562500
8343		97.656250
8344		101.562500
8345		95.703125
8346		101.562500
8347		97.656250
8348		99.609375
8349		95.703125
8350		99.609375
8351		93.750000
8352		97.656250
8353		91.796875
8354		95.703125
8355		89.843750
8356		95.703125
8357		87.890625
8358		91.796875
8359		85.937500
8360		91.796875
8361		83.984375
8362		87.890625
8363		82.031250
8364		85.937500
8365		80.078125
8366		83.984375
8367		76.171875
8368		82.031250
8369		72.265625
8370		78.125000
8371		70.312500
8372		74.218750
8373		66.406250
8374		72.265625
8375		62.500000
8376		68.359375
8377		58.593750
8378		64.453125
8379		54.687500
8380		60.546875
8381		50.781250
8382		56.640625
8383		46.875000
8384		52.734375
8385		42.968750
8386		48.828125
8387		39.062500
8388		44.921875
8389		35.156250
8390		41.015625
8391		29.296875
8392		37.109375
8393		25.390625
8394		31.250000
8395		21.484375
8396		27.343750
8397		15.625000
8398		21.484375
8399		9.765625
8400		17.578125
8401		5.859375
8402		13.671875
8403		1.953125
8404		7.812500
8405		-3.906250
8406		3.906250
8407		-9.765625
8408		-1.953125
8409		-13.671875
8410		-7.812500
8411		-19.531250
8412		-11.718750
8413		-23.437500
8414		-17.578125
8415		-27.343750
8416		-21.484375
8417		-33.203125
8418		-27.343750
8419		-37.109375
8420		-31.250000
8421		-41.015625
8422		-35.156250
8423		-46.875000
8424		-39.062500
8425		-50.781250
8426		-42.968750
8427		-54.687500
8428		-48.828125
8429		-58.593750
8430		-52.734375
8431		-62.500000
8432		-56.640625
8433		-66.406250
8434		-60.546875
8435		-68.359375
8436		-64.453125
8437		-72.265625
8438		-66.406250
8439		-74.218750
8440		-70.312500
8441		-78.125000
8442		-74.218750
8443		-82.031250
8444		-76.171875
8445		-82.031250
8446		-78.125000
8447		-85.937500
8448		-82.031250
8449		-87.890625
8450		-83.984375
8451		-89.843750
8452		-83.984375
8453		-89.843750
8454		-85.937500
8455		-91.796875
8456		-87.890625
8457		-91.796875
8458		-89.843750
8459		-93.750000
8460		-89.843750
8461		-93.750000
8462		-89.843750
8463		-93.750000
8464		-91.796875
8465		-93.750000
8466		-91.796875
8467		-93.750000
8468		-89.843750
8469		-93.750000
8470		-89.843750
8471		-91.796875
8472		-87.890625
8473		-91.796875
8474		-87.890625
8475		-89.843750
8476		-85.937500
8477		-87.890625
8478		-83.984375
8479		-87.890625
8480		-82.031250
8481		-83.984375
8482		-80.078125
8483		-82.031250
8484		-78.125000
8485		-80.078125
8486		-74.218750
8487		-76.171875
8488		-72.265625
8489		-74.218750
8490		-70.312500
8491		-70.312500
8492		-66.406250
8493		-68.359375
8494		-62.500000
8495		-64.453125
8496		-58.593750
8497		-60.546875
8498		-54.687500
8499		-56.640625
8500		-50.781250
8501		-52.734375
8502		-46.875000
8503		-48.828125
8504		-42.968750
8505		-42.968750
8506		-39.062500
8507		-39.062500
8508		-33.203125
8509		-35.156250
8510		-29.296875
8511		-31.250000
8512		-23.437500
8513		-25.390625
8514		-19.531250
8515		-21.484375
8516		-15.625000
8517		-15.625000
8518		-9.765625
8519		-11.718750
8520		-5.859375
8521		-7.812500
8522		0.000000
8523		-1.953125
8524		3.906250
8525		1.953125
8526		9.765625
8527		7.812500
8528		15.625000
8529		11.718750
8530		19.531250
8531		17.578125
8532		23.437500
8533		23.437500
8534		29.296875
8535		25.390625
8536		33.203125
8537		31.250000
8538		37.109375
8539		35.156250
8540		41.015625
8541		41.015625
8542		46.875000
8543		44.921875
8544		50.781250
8545		46.875000
8546		54.687500
8547		50.781250
8548		58.593750
8549		56.640625
8550		62.500000
8551		60.546875
8552		66.406250
8553		64.453125
8554		70.312500
8555		68.359375
8556		72.265625
8557		70.312500
8558		76.171875
8559		74.218750
8560		78.125000
8561		76.171875
8562		82.031250
8563		80.078125
8564		83.984375
8565		82.031250
8566		85.937500
8567		83.984375
8568		89.843750
8569		85.937500
8570		91.796875
8571		89.843750
8572		93.750000
8573		91.796875
8574		93.750000
8575		91.796875
8576		95.703125
8577		93.750000
8578		97.656250
8579		95.703125
8580		99.609375
8581		97.656250
8582		99.609375
8583		97.656250
8584		99.609375
8585		97.656250
8586		101.562500
8587		97.656250
8588		101.562500
8589		97.656250
8590		101.562500
8591		97.656250
8592		101.562500
8593		97.656250
8594		101.562500
8595		97.656250
8596		99.609375
8597		97.656250
8598		101.562500
8599		95.703125
8600		99.609375
8601		93.750000
8602		99.609375
8603		93.750000
8604		97.656250
8605		91.796875
8606		95.703125
8607		91.796875
8608		93.750000
8609		89.843750
8610		93.750000
8611		85.937500
8612		91.796875
8613		83.984375
8614		87.890625
8615		82.031250
8616		85.937500
8617		78.125000
8618		83.984375
8619		76.171875
8620		82.031250
8621		72.265625
8622		78.125000
8623		70.312500
8624		74.218750
8625		66.406250
8626		72.265625
8627		62.500000
8628		68.359375
8629		58.593750
8630		66.406250
8631		54.687500
8632		62.500000
8633		50.781250
8634		56.640625
8635		46.875000
8636		52.734375
8637		42.968750
8638		48.828125
8639		39.062500
8640		44.921875
8641		33.203125
8642		41.015625
8643		29.296875
8644		35.156250
8645		23.437500
8646		31.250000
8647		19.531250
8648		25.390625
8649		15.625000
8650		21.484375
8651		9.765625
8652		15.625000
8653		5.859375
8654		11.718750
8655		0.000000
8656		7.812500
8657		-3.906250
8658		1.953125
8659		-9.765625
8660		-3.906250
8661		-13.671875
8662		-7.812500
8663		-19.531250
8664		-11.718750
8665		-23.437500
8666		-17.578125
8667		-27.343750
8668		-21.484375
8669		-33.203125
8670		-27.343750
8671		-37.109375
8672		-31.250000
8673		-41.015625
8674		-35.156250
8675		-46.875000
8676		-41.015625
8677		-50.781250
8678		-44.921875
8679		-54.687500
8680		-48.828125
8681		-58.593750
8682		-52.734375
8683		-62.500000
8684		-56.640625
8685		-66.406250
8686		-60.546875
8687		-68.359375
8688		-64.453125
8689		-72.265625
8690		-66.406250
8691		-76.171875
8692		-70.312500
8693		-78.125000
8694		-74.218750
8695		-82.031250
8696		-76.171875
8697		-83.984375
8698		-78.125000
8699		-85.937500
8700		-80.078125
8701		-85.937500
8702		-83.984375
8703		-89.843750
8704		-83.984375
8705		-89.843750
8706		-85.937500
8707		-91.796875
8708		-87.890625
8709		-91.796875
8710		-89.843750
8711		-93.750000
8712		-89.843750
8713		-93.750000
8714		-89.843750
8715		-93.750000
8716		-89.843750
8717		-93.750000
8718		-89.843750
8719		-93.750000
8720		-89.843750
8721		-93.750000
8722		-89.843750
8723		-91.796875
8724		-87.890625
8725		-89.843750
8726		-87.890625
8727		-89.843750
8728		-85.937500
8729		-87.890625
8730		-83.984375
8731		-85.937500
8732		-82.031250
8733		-83.984375
8734		-80.078125
8735		-82.031250
8736		-76.171875
8737		-80.078125
8738		-74.218750
8739		-76.171875
8740		-72.265625
8741		-74.218750
8742		-68.359375
8743		-70.312500
8744		-66.406250
8745		-68.359375
8746		-62.500000
8747		-64.453125
8748		-58.593750
8749		-60.546875
8750		-54.687500
8751		-56.640625
8752		-50.781250
8753		-52.734375
8754		-44.921875
8755		-48.828125
8756		-42.968750
8757		-42.968750
8758		-37.109375
8759		-39.062500
8760		-33.203125
8761		-35.156250
8762		-27.343750
8763		-29.296875
8764		-23.437500
8765		-25.390625
8766		-19.531250
8767		-19.531250
8768		-13.671875
8769		-15.625000
8770		-9.765625
8771		-11.718750
8772		-3.906250
8773		-5.859375
8774		0.000000
8775		-1.953125
8776		3.906250
8777		3.906250
8778		9.765625
8779		7.812500
8780		13.671875
8781		11.718750
8782		19.531250
8783		17.578125
8784		23.437500
8785		23.437500
8786		29.296875
8787		27.343750
8788		33.203125
8789		31.250000
8790		39.062500
8791		37.109375
8792		42.968750
8793		41.015625
8794		46.875000
8795		44.921875
8796		50.781250
8797		48.828125
8798		54.687500
8799		52.734375
8800		58.593750
8801		56.640625
8802		62.500000
8803		60.546875
8804		66.406250
8805		64.453125
8806		68.359375
8807		68.359375
8808		72.265625
8809		70.312500
8810		76.171875
8811		74.218750
8812		78.125000
8813		78.125000
8814		82.031250
8815		80.078125
8816		83.984375
8817		82.031250
8818		87.890625
8819		85.937500
8820		89.843750
8821		87.890625
8822		91.796875
8823		87.890625
8824		93.750000
8825		91.796875
8826		95.703125
8827		93.750000
8828		95.703125
8829		93.750000
8830		97.656250
8831		95.703125
8832		99.609375
8833		95.703125
8834		99.609375
8835		97.656250
8836		99.609375
8837		97.656250
8838		101.562500
8839		97.656250
8840		101.562500
8841		97.656250
8842		101.562500
8843		97.656250
8844		101.562500
8845		97.656250
8846		101.562500
8847		97.656250
8848		101.562500
8849		97.656250
8850		101.562500
8851		95.703125
8852		99.609375
8853		93.750000
8854		97.656250
8855		93.750000
8856		97.656250
8857		91.796875
8858		95.703125
8859		89.843750
8860		93.750000
8861		87.890625
8862		91.796875
8863		85.937500
8864		89.843750
8865		83.984375
8866		87.890625
8867		82.031250
8868		85.937500
8869		78.125000
8870		83.984375
8871		76.171875
8872		82.031250
8873		72.265625
8874		78.125000
8875		70.312500
8876		74.218750
8877		66.406250
8878		70.312500
8879		62.500000
8880		68.359375
8881		58.593750
8882		64.453125
8883		54.687500
8884		60.546875
8885		50.781250
8886		56.640625
8887		46.875000
8888		52.734375
8889		42.968750
8890		48.828125
8891		37.109375
8892		44.921875
8893		33.203125
8894		39.062500
8895		29.296875
8896		35.156250
8897		23.437500
8898		31.250000
8899		19.531250
8900		25.390625
8901		15.625000
8902		21.484375
8903		9.765625
8904		15.625000
8905		5.859375
8906		11.718750
8907		0.000000
8908		7.812500
8909		-5.859375
8910		1.953125
8911		-9.765625
8912		-3.906250
8913		-15.625000
8914		-7.812500
8915		-19.531250
8916		-13.671875
8917		-23.437500
8918		-17.578125
8919		-29.296875
8920		-21.484375
8921		-33.203125
8922		-27.343750
8923		-39.062500
8924		-31.250000
8925		-42.968750
8926		-37.109375
8927		-46.875000
8928		-41.015625
8929		-50.781250
8930		-44.921875
8931		-54.687500
8932		-48.828125
8933		-58.593750
8934		-52.734375
8935		-62.500000
8936		-56.640625
8937		-66.406250
8938		-60.546875
8939		-70.312500
8940		-64.453125
8941		-72.265625
8942		-68.359375
8943		-76.171875
8944		-70.312500
8945		-80.078125
8946		-74.218750
8947		-80.078125
8948		-76.171875
8949		-83.984375
8950		-78.125000
8951		-85.937500
8952		-82.031250
8953		-87.890625
8954		-83.984375
8955		-89.843750
8956		-83.984375
8957		-89.843750
8958		-87.890625
8959		-91.796875
8960		-87.890625
8961		-93.750000
8962		-89.843750
8963		-93.750000
8964		-89.843750
8965		-93.750000
8966		-89.843750
8967		-93.750000
8968		-89.843750
8969		-93.750000
8970		-89.843750
8971		-93.750000
8972		-89.843750
8973		-91.796875
8974		-89.843750
8975		-91.796875
8976		-87.890625
8977		-89.843750
8978		-85.937500
8979		-89.843750
8980		-85.937500
8981		-87.890625
8982		-83.984375
8983		-85.937500
8984		-82.031250
8985		-83.984375
8986		-80.078125
8987		-82.031250
8988		-78.125000
8989		-80.078125
8990		-74.218750
8991		-76.171875
8992		-70.312500
8993		-72.265625
8994		-68.359375
8995		-70.312500
8996		-64.453125
8997		-66.406250
8998		-60.546875
8999		-62.500000
9000		-56.640625
9001		-58.593750
9002		-54.687500
9003		-54.687500
9004		-50.781250
9005		-50.781250
9006		-44.921875
9007		-46.875000
9008		-41.015625
9009		-42.968750
9010		-37.109375
9011		-39.062500
9012		-33.203125
9013		-33.203125
9014		-27.343750
9015		-29.296875
9016		-23.437500
9017		-25.390625
9018		-17.578125
9019		-19.531250
9020		-13.671875
9021		-15.625000
9022		-7.812500
9023		-9.765625
9024		-3.906250
9025		-5.859375
9026		0.000000
9027		-1.953125
9028		5.859375
9029		3.906250
9030		9.765625
9031		9.765625
9032		15.625000
9033		13.671875
9034		19.531250
9035		19.531250
9036		25.390625
9037		23.437500
9038		29.296875
9039		27.343750
9040		33.203125
9041		33.203125
9042		39.062500
9043		37.109375
9044		42.968750
9045		41.015625
9046		46.875000
9047		44.921875
9048		50.781250
9049		48.828125
9050		56.640625
9051		52.734375
9052		58.593750
9053		58.593750
9054		62.500000
9055		60.546875
9056		66.406250
9057		64.453125
9058		70.312500
9059		68.359375
9060		74.218750
9061		72.265625
9062		76.171875
9063		74.218750
9064		80.078125
9065		78.125000
9066		82.031250
9067		80.078125
9068		83.984375
9069		83.984375
9070		87.890625
9071		85.937500
9072		89.843750
9073		85.937500
9074		91.796875
9075		89.843750
9076		93.750000
9077		91.796875
9078		95.703125
9079		93.750000
9080		95.703125
9081		93.750000
9082		97.656250
9083		95.703125
9084		99.609375
9085		95.703125
9086		99.609375
9087		97.656250
9088		99.609375
9089		97.656250
9090		101.562500
9091		97.656250
9092		101.562500
9093		97.656250
9094		101.562500
9095		97.656250
9096		101.562500
9097		97.656250
9098		101.562500
9099		97.656250
9100		101.562500
9101		95.703125
9102		101.562500
9103		95.703125
9104		99.609375
9105		95.703125
9106		97.656250
9107		93.750000
9108		97.656250
9109		91.796875
9110		95.703125
9111		89.843750
9112		93.750000
9113		87.890625
9114		91.796875
9115		85.937500
9116		89.843750
9117		83.984375
9118		87.890625
9119		82.031250
9120		85.937500
9121		78.125000
9122		83.984375
9123		76.171875
9124		80.078125
9125		72.265625
9126		78.125000
9127		70.312500
9128		74.218750
9129		66.406250
9130		70.312500
9131		62.500000
9132		68.359375
9133		58.593750
9134		64.453125
9135		54.687500
9136		60.546875
9137		50.781250
9138		56.640625
9139		46.875000
9140		52.734375
9141		42.968750
9142		48.828125
9143		37.109375
9144		44.921875
9145		33.203125
9146		39.062500
9147		29.296875
9148		35.156250
9149		23.437500
9150		29.296875
9151		19.531250
9152		25.390625
9153		13.671875
9154		21.484375
9155		9.765625
9156		15.625000
9157		3.906250
9158		11.718750
9159		0.000000
9160		5.859375
9161		-3.906250
9162		1.953125
9163		-9.765625
9164		-3.906250
9165		-15.625000
9166		-7.812500
9167		-19.531250
9168		-13.671875
9169		-23.437500
9170		-17.578125
9171		-29.296875
9172		-21.484375
9173		-33.203125
9174		-27.343750
9175		-39.062500
9176		-31.250000
9177		-42.968750
9178		-37.109375
9179		-46.875000
9180		-41.015625
9181		-50.781250
9182		-44.921875
9183		-54.687500
9184		-48.828125
9185		-58.593750
9186		-52.734375
9187		-62.500000
9188		-56.640625
9189		-66.406250
9190		-60.546875
9191		-70.312500
9192		-64.453125
9193		-72.265625
9194		-68.359375
9195		-76.171875
9196		-70.312500
9197		-78.125000
9198		-74.218750
9199		-82.031250
9200		-76.171875
9201		-83.984375
9202		-78.125000
9203		-85.937500
9204		-80.078125
9205		-87.890625
9206		-83.984375
9207		-89.843750
9208		-83.984375
9209		-89.843750
9210		-85.937500
9211		-91.796875
9212		-87.890625
9213		-91.796875
9214		-89.843750
9215		-93.750000
9216		-89.843750
9217		-93.750000
9218		-89.843750
9219		-93.750000
9220		-89.843750
9221		-93.750000
9222		-89.843750
9223		-93.750000
9224		-89.843750
9225		-91.796875
9226		-89.843750
9227		-91.796875
9228		-87.890625
9229		-89.843750
9230		-87.890625
9231		-89.843750
9232		-85.937500
9233		-87.890625
9234		-83.984375
9235		-85.937500
9236		-82.031250
9237		-83.984375
9238		-80.078125
9239		-80.078125
9240		-76.171875
9241		-78.125000
9242		-74.218750
9243		-76.171875
9244		-70.312500
9245		-72.265625
9246		-68.359375
9247		-70.312500
9248		-64.453125
9249		-66.406250
9250		-60.546875
9251		-64.453125
9252		-56.640625
9253		-58.593750
9254		-52.734375
9255		-54.687500
9256		-48.828125
9257		-50.781250
9258		-44.921875
9259		-46.875000
9260		-41.015625
9261		-42.968750
9262		-37.109375
9263		-39.062500
9264		-31.250000
9265		-33.203125
9266		-27.343750
9267		-29.296875
9268		-23.437500
9269		-23.437500
9270		-17.578125
9271		-19.531250
9272		-13.671875
9273		-13.671875
9274		-7.812500
9275		-9.765625
9276		-1.953125
9277		-3.906250
9278		1.953125
9279		0.000000
9280		5.859375
9281		5.859375
9282		11.718750
9283		9.765625
9284		15.625000
9285		13.671875
9286		21.484375
9287		19.531250
9288		25.390625
9289		23.437500
9290		29.296875
9291		29.296875
9292		35.156250
9293		33.203125
9294		39.062500
9295		37.109375
9296		42.968750
9297		41.015625
9298		46.875000
9299		44.921875
9300		52.734375
9301		50.781250
9302		56.640625
9303		52.734375
9304		58.593750
9305		58.593750
9306		62.500000
9307		62.500000
9308		68.359375
9309		64.453125
9310		70.312500
9311		68.359375
9312		74.218750
9313		72.265625
9314		78.125000
9315		74.218750
9316		80.078125
9317		78.125000
9318		82.031250
9319		80.078125
9320		85.937500
9321		83.984375
9322		87.890625
9323		85.937500
9324		89.843750
9325		85.937500
9326		91.796875
9327		89.843750
9328		93.750000
9329		91.796875
9330		95.703125
9331		93.750000
9332		97.656250
9333		93.750000
9334		97.656250
9335		95.703125
9336		99.609375
9337		97.656250
9338		99.609375
9339		97.656250
9340		99.609375
9341		97.656250
9342		101.562500
9343		97.656250
9344		101.562500
9345		97.656250
9346		101.562500
9347		97.656250
9348		101.562500
9349		97.656250
9350		101.562500
9351		97.656250
9352		101.562500
9353		97.656250
9354		99.609375
9355		95.703125
9356		99.609375
9357		93.750000
9358		97.656250
9359		93.750000
9360		97.656250
9361		91.796875
9362		95.703125
9363		89.843750
9364		93.750000
9365		87.890625
9366		91.796875
9367		85.937500
9368		89.843750
9369		82.031250
9370		87.890625
9371		80.078125
9372		85.937500
9373		78.125000
9374		82.031250
9375		74.218750
9376		80.078125
9377		72.265625
9378		78.125000
9379		68.359375
9380		74.218750
9381		64.453125
9382		70.312500
9383		62.500000
9384		68.359375
9385		58.593750
9386		64.453125
9387		54.687500
9388		60.546875
9389		50.781250
9390		54.687500
9391		44.921875
9392		50.781250
9393		41.015625
9394		48.828125
9395		37.109375
9396		42.968750
9397		33.203125
9398		39.062500
9399		27.343750
9400		35.156250
9401		23.437500
9402		29.296875
9403		19.531250
9404		25.390625
9405		13.671875
9406		19.531250
9407		9.765625
9408		15.625000
9409		3.906250
9410		11.718750
9411		-1.953125
9412		5.859375
9413		-5.859375
9414		1.953125
9415		-11.718750
9416		-3.906250
9417		-15.625000
9418		-7.812500
9419		-19.531250
9420		-13.671875
9421		-23.437500
9422		-17.578125
9423		-29.296875
9424		-23.437500
9425		-35.156250
9426		-27.343750
9427		-39.062500
9428		-33.203125
9429		-42.968750
9430		-37.109375
9431		-46.875000
9432		-41.015625
9433		-50.781250
9434		-46.875000
9435		-56.640625
9436		-48.828125
9437		-58.593750
9438		-54.687500
9439		-62.500000
9440		-58.593750
9441		-68.359375
9442		-62.500000
9443		-70.312500
9444		-64.453125
9445		-74.218750
9446		-68.359375
9447		-76.171875
9448		-72.265625
9449		-78.125000
9450		-74.218750
9451		-82.031250
9452		-76.171875
9453		-83.984375
9454		-80.078125
9455		-85.937500
9456		-82.031250
9457		-87.890625
9458		-83.984375
9459		-89.843750
9460		-85.937500
9461		-89.843750
9462		-85.937500
9463		-91.796875
9464		-87.890625
9465		-91.796875
9466		-89.843750
9467		-93.750000
9468		-89.843750
9469		-93.750000
9470		-89.843750
9471		-93.750000
9472		-89.843750
9473		-91.796875
9474		-89.843750
9475		-91.796875
9476		-87.890625
9477		-91.796875
9478		-87.890625
9479		-91.796875
9480		-87.890625
9481		-89.843750
9482		-85.937500
9483		-89.843750
9484		-83.984375
9485		-85.937500
9486		-83.984375
9487		-85.937500
9488		-80.078125
9489		-83.984375
9490		-78.125000
9491		-80.078125
9492		-76.171875
9493		-80.078125
9494		-74.218750
9495		-74.218750
9496		-70.312500
9497		-72.265625
9498		-66.406250
9499		-68.359375
9500		-62.500000
9501		-66.406250
9502		-60.546875
9503		-62.500000
9504		-56.640625
9505		-58.593750
9506		-52.734375
9507		-54.687500
9508		-48.828125
9509		-50.781250
9510		-44.921875
9511		-44.921875
9512		-41.015625
9513		-41.015625
9514		-35.156250
9515		-37.109375
9516		-31.250000
9517		-33.203125
9518		-27.343750
9519		-29.296875
9520		-21.484375
9521		-23.437500
9522		-17.578125
9523		-19.531250
9524		-11.718750
9525		-13.671875
9526		-7.812500
9527		-9.765625
9528		-3.906250
9529		-5.859375
9530		1.953125
9531		0.000000
9532		7.812500
9533		5.859375
9534		11.718750
9535		9.765625
9536		17.578125
9537		15.625000
9538		21.484375
9539		19.531250
9540		25.390625
9541		25.390625
9542		31.250000
9543		29.296875
9544		35.156250
9545		33.203125
9546		39.062500
9547		39.062500
9548		44.921875
9549		42.968750
9550		48.828125
9551		46.875000
9552		52.734375
9553		50.781250
9554		56.640625
9555		54.687500
9556		60.546875
9557		58.593750
9558		64.453125
9559		62.500000
9560		68.359375
9561		66.406250
9562		72.265625
9563		70.312500
9564		74.218750
9565		72.265625
9566		78.125000
9567		76.171875
9568		82.031250
9569		78.125000
9570		83.984375
9571		82.031250
9572		85.937500
9573		83.984375
9574		87.890625
9575		85.937500
9576		89.843750
9577		87.890625
9578		93.750000
9579		87.890625
9580		95.703125
9581		91.796875
9582		97.656250
9583		91.796875
9584		99.609375
9585		93.750000
9586		99.609375
9587		93.750000
9588		99.609375
9589		95.703125
9590		99.609375
9591		97.656250
9592		101.562500
9593		99.609375
9594		101.562500
9595		97.656250
9596		103.515625
9597		97.656250
9598		103.515625
9599		97.656250
9600		103.515625
9601		97.656250
9602		103.515625
9603		97.656250
9604		103.515625
9605		97.656250
9606		101.562500
9607		97.656250
9608		99.609375
9609		95.703125
9610		97.656250
9611		91.796875
9612		99.609375
9613		91.796875
9614		97.656250
9615		87.890625
9616		95.703125
9617		87.890625
9618		95.703125
9619		83.984375
9620		91.796875
9621		82.031250
9622		89.843750
9623		82.031250
9624		85.937500
9625		78.125000
9626		82.031250
9627		74.218750
9628		80.078125
9629		70.312500
9630		80.078125
9631		68.359375
9632		76.171875
9633		62.500000
9634		72.265625
9635		60.546875
9636		68.359375
9637		56.640625
9638		64.453125
9639		54.687500
9640		62.500000
9641		50.781250
9642		56.640625
9643		44.921875
9644		50.781250
9645		41.015625
9646		48.828125
9647		35.156250
9648		44.921875
9649		31.250000
9650		39.062500
9651		27.343750
9652		35.156250
9653		23.437500
9654		31.250000
9655		17.578125
9656		25.390625
9657		13.671875
9658		19.531250
9659		9.765625
9660		15.625000
9661		1.953125
9662		11.718750
9663		-1.953125
9664		7.812500
9665		-7.812500
9666		3.906250
9667		-11.718750
9668		-1.953125
9669		-17.578125
9670		-7.812500
9671		-21.484375
9672		-11.718750
9673		-23.437500
9674		-15.625000
9675		-29.296875
9676		-23.437500
9677		-37.109375
9678		-27.343750
9679		-41.015625
9680		-31.250000
9681		-44.921875
9682		-35.156250
9683		-48.828125
9684		-39.062500
9685		-52.734375
9686		-42.968750
9687		-56.640625
9688		-48.828125
9689		-58.593750
9690		-50.781250
9691		-62.500000
9692		-58.593750
9693		-66.406250
9694		-60.546875
9695		-72.265625
9696		-62.500000
9697		-76.171875
9698		-66.406250
9699		-78.125000
9700		-68.359375
9701		-82.031250
9702		-72.265625
9703		-83.984375
9704		-74.218750
9705		-83.984375
9706		-76.171875
9707		-85.937500
9708		-80.078125
9709		-85.937500
9710		-83.984375
9711		-91.796875
9712		-83.984375
9713		-91.796875
9714		-83.984375
9715		-91.796875
9716		-85.937500
9717		-93.750000
9718		-85.937500
9719		-93.750000
9720		-87.890625
9721		-95.703125
9722		-87.890625
9723		-93.750000
9724		-87.890625
9725		-91.796875
9726		-89.843750
9727		-91.796875
9728		-87.890625
9729		-93.750000
9730		-85.937500
9731		-93.750000
9732		-85.937500
9733		-91.796875
9734		-83.984375
9735		-89.843750
9736		-82.031250
9737		-87.890625
9738		-80.078125
9739		-85.937500
9740		-78.125000
9741		-82.031250
9742		-78.125000
9743		-80.078125
9744		-76.171875
9745		-78.125000
9746		-70.312500
9747		-76.171875
9748		-66.406250
9749		-74.218750
9750		-64.453125
9751		-70.312500
9752		-62.500000
9753		-66.406250
9754		-56.640625
9755		-62.500000
9756		-54.687500
9757		-58.593750
9758		-52.734375
9759		-52.734375
9760		-46.875000
9761		-48.828125
9762		-42.968750
9763		-46.875000
9764		-37.109375
9765		-41.015625
9766		-31.250000
9767		-37.109375
9768		-27.343750
9769		-33.203125
9770		-23.437500
9771		-29.296875
9772		-17.578125
9773		-23.437500
9774		-15.625000
9775		-17.578125
9776		-11.718750
9777		-13.671875
9778		-5.859375
9779		-9.765625
9780		0.000000
9781		-3.906250
9782		5.859375
9783		0.000000
9784		9.765625
9785		3.906250
9786		15.625000
9787		9.765625
9788		19.531250
9789		15.625000
9790		25.390625
9791		19.531250
9792		27.343750
9793		25.390625
9794		31.250000
9795		31.250000
9796		39.062500
9797		33.203125
9798		42.968750
9799		37.109375
9800		46.875000
9801		41.015625
9802		50.781250
9803		44.921875
9804		54.687500
9805		50.781250
9806		58.593750
9807		54.687500
9808		60.546875
9809		58.593750
9810		64.453125
9811		62.500000
9812		70.312500
9813		64.453125
9814		74.218750
9815		68.359375
9816		76.171875
9817		72.265625
9818		80.078125
9819		74.218750
9820		83.984375
9821		78.125000
9822		85.937500
9823		80.078125
9824		87.890625
9825		83.984375
9826		87.890625
9827		85.937500
9828		89.843750
9829		87.890625
9830		95.703125
9831		89.843750
9832		95.703125
9833		89.843750
9834		97.656250
9835		91.796875
9836		99.609375
9837		93.750000
9838		101.562500
9839		93.750000
9840		101.562500
9841		95.703125
9842		101.562500
9843		97.656250
9844		101.562500
9845		95.703125
9846		103.515625
9847		95.703125
9848		103.515625
9849		95.703125
9850		103.515625
9851		95.703125
9852		103.515625
9853		95.703125
9854		103.515625
9855		95.703125
9856		101.562500
9857		95.703125
9858		101.562500
9859		95.703125
9860		99.609375
9861		95.703125
9862		97.656250
9863		91.796875
9864		97.656250
9865		89.843750
9866		97.656250
9867		85.937500
9868		95.703125
9869		85.937500
9870		93.750000
9871		83.984375
9872		91.796875
9873		80.078125
9874		89.843750
9875		80.078125
9876		85.937500
9877		78.125000
9878		82.031250
9879		72.265625
9880		80.078125
9881		68.359375
9882		78.125000
9883		66.406250
9884		74.218750
9885		62.500000
9886		72.265625
9887		58.593750
9888		68.359375
9889		54.687500
9890		64.453125
9891		52.734375
9892		60.546875
9893		48.828125
9894		54.687500
9895		42.968750
9896		50.781250
9897		39.062500
9898		48.828125
9899		33.203125
9900		42.968750
9901		29.296875
9902		39.062500
9903		25.390625
9904		35.156250
9905		19.531250
9906		29.296875
9907		15.625000
9908		25.390625
9909		13.671875
9910		17.578125
9911		7.812500
9912		13.671875
9913		0.000000
9914		9.765625
9915		-3.906250
9916		5.859375
9917		-9.765625
9918		1.953125
9919		-13.671875
9920		-3.906250
9921		-19.531250
9922		-7.812500
9923		-23.437500
9924		-13.671875
9925		-27.343750
9926		-19.531250
9927		-31.250000
9928		-25.390625
9929		-37.109375
9930		-29.296875
9931		-41.015625
9932		-31.250000
9933		-46.875000
9934		-37.109375
9935		-50.781250
9936		-41.015625
9937		-54.687500
9938		-44.921875
9939		-60.546875
9940		-48.828125
9941		-62.500000
9942		-52.734375
9943		-64.453125
9944		-58.593750
9945		-68.359375
9946		-62.500000
9947		-74.218750
9948		-64.453125
9949		-76.171875
9950		-68.359375
9951		-80.078125
9952		-70.312500
9953		-82.031250
9954		-72.265625
9955		-83.984375
9956		-76.171875
9957		-85.937500
9958		-78.125000
9959		-85.937500
9960		-82.031250
9961		-87.890625
9962		-83.984375
9963		-91.796875
9964		-83.984375
9965		-93.750000
9966		-85.937500
9967		-93.750000
9968		-87.890625
9969		-95.703125
9970		-87.890625
9971		-95.703125
9972		-87.890625
9973		-95.703125
9974		-89.843750
9975		-95.703125
9976		-89.843750
9977		-93.750000
9978		-89.843750
9979		-93.750000
9980		-89.843750
9981		-95.703125
9982		-87.890625
9983		-93.750000
9984		-85.937500
9985		-93.750000
9986		-85.937500
9987		-91.796875
9988		-83.984375
9989		-89.843750
9990		-80.078125
9991		-87.890625
9992		-80.078125
9993		-83.984375
9994		-78.125000
9995		-80.078125
9996		-76.171875
9997		-80.078125
9998		-70.312500
9999		-76.171875
10000		-68.359375
