Channel              :		CH1
Frequency            :		1.056kHz
Period               :		0.947ms
PK-PK                :		130.9mV
Probe attenuation    :		1X
Voltage per ADC value:		0.122070mV
Time interval        :		2.00000us

index		CH1_Voltage(mV)
1		7.812500
2		7.812500
3		3.906250
4		5.859375
5		1.953125
6		3.906250
7		0.000000
8		3.906250
9		-1.953125
10		1.953125
11		-3.906250
12		0.000000
13		-3.906250
14		-1.953125
15		-7.812500
16		-1.953125
17		-7.812500
18		-3.906250
19		-9.765625
20		-5.859375
21		-11.718750
22		-7.812500
23		-13.671875
24		-9.765625
25		-13.671875
26		-9.765625
27		-15.625000
28		-11.718750
29		-17.578125
30		-13.671875
31		-19.531250
32		-15.625000
33		-21.484375
34		-15.625000
35		-23.437500
36		-17.578125
37		-23.437500
38		-19.531250
39		-25.390625
40		-21.484375
41		-27.343750
42		-21.484375
43		-27.343750
44		-23.437500
45		-29.296875
46		-25.390625
47		-31.250000
48		-27.343750
49		-33.203125
50		-29.296875
51		-33.203125
52		-29.296875
53		-35.156250
54		-31.250000
55		-37.109375
56		-33.203125
57		-37.109375
58		-35.156250
59		-39.062500
60		-35.156250
61		-41.015625
62		-35.156250
63		-41.015625
64		-37.109375
65		-42.968750
66		-39.062500
67		-44.921875
68		-41.015625
69		-44.921875
70		-41.015625
71		-44.921875
72		-42.968750
73		-46.875000
74		-44.921875
75		-48.828125
76		-42.968750
77		-48.828125
78		-44.921875
79		-50.781250
80		-46.875000
81		-52.734375
82		-48.828125
83		-52.734375
84		-48.828125
85		-54.687500
86		-48.828125
87		-52.734375
88		-50.781250
89		-54.687500
90		-52.734375
91		-56.640625
92		-50.781250
93		-56.640625
94		-52.734375
95		-56.640625
96		-52.734375
97		-58.593750
98		-52.734375
99		-58.593750
100		-54.687500
101		-58.593750
102		-54.687500
103		-60.546875
104		-54.687500
105		-58.593750
106		-56.640625
107		-60.546875
108		-56.640625
109		-60.546875
110		-56.640625
111		-60.546875
112		-56.640625
113		-60.546875
114		-56.640625
115		-60.546875
116		-56.640625
117		-62.500000
118		-58.593750
119		-62.500000
120		-56.640625
121		-60.546875
122		-58.593750
123		-60.546875
124		-58.593750
125		-62.500000
126		-58.593750
127		-62.500000
128		-58.593750
129		-62.500000
130		-58.593750
131		-60.546875
132		-58.593750
133		-60.546875
134		-58.593750
135		-60.546875
136		-58.593750
137		-60.546875
138		-58.593750
139		-60.546875
140		-56.640625
141		-60.546875
142		-54.687500
143		-60.546875
144		-56.640625
145		-60.546875
146		-56.640625
147		-58.593750
148		-54.687500
149		-58.593750
150		-54.687500
151		-58.593750
152		-54.687500
153		-56.640625
154		-54.687500
155		-56.640625
156		-52.734375
157		-54.687500
158		-52.734375
159		-56.640625
160		-50.781250
161		-54.687500
162		-50.781250
163		-54.687500
164		-48.828125
165		-52.734375
166		-48.828125
167		-52.734375
168		-48.828125
169		-50.781250
170		-46.875000
171		-50.781250
172		-46.875000
173		-48.828125
174		-46.875000
175		-48.828125
176		-44.921875
177		-46.875000
178		-42.968750
179		-46.875000
180		-42.968750
181		-44.921875
182		-41.015625
183		-42.968750
184		-41.015625
185		-42.968750
186		-39.062500
187		-41.015625
188		-37.109375
189		-39.062500
190		-37.109375
191		-39.062500
192		-35.156250
193		-37.109375
194		-33.203125
195		-35.156250
196		-33.203125
197		-35.156250
198		-31.250000
199		-33.203125
200		-29.296875
201		-31.250000
202		-27.343750
203		-31.250000
204		-25.390625
205		-29.296875
206		-25.390625
207		-27.343750
208		-23.437500
209		-27.343750
210		-23.437500
211		-25.390625
212		-21.484375
213		-23.437500
214		-19.531250
215		-23.437500
216		-17.578125
217		-21.484375
218		-15.625000
219		-19.531250
220		-15.625000
221		-17.578125
222		-13.671875
223		-15.625000
224		-11.718750
225		-13.671875
226		-9.765625
227		-13.671875
228		-9.765625
229		-11.718750
230		-7.812500
231		-9.765625
232		-5.859375
233		-7.812500
234		-3.906250
235		-7.812500
236		-1.953125
237		-5.859375
238		0.000000
239		-1.953125
240		0.000000
241		-1.953125
242		1.953125
243		0.000000
244		3.906250
245		0.000000
246		5.859375
247		1.953125
248		7.812500
249		3.906250
250		7.812500
251		5.859375
252		9.765625
253		7.812500
254		11.718750
255		7.812500
256		11.718750
257		11.718750
258		15.625000
259		11.718750
260		15.625000
261		13.671875
262		17.578125
263		15.625000
264		19.531250
265		15.625000
266		21.484375
267		17.578125
268		21.484375
269		19.531250
270		23.437500
271		21.484375
272		25.390625
273		23.437500
274		25.390625
275		23.437500
276		29.296875
277		25.390625
278		29.296875
279		25.390625
280		31.250000
281		27.343750
282		31.250000
283		29.296875
284		33.203125
285		29.296875
286		35.156250
287		31.250000
288		35.156250
289		33.203125
290		37.109375
291		33.203125
292		37.109375
293		35.156250
294		39.062500
295		37.109375
296		41.015625
297		37.109375
298		41.015625
299		39.062500
300		42.968750
301		39.062500
302		42.968750
303		41.015625
304		44.921875
305		41.015625
306		44.921875
307		42.968750
308		44.921875
309		42.968750
310		48.828125
311		42.968750
312		48.828125
313		44.921875
314		48.828125
315		46.875000
316		48.828125
317		46.875000
318		50.781250
319		46.875000
320		50.781250
321		46.875000
322		52.734375
323		48.828125
324		52.734375
325		50.781250
326		52.734375
327		50.781250
328		54.687500
329		50.781250
330		54.687500
331		50.781250
332		54.687500
333		52.734375
334		56.640625
335		52.734375
336		56.640625
337		52.734375
338		56.640625
339		52.734375
340		58.593750
341		54.687500
342		56.640625
343		54.687500
344		58.593750
345		54.687500
346		58.593750
347		54.687500
348		58.593750
349		54.687500
350		58.593750
351		56.640625
352		58.593750
353		56.640625
354		58.593750
355		54.687500
356		60.546875
357		56.640625
358		58.593750
359		54.687500
360		60.546875
361		54.687500
362		58.593750
363		56.640625
364		60.546875
365		56.640625
366		58.593750
367		56.640625
368		60.546875
369		54.687500
370		60.546875
371		54.687500
372		58.593750
373		56.640625
374		58.593750
375		56.640625
376		58.593750
377		54.687500
378		58.593750
379		54.687500
380		58.593750
381		54.687500
382		58.593750
383		52.734375
384		58.593750
385		52.734375
386		56.640625
387		52.734375
388		56.640625
389		50.781250
390		56.640625
391		52.734375
392		54.687500
393		50.781250
394		54.687500
395		50.781250
396		54.687500
397		50.781250
398		54.687500
399		50.781250
400		52.734375
401		48.828125
402		52.734375
403		48.828125
404		52.734375
405		46.875000
406		52.734375
407		46.875000
408		50.781250
409		46.875000
410		48.828125
411		44.921875
412		48.828125
413		44.921875
414		48.828125
415		42.968750
416		46.875000
417		42.968750
418		46.875000
419		41.015625
420		44.921875
421		39.062500
422		44.921875
423		39.062500
424		42.968750
425		39.062500
426		41.015625
427		37.109375
428		41.015625
429		35.156250
430		39.062500
431		35.156250
432		39.062500
433		33.203125
434		37.109375
435		31.250000
436		37.109375
437		31.250000
438		35.156250
439		29.296875
440		33.203125
441		29.296875
442		31.250000
443		25.390625
444		31.250000
445		25.390625
446		31.250000
447		23.437500
448		27.343750
449		23.437500
450		27.343750
451		21.484375
452		25.390625
453		19.531250
454		25.390625
455		17.578125
456		23.437500
457		17.578125
458		21.484375
459		15.625000
460		19.531250
461		13.671875
462		17.578125
463		13.671875
464		17.578125
465		11.718750
466		15.625000
467		9.765625
468		13.671875
469		7.812500
470		11.718750
471		7.812500
472		9.765625
473		5.859375
474		9.765625
475		3.906250
476		7.812500
477		1.953125
478		5.859375
479		0.000000
480		3.906250
481		-1.953125
482		3.906250
483		-1.953125
484		1.953125
485		-3.906250
486		0.000000
487		-5.859375
488		-1.953125
489		-7.812500
490		-3.906250
491		-7.812500
492		-5.859375
493		-9.765625
494		-5.859375
495		-11.718750
496		-7.812500
497		-13.671875
498		-9.765625
499		-15.625000
500		-11.718750
501		-15.625000
502		-13.671875
503		-19.531250
504		-13.671875
505		-19.531250
506		-15.625000
507		-21.484375
508		-17.578125
509		-23.437500
510		-19.531250
511		-23.437500
512		-19.531250
513		-25.390625
514		-21.484375
515		-27.343750
516		-23.437500
517		-29.296875
518		-25.390625
519		-29.296875
520		-27.343750
521		-31.250000
522		-27.343750
523		-33.203125
524		-27.343750
525		-33.203125
526		-31.250000
527		-35.156250
528		-31.250000
529		-37.109375
530		-33.203125
531		-39.062500
532		-35.156250
533		-39.062500
534		-35.156250
535		-41.015625
536		-37.109375
537		-42.968750
538		-39.062500
539		-44.921875
540		-39.062500
541		-42.968750
542		-41.015625
543		-44.921875
544		-42.968750
545		-46.875000
546		-42.968750
547		-46.875000
548		-44.921875
549		-48.828125
550		-44.921875
551		-48.828125
552		-46.875000
553		-50.781250
554		-46.875000
555		-50.781250
556		-48.828125
557		-52.734375
558		-48.828125
559		-52.734375
560		-50.781250
561		-54.687500
562		-50.781250
563		-54.687500
564		-50.781250
565		-56.640625
566		-50.781250
567		-56.640625
568		-52.734375
569		-56.640625
570		-52.734375
571		-56.640625
572		-54.687500
573		-58.593750
574		-54.687500
575		-58.593750
576		-56.640625
577		-58.593750
578		-56.640625
579		-60.546875
580		-54.687500
581		-60.546875
582		-56.640625
583		-60.546875
584		-56.640625
585		-60.546875
586		-58.593750
587		-60.546875
588		-58.593750
589		-62.500000
590		-58.593750
591		-62.500000
592		-58.593750
593		-62.500000
594		-58.593750
595		-62.500000
596		-56.640625
597		-62.500000
598		-58.593750
599		-62.500000
600		-58.593750
601		-62.500000
602		-58.593750
603		-62.500000
604		-58.593750
605		-62.500000
606		-58.593750
607		-62.500000
608		-56.640625
609		-60.546875
610		-58.593750
611		-60.546875
612		-58.593750
613		-60.546875
614		-56.640625
615		-60.546875
616		-56.640625
617		-60.546875
618		-56.640625
619		-60.546875
620		-56.640625
621		-58.593750
622		-54.687500
623		-58.593750
624		-54.687500
625		-58.593750
626		-54.687500
627		-56.640625
628		-54.687500
629		-58.593750
630		-52.734375
631		-56.640625
632		-52.734375
633		-54.687500
634		-50.781250
635		-54.687500
636		-50.781250
637		-54.687500
638		-50.781250
639		-52.734375
640		-48.828125
641		-52.734375
642		-48.828125
643		-50.781250
644		-48.828125
645		-50.781250
646		-44.921875
647		-50.781250
648		-44.921875
649		-48.828125
650		-44.921875
651		-46.875000
652		-42.968750
653		-46.875000
654		-41.015625
655		-44.921875
656		-41.015625
657		-42.968750
658		-39.062500
659		-41.015625
660		-39.062500
661		-41.015625
662		-37.109375
663		-41.015625
664		-35.156250
665		-39.062500
666		-35.156250
667		-39.062500
668		-33.203125
669		-35.156250
670		-31.250000
671		-35.156250
672		-31.250000
673		-33.203125
674		-29.296875
675		-33.203125
676		-27.343750
677		-29.296875
678		-27.343750
679		-29.296875
680		-25.390625
681		-27.343750
682		-23.437500
683		-27.343750
684		-21.484375
685		-25.390625
686		-19.531250
687		-23.437500
688		-19.531250
689		-21.484375
690		-17.578125
691		-19.531250
692		-15.625000
693		-17.578125
694		-15.625000
695		-17.578125
696		-13.671875
697		-17.578125
698		-11.718750
699		-15.625000
700		-9.765625
701		-11.718750
702		-9.765625
703		-9.765625
704		-5.859375
705		-9.765625
706		-5.859375
707		-7.812500
708		-1.953125
709		-5.859375
710		-1.953125
711		-5.859375
712		-1.953125
713		-1.953125
714		1.953125
715		-1.953125
716		1.953125
717		0.000000
718		3.906250
719		0.000000
720		5.859375
721		3.906250
722		7.812500
723		5.859375
724		9.765625
725		5.859375
726		9.765625
727		7.812500
728		11.718750
729		9.765625
730		13.671875
731		9.765625
732		13.671875
733		11.718750
734		15.625000
735		13.671875
736		17.578125
737		15.625000
738		19.531250
739		17.578125
740		19.531250
741		17.578125
742		21.484375
743		19.531250
744		23.437500
745		21.484375
746		23.437500
747		23.437500
748		27.343750
749		23.437500
750		27.343750
751		25.390625
752		29.296875
753		27.343750
754		31.250000
755		27.343750
756		33.203125
757		29.296875
758		33.203125
759		29.296875
760		35.156250
761		31.250000
762		35.156250
763		33.203125
764		37.109375
765		35.156250
766		37.109375
767		35.156250
768		39.062500
769		35.156250
770		39.062500
771		37.109375
772		41.015625
773		39.062500
774		42.968750
775		39.062500
776		42.968750
777		41.015625
778		42.968750
779		42.968750
780		44.921875
781		41.015625
782		46.875000
783		44.921875
784		46.875000
785		42.968750
786		48.828125
787		44.921875
788		48.828125
789		46.875000
790		48.828125
791		46.875000
792		50.781250
793		46.875000
794		50.781250
795		48.828125
796		52.734375
797		48.828125
798		54.687500
799		48.828125
800		54.687500
801		50.781250
802		54.687500
803		50.781250
804		54.687500
805		52.734375
806		54.687500
807		52.734375
808		56.640625
809		52.734375
810		56.640625
811		54.687500
812		56.640625
813		54.687500
814		56.640625
815		54.687500
816		58.593750
817		54.687500
818		58.593750
819		54.687500
820		58.593750
821		54.687500
822		58.593750
823		54.687500
824		58.593750
825		54.687500
826		60.546875
827		56.640625
828		58.593750
829		56.640625
830		58.593750
831		54.687500
832		58.593750
833		56.640625
834		60.546875
835		56.640625
836		60.546875
837		56.640625
838		60.546875
839		56.640625
840		60.546875
841		56.640625
842		58.593750
843		56.640625
844		60.546875
845		56.640625
846		58.593750
847		54.687500
848		58.593750
849		54.687500
850		58.593750
851		54.687500
852		58.593750
853		54.687500
854		58.593750
855		54.687500
856		58.593750
857		54.687500
858		56.640625
859		52.734375
860		56.640625
861		52.734375
862		56.640625
863		52.734375
864		54.687500
865		52.734375
866		56.640625
867		50.781250
868		54.687500
869		50.781250
870		54.687500
871		50.781250
872		52.734375
873		48.828125
874		52.734375
875		48.828125
876		52.734375
877		46.875000
878		52.734375
879		48.828125
880		50.781250
881		44.921875
882		50.781250
883		44.921875
884		48.828125
885		44.921875
886		48.828125
887		42.968750
888		48.828125
889		42.968750
890		46.875000
891		41.015625
892		46.875000
893		41.015625
894		44.921875
895		41.015625
896		42.968750
897		39.062500
898		42.968750
899		37.109375
900		41.015625
901		37.109375
902		41.015625
903		35.156250
904		41.015625
905		35.156250
906		39.062500
907		33.203125
908		37.109375
909		31.250000
910		35.156250
911		31.250000
912		33.203125
913		29.296875
914		33.203125
915		27.343750
916		33.203125
917		27.343750
918		31.250000
919		25.390625
920		29.296875
921		25.390625
922		27.343750
923		23.437500
924		27.343750
925		21.484375
926		25.390625
927		19.531250
928		23.437500
929		19.531250
930		21.484375
931		15.625000
932		21.484375
933		15.625000
934		19.531250
935		13.671875
936		19.531250
937		13.671875
938		15.625000
939		11.718750
940		15.625000
941		9.765625
942		13.671875
943		7.812500
944		11.718750
945		5.859375
946		9.765625
947		5.859375
948		7.812500
949		3.906250
950		7.812500
951		1.953125
952		5.859375
953		0.000000
954		3.906250
955		-1.953125
956		1.953125
957		-3.906250
958		0.000000
959		-3.906250
960		0.000000
961		-5.859375
962		-1.953125
963		-7.812500
964		-3.906250
965		-9.765625
966		-5.859375
967		-11.718750
968		-7.812500
969		-11.718750
970		-7.812500
971		-13.671875
972		-9.765625
973		-15.625000
974		-11.718750
975		-17.578125
976		-13.671875
977		-17.578125
978		-13.671875
979		-21.484375
980		-15.625000
981		-23.437500
982		-17.578125
983		-23.437500
984		-19.531250
985		-25.390625
986		-19.531250
987		-25.390625
988		-21.484375
989		-27.343750
990		-23.437500
991		-29.296875
992		-25.390625
993		-31.250000
994		-27.343750
995		-31.250000
996		-29.296875
997		-33.203125
998		-29.296875
999		-35.156250
1000		-29.296875
1001		-37.109375
1002		-31.250000
1003		-37.109375
1004		-33.203125
1005		-39.062500
1006		-35.156250
1007		-41.015625
1008		-35.156250
1009		-41.015625
1010		-37.109375
1011		-42.968750
1012		-37.109375
1013		-42.968750
1014		-39.062500
1015		-44.921875
1016		-41.015625
1017		-46.875000
1018		-41.015625
1019		-46.875000
1020		-42.968750
1021		-46.875000
1022		-44.921875
1023		-48.828125
1024		-44.921875
1025		-50.781250
1026		-46.875000
1027		-52.734375
1028		-46.875000
1029		-50.781250
1030		-48.828125
1031		-52.734375
1032		-48.828125
1033		-52.734375
1034		-50.781250
1035		-54.687500
1036		-50.781250
1037		-54.687500
1038		-50.781250
1039		-56.640625
1040		-52.734375
1041		-56.640625
1042		-52.734375
1043		-56.640625
1044		-52.734375
1045		-58.593750
1046		-52.734375
1047		-58.593750
1048		-54.687500
1049		-60.546875
1050		-54.687500
1051		-60.546875
1052		-56.640625
1053		-58.593750
1054		-56.640625
1055		-60.546875
1056		-54.687500
1057		-60.546875
1058		-56.640625
1059		-60.546875
1060		-56.640625
1061		-62.500000
1062		-56.640625
1063		-60.546875
1064		-58.593750
1065		-62.500000
1066		-58.593750
1067		-62.500000
1068		-58.593750
1069		-62.500000
1070		-58.593750
1071		-60.546875
1072		-58.593750
1073		-60.546875
1074		-58.593750
1075		-62.500000
1076		-58.593750
1077		-62.500000
1078		-56.640625
1079		-60.546875
1080		-58.593750
1081		-60.546875
1082		-58.593750
1083		-60.546875
1084		-56.640625
1085		-60.546875
1086		-56.640625
1087		-60.546875
1088		-56.640625
1089		-60.546875
1090		-56.640625
1091		-60.546875
1092		-54.687500
1093		-58.593750
1094		-54.687500
1095		-58.593750
1096		-54.687500
1097		-56.640625
1098		-54.687500
1099		-56.640625
1100		-52.734375
1101		-56.640625
1102		-52.734375
1103		-56.640625
1104		-52.734375
1105		-54.687500
1106		-52.734375
1107		-54.687500
1108		-50.781250
1109		-52.734375
1110		-48.828125
1111		-52.734375
1112		-48.828125
1113		-50.781250
1114		-48.828125
1115		-50.781250
1116		-48.828125
1117		-50.781250
1118		-46.875000
1119		-48.828125
1120		-46.875000
1121		-48.828125
1122		-44.921875
1123		-46.875000
1124		-42.968750
1125		-46.875000
1126		-42.968750
1127		-44.921875
1128		-41.015625
1129		-44.921875
1130		-41.015625
1131		-42.968750
1132		-39.062500
1133		-42.968750
1134		-37.109375
1135		-41.015625
1136		-37.109375
1137		-39.062500
1138		-35.156250
1139		-37.109375
1140		-33.203125
1141		-37.109375
1142		-33.203125
1143		-35.156250
1144		-31.250000
1145		-35.156250
1146		-29.296875
1147		-33.203125
1148		-29.296875
1149		-31.250000
1150		-27.343750
1151		-29.296875
1152		-25.390625
1153		-29.296875
1154		-23.437500
1155		-27.343750
1156		-23.437500
1157		-25.390625
1158		-21.484375
1159		-23.437500
1160		-19.531250
1161		-23.437500
1162		-17.578125
1163		-21.484375
1164		-17.578125
1165		-19.531250
1166		-15.625000
1167		-17.578125
1168		-13.671875
1169		-17.578125
1170		-11.718750
1171		-15.625000
1172		-11.718750
1173		-13.671875
1174		-9.765625
1175		-11.718750
1176		-7.812500
1177		-9.765625
1178		-5.859375
1179		-9.765625
1180		-3.906250
1181		-5.859375
1182		-3.906250
1183		-7.812500
1184		0.000000
1185		-3.906250
1186		0.000000
1187		-1.953125
1188		1.953125
1189		-1.953125
1190		3.906250
1191		0.000000
1192		3.906250
1193		1.953125
1194		7.812500
1195		3.906250
1196		7.812500
1197		5.859375
1198		9.765625
1199		7.812500
1200		9.765625
1201		5.859375
1202		15.625000
1203		7.812500
1204		15.625000
1205		11.718750
1206		15.625000
1207		11.718750
1208		19.531250
1209		13.671875
1210		19.531250
1211		13.671875
1212		21.484375
1213		15.625000
1214		21.484375
1215		19.531250
1216		23.437500
1217		17.578125
1218		25.390625
1219		19.531250
1220		27.343750
1221		21.484375
1222		27.343750
1223		23.437500
1224		29.296875
1225		25.390625
1226		31.250000
1227		25.390625
1228		33.203125
1229		27.343750
1230		33.203125
1231		31.250000
1232		33.203125
1233		31.250000
1234		35.156250
1235		29.296875
1236		39.062500
1237		31.250000
1238		39.062500
1239		33.203125
1240		41.015625
1241		33.203125
1242		41.015625
1243		35.156250
1244		42.968750
1245		35.156250
1246		44.921875
1247		39.062500
1248		42.968750
1249		41.015625
1250		42.968750
1251		39.062500
1252		46.875000
1253		41.015625
1254		48.828125
1255		41.015625
1256		48.828125
1257		41.015625
1258		50.781250
1259		42.968750
1260		50.781250
1261		42.968750
1262		52.734375
1263		44.921875
1264		52.734375
1265		48.828125
1266		50.781250
1267		46.875000
1268		52.734375
1269		46.875000
1270		54.687500
1271		48.828125
1272		54.687500
1273		48.828125
1274		56.640625
1275		48.828125
1276		56.640625
1277		48.828125
1278		58.593750
1279		50.781250
1280		58.593750
1281		52.734375
1282		56.640625
1283		54.687500
1284		56.640625
1285		50.781250
1286		58.593750
1287		52.734375
1288		60.546875
1289		52.734375
1290		60.546875
1291		52.734375
1292		60.546875
1293		52.734375
1294		60.546875
1295		52.734375
1296		60.546875
1297		54.687500
1298		60.546875
1299		56.640625
1300		58.593750
1301		54.687500
1302		60.546875
1303		54.687500
1304		62.500000
1305		54.687500
1306		62.500000
1307		54.687500
1308		62.500000
1309		54.687500
1310		62.500000
1311		54.687500
1312		62.500000
1313		54.687500
1314		62.500000
1315		56.640625
1316		58.593750
1317		56.640625
1318		58.593750
1319		52.734375
1320		62.500000
1321		54.687500
1322		60.546875
1323		52.734375
1324		62.500000
1325		54.687500
1326		62.500000
1327		52.734375
1328		60.546875
1329		52.734375
1330		60.546875
1331		54.687500
1332		58.593750
1333		54.687500
1334		56.640625
1335		50.781250
1336		60.546875
1337		50.781250
1338		58.593750
1339		50.781250
1340		58.593750
1341		50.781250
1342		58.593750
1343		48.828125
1344		56.640625
1345		46.875000
1346		56.640625
1347		48.828125
1348		56.640625
1349		50.781250
1350		52.734375
1351		46.875000
1352		54.687500
1353		44.921875
1354		52.734375
1355		44.921875
1356		52.734375
1357		42.968750
1358		52.734375
1359		42.968750
1360		50.781250
1361		41.015625
1362		50.781250
1363		41.015625
1364		48.828125
1365		42.968750
1366		44.921875
1367		41.015625
1368		44.921875
1369		37.109375
1370		46.875000
1371		37.109375
1372		46.875000
1373		35.156250
1374		44.921875
1375		35.156250
1376		42.968750
1377		33.203125
1378		41.015625
1379		31.250000
1380		41.015625
1381		33.203125
1382		39.062500
1383		33.203125
1384		35.156250
1385		29.296875
1386		35.156250
1387		29.296875
1388		35.156250
1389		27.343750
1390		33.203125
1391		25.390625
1392		31.250000
1393		23.437500
1394		31.250000
1395		23.437500
1396		31.250000
1397		21.484375
1398		27.343750
1399		21.484375
1400		25.390625
1401		21.484375
1402		23.437500
1403		15.625000
1404		25.390625
1405		13.671875
1406		23.437500
1407		13.671875
1408		21.484375
1409		11.718750
1410		21.484375
1411		9.765625
1412		19.531250
1413		9.765625
1414		17.578125
1415		9.765625
1416		13.671875
1417		7.812500
1418		11.718750
1419		3.906250
1420		11.718750
1421		3.906250
1422		11.718750
1423		1.953125
1424		9.765625
1425		0.000000
1426		7.812500
1427		-1.953125
1428		5.859375
1429		-3.906250
1430		5.859375
1431		-3.906250
1432		3.906250
1433		-3.906250
1434		0.000000
1435		-7.812500
1436		-1.953125
1437		-9.765625
1438		0.000000
1439		-11.718750
1440		-1.953125
1441		-11.718750
1442		-3.906250
1443		-13.671875
1444		-5.859375
1445		-15.625000
1446		-7.812500
1447		-15.625000
1448		-7.812500
1449		-15.625000
1450		-13.671875
1451		-17.578125
1452		-13.671875
1453		-21.484375
1454		-13.671875
1455		-23.437500
1456		-15.625000
1457		-25.390625
1458		-17.578125
1459		-25.390625
1460		-19.531250
1461		-27.343750
1462		-19.531250
1463		-29.296875
1464		-21.484375
1465		-27.343750
1466		-23.437500
1467		-29.296875
1468		-27.343750
1469		-33.203125
1470		-25.390625
1471		-35.156250
1472		-25.390625
1473		-37.109375
1474		-27.343750
1475		-39.062500
1476		-29.296875
1477		-39.062500
1478		-31.250000
1479		-41.015625
1480		-33.203125
1481		-41.015625
1482		-33.203125
1483		-41.015625
1484		-37.109375
1485		-41.015625
1486		-39.062500
1487		-44.921875
1488		-37.109375
1489		-46.875000
1490		-37.109375
1491		-46.875000
1492		-39.062500
1493		-48.828125
1494		-41.015625
1495		-48.828125
1496		-41.015625
1497		-50.781250
1498		-42.968750
1499		-50.781250
1500		-44.921875
1501		-48.828125
1502		-46.875000
1503		-52.734375
1504		-46.875000
1505		-54.687500
1506		-44.921875
1507		-54.687500
1508		-46.875000
1509		-56.640625
1510		-48.828125
1511		-56.640625
1512		-48.828125
1513		-58.593750
1514		-48.828125
1515		-56.640625
1516		-50.781250
1517		-56.640625
1518		-52.734375
1519		-60.546875
1520		-52.734375
1521		-60.546875
1522		-50.781250
1523		-60.546875
1524		-52.734375
1525		-60.546875
1526		-52.734375
1527		-60.546875
1528		-54.687500
1529		-62.500000
1530		-54.687500
1531		-62.500000
1532		-54.687500
1533		-60.546875
1534		-56.640625
1535		-60.546875
1536		-56.640625
1537		-62.500000
1538		-54.687500
1539		-62.500000
1540		-54.687500
1541		-62.500000
1542		-54.687500
1543		-62.500000
1544		-54.687500
1545		-64.453125
1546		-56.640625
1547		-62.500000
1548		-54.687500
1549		-62.500000
1550		-56.640625
1551		-60.546875
1552		-58.593750
1553		-62.500000
1554		-54.687500
1555		-62.500000
1556		-54.687500
1557		-62.500000
1558		-54.687500
1559		-62.500000
1560		-54.687500
1561		-62.500000
1562		-54.687500
1563		-62.500000
1564		-52.734375
1565		-60.546875
1566		-52.734375
1567		-58.593750
1568		-54.687500
1569		-58.593750
1570		-54.687500
1571		-60.546875
1572		-50.781250
1573		-58.593750
1574		-50.781250
1575		-58.593750
1576		-50.781250
1577		-58.593750
1578		-48.828125
1579		-56.640625
1580		-48.828125
1581		-56.640625
1582		-48.828125
1583		-54.687500
1584		-48.828125
1585		-50.781250
1586		-48.828125
1587		-52.734375
1588		-44.921875
1589		-52.734375
1590		-44.921875
1591		-52.734375
1592		-42.968750
1593		-50.781250
1594		-42.968750
1595		-50.781250
1596		-41.015625
1597		-48.828125
1598		-41.015625
1599		-48.828125
1600		-39.062500
1601		-42.968750
1602		-41.015625
1603		-44.921875
1604		-37.109375
1605		-42.968750
1606		-35.156250
1607		-42.968750
1608		-35.156250
1609		-41.015625
1610		-33.203125
1611		-41.015625
1612		-33.203125
1613		-39.062500
1614		-29.296875
1615		-39.062500
1616		-29.296875
1617		-33.203125
1618		-31.250000
1619		-33.203125
1620		-29.296875
1621		-33.203125
1622		-25.390625
1623		-31.250000
1624		-23.437500
1625		-31.250000
1626		-21.484375
1627		-29.296875
1628		-21.484375
1629		-29.296875
1630		-19.531250
1631		-27.343750
1632		-19.531250
1633		-23.437500
1634		-17.578125
1635		-21.484375
1636		-17.578125
1637		-21.484375
1638		-13.671875
1639		-21.484375
1640		-11.718750
1641		-19.531250
1642		-9.765625
1643		-17.578125
1644		-9.765625
1645		-17.578125
1646		-7.812500
1647		-13.671875
1648		-5.859375
1649		-11.718750
1650		-5.859375
1651		-9.765625
1652		-5.859375
1653		-7.812500
1654		-3.906250
1655		-7.812500
1656		1.953125
1657		-5.859375
1658		1.953125
1659		-5.859375
1660		3.906250
1661		-3.906250
1662		3.906250
1663		-1.953125
1664		5.859375
1665		0.000000
1666		7.812500
1667		1.953125
1668		7.812500
1669		5.859375
1670		7.812500
1671		5.859375
1672		11.718750
1673		5.859375
1674		15.625000
1675		7.812500
1676		15.625000
1677		7.812500
1678		17.578125
1679		9.765625
1680		17.578125
1681		11.718750
1682		19.531250
1683		13.671875
1684		21.484375
1685		17.578125
1686		19.531250
1687		17.578125
1688		25.390625
1689		17.578125
1690		27.343750
1691		19.531250
1692		27.343750
1693		19.531250
1694		29.296875
1695		21.484375
1696		29.296875
1697		23.437500
1698		31.250000
1699		25.390625
1700		33.203125
1701		29.296875
1702		31.250000
1703		29.296875
1704		33.203125
1705		29.296875
1706		37.109375
1707		29.296875
1708		37.109375
1709		31.250000
1710		37.109375
1711		31.250000
1712		41.015625
1713		33.203125
1714		41.015625
1715		35.156250
1716		42.968750
1717		35.156250
1718		42.968750
1719		39.062500
1720		42.968750
1721		39.062500
1722		44.921875
1723		39.062500
1724		46.875000
1725		41.015625
1726		46.875000
1727		41.015625
1728		48.828125
1729		41.015625
1730		50.781250
1731		42.968750
1732		50.781250
1733		42.968750
1734		50.781250
1735		46.875000
1736		50.781250
1737		48.828125
1738		50.781250
1739		46.875000
1740		54.687500
1741		46.875000
1742		54.687500
1743		46.875000
1744		56.640625
1745		48.828125
1746		56.640625
1747		48.828125
1748		56.640625
1749		48.828125
1750		58.593750
1751		52.734375
1752		56.640625
1753		52.734375
1754		56.640625
1755		50.781250
1756		58.593750
1757		52.734375
1758		60.546875
1759		52.734375
1760		60.546875
1761		52.734375
1762		60.546875
1763		52.734375
1764		60.546875
1765		52.734375
1766		60.546875
1767		52.734375
1768		62.500000
1769		56.640625
1770		58.593750
1771		56.640625
1772		60.546875
1773		54.687500
1774		62.500000
1775		54.687500
1776		62.500000
1777		54.687500
1778		62.500000
1779		54.687500
1780		62.500000
1781		54.687500
1782		62.500000
1783		54.687500
1784		62.500000
1785		56.640625
1786		60.546875
1787		56.640625
1788		60.546875
1789		54.687500
1790		62.500000
1791		54.687500
1792		62.500000
1793		54.687500
1794		62.500000
1795		52.734375
1796		62.500000
1797		52.734375
1798		60.546875
1799		52.734375
1800		60.546875
1801		52.734375
1802		60.546875
1803		56.640625
1804		58.593750
1805		52.734375
1806		58.593750
1807		52.734375
1808		60.546875
1809		50.781250
1810		58.593750
1811		50.781250
1812		58.593750
1813		50.781250
1814		58.593750
1815		48.828125
1816		58.593750
1817		48.828125
1818		56.640625
1819		50.781250
1820		54.687500
1821		50.781250
1822		52.734375
1823		46.875000
1824		54.687500
1825		46.875000
1826		54.687500
1827		44.921875
1828		52.734375
1829		44.921875
1830		52.734375
1831		44.921875
1832		52.734375
1833		42.968750
1834		52.734375
1835		42.968750
1836		50.781250
1837		44.921875
1838		46.875000
1839		41.015625
1840		46.875000
1841		39.062500
1842		46.875000
1843		37.109375
1844		44.921875
1845		37.109375
1846		44.921875
1847		35.156250
1848		44.921875
1849		35.156250
1850		42.968750
1851		33.203125
1852		42.968750
1853		35.156250
1854		39.062500
1855		35.156250
1856		37.109375
1857		29.296875
1858		39.062500
1859		27.343750
1860		37.109375
1861		27.343750
1862		37.109375
1863		25.390625
1864		35.156250
1865		25.390625
1866		33.203125
1867		23.437500
1868		31.250000
1869		23.437500
1870		29.296875
1871		23.437500
1872		27.343750
1873		19.531250
1874		27.343750
1875		17.578125
1876		27.343750
1877		15.625000
1878		25.390625
1879		15.625000
1880		23.437500
1881		13.671875
1882		23.437500
1883		11.718750
1884		21.484375
1885		9.765625
1886		19.531250
1887		11.718750
1888		15.625000
1889		7.812500
1890		13.671875
1891		5.859375
1892		13.671875
1893		3.906250
1894		13.671875
1895		3.906250
1896		11.718750
1897		1.953125
1898		9.765625
1899		0.000000
1900		7.812500
1901		-1.953125
1902		5.859375
1903		0.000000
1904		3.906250
1905		-1.953125
1906		1.953125
1907		-5.859375
1908		1.953125
1909		-7.812500
1910		0.000000
1911		-9.765625
1912		0.000000
1913		-11.718750
1914		-1.953125
1915		-11.718750
1916		-3.906250
1917		-13.671875
1918		-5.859375
1919		-13.671875
1920		-7.812500
1921		-13.671875
1922		-11.718750
1923		-17.578125
1924		-11.718750
1925		-19.531250
1926		-11.718750
1927		-21.484375
1928		-13.671875
1929		-23.437500
1930		-13.671875
1931		-23.437500
1932		-15.625000
1933		-27.343750
1934		-17.578125
1935		-27.343750
1936		-19.531250
1937		-25.390625
1938		-23.437500
1939		-29.296875
1940		-23.437500
1941		-31.250000
1942		-23.437500
1943		-33.203125
1944		-25.390625
1945		-35.156250
1946		-27.343750
1947		-37.109375
1948		-27.343750
1949		-37.109375
1950		-29.296875
1951		-39.062500
1952		-31.250000
1953		-37.109375
1954		-33.203125
1955		-39.062500
1956		-35.156250
1957		-42.968750
1958		-35.156250
1959		-42.968750
1960		-37.109375
1961		-44.921875
1962		-37.109375
1963		-46.875000
1964		-39.062500
1965		-46.875000
1966		-39.062500
1967		-48.828125
1968		-41.015625
1969		-48.828125
1970		-41.015625
1971		-48.828125
1972		-44.921875
1973		-52.734375
1974		-44.921875
1975		-52.734375
1976		-42.968750
1977		-54.687500
1978		-44.921875
1979		-54.687500
1980		-46.875000
1981		-54.687500
1982		-46.875000
1983		-56.640625
1984		-48.828125
1985		-56.640625
1986		-48.828125
1987		-54.687500
1988		-52.734375
1989		-54.687500
1990		-52.734375
1991		-58.593750
1992		-50.781250
1993		-60.546875
1994		-50.781250
1995		-60.546875
1996		-52.734375
1997		-60.546875
1998		-52.734375
1999		-60.546875
2000		-52.734375
2001		-62.500000
2002		-54.687500
2003		-60.546875
2004		-54.687500
2005		-58.593750
2006		-56.640625
2007		-60.546875
2008		-56.640625
2009		-62.500000
2010		-54.687500
2011		-62.500000
2012		-54.687500
2013		-62.500000
2014		-54.687500
2015		-62.500000
2016		-56.640625
2017		-64.453125
2018		-54.687500
2019		-62.500000
2020		-54.687500
2021		-60.546875
2022		-58.593750
2023		-60.546875
2024		-58.593750
2025		-62.500000
2026		-54.687500
2027		-64.453125
2028		-54.687500
2029		-62.500000
2030		-54.687500
2031		-62.500000
2032		-54.687500
2033		-62.500000
2034		-52.734375
2035		-62.500000
2036		-54.687500
2037		-60.546875
2038		-56.640625
2039		-58.593750
2040		-56.640625
2041		-60.546875
2042		-52.734375
2043		-60.546875
2044		-52.734375
2045		-60.546875
2046		-52.734375
2047		-58.593750
2048		-50.781250
2049		-58.593750
2050		-50.781250
2051		-58.593750
2052		-48.828125
2053		-56.640625
2054		-50.781250
2055		-52.734375
2056		-50.781250
2057		-54.687500
2058		-48.828125
2059		-54.687500
2060		-46.875000
2061		-54.687500
2062		-46.875000
2063		-52.734375
2064		-44.921875
2065		-52.734375
2066		-42.968750
2067		-50.781250
2068		-42.968750
2069		-50.781250
2070		-42.968750
2071		-46.875000
2072		-42.968750
2073		-44.921875
2074		-42.968750
2075		-46.875000
2076		-39.062500
2077		-46.875000
2078		-37.109375
2079		-44.921875
2080		-37.109375
2081		-42.968750
2082		-35.156250
2083		-42.968750
2084		-33.203125
2085		-41.015625
2086		-33.203125
2087		-39.062500
2088		-33.203125
2089		-35.156250
2090		-33.203125
2091		-37.109375
2092		-29.296875
2093		-35.156250
2094		-27.343750
2095		-33.203125
2096		-27.343750
2097		-33.203125
2098		-25.390625
2099		-31.250000
2100		-23.437500
2101		-29.296875
2102		-21.484375
2103		-27.343750
2104		-21.484375
2105		-23.437500
2106		-21.484375
2107		-23.437500
2108		-19.531250
2109		-23.437500
2110		-15.625000
2111		-23.437500
2112		-13.671875
2113		-21.484375
2114		-11.718750
2115		-19.531250
2116		-11.718750
2117		-17.578125
2118		-9.765625
2119		-17.578125
2120		-7.812500
2121		-13.671875
2122		-7.812500
2123		-9.765625
2124		-7.812500
2125		-9.765625
2126		-3.906250
2127		-9.765625
2128		-1.953125
2129		-9.765625
2130		0.000000
2131		-7.812500
2132		1.953125
2133		-5.859375
2134		3.906250
2135		-3.906250
2136		3.906250
2137		-1.953125
2138		5.859375
2139		1.953125
2140		5.859375
2141		3.906250
2142		9.765625
2143		1.953125
2144		9.765625
2145		3.906250
2146		11.718750
2147		5.859375
2148		13.671875
2149		5.859375
2150		15.625000
2151		9.765625
2152		17.578125
2153		9.765625
2154		19.531250
2155		13.671875
2156		17.578125
2157		15.625000
2158		19.531250
2159		15.625000
2160		23.437500
2161		15.625000
2162		23.437500
2163		17.578125
2164		25.390625
2165		17.578125
2166		25.390625
2167		19.531250
2168		29.296875
2169		21.484375
2170		29.296875
2171		21.484375
2172		31.250000
2173		27.343750
2174		31.250000
2175		27.343750
2176		33.203125
2177		27.343750
2178		35.156250
2179		27.343750
2180		37.109375
2181		29.296875
2182		37.109375
2183		29.296875
2184		39.062500
2185		31.250000
2186		39.062500
2187		33.203125
2188		41.015625
2189		37.109375
2190		39.062500
2191		39.062500
2192		41.015625
2193		35.156250
2194		44.921875
2195		37.109375
2196		46.875000
2197		39.062500
2198		44.921875
2199		39.062500
2200		46.875000
2201		41.015625
2202		48.828125
2203		41.015625
2204		48.828125
2205		44.921875
2206		50.781250
2207		44.921875
2208		48.828125
2209		44.921875
2210		52.734375
2211		44.921875
2212		52.734375
2213		44.921875
2214		54.687500
2215		46.875000
2216		54.687500
2217		46.875000
2218		54.687500
2219		48.828125
2220		54.687500
2221		48.828125
2222		56.640625
2223		52.734375
2224		54.687500
2225		52.734375
2226		56.640625
2227		50.781250
2228		58.593750
2229		50.781250
2230		58.593750
2231		50.781250
2232		58.593750
2233		50.781250
2234		58.593750
2235		52.734375
2236		60.546875
2237		52.734375
2238		60.546875
2239		56.640625
2240		58.593750
2241		54.687500
2242		58.593750
2243		52.734375
2244		62.500000
2245		54.687500
2246		62.500000
2247		54.687500
2248		62.500000
2249		54.687500
2250		62.500000
2251		54.687500
2252		62.500000
2253		54.687500
2254		62.500000
2255		54.687500
2256		62.500000
2257		56.640625
2258		60.546875
2259		54.687500
2260		62.500000
2261		54.687500
2262		62.500000
2263		54.687500
2264		62.500000
2265		52.734375
2266		62.500000
2267		52.734375
2268		62.500000
2269		52.734375
2270		60.546875
2271		52.734375
2272		62.500000
2273		56.640625
2274		58.593750
2275		56.640625
2276		58.593750
2277		52.734375
2278		60.546875
2279		52.734375
2280		60.546875
2281		50.781250
2282		58.593750
2283		50.781250
2284		60.546875
2285		50.781250
2286		58.593750
2287		48.828125
2288		58.593750
2289		50.781250
2290		56.640625
2291		52.734375
2292		54.687500
2293		48.828125
2294		54.687500
2295		46.875000
2296		54.687500
2297		46.875000
2298		54.687500
2299		46.875000
2300		54.687500
2301		44.921875
2302		52.734375
2303		44.921875
2304		52.734375
2305		42.968750
2306		50.781250
2307		44.921875
2308		48.828125
2309		42.968750
2310		46.875000
2311		41.015625
2312		48.828125
2313		39.062500
2314		48.828125
2315		39.062500
2316		46.875000
2317		39.062500
2318		46.875000
2319		37.109375
2320		44.921875
2321		35.156250
2322		44.921875
2323		37.109375
2324		41.015625
2325		35.156250
2326		39.062500
2327		31.250000
2328		39.062500
2329		31.250000
2330		39.062500
2331		29.296875
2332		37.109375
2333		29.296875
2334		35.156250
2335		27.343750
2336		35.156250
2337		25.390625
2338		33.203125
2339		25.390625
2340		33.203125
2341		25.390625
2342		29.296875
2343		23.437500
2344		29.296875
2345		21.484375
2346		29.296875
2347		17.578125
2348		27.343750
2349		17.578125
2350		25.390625
2351		15.625000
2352		23.437500
2353		15.625000
2354		23.437500
2355		13.671875
2356		21.484375
2357		13.671875
2358		17.578125
2359		11.718750
2360		15.625000
2361		7.812500
2362		17.578125
2363		7.812500
2364		15.625000
2365		5.859375
2366		13.671875
2367		3.906250
2368		11.718750
2369		1.953125
2370		11.718750
2371		1.953125
2372		7.812500
2373		1.953125
2374		7.812500
2375		0.000000
2376		3.906250
2377		-3.906250
2378		3.906250
2379		-5.859375
2380		3.906250
2381		-7.812500
2382		1.953125
2383		-9.765625
2384		0.000000
2385		-9.765625
2386		-1.953125
2387		-11.718750
2388		-3.906250
2389		-13.671875
2390		-5.859375
2391		-11.718750
2392		-7.812500
2393		-15.625000
2394		-9.765625
2395		-17.578125
2396		-9.765625
2397		-19.531250
2398		-9.765625
2399		-21.484375
2400		-11.718750
2401		-23.437500
2402		-13.671875
2403		-23.437500
2404		-15.625000
2405		-25.390625
2406		-17.578125
2407		-23.437500
2408		-21.484375
2409		-25.390625
2410		-21.484375
2411		-29.296875
2412		-21.484375
2413		-31.250000
2414		-23.437500
2415		-33.203125
2416		-23.437500
2417		-35.156250
2418		-25.390625
2419		-35.156250
2420		-27.343750
2421		-37.109375
2422		-27.343750
2423		-37.109375
2424		-29.296875
2425		-37.109375
2426		-33.203125
2427		-41.015625
2428		-35.156250
2429		-41.015625
2430		-33.203125
2431		-42.968750
2432		-35.156250
2433		-44.921875
2434		-35.156250
2435		-44.921875
2436		-37.109375
2437		-46.875000
2438		-39.062500
2439		-48.828125
2440		-39.062500
2441		-46.875000
2442		-42.968750
2443		-46.875000
2444		-44.921875
2445		-50.781250
2446		-42.968750
2447		-52.734375
2448		-42.968750
2449		-52.734375
2450		-44.921875
2451		-54.687500
2452		-44.921875
2453		-54.687500
2454		-46.875000
2455		-54.687500
2456		-46.875000
2457		-54.687500
2458		-48.828125
2459		-54.687500
2460		-50.781250
2461		-58.593750
2462		-50.781250
2463		-58.593750
2464		-50.781250
2465		-58.593750
2466		-50.781250
2467		-58.593750
2468		-50.781250
2469		-60.546875
2470		-52.734375
2471		-60.546875
2472		-52.734375
2473		-60.546875
2474		-52.734375
2475		-58.593750
2476		-56.640625
2477		-58.593750
2478		-56.640625
2479		-62.500000
2480		-54.687500
2481		-62.500000
2482		-54.687500
2483		-62.500000
2484		-54.687500
2485		-62.500000
2486		-54.687500
2487		-62.500000
2488		-54.687500
2489		-62.500000
2490		-54.687500
2491		-60.546875
2492		-56.640625
2493		-60.546875
2494		-56.640625
2495		-62.500000
2496		-54.687500
2497		-62.500000
2498		-54.687500
2499		-62.500000
2500		-54.687500
2501		-62.500000
2502		-54.687500
2503		-62.500000
2504		-54.687500
2505		-62.500000
2506		-54.687500
2507		-60.546875
2508		-54.687500
2509		-58.593750
2510		-56.640625
2511		-58.593750
2512		-54.687500
2513		-60.546875
2514		-50.781250
2515		-60.546875
2516		-52.734375
2517		-60.546875
2518		-50.781250
2519		-58.593750
2520		-50.781250
2521		-58.593750
2522		-50.781250
2523		-58.593750
2524		-50.781250
2525		-54.687500
2526		-50.781250
2527		-52.734375
2528		-50.781250
2529		-54.687500
2530		-46.875000
2531		-54.687500
2532		-46.875000
2533		-54.687500
2534		-46.875000
2535		-52.734375
2536		-44.921875
2537		-52.734375
2538		-44.921875
2539		-50.781250
2540		-42.968750
2541		-50.781250
2542		-42.968750
2543		-46.875000
2544		-42.968750
2545		-46.875000
2546		-41.015625
2547		-46.875000
2548		-39.062500
2549		-46.875000
2550		-39.062500
2551		-44.921875
2552		-37.109375
2553		-44.921875
2554		-35.156250
2555		-42.968750
2556		-35.156250
2557		-42.968750
2558		-33.203125
2559		-37.109375
2560		-33.203125
2561		-35.156250
2562		-33.203125
2563		-37.109375
2564		-29.296875
2565		-37.109375
2566		-27.343750
2567		-35.156250
2568		-25.390625
2569		-33.203125
2570		-25.390625
2571		-31.250000
2572		-23.437500
2573		-29.296875
2574		-21.484375
2575		-29.296875
2576		-23.437500
2577		-25.390625
2578		-21.484375
2579		-25.390625
2580		-17.578125
2581		-23.437500
2582		-15.625000
2583		-23.437500
2584		-15.625000
2585		-21.484375
2586		-13.671875
2587		-19.531250
2588		-11.718750
2589		-17.578125
2590		-9.765625
2591		-17.578125
2592		-9.765625
2593		-13.671875
2594		-9.765625
2595		-11.718750
2596		-7.812500
2597		-11.718750
2598		-3.906250
2599		-11.718750
2600		-1.953125
2601		-9.765625
2602		-1.953125
2603		-7.812500
2604		1.953125
2605		-5.859375
2606		3.906250
2607		-5.859375
2608		3.906250
2609		0.000000
2610		3.906250
2611		1.953125
2612		3.906250
2613		1.953125
2614		7.812500
2615		1.953125
2616		9.765625
2617		3.906250
2618		11.718750
2619		3.906250
2620		13.671875
2621		5.859375
2622		15.625000
2623		7.812500
2624		15.625000
2625		9.765625
2626		17.578125
2627		13.671875
2628		17.578125
2629		13.671875
2630		19.531250
2631		13.671875
2632		21.484375
2633		15.625000
2634		23.437500
2635		17.578125
2636		25.390625
2637		17.578125
2638		25.390625
2639		19.531250
2640		27.343750
2641		21.484375
2642		29.296875
2643		25.390625
2644		27.343750
2645		25.390625
2646		29.296875
2647		25.390625
2648		33.203125
2649		25.390625
2650		35.156250
2651		27.343750
2652		35.156250
2653		29.296875
2654		37.109375
2655		29.296875
2656		39.062500
2657		31.250000
2658		41.015625
2659		33.203125
2660		39.062500
2661		37.109375
2662		39.062500
2663		35.156250
2664		42.968750
2665		37.109375
2666		44.921875
2667		37.109375
2668		44.921875
2669		39.062500
2670		44.921875
2671		39.062500
2672		46.875000
2673		41.015625
2674		48.828125
2675		41.015625
2676		48.828125
2677		44.921875
2678		48.828125
2679		44.921875
2680		50.781250
2681		44.921875
2682		52.734375
2683		44.921875
2684		52.734375
2685		44.921875
2686		52.734375
2687		46.875000
2688		54.687500
2689		46.875000
2690		54.687500
2691		46.875000
2692		54.687500
2693		50.781250
2694		54.687500
2695		52.734375
2696		54.687500
2697		50.781250
2698		56.640625
2699		50.781250
2700		58.593750
2701		50.781250
2702		58.593750
2703		50.781250
2704		58.593750
2705		52.734375
2706		60.546875
2707		52.734375
2708		60.546875
2709		52.734375
2710		60.546875
2711		56.640625
2712		58.593750
2713		52.734375
2714		60.546875
2715		52.734375
2716		62.500000
2717		54.687500
2718		62.500000
2719		54.687500
2720		62.500000
2721		54.687500
2722		62.500000
2723		54.687500
2724		62.500000
2725		54.687500
2726		62.500000
2727		58.593750
2728		60.546875
2729		56.640625
2730		60.546875
2731		54.687500
2732		62.500000
2733		54.687500
2734		62.500000
2735		54.687500
2736		62.500000
2737		54.687500
2738		64.453125
2739		54.687500
2740		62.500000
2741		54.687500
2742		62.500000
2743		56.640625
2744		60.546875
2745		56.640625
2746		58.593750
2747		52.734375
2748		60.546875
2749		52.734375
2750		60.546875
2751		52.734375
2752		60.546875
2753		52.734375
2754		60.546875
2755		52.734375
2756		60.546875
2757		50.781250
2758		58.593750
2759		50.781250
2760		58.593750
2761		52.734375
2762		54.687500
2763		50.781250
2764		56.640625
2765		48.828125
2766		56.640625
2767		46.875000
2768		56.640625
2769		46.875000
2770		54.687500
2771		46.875000
2772		54.687500
2773		46.875000
2774		54.687500
2775		44.921875
2776		52.734375
2777		46.875000
2778		50.781250
2779		46.875000
2780		48.828125
2781		42.968750
2782		50.781250
2783		41.015625
2784		50.781250
2785		41.015625
2786		48.828125
2787		41.015625
2788		48.828125
2789		39.062500
2790		46.875000
2791		37.109375
2792		46.875000
2793		37.109375
2794		44.921875
2795		39.062500
2796		41.015625
2797		35.156250
2798		42.968750
2799		33.203125
2800		41.015625
2801		31.250000
2802		41.015625
2803		31.250000
2804		39.062500
2805		29.296875
2806		37.109375
2807		29.296875
2808		37.109375
2809		27.343750
2810		35.156250
2811		29.296875
2812		31.250000
2813		27.343750
2814		31.250000
2815		23.437500
2816		31.250000
2817		21.484375
2818		31.250000
2819		19.531250
2820		29.296875
2821		19.531250
2822		27.343750
2823		17.578125
2824		25.390625
2825		15.625000
2826		25.390625
2827		15.625000
2828		23.437500
2829		15.625000
2830		19.531250
2831		11.718750
2832		19.531250
2833		9.765625
2834		17.578125
2835		7.812500
2836		17.578125
2837		7.812500
2838		15.625000
2839		5.859375
2840		13.671875
2841		3.906250
2842		11.718750
2843		1.953125
2844		9.765625
2845		3.906250
2846		7.812500
2847		0.000000
2848		5.859375
2849		-1.953125
2850		5.859375
2851		-3.906250
2852		3.906250
2853		-3.906250
2854		3.906250
2855		-5.859375
2856		1.953125
2857		-9.765625
2858		0.000000
2859		-9.765625
2860		-1.953125
2861		-9.765625
2862		-5.859375
2863		-9.765625
2864		-7.812500
2865		-15.625000
2866		-7.812500
2867		-17.578125
2868		-7.812500
2869		-17.578125
2870		-9.765625
2871		-19.531250
2872		-9.765625
2873		-21.484375
2874		-11.718750
2875		-23.437500
2876		-13.671875
2877		-23.437500
2878		-15.625000
2879		-23.437500
2880		-19.531250
2881		-27.343750
2882		-19.531250
2883		-29.296875
2884		-19.531250
2885		-29.296875
2886		-21.484375
2887		-31.250000
2888		-23.437500
2889		-31.250000
2890		-23.437500
2891		-35.156250
2892		-25.390625
2893		-35.156250
2894		-27.343750
2895		-33.203125
2896		-31.250000
2897		-35.156250
2898		-33.203125
2899		-39.062500
2900		-31.250000
2901		-41.015625
2902		-31.250000
2903		-41.015625
2904		-33.203125
2905		-42.968750
2906		-35.156250
2907		-44.921875
2908		-35.156250
2909		-44.921875
2910		-37.109375
2911		-44.921875
2912		-39.062500
2913		-44.921875
2914		-42.968750
2915		-48.828125
2916		-41.015625
2917		-48.828125
2918		-41.015625
2919		-50.781250
2920		-42.968750
2921		-52.734375
2922		-42.968750
2923		-52.734375
2924		-42.968750
2925		-54.687500
2926		-46.875000
2927		-54.687500
2928		-46.875000
2929		-52.734375
2930		-50.781250
2931		-54.687500
2932		-50.781250
2933		-56.640625
2934		-48.828125
2935		-58.593750
2936		-48.828125
2937		-58.593750
2938		-50.781250
2939		-58.593750
2940		-50.781250
2941		-58.593750
2942		-50.781250
2943		-60.546875
2944		-50.781250
2945		-56.640625
2946		-54.687500
2947		-58.593750
2948		-56.640625
2949		-60.546875
2950		-52.734375
2951		-62.500000
2952		-52.734375
2953		-62.500000
2954		-52.734375
2955		-62.500000
2956		-54.687500
2957		-62.500000
2958		-54.687500
2959		-62.500000
2960		-54.687500
2961		-60.546875
2962		-56.640625
2963		-60.546875
2964		-58.593750
2965		-62.500000
2966		-56.640625
2967		-62.500000
2968		-54.687500
2969		-62.500000
2970		-54.687500
2971		-62.500000
2972		-54.687500
2973		-62.500000
2974		-54.687500
2975		-62.500000
2976		-54.687500
2977		-62.500000
2978		-54.687500
2979		-58.593750
2980		-56.640625
2981		-58.593750
2982		-56.640625
2983		-60.546875
2984		-52.734375
2985		-60.546875
2986		-52.734375
2987		-60.546875
2988		-52.734375
2989		-60.546875
2990		-52.734375
2991		-60.546875
2992		-52.734375
2993		-58.593750
2994		-50.781250
2995		-58.593750
2996		-50.781250
2997		-54.687500
2998		-52.734375
2999		-56.640625
3000		-48.828125
3001		-56.640625
3002		-46.875000
3003		-54.687500
3004		-48.828125
3005		-54.687500
3006		-46.875000
3007		-52.734375
3008		-46.875000
3009		-52.734375
3010		-44.921875
3011		-52.734375
3012		-44.921875
3013		-48.828125
3014		-44.921875
3015		-46.875000
3016		-42.968750
3017		-48.828125
3018		-41.015625
3019		-46.875000
3020		-39.062500
3021		-46.875000
3022		-39.062500
3023		-44.921875
3024		-37.109375
3025		-44.921875
3026		-37.109375
3027		-42.968750
3028		-35.156250
3029		-39.062500
3030		-37.109375
3031		-39.062500
3032		-35.156250
3033		-39.062500
3034		-31.250000
3035		-39.062500
3036		-29.296875
3037		-37.109375
3038		-27.343750
3039		-35.156250
3040		-27.343750
3041		-35.156250
3042		-25.390625
3043		-33.203125
3044		-23.437500
3045		-31.250000
3046		-23.437500
3047		-27.343750
3048		-23.437500
3049		-25.390625
3050		-21.484375
3051		-27.343750
3052		-19.531250
3053		-25.390625
3054		-17.578125
3055		-25.390625
3056		-15.625000
3057		-23.437500
3058		-15.625000
3059		-21.484375
3060		-13.671875
3061		-19.531250
3062		-11.718750
3063		-15.625000
3064		-11.718750
3065		-13.671875
3066		-11.718750
3067		-13.671875
3068		-7.812500
3069		-13.671875
3070		-5.859375
3071		-11.718750
3072		-3.906250
3073		-9.765625
3074		-1.953125
3075		-7.812500
3076		-1.953125
3077		-5.859375
3078		0.000000
3079		-5.859375
3080		0.000000
3081		-1.953125
3082		1.953125
3083		0.000000
3084		5.859375
3085		-1.953125
3086		7.812500
3087		0.000000
3088		7.812500
3089		1.953125
3090		9.765625
3091		3.906250
3092		11.718750
3093		5.859375
3094		13.671875
3095		5.859375
3096		13.671875
3097		11.718750
3098		13.671875
3099		11.718750
3100		15.625000
3101		11.718750
3102		19.531250
3103		11.718750
3104		19.531250
3105		13.671875
3106		23.437500
3107		15.625000
3108		23.437500
3109		17.578125
3110		25.390625
3111		17.578125
3112		27.343750
3113		23.437500
3114		25.390625
3115		23.437500
3116		27.343750
3117		23.437500
3118		31.250000
3119		23.437500
3120		33.203125
3121		25.390625
3122		33.203125
3123		27.343750
3124		35.156250
3125		27.343750
3126		37.109375
3127		29.296875
3128		37.109375
3129		29.296875
3130		39.062500
3131		35.156250
3132		37.109375
3133		35.156250
3134		39.062500
3135		33.203125
3136		42.968750
3137		35.156250
3138		42.968750
3139		35.156250
3140		44.921875
3141		37.109375
3142		44.921875
3143		37.109375
3144		46.875000
3145		39.062500
3146		46.875000
3147		42.968750
3148		44.921875
3149		42.968750
3150		46.875000
3151		42.968750
3152		50.781250
3153		42.968750
3154		50.781250
3155		42.968750
3156		52.734375
3157		44.921875
3158		52.734375
3159		44.921875
3160		54.687500
3161		46.875000
3162		54.687500
3163		46.875000
3164		54.687500
3165		50.781250
3166		52.734375
3167		48.828125
3168		56.640625
3169		48.828125
3170		56.640625
3171		48.828125
3172		58.593750
3173		50.781250
3174		58.593750
3175		50.781250
3176		58.593750
3177		50.781250
3178		58.593750
3179		52.734375
3180		60.546875
3181		54.687500
3182		58.593750
3183		56.640625
3184		58.593750
3185		52.734375
3186		62.500000
3187		52.734375
3188		60.546875
3189		52.734375
3190		60.546875
3191		54.687500
3192		62.500000
3193		54.687500
3194		62.500000
3195		54.687500
3196		62.500000
3197		56.640625
3198		60.546875
3199		56.640625
3200		60.546875
3201		54.687500
3202		62.500000
3203		54.687500
3204		62.500000
3205		54.687500
3206		62.500000
3207		54.687500
3208		62.500000
3209		54.687500
3210		62.500000
3211		54.687500
3212		62.500000
3213		54.687500
3214		62.500000
3215		56.640625
3216		58.593750
3217		54.687500
3218		60.546875
3219		52.734375
3220		62.500000
3221		52.734375
3222		60.546875
3223		52.734375
3224		60.546875
3225		52.734375
3226		60.546875
3227		50.781250
3228		60.546875
3229		52.734375
3230		60.546875
3231		54.687500
3232		56.640625
3233		52.734375
3234		56.640625
3235		50.781250
3236		58.593750
3237		48.828125
3238		58.593750
3239		48.828125
3240		56.640625
3241		48.828125
3242		56.640625
3243		46.875000
3244		54.687500
3245		46.875000
3246		54.687500
3247		44.921875
3248		52.734375
3249		48.828125
3250		50.781250
3251		44.921875
3252		50.781250
3253		42.968750
3254		50.781250
3255		42.968750
3256		50.781250
3257		41.015625
3258		48.828125
3259		41.015625
3260		48.828125
3261		39.062500
3262		48.828125
3263		39.062500
3264		46.875000
3265		41.015625
3266		42.968750
3267		39.062500
3268		41.015625
3269		35.156250
3270		42.968750
3271		33.203125
3272		42.968750
3273		33.203125
3274		41.015625
3275		31.250000
3276		39.062500
3277		31.250000
3278		39.062500
3279		29.296875
3280		37.109375
3281		31.250000
3282		35.156250
3283		29.296875
3284		33.203125
3285		25.390625
3286		33.203125
3287		23.437500
3288		33.203125
3289		23.437500
3290		31.250000
3291		21.484375
3292		29.296875
3293		21.484375
3294		27.343750
3295		19.531250
3296		27.343750
3297		19.531250
3298		23.437500
3299		19.531250
3300		21.484375
3301		15.625000
3302		19.531250
3303		11.718750
3304		21.484375
3305		11.718750
3306		19.531250
3307		11.718750
3308		17.578125
3309		7.812500
3310		17.578125
3311		5.859375
3312		13.671875
3313		7.812500
3314		11.718750
3315		5.859375
3316		9.765625
3317		3.906250
3318		7.812500
3319		0.000000
3320		7.812500
3321		0.000000
3322		7.812500
3323		0.000000
3324		3.906250
3325		-1.953125
3326		1.953125
3327		-3.906250
3328		1.953125
3329		-3.906250
3330		0.000000
3331		-5.859375
3332		-1.953125
3333		-7.812500
3334		-3.906250
3335		-9.765625
3336		-5.859375
3337		-13.671875
3338		-5.859375
3339		-13.671875
3340		-5.859375
3341		-13.671875
3342		-9.765625
3343		-17.578125
3344		-9.765625
3345		-17.578125
3346		-13.671875
3347		-19.531250
3348		-13.671875
3349		-19.531250
3350		-17.578125
3351		-21.484375
3352		-17.578125
3353		-23.437500
3354		-17.578125
3355		-25.390625
3356		-19.531250
3357		-25.390625
3358		-21.484375
3359		-27.343750
3360		-23.437500
3361		-29.296875
3362		-25.390625
3363		-31.250000
3364		-25.390625
3365		-31.250000
3366		-27.343750
3367		-33.203125
3368		-29.296875
3369		-35.156250
3370		-31.250000
3371		-35.156250
3372		-31.250000
3373		-37.109375
3374		-33.203125
3375		-39.062500
3376		-33.203125
3377		-39.062500
3378		-35.156250
3379		-41.015625
3380		-37.109375
3381		-42.968750
3382		-39.062500
3383		-42.968750
3384		-39.062500
3385		-44.921875
3386		-39.062500
3387		-44.921875
3388		-41.015625
3389		-46.875000
3390		-42.968750
3391		-46.875000
3392		-42.968750
3393		-48.828125
3394		-44.921875
3395		-48.828125
3396		-46.875000
3397		-52.734375
3398		-46.875000
3399		-50.781250
3400		-48.828125
3401		-50.781250
3402		-48.828125
3403		-54.687500
3404		-48.828125
3405		-54.687500
3406		-50.781250
3407		-54.687500
3408		-50.781250
3409		-56.640625
3410		-50.781250
3411		-56.640625
3412		-52.734375
3413		-56.640625
3414		-52.734375
3415		-58.593750
3416		-52.734375
3417		-56.640625
3418		-54.687500
3419		-58.593750
3420		-54.687500
3421		-58.593750
3422		-54.687500
3423		-60.546875
3424		-54.687500
3425		-60.546875
3426		-56.640625
3427		-60.546875
3428		-54.687500
3429		-60.546875
3430		-56.640625
3431		-60.546875
3432		-56.640625
3433		-60.546875
3434		-56.640625
3435		-60.546875
3436		-58.593750
3437		-60.546875
3438		-56.640625
3439		-60.546875
3440		-58.593750
3441		-60.546875
3442		-56.640625
3443		-60.546875
3444		-56.640625
3445		-60.546875
3446		-56.640625
3447		-60.546875
3448		-56.640625
3449		-60.546875
3450		-56.640625
3451		-58.593750
3452		-56.640625
3453		-60.546875
3454		-56.640625
3455		-58.593750
3456		-56.640625
3457		-58.593750
3458		-54.687500
3459		-58.593750
3460		-54.687500
3461		-58.593750
3462		-54.687500
3463		-58.593750
3464		-54.687500
3465		-58.593750
3466		-52.734375
3467		-56.640625
3468		-52.734375
3469		-56.640625
3470		-50.781250
3471		-54.687500
3472		-52.734375
3473		-54.687500
3474		-50.781250
3475		-54.687500
3476		-50.781250
3477		-52.734375
3478		-48.828125
3479		-52.734375
3480		-48.828125
3481		-52.734375
3482		-46.875000
3483		-50.781250
3484		-46.875000
3485		-48.828125
3486		-46.875000
3487		-48.828125
3488		-44.921875
3489		-48.828125
3490		-44.921875
3491		-46.875000
3492		-42.968750
3493		-44.921875
3494		-42.968750
3495		-44.921875
3496		-41.015625
3497		-44.921875
3498		-39.062500
3499		-42.968750
3500		-39.062500
3501		-41.015625
3502		-37.109375
3503		-41.015625
3504		-35.156250
3505		-39.062500
3506		-35.156250
3507		-39.062500
3508		-33.203125
3509		-37.109375
3510		-33.203125
3511		-35.156250
3512		-31.250000
3513		-33.203125
3514		-29.296875
3515		-33.203125
3516		-29.296875
3517		-31.250000
3518		-27.343750
3519		-29.296875
3520		-25.390625
3521		-29.296875
3522		-23.437500
3523		-27.343750
3524		-23.437500
3525		-25.390625
3526		-21.484375
3527		-23.437500
3528		-19.531250
3529		-21.484375
3530		-17.578125
3531		-21.484375
3532		-17.578125
3533		-21.484375
3534		-15.625000
3535		-17.578125
3536		-13.671875
3537		-15.625000
3538		-11.718750
3539		-13.671875
3540		-9.765625
3541		-13.671875
3542		-9.765625
3543		-11.718750
3544		-7.812500
3545		-9.765625
3546		-5.859375
3547		-7.812500
3548		-3.906250
3549		-7.812500
3550		-1.953125
3551		-5.859375
3552		-1.953125
3553		-3.906250
3554		1.953125
3555		-1.953125
3556		1.953125
3557		0.000000
3558		3.906250
3559		0.000000
3560		3.906250
3561		1.953125
3562		5.859375
3563		3.906250
3564		7.812500
3565		5.859375
3566		11.718750
3567		7.812500
3568		11.718750
3569		9.765625
3570		11.718750
3571		9.765625
3572		13.671875
3573		11.718750
3574		15.625000
3575		13.671875
3576		17.578125
3577		13.671875
3578		19.531250
3579		15.625000
3580		19.531250
3581		17.578125
3582		21.484375
3583		17.578125
3584		23.437500
3585		21.484375
3586		23.437500
3587		21.484375
3588		27.343750
3589		23.437500
3590		27.343750
3591		25.390625
3592		29.296875
3593		25.390625
3594		29.296875
3595		27.343750
3596		31.250000
3597		29.296875
3598		33.203125
3599		29.296875
3600		33.203125
3601		31.250000
3602		35.156250
3603		33.203125
3604		35.156250
3605		33.203125
3606		37.109375
3607		35.156250
3608		39.062500
3609		35.156250
3610		39.062500
3611		37.109375
3612		41.015625
3613		39.062500
3614		42.968750
3615		39.062500
3616		42.968750
3617		39.062500
3618		44.921875
3619		41.015625
3620		44.921875
3621		42.968750
3622		46.875000
3623		42.968750
3624		46.875000
3625		44.921875
3626		48.828125
3627		44.921875
3628		48.828125
3629		44.921875
3630		50.781250
3631		46.875000
3632		50.781250
3633		46.875000
3634		52.734375
3635		48.828125
3636		50.781250
3637		48.828125
3638		52.734375
3639		48.828125
3640		52.734375
3641		50.781250
3642		54.687500
3643		50.781250
3644		54.687500
3645		52.734375
3646		56.640625
3647		52.734375
3648		56.640625
3649		52.734375
3650		56.640625
3651		54.687500
3652		56.640625
3653		54.687500
3654		56.640625
3655		54.687500
3656		58.593750
3657		54.687500
3658		58.593750
3659		56.640625
3660		58.593750
3661		56.640625
3662		58.593750
3663		56.640625
3664		60.546875
3665		56.640625
3666		60.546875
3667		56.640625
3668		60.546875
3669		56.640625
3670		58.593750
3671		56.640625
3672		62.500000
3673		56.640625
3674		60.546875
3675		56.640625
3676		60.546875
3677		56.640625
3678		60.546875
3679		56.640625
3680		60.546875
3681		56.640625
3682		60.546875
3683		56.640625
3684		60.546875
3685		56.640625
3686		60.546875
3687		56.640625
3688		58.593750
3689		56.640625
3690		60.546875
3691		54.687500
3692		58.593750
3693		56.640625
3694		60.546875
3695		54.687500
3696		60.546875
3697		54.687500
3698		58.593750
3699		54.687500
3700		58.593750
3701		54.687500
3702		58.593750
3703		54.687500
3704		56.640625
3705		52.734375
3706		56.640625
3707		52.734375
3708		56.640625
3709		52.734375
3710		56.640625
3711		52.734375
3712		56.640625
3713		50.781250
3714		54.687500
3715		48.828125
3716		54.687500
3717		48.828125
3718		52.734375
3719		48.828125
3720		52.734375
3721		48.828125
3722		50.781250
3723		46.875000
3724		50.781250
3725		44.921875
3726		50.781250
3727		44.921875
3728		48.828125
3729		44.921875
3730		48.828125
3731		42.968750
3732		46.875000
3733		41.015625
3734		46.875000
3735		42.968750
3736		44.921875
3737		41.015625
3738		44.921875
3739		39.062500
3740		44.921875
3741		39.062500
3742		42.968750
3743		37.109375
3744		41.015625
3745		35.156250
3746		41.015625
3747		35.156250
3748		39.062500
3749		33.203125
3750		37.109375
3751		31.250000
3752		37.109375
3753		31.250000
3754		35.156250
3755		31.250000
3756		33.203125
3757		27.343750
3758		33.203125
3759		27.343750
3760		31.250000
3761		27.343750
3762		31.250000
3763		25.390625
3764		29.296875
3765		23.437500
3766		27.343750
3767		21.484375
3768		25.390625
3769		21.484375
3770		23.437500
3771		19.531250
3772		23.437500
3773		17.578125
3774		21.484375
3775		15.625000
3776		19.531250
3777		15.625000
3778		19.531250
3779		13.671875
3780		17.578125
3781		11.718750
3782		15.625000
3783		9.765625
3784		13.671875
3785		9.765625
3786		13.671875
3787		7.812500
3788		11.718750
3789		5.859375
3790		9.765625
3791		3.906250
3792		7.812500
3793		1.953125
3794		7.812500
3795		1.953125
3796		5.859375
3797		0.000000
3798		3.906250
3799		-3.906250
3800		1.953125
3801		-3.906250
3802		0.000000
3803		-5.859375
3804		-1.953125
3805		-5.859375
3806		-3.906250
3807		-9.765625
3808		-1.953125
3809		-11.718750
3810		-5.859375
3811		-11.718750
3812		-7.812500
3813		-13.671875
3814		-9.765625
3815		-13.671875
3816		-9.765625
3817		-17.578125
3818		-11.718750
3819		-17.578125
3820		-13.671875
3821		-19.531250
3822		-15.625000
3823		-19.531250
3824		-15.625000
3825		-23.437500
3826		-17.578125
3827		-23.437500
3828		-19.531250
3829		-25.390625
3830		-21.484375
3831		-25.390625
3832		-23.437500
3833		-29.296875
3834		-23.437500
3835		-29.296875
3836		-25.390625
3837		-31.250000
3838		-27.343750
3839		-31.250000
3840		-27.343750
3841		-33.203125
3842		-29.296875
3843		-35.156250
3844		-31.250000
3845		-35.156250
3846		-31.250000
3847		-37.109375
3848		-33.203125
3849		-39.062500
3850		-35.156250
3851		-41.015625
3852		-37.109375
3853		-41.015625
3854		-37.109375
3855		-41.015625
3856		-39.062500
3857		-42.968750
3858		-39.062500
3859		-44.921875
3860		-41.015625
3861		-46.875000
3862		-42.968750
3863		-46.875000
3864		-42.968750
3865		-48.828125
3866		-42.968750
3867		-48.828125
3868		-44.921875
3869		-50.781250
3870		-46.875000
3871		-50.781250
3872		-46.875000
3873		-52.734375
3874		-46.875000
3875		-52.734375
3876		-48.828125
3877		-52.734375
3878		-50.781250
3879		-54.687500
3880		-50.781250
3881		-54.687500
3882		-50.781250
3883		-56.640625
3884		-52.734375
3885		-56.640625
3886		-52.734375
3887		-56.640625
3888		-54.687500
3889		-56.640625
3890		-54.687500
3891		-58.593750
3892		-52.734375
3893		-58.593750
3894		-54.687500
3895		-58.593750
3896		-54.687500
3897		-60.546875
3898		-56.640625
3899		-60.546875
3900		-56.640625
3901		-60.546875
3902		-56.640625
3903		-60.546875
3904		-56.640625
3905		-60.546875
3906		-56.640625
3907		-60.546875
3908		-56.640625
3909		-60.546875
3910		-58.593750
3911		-60.546875
3912		-58.593750
3913		-60.546875
3914		-58.593750
3915		-60.546875
3916		-58.593750
3917		-60.546875
3918		-58.593750
3919		-60.546875
3920		-56.640625
3921		-60.546875
3922		-58.593750
3923		-62.500000
3924		-56.640625
3925		-60.546875
3926		-56.640625
3927		-60.546875
3928		-56.640625
3929		-60.546875
3930		-56.640625
3931		-58.593750
3932		-56.640625
3933		-60.546875
3934		-54.687500
3935		-58.593750
3936		-54.687500
3937		-56.640625
3938		-54.687500
3939		-56.640625
3940		-54.687500
3941		-56.640625
3942		-52.734375
3943		-56.640625
3944		-52.734375
3945		-56.640625
3946		-50.781250
3947		-54.687500
3948		-52.734375
3949		-54.687500
3950		-50.781250
3951		-52.734375
3952		-48.828125
3953		-52.734375
3954		-48.828125
3955		-50.781250
3956		-48.828125
3957		-50.781250
3958		-44.921875
3959		-50.781250
3960		-46.875000
3961		-48.828125
3962		-44.921875
3963		-46.875000
3964		-44.921875
3965		-46.875000
3966		-42.968750
3967		-46.875000
3968		-42.968750
3969		-44.921875
3970		-41.015625
3971		-42.968750
3972		-41.015625
3973		-41.015625
3974		-39.062500
3975		-41.015625
3976		-37.109375
3977		-41.015625
3978		-37.109375
3979		-39.062500
3980		-35.156250
3981		-37.109375
3982		-33.203125
3983		-37.109375
3984		-31.250000
3985		-35.156250
3986		-31.250000
3987		-35.156250
3988		-29.296875
3989		-31.250000
3990		-29.296875
3991		-31.250000
3992		-27.343750
3993		-29.296875
3994		-25.390625
3995		-27.343750
3996		-23.437500
3997		-27.343750
3998		-21.484375
3999		-25.390625
4000		-21.484375
4001		-23.437500
4002		-19.531250
4003		-21.484375
4004		-17.578125
4005		-19.531250
4006		-17.578125
4007		-19.531250
4008		-13.671875
4009		-17.578125
4010		-13.671875
4011		-15.625000
4012		-11.718750
4013		-15.625000
4014		-9.765625
4015		-13.671875
4016		-9.765625
4017		-11.718750
4018		-7.812500
4019		-9.765625
4020		-5.859375
4021		-7.812500
4022		-3.906250
4023		-5.859375
4024		-3.906250
4025		-5.859375
4026		0.000000
4027		-3.906250
4028		0.000000
4029		-1.953125
4030		1.953125
4031		0.000000
4032		3.906250
4033		1.953125
4034		5.859375
4035		1.953125
4036		5.859375
4037		3.906250
4038		7.812500
4039		5.859375
4040		9.765625
4041		7.812500
4042		11.718750
4043		9.765625
4044		13.671875
4045		9.765625
4046		15.625000
4047		11.718750
4048		15.625000
4049		11.718750
4050		17.578125
4051		15.625000
4052		19.531250
4053		15.625000
4054		21.484375
4055		17.578125
4056		21.484375
4057		19.531250
4058		23.437500
4059		19.531250
4060		25.390625
4061		21.484375
4062		25.390625
4063		23.437500
4064		27.343750
4065		25.390625
4066		29.296875
4067		25.390625
4068		29.296875
4069		27.343750
4070		31.250000
4071		29.296875
4072		31.250000
4073		31.250000
4074		33.203125
4075		31.250000
4076		35.156250
4077		31.250000
4078		37.109375
4079		33.203125
4080		37.109375
4081		33.203125
4082		39.062500
4083		35.156250
4084		39.062500
4085		37.109375
4086		41.015625
4087		37.109375
4088		42.968750
4089		39.062500
4090		42.968750
4091		39.062500
4092		44.921875
4093		41.015625
4094		44.921875
4095		42.968750
4096		44.921875
4097		42.968750
4098		46.875000
4099		44.921875
4100		48.828125
4101		44.921875
4102		48.828125
4103		44.921875
4104		48.828125
4105		46.875000
4106		50.781250
4107		48.828125
4108		50.781250
4109		48.828125
4110		52.734375
4111		48.828125
4112		52.734375
4113		50.781250
4114		52.734375
4115		50.781250
4116		54.687500
4117		50.781250
4118		54.687500
4119		50.781250
4120		54.687500
4121		50.781250
4122		56.640625
4123		52.734375
4124		56.640625
4125		52.734375
4126		56.640625
4127		54.687500
4128		58.593750
4129		54.687500
4130		58.593750
4131		54.687500
4132		58.593750
4133		54.687500
4134		58.593750
4135		54.687500
4136		58.593750
4137		54.687500
4138		60.546875
4139		56.640625
4140		58.593750
4141		56.640625
4142		58.593750
4143		54.687500
4144		58.593750
4145		56.640625
4146		60.546875
4147		56.640625
4148		60.546875
4149		56.640625
4150		60.546875
4151		56.640625
4152		60.546875
4153		56.640625
4154		60.546875
4155		56.640625
4156		58.593750
4157		56.640625
4158		58.593750
4159		56.640625
4160		60.546875
4161		54.687500
4162		58.593750
4163		54.687500
4164		58.593750
4165		56.640625
4166		58.593750
4167		54.687500
4168		58.593750
4169		54.687500
4170		58.593750
4171		52.734375
4172		58.593750
4173		54.687500
4174		56.640625
4175		52.734375
4176		56.640625
4177		52.734375
4178		56.640625
4179		52.734375
4180		56.640625
4181		52.734375
4182		56.640625
4183		50.781250
4184		54.687500
4185		50.781250
4186		54.687500
4187		48.828125
4188		54.687500
4189		50.781250
4190		52.734375
4191		48.828125
4192		52.734375
4193		48.828125
4194		50.781250
4195		46.875000
4196		50.781250
4197		46.875000
4198		50.781250
4199		46.875000
4200		48.828125
4201		44.921875
4202		48.828125
4203		44.921875
4204		48.828125
4205		42.968750
4206		46.875000
4207		42.968750
4208		44.921875
4209		41.015625
4210		44.921875
4211		41.015625
4212		42.968750
4213		39.062500
4214		42.968750
4215		39.062500
4216		41.015625
4217		37.109375
4218		41.015625
4219		37.109375
4220		39.062500
4221		35.156250
4222		39.062500
4223		33.203125
4224		37.109375
4225		33.203125
4226		35.156250
4227		31.250000
4228		35.156250
4229		29.296875
4230		33.203125
4231		29.296875
4232		33.203125
4233		27.343750
4234		31.250000
4235		25.390625
4236		29.296875
4237		23.437500
4238		27.343750
4239		23.437500
4240		27.343750
4241		21.484375
4242		25.390625
4243		19.531250
4244		25.390625
4245		19.531250
4246		23.437500
4247		17.578125
4248		21.484375
4249		15.625000
4250		19.531250
4251		15.625000
4252		17.578125
4253		13.671875
4254		17.578125
4255		9.765625
4256		15.625000
4257		9.765625
4258		13.671875
4259		7.812500
4260		11.718750
4261		7.812500
4262		11.718750
4263		5.859375
4264		9.765625
4265		3.906250
4266		7.812500
4267		1.953125
4268		5.859375
4269		0.000000
4270		3.906250
4271		-1.953125
4272		3.906250
4273		-1.953125
4274		0.000000
4275		-3.906250
4276		0.000000
4277		-5.859375
4278		-1.953125
4279		-7.812500
4280		-3.906250
4281		-7.812500
4282		-3.906250
4283		-9.765625
4284		-5.859375
4285		-11.718750
4286		-7.812500
4287		-13.671875
4288		-9.765625
4289		-13.671875
4290		-11.718750
4291		-15.625000
4292		-13.671875
4293		-19.531250
4294		-13.671875
4295		-19.531250
4296		-15.625000
4297		-21.484375
4298		-17.578125
4299		-21.484375
4300		-17.578125
4301		-25.390625
4302		-19.531250
4303		-25.390625
4304		-21.484375
4305		-27.343750
4306		-23.437500
4307		-27.343750
4308		-25.390625
4309		-29.296875
4310		-27.343750
4311		-31.250000
4312		-27.343750
4313		-33.203125
4314		-29.296875
4315		-33.203125
4316		-31.250000
4317		-35.156250
4318		-31.250000
4319		-37.109375
4320		-33.203125
4321		-39.062500
4322		-33.203125
4323		-39.062500
4324		-35.156250
4325		-41.015625
4326		-37.109375
4327		-41.015625
4328		-39.062500
4329		-42.968750
4330		-39.062500
4331		-44.921875
4332		-41.015625
4333		-44.921875
4334		-41.015625
4335		-46.875000
4336		-42.968750
4337		-46.875000
4338		-42.968750
4339		-48.828125
4340		-44.921875
4341		-48.828125
4342		-46.875000
4343		-50.781250
4344		-46.875000
4345		-52.734375
4346		-46.875000
4347		-52.734375
4348		-48.828125
4349		-52.734375
4350		-48.828125
4351		-54.687500
4352		-50.781250
4353		-54.687500
4354		-50.781250
4355		-54.687500
4356		-50.781250
4357		-54.687500
4358		-52.734375
4359		-56.640625
4360		-52.734375
4361		-58.593750
4362		-52.734375
4363		-58.593750
4364		-54.687500
4365		-58.593750
4366		-54.687500
4367		-58.593750
4368		-54.687500
4369		-60.546875
4370		-56.640625
4371		-60.546875
4372		-56.640625
4373		-60.546875
4374		-56.640625
4375		-60.546875
4376		-56.640625
4377		-60.546875
4378		-56.640625
4379		-60.546875
4380		-56.640625
4381		-60.546875
4382		-56.640625
4383		-62.500000
4384		-58.593750
4385		-60.546875
4386		-58.593750
4387		-62.500000
4388		-56.640625
4389		-62.500000
4390		-56.640625
4391		-60.546875
4392		-56.640625
4393		-60.546875
4394		-58.593750
4395		-60.546875
4396		-58.593750
4397		-60.546875
4398		-56.640625
4399		-60.546875
4400		-56.640625
4401		-60.546875
4402		-56.640625
4403		-60.546875
4404		-56.640625
4405		-60.546875
4406		-56.640625
4407		-60.546875
4408		-54.687500
4409		-58.593750
4410		-56.640625
4411		-58.593750
4412		-54.687500
4413		-56.640625
4414		-54.687500
4415		-56.640625
4416		-52.734375
4417		-56.640625
4418		-52.734375
4419		-56.640625
4420		-52.734375
4421		-54.687500
4422		-50.781250
4423		-54.687500
4424		-50.781250
4425		-52.734375
4426		-50.781250
4427		-52.734375
4428		-48.828125
4429		-52.734375
4430		-46.875000
4431		-50.781250
4432		-46.875000
4433		-48.828125
4434		-46.875000
4435		-48.828125
4436		-44.921875
4437		-48.828125
4438		-44.921875
4439		-46.875000
4440		-42.968750
4441		-46.875000
4442		-42.968750
4443		-44.921875
4444		-41.015625
4445		-44.921875
4446		-39.062500
4447		-42.968750
4448		-39.062500
4449		-41.015625
4450		-37.109375
4451		-41.015625
4452		-35.156250
4453		-39.062500
4454		-35.156250
4455		-37.109375
4456		-33.203125
4457		-37.109375
4458		-31.250000
4459		-35.156250
4460		-31.250000
4461		-33.203125
4462		-29.296875
4463		-31.250000
4464		-29.296875
4465		-31.250000
4466		-27.343750
4467		-29.296875
4468		-25.390625
4469		-27.343750
4470		-25.390625
4471		-27.343750
4472		-21.484375
4473		-25.390625
4474		-19.531250
4475		-23.437500
4476		-19.531250
4477		-21.484375
4478		-19.531250
4479		-21.484375
4480		-15.625000
4481		-19.531250
4482		-15.625000
4483		-17.578125
4484		-13.671875
4485		-15.625000
4486		-11.718750
4487		-15.625000
4488		-9.765625
4489		-13.671875
4490		-7.812500
4491		-11.718750
4492		-7.812500
4493		-9.765625
4494		-5.859375
4495		-7.812500
4496		-3.906250
4497		-5.859375
4498		-1.953125
4499		-5.859375
4500		-1.953125
4501		-3.906250
4502		0.000000
4503		-1.953125
4504		1.953125
4505		0.000000
4506		3.906250
4507		0.000000
4508		5.859375
4509		1.953125
4510		5.859375
4511		3.906250
4512		7.812500
4513		5.859375
4514		9.765625
4515		7.812500
4516		11.718750
4517		7.812500
4518		13.671875
4519		9.765625
4520		13.671875
4521		11.718750
4522		15.625000
4523		13.671875
4524		17.578125
4525		13.671875
4526		17.578125
4527		17.578125
4528		19.531250
4529		17.578125
4530		21.484375
4531		19.531250
4532		23.437500
4533		21.484375
4534		25.390625
4535		21.484375
4536		25.390625
4537		23.437500
4538		27.343750
4539		25.390625
4540		29.296875
4541		25.390625
4542		31.250000
4543		27.343750
4544		31.250000
4545		29.296875
4546		33.203125
4547		29.296875
4548		35.156250
4549		31.250000
4550		35.156250
4551		31.250000
4552		35.156250
4553		33.203125
4554		37.109375
4555		35.156250
4556		39.062500
4557		35.156250
4558		41.015625
4559		37.109375
4560		41.015625
4561		39.062500
4562		41.015625
4563		39.062500
4564		42.968750
4565		41.015625
4566		44.921875
4567		41.015625
4568		44.921875
4569		42.968750
4570		44.921875
4571		42.968750
4572		46.875000
4573		44.921875
4574		48.828125
4575		44.921875
4576		48.828125
4577		44.921875
4578		48.828125
4579		46.875000
4580		50.781250
4581		46.875000
4582		50.781250
4583		48.828125
4584		52.734375
4585		48.828125
4586		52.734375
4587		48.828125
4588		52.734375
4589		50.781250
4590		54.687500
4591		50.781250
4592		54.687500
4593		52.734375
4594		54.687500
4595		52.734375
4596		54.687500
4597		52.734375
4598		56.640625
4599		52.734375
4600		56.640625
4601		54.687500
4602		56.640625
4603		54.687500
4604		56.640625
4605		54.687500
4606		58.593750
4607		54.687500
4608		58.593750
4609		54.687500
4610		60.546875
4611		56.640625
4612		58.593750
4613		56.640625
4614		58.593750
4615		56.640625
4616		58.593750
4617		56.640625
4618		60.546875
4619		56.640625
4620		60.546875
4621		56.640625
4622		60.546875
4623		56.640625
4624		60.546875
4625		56.640625
4626		60.546875
4627		56.640625
4628		58.593750
4629		54.687500
4630		60.546875
4631		56.640625
4632		60.546875
4633		56.640625
4634		60.546875
4635		54.687500
4636		58.593750
4637		56.640625
4638		58.593750
4639		54.687500
4640		58.593750
4641		54.687500
4642		58.593750
4643		54.687500
4644		58.593750
4645		54.687500
4646		56.640625
4647		52.734375
4648		58.593750
4649		52.734375
4650		56.640625
4651		52.734375
4652		56.640625
4653		52.734375
4654		56.640625
4655		52.734375
4656		56.640625
4657		50.781250
4658		54.687500
4659		50.781250
4660		54.687500
4661		50.781250
4662		52.734375
4663		48.828125
4664		52.734375
4665		48.828125
4666		52.734375
4667		46.875000
4668		50.781250
4669		46.875000
4670		50.781250
4671		46.875000
4672		50.781250
4673		44.921875
4674		48.828125
4675		42.968750
4676		48.828125
4677		44.921875
4678		46.875000
4679		42.968750
4680		46.875000
4681		42.968750
4682		44.921875
4683		41.015625
4684		44.921875
4685		39.062500
4686		44.921875
4687		39.062500
4688		42.968750
4689		37.109375
4690		41.015625
4691		37.109375
4692		41.015625
4693		35.156250
4694		41.015625
4695		35.156250
4696		37.109375
4697		33.203125
4698		37.109375
4699		31.250000
4700		35.156250
4701		29.296875
4702		33.203125
4703		29.296875
4704		33.203125
4705		27.343750
4706		31.250000
4707		25.390625
4708		31.250000
4709		25.390625
4710		29.296875
4711		23.437500
4712		27.343750
4713		21.484375
4714		25.390625
4715		21.484375
4716		25.390625
4717		19.531250
4718		23.437500
4719		17.578125
4720		21.484375
4721		17.578125
4722		19.531250
4723		15.625000
4724		19.531250
4725		11.718750
4726		17.578125
4727		13.671875
4728		15.625000
4729		11.718750
4730		13.671875
4731		7.812500
4732		13.671875
4733		7.812500
4734		11.718750
4735		5.859375
4736		9.765625
4737		3.906250
4738		7.812500
4739		1.953125
4740		7.812500
4741		1.953125
4742		5.859375
4743		0.000000
4744		5.859375
4745		-1.953125
4746		1.953125
4747		-1.953125
4748		0.000000
4749		-3.906250
4750		-1.953125
4751		-5.859375
4752		-3.906250
4753		-7.812500
4754		-3.906250
4755		-9.765625
4756		-5.859375
4757		-9.765625
4758		-7.812500
4759		-13.671875
4760		-9.765625
4761		-13.671875
4762		-9.765625
4763		-15.625000
4764		-11.718750
4765		-17.578125
4766		-13.671875
4767		-19.531250
4768		-13.671875
4769		-19.531250
4770		-15.625000
4771		-23.437500
4772		-17.578125
4773		-23.437500
4774		-19.531250
4775		-25.390625
4776		-21.484375
4777		-25.390625
4778		-21.484375
4779		-27.343750
4780		-23.437500
4781		-29.296875
4782		-25.390625
4783		-31.250000
4784		-27.343750
4785		-31.250000
4786		-27.343750
4787		-33.203125
4788		-29.296875
4789		-35.156250
4790		-31.250000
4791		-37.109375
4792		-31.250000
4793		-39.062500
4794		-33.203125
4795		-39.062500
4796		-35.156250
4797		-41.015625
4798		-37.109375
4799		-41.015625
4800		-37.109375
4801		-42.968750
4802		-39.062500
4803		-42.968750
4804		-41.015625
4805		-44.921875
4806		-41.015625
4807		-46.875000
4808		-42.968750
4809		-48.828125
4810		-42.968750
4811		-46.875000
4812		-44.921875
4813		-48.828125
4814		-46.875000
4815		-48.828125
4816		-46.875000
4817		-50.781250
4818		-46.875000
4819		-52.734375
4820		-48.828125
4821		-52.734375
4822		-48.828125
4823		-54.687500
4824		-50.781250
4825		-54.687500
4826		-50.781250
4827		-56.640625
4828		-50.781250
4829		-54.687500
4830		-52.734375
4831		-56.640625
4832		-54.687500
4833		-58.593750
4834		-54.687500
4835		-58.593750
4836		-54.687500
4837		-58.593750
4838		-54.687500
4839		-58.593750
4840		-56.640625
4841		-58.593750
4842		-56.640625
4843		-60.546875
4844		-56.640625
4845		-60.546875
4846		-58.593750
4847		-60.546875
4848		-58.593750
4849		-62.500000
4850		-56.640625
4851		-60.546875
4852		-58.593750
4853		-62.500000
4854		-58.593750
4855		-62.500000
4856		-58.593750
4857		-62.500000
4858		-58.593750
4859		-62.500000
4860		-58.593750
4861		-62.500000
4862		-58.593750
4863		-60.546875
4864		-58.593750
4865		-62.500000
4866		-56.640625
4867		-62.500000
4868		-58.593750
4869		-62.500000
4870		-58.593750
4871		-60.546875
4872		-58.593750
4873		-60.546875
4874		-58.593750
4875		-60.546875
4876		-56.640625
4877		-60.546875
4878		-56.640625
4879		-60.546875
4880		-56.640625
4881		-58.593750
4882		-56.640625
4883		-60.546875
4884		-56.640625
4885		-58.593750
4886		-54.687500
4887		-58.593750
4888		-54.687500
4889		-58.593750
4890		-54.687500
4891		-56.640625
4892		-52.734375
4893		-56.640625
4894		-52.734375
4895		-54.687500
4896		-52.734375
4897		-54.687500
4898		-52.734375
4899		-54.687500
4900		-50.781250
4901		-54.687500
4902		-50.781250
4903		-52.734375
4904		-48.828125
4905		-52.734375
4906		-46.875000
4907		-50.781250
4908		-46.875000
4909		-50.781250
4910		-46.875000
4911		-48.828125
4912		-44.921875
4913		-46.875000
4914		-44.921875
4915		-46.875000
4916		-42.968750
4917		-46.875000
4918		-41.015625
4919		-44.921875
4920		-41.015625
4921		-42.968750
4922		-39.062500
4923		-41.015625
4924		-37.109375
4925		-41.015625
4926		-37.109375
4927		-39.062500
4928		-35.156250
4929		-37.109375
4930		-35.156250
4931		-37.109375
4932		-33.203125
4933		-37.109375
4934		-31.250000
4935		-33.203125
4936		-31.250000
4937		-33.203125
4938		-29.296875
4939		-31.250000
4940		-27.343750
4941		-31.250000
4942		-25.390625
4943		-29.296875
4944		-25.390625
4945		-29.296875
4946		-23.437500
4947		-25.390625
4948		-21.484375
4949		-23.437500
4950		-21.484375
4951		-23.437500
4952		-19.531250
4953		-21.484375
4954		-17.578125
4955		-19.531250
4956		-15.625000
4957		-17.578125
4958		-13.671875
4959		-17.578125
4960		-11.718750
4961		-15.625000
4962		-9.765625
4963		-13.671875
4964		-9.765625
4965		-11.718750
4966		-7.812500
4967		-11.718750
4968		-5.859375
4969		-9.765625
4970		-5.859375
4971		-7.812500
4972		-3.906250
4973		-5.859375
4974		-1.953125
4975		-3.906250
4976		0.000000
4977		-1.953125
4978		1.953125
4979		-1.953125
4980		1.953125
4981		0.000000
4982		3.906250
4983		1.953125
4984		5.859375
4985		3.906250
4986		7.812500
4987		3.906250
4988		7.812500
4989		5.859375
4990		9.765625
4991		7.812500
4992		11.718750
4993		9.765625
4994		13.671875
4995		9.765625
4996		15.625000
4997		13.671875
4998		15.625000
4999		13.671875
5000		19.531250
5001		13.671875
5002		19.531250
5003		17.578125
5004		21.484375
5005		17.578125
5006		23.437500
5007		19.531250
5008		25.390625
5009		21.484375
5010		25.390625
5011		21.484375
5012		27.343750
5013		25.390625
5014		27.343750
5015		25.390625
5016		29.296875
5017		25.390625
5018		31.250000
5019		27.343750
5020		31.250000
5021		29.296875
5022		33.203125
5023		31.250000
5024		35.156250
5025		31.250000
5026		37.109375
5027		33.203125
5028		37.109375
5029		33.203125
5030		39.062500
5031		35.156250
5032		39.062500
5033		37.109375
5034		41.015625
5035		37.109375
5036		41.015625
5037		39.062500
5038		42.968750
5039		39.062500
5040		42.968750
5041		41.015625
5042		44.921875
5043		41.015625
5044		44.921875
5045		42.968750
5046		48.828125
5047		44.921875
5048		46.875000
5049		44.921875
5050		46.875000
5051		44.921875
5052		48.828125
5053		46.875000
5054		50.781250
5055		46.875000
5056		50.781250
5057		48.828125
5058		50.781250
5059		48.828125
5060		52.734375
5061		48.828125
5062		52.734375
5063		48.828125
5064		52.734375
5065		50.781250
5066		52.734375
5067		50.781250
5068		54.687500
5069		50.781250
5070		56.640625
5071		52.734375
5072		56.640625
5073		52.734375
5074		56.640625
5075		52.734375
5076		56.640625
5077		52.734375
5078		56.640625
5079		52.734375
5080		58.593750
5081		54.687500
5082		58.593750
5083		52.734375
5084		58.593750
5085		54.687500
5086		58.593750
5087		54.687500
5088		58.593750
5089		54.687500
5090		60.546875
5091		54.687500
5092		58.593750
5093		54.687500
5094		58.593750
5095		54.687500
5096		60.546875
5097		56.640625
5098		58.593750
5099		56.640625
5100		58.593750
5101		56.640625
5102		58.593750
5103		54.687500
5104		58.593750
5105		54.687500
5106		58.593750
5107		56.640625
5108		58.593750
5109		54.687500
5110		58.593750
5111		54.687500
5112		58.593750
5113		54.687500
5114		58.593750
5115		54.687500
5116		58.593750
5117		54.687500
5118		56.640625
5119		52.734375
5120		56.640625
5121		52.734375
5122		56.640625
5123		52.734375
5124		56.640625
5125		52.734375
5126		56.640625
5127		52.734375
5128		54.687500
5129		50.781250
5130		54.687500
5131		50.781250
5132		54.687500
5133		50.781250
5134		52.734375
5135		48.828125
5136		54.687500
5137		48.828125
5138		52.734375
5139		48.828125
5140		52.734375
5141		46.875000
5142		50.781250
5143		46.875000
5144		50.781250
5145		46.875000
5146		48.828125
5147		44.921875
5148		48.828125
5149		44.921875
5150		46.875000
5151		42.968750
5152		46.875000
5153		42.968750
5154		46.875000
5155		41.015625
5156		44.921875
5157		39.062500
5158		44.921875
5159		39.062500
5160		42.968750
5161		37.109375
5162		42.968750
5163		37.109375
5164		41.015625
5165		37.109375
5166		39.062500
5167		35.156250
5168		39.062500
5169		33.203125
5170		37.109375
5171		33.203125
5172		37.109375
5173		31.250000
5174		35.156250
5175		29.296875
5176		33.203125
5177		27.343750
5178		33.203125
5179		27.343750
5180		31.250000
5181		27.343750
5182		29.296875
5183		25.390625
5184		29.296875
5185		23.437500
5186		27.343750
5187		21.484375
5188		25.390625
5189		19.531250
5190		23.437500
5191		19.531250
5192		23.437500
5193		17.578125
5194		21.484375
5195		15.625000
5196		19.531250
5197		15.625000
5198		19.531250
5199		13.671875
5200		17.578125
5201		9.765625
5202		15.625000
5203		9.765625
5204		13.671875
5205		9.765625
5206		11.718750
5207		7.812500
5208		11.718750
5209		5.859375
5210		9.765625
5211		3.906250
5212		7.812500
5213		1.953125
5214		7.812500
5215		1.953125
5216		3.906250
5217		0.000000
5218		1.953125
5219		-1.953125
5220		3.906250
5221		-3.906250
5222		0.000000
5223		-5.859375
5224		-1.953125
5225		-5.859375
5226		-3.906250
5227		-7.812500
5228		-3.906250
5229		-9.765625
5230		-5.859375
5231		-11.718750
5232		-5.859375
5233		-13.671875
5234		-9.765625
5235		-13.671875
5236		-9.765625
5237		-17.578125
5238		-11.718750
5239		-17.578125
5240		-13.671875
5241		-19.531250
5242		-15.625000
5243		-19.531250
5244		-17.578125
5245		-21.484375
5246		-17.578125
5247		-25.390625
5248		-19.531250
5249		-25.390625
5250		-21.484375
5251		-27.343750
5252		-23.437500
5253		-29.296875
5254		-23.437500
5255		-29.296875
5256		-25.390625
5257		-31.250000
5258		-27.343750
5259		-33.203125
5260		-29.296875
5261		-33.203125
5262		-31.250000
5263		-35.156250
5264		-31.250000
5265		-35.156250
5266		-33.203125
5267		-37.109375
5268		-35.156250
5269		-41.015625
5270		-33.203125
5271		-41.015625
5272		-37.109375
5273		-41.015625
5274		-37.109375
5275		-42.968750
5276		-39.062500
5277		-44.921875
5278		-41.015625
5279		-44.921875
5280		-41.015625
5281		-46.875000
5282		-42.968750
5283		-46.875000
5284		-44.921875
5285		-48.828125
5286		-44.921875
5287		-48.828125
5288		-44.921875
5289		-50.781250
5290		-46.875000
5291		-50.781250
5292		-48.828125
5293		-52.734375
5294		-48.828125
5295		-52.734375
5296		-48.828125
5297		-54.687500
5298		-50.781250
5299		-54.687500
5300		-52.734375
5301		-54.687500
5302		-52.734375
5303		-56.640625
5304		-52.734375
5305		-56.640625
5306		-54.687500
5307		-56.640625
5308		-54.687500
5309		-58.593750
5310		-54.687500
5311		-58.593750
5312		-54.687500
5313		-58.593750
5314		-54.687500
5315		-60.546875
5316		-56.640625
5317		-60.546875
5318		-56.640625
5319		-60.546875
5320		-56.640625
5321		-60.546875
5322		-58.593750
5323		-60.546875
5324		-56.640625
5325		-60.546875
5326		-58.593750
5327		-62.500000
5328		-58.593750
5329		-62.500000
5330		-58.593750
5331		-62.500000
5332		-58.593750
5333		-62.500000
5334		-58.593750
5335		-62.500000
5336		-56.640625
5337		-62.500000
5338		-58.593750
5339		-62.500000
5340		-58.593750
5341		-62.500000
5342		-58.593750
5343		-62.500000
5344		-58.593750
5345		-62.500000
5346		-58.593750
5347		-60.546875
5348		-58.593750
5349		-60.546875
5350		-58.593750
5351		-60.546875
5352		-58.593750
5353		-62.500000
5354		-56.640625
5355		-60.546875
5356		-56.640625
5357		-60.546875
5358		-54.687500
5359		-58.593750
5360		-56.640625
5361		-58.593750
5362		-54.687500
5363		-58.593750
5364		-54.687500
5365		-58.593750
5366		-52.734375
5367		-56.640625
5368		-52.734375
5369		-54.687500
5370		-50.781250
5371		-54.687500
5372		-50.781250
5373		-54.687500
5374		-50.781250
5375		-52.734375
5376		-50.781250
5377		-52.734375
5378		-48.828125
5379		-52.734375
5380		-48.828125
5381		-50.781250
5382		-46.875000
5383		-48.828125
5384		-46.875000
5385		-48.828125
5386		-44.921875
5387		-46.875000
5388		-42.968750
5389		-46.875000
5390		-42.968750
5391		-44.921875
5392		-41.015625
5393		-44.921875
5394		-41.015625
5395		-42.968750
5396		-39.062500
5397		-42.968750
5398		-37.109375
5399		-41.015625
5400		-37.109375
5401		-39.062500
5402		-35.156250
5403		-39.062500
5404		-33.203125
5405		-37.109375
5406		-33.203125
5407		-35.156250
5408		-31.250000
5409		-35.156250
5410		-29.296875
5411		-33.203125
5412		-29.296875
5413		-31.250000
5414		-27.343750
5415		-29.296875
5416		-25.390625
5417		-27.343750
5418		-25.390625
5419		-27.343750
5420		-21.484375
5421		-25.390625
5422		-21.484375
5423		-23.437500
5424		-19.531250
5425		-23.437500
5426		-17.578125
5427		-21.484375
5428		-17.578125
5429		-19.531250
5430		-15.625000
5431		-17.578125
5432		-13.671875
5433		-15.625000
5434		-13.671875
5435		-13.671875
5436		-11.718750
5437		-13.671875
5438		-9.765625
5439		-11.718750
5440		-7.812500
5441		-11.718750
5442		-5.859375
5443		-7.812500
5444		-3.906250
5445		-7.812500
5446		-1.953125
5447		-5.859375
5448		-1.953125
5449		-5.859375
5450		0.000000
5451		-1.953125
5452		1.953125
5453		0.000000
5454		3.906250
5455		0.000000
5456		5.859375
5457		1.953125
5458		7.812500
5459		3.906250
5460		7.812500
5461		3.906250
5462		9.765625
5463		7.812500
5464		11.718750
5465		7.812500
5466		13.671875
5467		9.765625
5468		13.671875
5469		11.718750
5470		15.625000
5471		11.718750
5472		17.578125
5473		13.671875
5474		19.531250
5475		15.625000
5476		21.484375
5477		17.578125
5478		21.484375
5479		17.578125
5480		23.437500
5481		19.531250
5482		25.390625
5483		21.484375
5484		25.390625
5485		23.437500
5486		27.343750
5487		23.437500
5488		29.296875
5489		23.437500
5490		29.296875
5491		25.390625
5492		31.250000
5493		27.343750
5494		33.203125
5495		29.296875
5496		35.156250
5497		29.296875
5498		35.156250
5499		31.250000
5500		35.156250
5501		33.203125
5502		37.109375
5503		35.156250
5504		37.109375
5505		35.156250
5506		39.062500
5507		37.109375
5508		41.015625
5509		37.109375
5510		42.968750
5511		39.062500
5512		42.968750
5513		39.062500
5514		44.921875
5515		41.015625
5516		44.921875
5517		42.968750
5518		44.921875
5519		42.968750
5520		46.875000
5521		42.968750
5522		48.828125
5523		42.968750
5524		48.828125
5525		44.921875
5526		50.781250
5527		44.921875
5528		50.781250
5529		44.921875
5530		52.734375
5531		46.875000
5532		52.734375
5533		46.875000
5534		52.734375
5535		50.781250
5536		52.734375
5537		48.828125
5538		54.687500
5539		50.781250
5540		54.687500
5541		50.781250
5542		56.640625
5543		50.781250
5544		56.640625
5545		50.781250
5546		56.640625
5547		52.734375
5548		56.640625
5549		52.734375
5550		56.640625
5551		52.734375
5552		56.640625
5553		54.687500
5554		56.640625
5555		52.734375
5556		58.593750
5557		54.687500
5558		58.593750
5559		54.687500
5560		60.546875
5561		52.734375
5562		60.546875
5563		54.687500
5564		60.546875
5565		54.687500
5566		60.546875
5567		54.687500
5568		58.593750
5569		56.640625
5570		58.593750
5571		54.687500
5572		60.546875
5573		54.687500
5574		60.546875
5575		54.687500
5576		60.546875
5577		54.687500
5578		60.546875
5579		54.687500
5580		60.546875
5581		54.687500
5582		60.546875
5583		54.687500
5584		58.593750
5585		54.687500
5586		58.593750
5587		54.687500
5588		56.640625
5589		54.687500
5590		58.593750
5591		54.687500
5592		56.640625
5593		54.687500
5594		56.640625
5595		52.734375
5596		56.640625
5597		52.734375
5598		54.687500
5599		52.734375
5600		54.687500
5601		50.781250
5602		56.640625
5603		50.781250
5604		54.687500
5605		48.828125
5606		54.687500
5607		50.781250
5608		52.734375
5609		48.828125
5610		52.734375
5611		48.828125
5612		50.781250
5613		48.828125
5614		50.781250
5615		46.875000
5616		50.781250
5617		46.875000
5618		50.781250
5619		46.875000
5620		48.828125
5621		44.921875
5622		46.875000
5623		44.921875
5624		46.875000
5625		42.968750
5626		44.921875
5627		42.968750
5628		44.921875
5629		41.015625
5630		44.921875
5631		41.015625
5632		42.968750
5633		39.062500
5634		41.015625
5635		37.109375
5636		41.015625
5637		37.109375
5638		39.062500
5639		35.156250
5640		39.062500
5641		35.156250
5642		37.109375
5643		33.203125
5644		37.109375
5645		33.203125
5646		35.156250
5647		31.250000
5648		33.203125
5649		29.296875
5650		33.203125
5651		29.296875
5652		31.250000
5653		27.343750
5654		29.296875
5655		25.390625
5656		29.296875
5657		23.437500
5658		27.343750
5659		23.437500
5660		25.390625
5661		21.484375
5662		25.390625
5663		19.531250
5664		23.437500
5665		17.578125
5666		21.484375
5667		17.578125
5668		19.531250
5669		15.625000
5670		19.531250
5671		13.671875
5672		17.578125
5673		13.671875
5674		15.625000
5675		11.718750
5676		13.671875
5677		9.765625
5678		13.671875
5679		7.812500
5680		11.718750
5681		5.859375
5682		9.765625
5683		5.859375
5684		7.812500
5685		3.906250
5686		7.812500
5687		1.953125
5688		5.859375
5689		-1.953125
5690		5.859375
5691		-3.906250
5692		5.859375
5693		-5.859375
5694		3.906250
5695		-3.906250
5696		-1.953125
5697		-5.859375
5698		-1.953125
5699		-7.812500
5700		-3.906250
5701		-9.765625
5702		-5.859375
5703		-11.718750
5704		-7.812500
5705		-15.625000
5706		-5.859375
5707		-17.578125
5708		-7.812500
5709		-17.578125
5710		-7.812500
5711		-19.531250
5712		-9.765625
5713		-17.578125
5714		-15.625000
5715		-19.531250
5716		-15.625000
5717		-21.484375
5718		-17.578125
5719		-23.437500
5720		-19.531250
5721		-23.437500
5722		-21.484375
5723		-29.296875
5724		-19.531250
5725		-31.250000
5726		-19.531250
5727		-31.250000
5728		-21.484375
5729		-29.296875
5730		-27.343750
5731		-31.250000
5732		-29.296875
5733		-33.203125
5734		-29.296875
5735		-35.156250
5736		-31.250000
5737		-35.156250
5738		-33.203125
5739		-41.015625
5740		-31.250000
5741		-42.968750
5742		-31.250000
5743		-42.968750
5744		-33.203125
5745		-42.968750
5746		-35.156250
5747		-42.968750
5748		-39.062500
5749		-42.968750
5750		-41.015625
5751		-44.921875
5752		-41.015625
5753		-44.921875
5754		-42.968750
5755		-46.875000
5756		-44.921875
5757		-50.781250
5758		-41.015625
5759		-52.734375
5760		-42.968750
5761		-52.734375
5762		-42.968750
5763		-50.781250
5764		-48.828125
5765		-52.734375
5766		-48.828125
5767		-52.734375
5768		-50.781250
5769		-52.734375
5770		-50.781250
5771		-54.687500
5772		-52.734375
5773		-58.593750
5774		-48.828125
5775		-60.546875
5776		-50.781250
5777		-60.546875
5778		-50.781250
5779		-56.640625
5780		-54.687500
5781		-58.593750
5782		-54.687500
5783		-58.593750
5784		-56.640625
5785		-58.593750
5786		-56.640625
5787		-60.546875
5788		-56.640625
5789		-64.453125
5790		-54.687500
5791		-62.500000
5792		-54.687500
5793		-64.453125
5794		-54.687500
5795		-64.453125
5796		-54.687500
5797		-60.546875
5798		-58.593750
5799		-62.500000
5800		-58.593750
5801		-62.500000
5802		-58.593750
5803		-62.500000
5804		-60.546875
5805		-62.500000
5806		-60.546875
5807		-66.406250
5808		-56.640625
5809		-66.406250
5810		-56.640625
5811		-64.453125
5812		-56.640625
5813		-62.500000
5814		-60.546875
5815		-62.500000
5816		-60.546875
5817		-62.500000
5818		-60.546875
5819		-62.500000
5820		-58.593750
5821		-60.546875
5822		-58.593750
5823		-64.453125
5824		-54.687500
5825		-64.453125
5826		-54.687500
5827		-64.453125
5828		-54.687500
5829		-62.500000
5830		-54.687500
5831		-58.593750
5832		-56.640625
5833		-58.593750
5834		-56.640625
5835		-58.593750
5836		-56.640625
5837		-58.593750
5838		-54.687500
5839		-56.640625
5840		-54.687500
5841		-60.546875
5842		-50.781250
5843		-58.593750
5844		-48.828125
5845		-58.593750
5846		-48.828125
5847		-54.687500
5848		-50.781250
5849		-52.734375
5850		-50.781250
5851		-52.734375
5852		-48.828125
5853		-50.781250
5854		-48.828125
5855		-50.781250
5856		-46.875000
5857		-52.734375
5858		-42.968750
5859		-50.781250
5860		-42.968750
5861		-50.781250
5862		-41.015625
5863		-46.875000
5864		-42.968750
5865		-44.921875
5866		-41.015625
5867		-44.921875
5868		-41.015625
5869		-42.968750
5870		-41.015625
5871		-41.015625
5872		-39.062500
5873		-41.015625
5874		-37.109375
5875		-41.015625
5876		-33.203125
5877		-41.015625
5878		-31.250000
5879		-37.109375
5880		-33.203125
5881		-35.156250
5882		-33.203125
5883		-33.203125
5884		-31.250000
5885		-33.203125
5886		-29.296875
5887		-31.250000
5888		-27.343750
5889		-29.296875
5890		-27.343750
5891		-27.343750
5892		-25.390625
5893		-29.296875
5894		-21.484375
5895		-27.343750
5896		-19.531250
5897		-23.437500
5898		-19.531250
5899		-21.484375
5900		-19.531250
5901		-21.484375
5902		-17.578125
5903		-19.531250
5904		-15.625000
5905		-17.578125
5906		-13.671875
5907		-17.578125
5908		-11.718750
5909		-15.625000
5910		-9.765625
5911		-15.625000
5912		-7.812500
5913		-11.718750
5914		-7.812500
5915		-9.765625
5916		-7.812500
5917		-7.812500
5918		-5.859375
5919		-7.812500
5920		-3.906250
5921		-5.859375
5922		-1.953125
5923		-3.906250
5924		0.000000
5925		-1.953125
5926		1.953125
5927		0.000000
5928		1.953125
5929		0.000000
5930		3.906250
5931		1.953125
5932		5.859375
5933		3.906250
5934		7.812500
5935		5.859375
5936		9.765625
5937		7.812500
5938		9.765625
5939		9.765625
5940		11.718750
5941		9.765625
5942		13.671875
5943		11.718750
5944		15.625000
5945		13.671875
5946		15.625000
5947		15.625000
5948		17.578125
5949		15.625000
5950		19.531250
5951		17.578125
5952		21.484375
5953		19.531250
5954		21.484375
5955		21.484375
5956		23.437500
5957		21.484375
5958		25.390625
5959		23.437500
5960		27.343750
5961		25.390625
5962		27.343750
5963		25.390625
5964		29.296875
5965		27.343750
5966		31.250000
5967		29.296875
5968		31.250000
5969		29.296875
5970		33.203125
5971		31.250000
5972		35.156250
5973		33.203125
5974		35.156250
5975		33.203125
5976		37.109375
5977		33.203125
5978		39.062500
5979		35.156250
5980		39.062500
5981		37.109375
5982		41.015625
5983		37.109375
5984		41.015625
5985		39.062500
5986		42.968750
5987		41.015625
5988		42.968750
5989		41.015625
5990		42.968750
5991		39.062500
5992		46.875000
5993		42.968750
5994		46.875000
5995		44.921875
5996		46.875000
5997		44.921875
5998		48.828125
5999		44.921875
6000		48.828125
6001		46.875000
6002		48.828125
6003		46.875000
6004		50.781250
6005		46.875000
6006		50.781250
6007		48.828125
6008		50.781250
6009		46.875000
6010		52.734375
6011		48.828125
6012		52.734375
6013		50.781250
6014		52.734375
6015		50.781250
6016		54.687500
6017		50.781250
6018		54.687500
6019		52.734375
6020		54.687500
6021		52.734375
6022		54.687500
6023		52.734375
6024		56.640625
6025		52.734375
6026		58.593750
6027		52.734375
6028		58.593750
6029		54.687500
6030		56.640625
6031		54.687500
6032		58.593750
6033		54.687500
6034		58.593750
6035		54.687500
6036		58.593750
6037		56.640625
6038		58.593750
6039		54.687500
6040		58.593750
6041		54.687500
6042		60.546875
6043		54.687500
6044		58.593750
6045		54.687500
6046		58.593750
6047		54.687500
6048		58.593750
6049		54.687500
6050		58.593750
6051		54.687500
6052		58.593750
6053		54.687500
6054		58.593750
6055		54.687500
6056		58.593750
6057		54.687500
6058		56.640625
6059		52.734375
6060		60.546875
6061		52.734375
6062		58.593750
6063		54.687500
6064		56.640625
6065		52.734375
6066		56.640625
6067		52.734375
6068		56.640625
6069		52.734375
6070		54.687500
6071		52.734375
6072		54.687500
6073		52.734375
6074		54.687500
6075		48.828125
6076		54.687500
6077		50.781250
6078		54.687500
6079		50.781250
6080		52.734375
6081		48.828125
6082		52.734375
6083		46.875000
6084		52.734375
6085		48.828125
6086		50.781250
6087		46.875000
6088		50.781250
6089		46.875000
6090		48.828125
6091		46.875000
6092		48.828125
6093		44.921875
6094		48.828125
6095		42.968750
6096		48.828125
6097		42.968750
6098		46.875000
6099		41.015625
6100		46.875000
6101		41.015625
6102		44.921875
6103		41.015625
6104		42.968750
6105		39.062500
6106		42.968750
6107		39.062500
6108		41.015625
6109		35.156250
6110		42.968750
6111		35.156250
6112		39.062500
6113		35.156250
6114		39.062500
6115		33.203125
6116		37.109375
6117		31.250000
6118		37.109375
6119		31.250000
6120		35.156250
6121		31.250000
6122		33.203125
6123		29.296875
6124		31.250000
6125		25.390625
6126		33.203125
6127		25.390625
6128		31.250000
6129		25.390625
6130		29.296875
6131		23.437500
6132		27.343750
6133		21.484375
6134		27.343750
6135		21.484375
6136		25.390625
6137		19.531250
6138		23.437500
6139		17.578125
6140		21.484375
6141		15.625000
6142		19.531250
6143		13.671875
6144		19.531250
6145		13.671875
6146		17.578125
6147		11.718750
6148		15.625000
6149		9.765625
6150		13.671875
6151		7.812500
6152		13.671875
6153		7.812500
6154		11.718750
6155		5.859375
6156		9.765625
6157		3.906250
6158		7.812500
6159		1.953125
6160		5.859375
6161		1.953125
6162		3.906250
6163		0.000000
6164		1.953125
6165		-1.953125
6166		1.953125
6167		-3.906250
6168		0.000000
6169		-5.859375
6170		-1.953125
6171		-5.859375
6172		-3.906250
6173		-7.812500
6174		-5.859375
6175		-9.765625
6176		-5.859375
6177		-11.718750
6178		-5.859375
6179		-13.671875
6180		-9.765625
6181		-13.671875
6182		-11.718750
6183		-15.625000
6184		-13.671875
6185		-17.578125
6186		-13.671875
6187		-19.531250
6188		-15.625000
6189		-21.484375
6190		-17.578125
6191		-21.484375
6192		-19.531250
6193		-23.437500
6194		-19.531250
6195		-25.390625
6196		-21.484375
6197		-27.343750
6198		-23.437500
6199		-27.343750
6200		-25.390625
6201		-29.296875
6202		-27.343750
6203		-31.250000
6204		-27.343750
6205		-33.203125
6206		-29.296875
6207		-33.203125
6208		-31.250000
6209		-35.156250
6210		-33.203125
6211		-37.109375
6212		-33.203125
6213		-37.109375
6214		-35.156250
6215		-39.062500
6216		-37.109375
6217		-41.015625
6218		-37.109375
6219		-41.015625
6220		-39.062500
6221		-42.968750
6222		-39.062500
6223		-44.921875
6224		-41.015625
6225		-44.921875
6226		-42.968750
6227		-46.875000
6228		-42.968750
6229		-46.875000
6230		-44.921875
6231		-48.828125
6232		-46.875000
6233		-48.828125
6234		-46.875000
6235		-50.781250
6236		-48.828125
6237		-52.734375
6238		-48.828125
6239		-52.734375
6240		-50.781250
6241		-52.734375
6242		-50.781250
6243		-54.687500
6244		-50.781250
6245		-54.687500
6246		-52.734375
6247		-56.640625
6248		-52.734375
6249		-56.640625
6250		-52.734375
6251		-56.640625
6252		-54.687500
6253		-58.593750
6254		-54.687500
6255		-58.593750
6256		-56.640625
6257		-58.593750
6258		-56.640625
6259		-60.546875
6260		-56.640625
6261		-60.546875
6262		-56.640625
6263		-60.546875
6264		-58.593750
6265		-60.546875
6266		-58.593750
6267		-60.546875
6268		-58.593750
6269		-62.500000
6270		-56.640625
6271		-60.546875
6272		-60.546875
6273		-62.500000
6274		-60.546875
6275		-62.500000
6276		-60.546875
6277		-64.453125
6278		-58.593750
6279		-62.500000
6280		-60.546875
6281		-62.500000
6282		-58.593750
6283		-62.500000
6284		-60.546875
6285		-62.500000
6286		-60.546875
6287		-62.500000
6288		-60.546875
6289		-62.500000
6290		-60.546875
6291		-62.500000
6292		-58.593750
6293		-62.500000
6294		-58.593750
6295		-62.500000
6296		-58.593750
6297		-60.546875
6298		-58.593750
6299		-60.546875
6300		-58.593750
6301		-60.546875
6302		-58.593750
6303		-60.546875
6304		-56.640625
6305		-58.593750
6306		-56.640625
6307		-58.593750
6308		-56.640625
6309		-58.593750
6310		-56.640625
6311		-60.546875
6312		-52.734375
6313		-58.593750
6314		-52.734375
6315		-56.640625
6316		-52.734375
6317		-54.687500
6318		-52.734375
6319		-54.687500
6320		-52.734375
6321		-54.687500
6322		-50.781250
6323		-52.734375
6324		-50.781250
6325		-52.734375
6326		-48.828125
6327		-52.734375
6328		-46.875000
6329		-52.734375
6330		-44.921875
6331		-48.828125
6332		-46.875000
6333		-48.828125
6334		-44.921875
6335		-48.828125
6336		-44.921875
6337		-46.875000
6338		-42.968750
6339		-44.921875
6340		-42.968750
6341		-44.921875
6342		-41.015625
6343		-42.968750
6344		-39.062500
6345		-44.921875
6346		-37.109375
6347		-42.968750
6348		-35.156250
6349		-39.062500
6350		-35.156250
6351		-37.109375
6352		-35.156250
6353		-37.109375
6354		-33.203125
6355		-35.156250
6356		-31.250000
6357		-33.203125
6358		-31.250000
6359		-33.203125
6360		-29.296875
6361		-33.203125
6362		-25.390625
6363		-31.250000
6364		-25.390625
6365		-27.343750
6366		-25.390625
6367		-27.343750
6368		-23.437500
6369		-25.390625
6370		-21.484375
6371		-23.437500
6372		-21.484375
6373		-21.484375
6374		-19.531250
6375		-21.484375
6376		-17.578125
6377		-19.531250
6378		-13.671875
6379		-19.531250
6380		-11.718750
6381		-17.578125
6382		-11.718750
6383		-13.671875
6384		-11.718750
6385		-13.671875
6386		-9.765625
6387		-11.718750
6388		-7.812500
6389		-9.765625
6390		-5.859375
6391		-7.812500
6392		-5.859375
6393		-7.812500
6394		-3.906250
6395		-7.812500
6396		0.000000
6397		-3.906250
6398		1.953125
6399		-1.953125
6400		1.953125
6401		0.000000
6402		1.953125
6403		1.953125
6404		3.906250
6405		1.953125
6406		5.859375
6407		3.906250
6408		7.812500
6409		5.859375
6410		9.765625
6411		5.859375
6412		13.671875
6413		7.812500
6414		13.671875
6415		9.765625
6416		13.671875
6417		11.718750
6418		15.625000
6419		13.671875
6420		17.578125
6421		15.625000
6422		17.578125
6423		15.625000
6424		19.531250
6425		17.578125
6426		21.484375
6427		19.531250
6428		21.484375
6429		17.578125
6430		25.390625
6431		19.531250
6432		25.390625
6433		23.437500
6434		25.390625
6435		25.390625
6436		27.343750
6437		25.390625
6438		29.296875
6439		27.343750
6440		31.250000
6441		29.296875
6442		31.250000
6443		29.296875
6444		33.203125
6445		29.296875
6446		37.109375
6447		31.250000
6448		37.109375
6449		33.203125
6450		37.109375
6451		35.156250
6452		37.109375
6453		35.156250
6454		39.062500
6455		37.109375
6456		39.062500
6457		39.062500
6458		41.015625
6459		39.062500
6460		41.015625
6461		41.015625
6462		44.921875
6463		37.109375
6464		46.875000
6465		41.015625
6466		46.875000
6467		42.968750
6468		44.921875
6469		44.921875
6470		46.875000
6471		44.921875
6472		46.875000
6473		46.875000
6474		48.828125
6475		46.875000
6476		48.828125
6477		46.875000
6478		50.781250
6479		46.875000
6480		52.734375
6481		46.875000
6482		52.734375
6483		48.828125
6484		52.734375
6485		50.781250
6486		52.734375
6487		50.781250
6488		52.734375
6489		50.781250
6490		54.687500
6491		52.734375
6492		54.687500
6493		52.734375
6494		54.687500
6495		50.781250
6496		56.640625
6497		52.734375
6498		56.640625
6499		54.687500
6500		56.640625
6501		54.687500
6502		56.640625
6503		54.687500
6504		56.640625
6505		54.687500
6506		56.640625
6507		54.687500
6508		56.640625
6509		54.687500
6510		58.593750
6511		54.687500
6512		58.593750
6513		54.687500
6514		60.546875
6515		56.640625
6516		58.593750
6517		56.640625
6518		58.593750
6519		54.687500
6520		58.593750
6521		54.687500
6522		58.593750
6523		54.687500
6524		58.593750
6525		54.687500
6526		58.593750
6527		54.687500
6528		58.593750
6529		54.687500
6530		58.593750
6531		54.687500
6532		56.640625
6533		54.687500
6534		56.640625
6535		54.687500
6536		56.640625
6537		54.687500
6538		56.640625
6539		54.687500
6540		56.640625
6541		52.734375
6542		56.640625
6543		52.734375
6544		54.687500
6545		52.734375
6546		54.687500
6547		52.734375
6548		54.687500
6549		50.781250
6550		54.687500
6551		50.781250
6552		54.687500
6553		50.781250
6554		52.734375
6555		48.828125
6556		52.734375
6557		48.828125
6558		50.781250
6559		48.828125
6560		50.781250
6561		46.875000
6562		50.781250
6563		46.875000
6564		48.828125
6565		44.921875
6566		48.828125
6567		44.921875
6568		48.828125
6569		44.921875
6570		46.875000
6571		42.968750
6572		46.875000
6573		41.015625
6574		44.921875
6575		41.015625
6576		44.921875
6577		41.015625
6578		42.968750
6579		39.062500
6580		42.968750
6581		39.062500
6582		41.015625
6583		37.109375
6584		39.062500
6585		35.156250
6586		39.062500
6587		35.156250
6588		37.109375
6589		33.203125
6590		37.109375
6591		33.203125
6592		35.156250
6593		31.250000
6594		33.203125
6595		29.296875
6596		33.203125
6597		29.296875
6598		31.250000
6599		27.343750
6600		29.296875
6601		25.390625
6602		29.296875
6603		25.390625
6604		27.343750
6605		23.437500
6606		25.390625
6607		21.484375
6608		25.390625
6609		19.531250
6610		23.437500
6611		19.531250
6612		21.484375
6613		17.578125
6614		21.484375
6615		15.625000
6616		19.531250
6617		13.671875
6618		17.578125
6619		13.671875
6620		15.625000
6621		11.718750
6622		15.625000
6623		9.765625
6624		13.671875
6625		7.812500
6626		11.718750
6627		7.812500
6628		9.765625
6629		5.859375
6630		9.765625
6631		3.906250
6632		7.812500
6633		1.953125
6634		5.859375
6635		0.000000
6636		3.906250
6637		0.000000
6638		1.953125
6639		-1.953125
6640		1.953125
6641		-3.906250
6642		0.000000
6643		-5.859375
6644		-1.953125
6645		-5.859375
6646		-3.906250
6647		-9.765625
6648		-5.859375
6649		-9.765625
6650		-7.812500
6651		-11.718750
6652		-7.812500
6653		-13.671875
6654		-9.765625
6655		-15.625000
6656		-11.718750
6657		-15.625000
6658		-13.671875
6659		-17.578125
6660		-15.625000
6661		-19.531250
6662		-15.625000
6663		-21.484375
6664		-17.578125
6665		-21.484375
6666		-19.531250
6667		-23.437500
6668		-21.484375
6669		-25.390625
6670		-21.484375
6671		-27.343750
6672		-23.437500
6673		-29.296875
6674		-25.390625
6675		-29.296875
6676		-27.343750
6677		-31.250000
6678		-27.343750
6679		-33.203125
6680		-29.296875
6681		-33.203125
6682		-31.250000
6683		-37.109375
6684		-33.203125
6685		-37.109375
6686		-33.203125
6687		-39.062500
6688		-33.203125
6689		-39.062500
6690		-37.109375
6691		-41.015625
6692		-37.109375
6693		-41.015625
6694		-39.062500
6695		-42.968750
6696		-41.015625
6697		-44.921875
6698		-41.015625
6699		-44.921875
6700		-42.968750
6701		-46.875000
6702		-42.968750
6703		-46.875000
6704		-44.921875
6705		-48.828125
6706		-44.921875
6707		-50.781250
6708		-44.921875
6709		-50.781250
6710		-48.828125
6711		-50.781250
6712		-48.828125
6713		-52.734375
6714		-50.781250
6715		-52.734375
6716		-50.781250
6717		-54.687500
6718		-50.781250
6719		-54.687500
6720		-52.734375
6721		-54.687500
6722		-52.734375
6723		-56.640625
6724		-54.687500
6725		-56.640625
6726		-54.687500
6727		-58.593750
6728		-54.687500
6729		-58.593750
6730		-56.640625
6731		-58.593750
6732		-56.640625
6733		-60.546875
6734		-56.640625
6735		-60.546875
6736		-58.593750
6737		-60.546875
6738		-58.593750
6739		-60.546875
6740		-58.593750
6741		-60.546875
6742		-58.593750
6743		-62.500000
6744		-58.593750
6745		-62.500000
6746		-58.593750
6747		-62.500000
6748		-58.593750
6749		-62.500000
6750		-60.546875
6751		-62.500000
6752		-60.546875
6753		-62.500000
6754		-60.546875
6755		-62.500000
6756		-60.546875
6757		-62.500000
6758		-60.546875
6759		-62.500000
6760		-60.546875
6761		-64.453125
6762		-58.593750
6763		-62.500000
6764		-60.546875
6765		-62.500000
6766		-60.546875
6767		-62.500000
6768		-58.593750
6769		-60.546875
6770		-58.593750
6771		-60.546875
6772		-58.593750
6773		-62.500000
6774		-58.593750
6775		-60.546875
6776		-58.593750
6777		-60.546875
6778		-56.640625
6779		-58.593750
6780		-56.640625
6781		-58.593750
6782		-56.640625
6783		-58.593750
6784		-54.687500
6785		-58.593750
6786		-54.687500
6787		-56.640625
6788		-54.687500
6789		-56.640625
6790		-52.734375
6791		-54.687500
6792		-52.734375
6793		-54.687500
6794		-52.734375
6795		-54.687500
6796		-50.781250
6797		-52.734375
6798		-50.781250
6799		-52.734375
6800		-48.828125
6801		-50.781250
6802		-48.828125
6803		-50.781250
6804		-46.875000
6805		-48.828125
6806		-46.875000
6807		-48.828125
6808		-44.921875
6809		-46.875000
6810		-44.921875
6811		-44.921875
6812		-42.968750
6813		-44.921875
6814		-41.015625
6815		-42.968750
6816		-41.015625
6817		-42.968750
6818		-37.109375
6819		-41.015625
6820		-39.062500
6821		-39.062500
6822		-37.109375
6823		-39.062500
6824		-35.156250
6825		-37.109375
6826		-35.156250
6827		-35.156250
6828		-33.203125
6829		-35.156250
6830		-31.250000
6831		-33.203125
6832		-29.296875
6833		-31.250000
6834		-29.296875
6835		-29.296875
6836		-27.343750
6837		-29.296875
6838		-25.390625
6839		-27.343750
6840		-23.437500
6841		-27.343750
6842		-23.437500
6843		-25.390625
6844		-21.484375
6845		-23.437500
6846		-19.531250
6847		-21.484375
6848		-17.578125
6849		-19.531250
6850		-17.578125
6851		-19.531250
6852		-15.625000
6853		-17.578125
6854		-13.671875
6855		-15.625000
6856		-11.718750
6857		-13.671875
6858		-9.765625
6859		-11.718750
6860		-9.765625
6861		-11.718750
6862		-7.812500
6863		-9.765625
6864		-5.859375
6865		-7.812500
6866		-3.906250
6867		-5.859375
6868		-3.906250
6869		-3.906250
6870		-1.953125
6871		-1.953125
6872		0.000000
6873		-1.953125
6874		1.953125
6875		0.000000
6876		3.906250
6877		1.953125
6878		5.859375
6879		3.906250
6880		5.859375
6881		5.859375
6882		7.812500
6883		5.859375
6884		9.765625
6885		7.812500
6886		11.718750
6887		9.765625
6888		11.718750
6889		11.718750
6890		13.671875
6891		11.718750
6892		15.625000
6893		13.671875
6894		17.578125
6895		15.625000
6896		19.531250
6897		17.578125
6898		19.531250
6899		17.578125
6900		21.484375
6901		19.531250
6902		23.437500
6903		21.484375
6904		25.390625
6905		23.437500
6906		25.390625
6907		23.437500
6908		27.343750
6909		25.390625
6910		29.296875
6911		27.343750
6912		29.296875
6913		27.343750
6914		31.250000
6915		29.296875
6916		33.203125
6917		31.250000
6918		33.203125
6919		31.250000
6920		35.156250
6921		33.203125
6922		35.156250
6923		33.203125
6924		37.109375
6925		35.156250
6926		39.062500
6927		37.109375
6928		39.062500
6929		37.109375
6930		41.015625
6931		39.062500
6932		41.015625
6933		39.062500
6934		42.968750
6935		41.015625
6936		42.968750
6937		41.015625
6938		44.921875
6939		42.968750
6940		44.921875
6941		42.968750
6942		46.875000
6943		44.921875
6944		46.875000
6945		44.921875
6946		48.828125
6947		46.875000
6948		48.828125
6949		46.875000
6950		48.828125
6951		48.828125
6952		50.781250
6953		48.828125
6954		52.734375
6955		48.828125
6956		52.734375
6957		50.781250
6958		52.734375
6959		50.781250
6960		52.734375
6961		50.781250
6962		52.734375
6963		52.734375
6964		54.687500
6965		50.781250
6966		56.640625
6967		52.734375
6968		54.687500
6969		52.734375
6970		56.640625
6971		54.687500
6972		56.640625
6973		54.687500
6974		56.640625
6975		54.687500
6976		56.640625
6977		54.687500
6978		56.640625
6979		54.687500
6980		56.640625
6981		54.687500
6982		58.593750
6983		54.687500
6984		58.593750
6985		56.640625
6986		58.593750
6987		54.687500
6988		58.593750
6989		56.640625
6990		58.593750
6991		56.640625
6992		58.593750
6993		56.640625
6994		58.593750
6995		56.640625
6996		58.593750
6997		56.640625
6998		58.593750
6999		54.687500
7000		58.593750
7001		54.687500
7002		58.593750
7003		54.687500
7004		58.593750
7005		54.687500
7006		56.640625
7007		54.687500
7008		58.593750
7009		54.687500
7010		56.640625
7011		54.687500
7012		56.640625
7013		54.687500
7014		56.640625
7015		52.734375
7016		56.640625
7017		52.734375
7018		54.687500
7019		52.734375
7020		54.687500
7021		50.781250
7022		54.687500
7023		52.734375
7024		54.687500
7025		50.781250
7026		54.687500
7027		50.781250
7028		52.734375
7029		48.828125
7030		52.734375
7031		48.828125
7032		52.734375
7033		48.828125
7034		50.781250
7035		46.875000
7036		50.781250
7037		46.875000
7038		48.828125
7039		46.875000
7040		48.828125
7041		44.921875
7042		46.875000
7043		44.921875
7044		46.875000
7045		42.968750
7046		46.875000
7047		42.968750
7048		44.921875
7049		41.015625
7050		44.921875
7051		41.015625
7052		42.968750
7053		39.062500
7054		42.968750
7055		37.109375
7056		41.015625
7057		37.109375
7058		41.015625
7059		37.109375
7060		39.062500
7061		35.156250
7062		37.109375
7063		33.203125
7064		37.109375
7065		33.203125
7066		35.156250
7067		31.250000
7068		35.156250
7069		29.296875
7070		33.203125
7071		29.296875
7072		31.250000
7073		27.343750
7074		31.250000
7075		27.343750
7076		29.296875
7077		25.390625
7078		27.343750
7079		23.437500
7080		27.343750
7081		21.484375
7082		25.390625
7083		21.484375
7084		23.437500
7085		19.531250
7086		21.484375
7087		17.578125
7088		21.484375
7089		15.625000
7090		19.531250
7091		15.625000
7092		17.578125
7093		13.671875
7094		15.625000
7095		11.718750
7096		15.625000
7097		9.765625
7098		13.671875
7099		7.812500
7100		11.718750
7101		5.859375
7102		9.765625
7103		5.859375
7104		9.765625
7105		3.906250
7106		7.812500
7107		1.953125
7108		5.859375
7109		1.953125
7110		3.906250
7111		0.000000
7112		1.953125
7113		-1.953125
7114		1.953125
7115		-3.906250
7116		0.000000
7117		-5.859375
7118		-1.953125
7119		-5.859375
7120		-3.906250
7121		-7.812500
7122		-5.859375
7123		-9.765625
7124		-7.812500
7125		-11.718750
7126		-7.812500
7127		-13.671875
7128		-9.765625
7129		-13.671875
7130		-11.718750
7131		-15.625000
7132		-13.671875
7133		-17.578125
7134		-13.671875
7135		-19.531250
7136		-15.625000
7137		-21.484375
7138		-17.578125
7139		-21.484375
7140		-19.531250
7141		-23.437500
7142		-21.484375
7143		-25.390625
7144		-21.484375
7145		-27.343750
7146		-23.437500
7147		-29.296875
7148		-25.390625
7149		-29.296875
7150		-27.343750
7151		-31.250000
7152		-27.343750
7153		-33.203125
7154		-29.296875
7155		-33.203125
7156		-31.250000
7157		-35.156250
7158		-31.250000
7159		-37.109375
7160		-33.203125
7161		-37.109375
7162		-35.156250
7163		-39.062500
7164		-37.109375
7165		-41.015625
7166		-37.109375
7167		-41.015625
7168		-39.062500
7169		-42.968750
7170		-41.015625
7171		-44.921875
7172		-41.015625
7173		-44.921875
7174		-42.968750
7175		-46.875000
7176		-42.968750
7177		-46.875000
7178		-44.921875
7179		-48.828125
7180		-44.921875
7181		-48.828125
7182		-46.875000
7183		-50.781250
7184		-46.875000
7185		-50.781250
7186		-46.875000
7187		-52.734375
7188		-48.828125
7189		-52.734375
7190		-50.781250
7191		-54.687500
7192		-50.781250
7193		-54.687500
7194		-52.734375
7195		-56.640625
7196		-52.734375
7197		-56.640625
7198		-54.687500
7199		-56.640625
7200		-54.687500
7201		-58.593750
7202		-54.687500
7203		-58.593750
7204		-56.640625
7205		-60.546875
7206		-56.640625
7207		-58.593750
7208		-56.640625
7209		-60.546875
7210		-58.593750
7211		-60.546875
7212		-58.593750
7213		-60.546875
7214		-58.593750
7215		-60.546875
7216		-58.593750
7217		-62.500000
7218		-58.593750
7219		-62.500000
7220		-58.593750
7221		-62.500000
7222		-60.546875
7223		-62.500000
7224		-60.546875
7225		-62.500000
7226		-60.546875
7227		-62.500000
7228		-60.546875
7229		-62.500000
7230		-60.546875
7231		-62.500000
7232		-60.546875
7233		-62.500000
7234		-60.546875
7235		-62.500000
7236		-60.546875
7237		-62.500000
7238		-60.546875
7239		-62.500000
7240		-60.546875
7241		-62.500000
7242		-58.593750
7243		-60.546875
7244		-58.593750
7245		-60.546875
7246		-58.593750
7247		-60.546875
7248		-58.593750
7249		-60.546875
7250		-58.593750
7251		-60.546875
7252		-56.640625
7253		-58.593750
7254		-56.640625
7255		-58.593750
7256		-56.640625
7257		-58.593750
7258		-56.640625
7259		-58.593750
7260		-54.687500
7261		-56.640625
7262		-54.687500
7263		-56.640625
7264		-52.734375
7265		-54.687500
7266		-52.734375
7267		-54.687500
7268		-52.734375
7269		-54.687500
7270		-50.781250
7271		-52.734375
7272		-50.781250
7273		-52.734375
7274		-48.828125
7275		-50.781250
7276		-48.828125
7277		-50.781250
7278		-46.875000
7279		-48.828125
7280		-46.875000
7281		-48.828125
7282		-44.921875
7283		-46.875000
7284		-44.921875
7285		-46.875000
7286		-42.968750
7287		-46.875000
7288		-41.015625
7289		-42.968750
7290		-41.015625
7291		-42.968750
7292		-39.062500
7293		-41.015625
7294		-39.062500
7295		-41.015625
7296		-37.109375
7297		-39.062500
7298		-35.156250
7299		-39.062500
7300		-35.156250
7301		-37.109375
7302		-33.203125
7303		-35.156250
7304		-31.250000
7305		-33.203125
7306		-31.250000
7307		-31.250000
7308		-29.296875
7309		-31.250000
7310		-27.343750
7311		-31.250000
7312		-25.390625
7313		-27.343750
7314		-25.390625
7315		-27.343750
7316		-23.437500
7317		-25.390625
7318		-21.484375
7319		-23.437500
7320		-19.531250
7321		-21.484375
7322		-19.531250
7323		-21.484375
7324		-17.578125
7325		-19.531250
7326		-15.625000
7327		-17.578125
7328		-13.671875
7329		-15.625000
7330		-13.671875
7331		-13.671875
7332		-11.718750
7333		-11.718750
7334		-9.765625
7335		-11.718750
7336		-7.812500
7337		-11.718750
7338		-5.859375
7339		-7.812500
7340		-3.906250
7341		-9.765625
7342		-1.953125
7343		-3.906250
7344		-1.953125
7345		-5.859375
7346		1.953125
7347		-1.953125
7348		1.953125
7349		0.000000
7350		3.906250
7351		1.953125
7352		3.906250
7353		3.906250
7354		5.859375
7355		3.906250
7356		7.812500
7357		3.906250
7358		11.718750
7359		7.812500
7360		11.718750
7361		7.812500
7362		15.625000
7363		9.765625
7364		13.671875
7365		9.765625
7366		17.578125
7367		13.671875
7368		17.578125
7369		15.625000
7370		19.531250
7371		15.625000
7372		21.484375
7373		17.578125
7374		23.437500
7375		19.531250
7376		23.437500
7377		19.531250
7378		25.390625
7379		19.531250
7380		25.390625
7381		21.484375
7382		29.296875
7383		25.390625
7384		27.343750
7385		25.390625
7386		29.296875
7387		25.390625
7388		33.203125
7389		29.296875
7390		31.250000
7391		27.343750
7392		35.156250
7393		29.296875
7394		35.156250
7395		29.296875
7396		39.062500
7397		33.203125
7398		37.109375
7399		31.250000
7400		41.015625
7401		35.156250
7402		39.062500
7403		37.109375
7404		41.015625
7405		35.156250
7406		44.921875
7407		37.109375
7408		44.921875
7409		39.062500
7410		44.921875
7411		39.062500
7412		46.875000
7413		42.968750
7414		44.921875
7415		41.015625
7416		48.828125
7417		44.921875
7418		46.875000
7419		44.921875
7420		46.875000
7421		42.968750
7422		50.781250
7423		42.968750
7424		52.734375
7425		46.875000
7426		52.734375
7427		46.875000
7428		52.734375
7429		44.921875
7430		54.687500
7431		48.828125
7432		52.734375
7433		46.875000
7434		54.687500
7435		50.781250
7436		52.734375
7437		48.828125
7438		54.687500
7439		48.828125
7440		56.640625
7441		50.781250
7442		56.640625
7443		52.734375
7444		54.687500
7445		50.781250
7446		58.593750
7447		50.781250
7448		58.593750
7449		50.781250
7450		58.593750
7451		54.687500
7452		56.640625
7453		54.687500
7454		56.640625
7455		52.734375
7456		58.593750
7457		50.781250
7458		60.546875
7459		54.687500
7460		58.593750
7461		54.687500
7462		58.593750
7463		52.734375
7464		62.500000
7465		52.734375
7466		62.500000
7467		54.687500
7468		58.593750
7469		54.687500
7470		58.593750
7471		52.734375
7472		58.593750
7473		52.734375
7474		60.546875
7475		52.734375
7476		60.546875
7477		54.687500
7478		58.593750
7479		50.781250
7480		60.546875
7481		50.781250
7482		60.546875
7483		50.781250
7484		60.546875
7485		54.687500
7486		56.640625
7487		50.781250
7488		56.640625
7489		50.781250
7490		58.593750
7491		50.781250
7492		58.593750
7493		52.734375
7494		54.687500
7495		50.781250
7496		54.687500
7497		48.828125
7498		56.640625
7499		46.875000
7500		56.640625
7501		48.828125
7502		52.734375
7503		48.828125
7504		52.734375
7505		46.875000
7506		52.734375
7507		44.921875
7508		54.687500
7509		46.875000
7510		50.781250
7511		46.875000
7512		48.828125
7513		42.968750
7514		50.781250
7515		44.921875
7516		46.875000
7517		41.015625
7518		48.828125
7519		42.968750
7520		44.921875
7521		41.015625
7522		44.921875
7523		37.109375
7524		46.875000
7525		37.109375
7526		44.921875
7527		39.062500
7528		41.015625
7529		35.156250
7530		42.968750
7531		33.203125
7532		42.968750
7533		31.250000
7534		42.968750
7535		33.203125
7536		37.109375
7537		33.203125
7538		37.109375
7539		29.296875
7540		37.109375
7541		27.343750
7542		37.109375
7543		29.296875
7544		33.203125
7545		27.343750
7546		31.250000
7547		23.437500
7548		33.203125
7549		21.484375
7550		31.250000
7551		23.437500
7552		27.343750
7553		23.437500
7554		25.390625
7555		19.531250
7556		25.390625
7557		17.578125
7558		25.390625
7559		17.578125
7560		23.437500
7561		17.578125
7562		21.484375
7563		11.718750
7564		21.484375
7565		11.718750
7566		21.484375
7567		11.718750
7568		19.531250
7569		11.718750
7570		13.671875
7571		7.812500
7572		13.671875
7573		3.906250
7574		13.671875
7575		3.906250
7576		13.671875
7577		3.906250
7578		9.765625
7579		1.953125
7580		7.812500
7581		0.000000
7582		7.812500
7583		0.000000
7584		3.906250
7585		-1.953125
7586		1.953125
7587		-3.906250
7588		0.000000
7589		-5.859375
7590		0.000000
7591		-7.812500
7592		0.000000
7593		-9.765625
7594		-1.953125
7595		-9.765625
7596		-5.859375
7597		-13.671875
7598		-3.906250
7599		-13.671875
7600		-5.859375
7601		-15.625000
7602		-7.812500
7603		-15.625000
7604		-11.718750
7605		-17.578125
7606		-13.671875
7607		-21.484375
7608		-13.671875
7609		-21.484375
7610		-13.671875
7611		-21.484375
7612		-17.578125
7613		-25.390625
7614		-17.578125
7615		-25.390625
7616		-21.484375
7617		-29.296875
7618		-19.531250
7619		-27.343750
7620		-25.390625
7621		-29.296875
7622		-25.390625
7623		-31.250000
7624		-27.343750
7625		-35.156250
7626		-25.390625
7627		-35.156250
7628		-29.296875
7629		-35.156250
7630		-31.250000
7631		-37.109375
7632		-29.296875
7633		-37.109375
7634		-33.203125
7635		-39.062500
7636		-35.156250
7637		-39.062500
7638		-37.109375
7639		-41.015625
7640		-39.062500
7641		-42.968750
7642		-39.062500
7643		-46.875000
7644		-39.062500
7645		-44.921875
7646		-41.015625
7647		-46.875000
7648		-41.015625
7649		-46.875000
7650		-44.921875
7651		-48.828125
7652		-44.921875
7653		-48.828125
7654		-46.875000
7655		-52.734375
7656		-46.875000
7657		-50.781250
7658		-48.828125
7659		-52.734375
7660		-48.828125
7661		-52.734375
7662		-50.781250
7663		-54.687500
7664		-50.781250
7665		-54.687500
7666		-52.734375
7667		-56.640625
7668		-52.734375
7669		-56.640625
7670		-52.734375
7671		-56.640625
7672		-54.687500
7673		-58.593750
7674		-54.687500
7675		-58.593750
7676		-56.640625
7677		-58.593750
7678		-56.640625
7679		-58.593750
7680		-56.640625
7681		-60.546875
7682		-56.640625
7683		-60.546875
7684		-58.593750
7685		-62.500000
7686		-56.640625
7687		-60.546875
7688		-58.593750
7689		-62.500000
7690		-58.593750
7691		-62.500000
7692		-56.640625
7693		-64.453125
7694		-58.593750
7695		-64.453125
7696		-58.593750
7697		-64.453125
7698		-56.640625
7699		-64.453125
7700		-58.593750
7701		-64.453125
7702		-58.593750
7703		-62.500000
7704		-60.546875
7705		-62.500000
7706		-60.546875
7707		-64.453125
7708		-58.593750
7709		-64.453125
7710		-58.593750
7711		-64.453125
7712		-58.593750
7713		-64.453125
7714		-56.640625
7715		-62.500000
7716		-56.640625
7717		-62.500000
7718		-56.640625
7719		-60.546875
7720		-56.640625
7721		-60.546875
7722		-58.593750
7723		-62.500000
7724		-56.640625
7725		-60.546875
7726		-54.687500
7727		-60.546875
7728		-54.687500
7729		-60.546875
7730		-52.734375
7731		-58.593750
7732		-54.687500
7733		-58.593750
7734		-52.734375
7735		-58.593750
7736		-52.734375
7737		-56.640625
7738		-52.734375
7739		-56.640625
7740		-50.781250
7741		-56.640625
7742		-50.781250
7743		-54.687500
7744		-48.828125
7745		-54.687500
7746		-48.828125
7747		-54.687500
7748		-46.875000
7749		-52.734375
7750		-46.875000
7751		-50.781250
7752		-46.875000
7753		-48.828125
7754		-46.875000
7755		-48.828125
7756		-44.921875
7757		-48.828125
7758		-42.968750
7759		-46.875000
7760		-42.968750
7761		-46.875000
7762		-41.015625
7763		-46.875000
7764		-39.062500
7765		-42.968750
7766		-39.062500
7767		-42.968750
7768		-37.109375
7769		-41.015625
7770		-35.156250
7771		-39.062500
7772		-35.156250
7773		-37.109375
7774		-33.203125
7775		-37.109375
7776		-31.250000
7777		-35.156250
7778		-29.296875
7779		-35.156250
7780		-27.343750
7781		-33.203125
7782		-27.343750
7783		-31.250000
7784		-25.390625
7785		-29.296875
7786		-23.437500
7787		-27.343750
7788		-25.390625
7789		-25.390625
7790		-23.437500
7791		-27.343750
7792		-21.484375
7793		-23.437500
7794		-19.531250
7795		-21.484375
7796		-17.578125
7797		-21.484375
7798		-15.625000
7799		-19.531250
7800		-15.625000
7801		-17.578125
7802		-11.718750
7803		-15.625000
7804		-11.718750
7805		-13.671875
7806		-9.765625
7807		-13.671875
7808		-7.812500
7809		-11.718750
7810		-7.812500
7811		-9.765625
7812		-5.859375
7813		-9.765625
7814		-1.953125
7815		-5.859375
7816		-1.953125
7817		-5.859375
7818		0.000000
7819		-3.906250
7820		0.000000
7821		-1.953125
7822		1.953125
7823		0.000000
7824		5.859375
7825		1.953125
7826		5.859375
7827		1.953125
7828		5.859375
7829		3.906250
7830		9.765625
7831		5.859375
7832		9.765625
7833		7.812500
7834		11.718750
7835		9.765625
7836		15.625000
7837		11.718750
7838		13.671875
7839		11.718750
7840		15.625000
7841		13.671875
7842		17.578125
7843		15.625000
7844		19.531250
7845		15.625000
7846		21.484375
7847		15.625000
7848		23.437500
7849		19.531250
7850		23.437500
7851		19.531250
7852		25.390625
7853		21.484375
7854		25.390625
7855		23.437500
7856		27.343750
7857		25.390625
7858		29.296875
7859		25.390625
7860		29.296875
7861		27.343750
7862		31.250000
7863		27.343750
7864		35.156250
7865		31.250000
7866		33.203125
7867		31.250000
7868		35.156250
7869		33.203125
7870		37.109375
7871		33.203125
7872		37.109375
7873		35.156250
7874		37.109375
7875		35.156250
7876		41.015625
7877		37.109375
7878		41.015625
7879		37.109375
7880		42.968750
7881		39.062500
7882		42.968750
7883		41.015625
7884		44.921875
7885		41.015625
7886		44.921875
7887		41.015625
7888		44.921875
7889		42.968750
7890		46.875000
7891		42.968750
7892		48.828125
7893		44.921875
7894		48.828125
7895		44.921875
7896		48.828125
7897		44.921875
7898		50.781250
7899		46.875000
7900		50.781250
7901		48.828125
7902		50.781250
7903		46.875000
7904		52.734375
7905		50.781250
7906		52.734375
7907		50.781250
7908		52.734375
7909		50.781250
7910		54.687500
7911		50.781250
7912		54.687500
7913		50.781250
7914		56.640625
7915		52.734375
7916		56.640625
7917		52.734375
7918		56.640625
7919		52.734375
7920		56.640625
7921		54.687500
7922		56.640625
7923		54.687500
7924		56.640625
7925		52.734375
7926		56.640625
7927		54.687500
7928		58.593750
7929		54.687500
7930		58.593750
7931		54.687500
7932		58.593750
7933		54.687500
7934		58.593750
7935		54.687500
7936		58.593750
7937		54.687500
7938		58.593750
7939		56.640625
7940		58.593750
7941		54.687500
7942		58.593750
7943		54.687500
7944		58.593750
7945		54.687500
7946		58.593750
7947		54.687500
7948		58.593750
7949		54.687500
7950		58.593750
7951		54.687500
7952		58.593750
7953		52.734375
7954		56.640625
7955		54.687500
7956		56.640625
7957		54.687500
7958		56.640625
7959		52.734375
7960		58.593750
7961		52.734375
7962		56.640625
7963		52.734375
7964		56.640625
7965		50.781250
7966		54.687500
7967		50.781250
7968		54.687500
7969		50.781250
7970		54.687500
7971		50.781250
7972		54.687500
7973		50.781250
7974		52.734375
7975		48.828125
7976		52.734375
7977		48.828125
7978		52.734375
7979		48.828125
7980		52.734375
7981		46.875000
7982		50.781250
7983		46.875000
7984		50.781250
7985		44.921875
7986		50.781250
7987		44.921875
7988		50.781250
7989		44.921875
7990		46.875000
7991		42.968750
7992		46.875000
7993		42.968750
7994		46.875000
7995		41.015625
7996		44.921875
7997		39.062500
7998		44.921875
7999		39.062500
8000		42.968750
8001		39.062500
8002		41.015625
8003		37.109375
8004		41.015625
8005		37.109375
8006		39.062500
8007		35.156250
8008		39.062500
8009		33.203125
8010		39.062500
8011		33.203125
8012		37.109375
8013		31.250000
8014		35.156250
8015		31.250000
8016		35.156250
8017		29.296875
8018		33.203125
8019		27.343750
8020		31.250000
8021		25.390625
8022		29.296875
8023		25.390625
8024		29.296875
8025		23.437500
8026		27.343750
8027		21.484375
8028		25.390625
8029		21.484375
8030		25.390625
8031		19.531250
8032		23.437500
8033		17.578125
8034		21.484375
8035		17.578125
8036		21.484375
8037		13.671875
8038		19.531250
8039		13.671875
8040		17.578125
8041		11.718750
8042		15.625000
8043		9.765625
8044		15.625000
8045		9.765625
8046		13.671875
8047		7.812500
8048		11.718750
8049		5.859375
8050		9.765625
8051		3.906250
8052		9.765625
8053		3.906250
8054		7.812500
8055		1.953125
8056		5.859375
8057		0.000000
8058		3.906250
8059		-1.953125
8060		1.953125
8061		-3.906250
8062		0.000000
8063		-5.859375
8064		0.000000
8065		-5.859375
8066		-1.953125
8067		-7.812500
8068		-3.906250
8069		-9.765625
8070		-5.859375
8071		-11.718750
8072		-7.812500
8073		-11.718750
8074		-9.765625
8075		-13.671875
8076		-9.765625
8077		-15.625000
8078		-11.718750
8079		-17.578125
8080		-13.671875
8081		-19.531250
8082		-15.625000
8083		-19.531250
8084		-17.578125
8085		-23.437500
8086		-17.578125
8087		-23.437500
8088		-19.531250
8089		-25.390625
8090		-21.484375
8091		-25.390625
8092		-23.437500
8093		-29.296875
8094		-23.437500
8095		-29.296875
8096		-25.390625
8097		-31.250000
8098		-27.343750
8099		-33.203125
8100		-29.296875
8101		-33.203125
8102		-29.296875
8103		-35.156250
8104		-31.250000
8105		-37.109375
8106		-33.203125
8107		-37.109375
8108		-35.156250
8109		-41.015625
8110		-35.156250
8111		-41.015625
8112		-37.109375
8113		-41.015625
8114		-37.109375
8115		-42.968750
8116		-39.062500
8117		-42.968750
8118		-41.015625
8119		-44.921875
8120		-41.015625
8121		-46.875000
8122		-42.968750
8123		-46.875000
8124		-44.921875
8125		-48.828125
8126		-44.921875
8127		-48.828125
8128		-44.921875
8129		-50.781250
8130		-46.875000
8131		-52.734375
8132		-46.875000
8133		-52.734375
8134		-48.828125
8135		-52.734375
8136		-48.828125
8137		-54.687500
8138		-48.828125
8139		-54.687500
8140		-50.781250
8141		-54.687500
8142		-52.734375
8143		-56.640625
8144		-52.734375
8145		-56.640625
8146		-54.687500
8147		-58.593750
8148		-54.687500
8149		-58.593750
8150		-56.640625
8151		-58.593750
8152		-54.687500
8153		-60.546875
8154		-56.640625
8155		-60.546875
8156		-56.640625
8157		-60.546875
8158		-58.593750
8159		-60.546875
8160		-58.593750
8161		-62.500000
8162		-56.640625
8163		-62.500000
8164		-58.593750
8165		-62.500000
8166		-58.593750
8167		-62.500000
8168		-58.593750
8169		-62.500000
8170		-60.546875
8171		-62.500000
8172		-58.593750
8173		-64.453125
8174		-58.593750
8175		-62.500000
8176		-60.546875
8177		-64.453125
8178		-58.593750
8179		-62.500000
8180		-58.593750
8181		-62.500000
8182		-58.593750
8183		-62.500000
8184		-60.546875
8185		-62.500000
8186		-58.593750
8187		-62.500000
8188		-58.593750
8189		-64.453125
8190		-58.593750
8191		-60.546875
8192		-58.593750
8193		-62.500000
8194		-56.640625
8195		-60.546875
8196		-58.593750
8197		-60.546875
8198		-56.640625
8199		-60.546875
8200		-54.687500
8201		-60.546875
8202		-56.640625
8203		-60.546875
8204		-56.640625
8205		-58.593750
8206		-54.687500
8207		-58.593750
8208		-54.687500
8209		-56.640625
8210		-54.687500
8211		-58.593750
8212		-52.734375
8213		-56.640625
8214		-52.734375
8215		-54.687500
8216		-50.781250
8217		-54.687500
8218		-50.781250
8219		-54.687500
8220		-50.781250
8221		-52.734375
8222		-48.828125
8223		-52.734375
8224		-48.828125
8225		-50.781250
8226		-46.875000
8227		-50.781250
8228		-44.921875
8229		-48.828125
8230		-44.921875
8231		-46.875000
8232		-42.968750
8233		-46.875000
8234		-42.968750
8235		-44.921875
8236		-41.015625
8237		-42.968750
8238		-41.015625
8239		-42.968750
8240		-39.062500
8241		-41.015625
8242		-39.062500
8243		-39.062500
8244		-37.109375
8245		-41.015625
8246		-35.156250
8247		-37.109375
8248		-33.203125
8249		-37.109375
8250		-33.203125
8251		-35.156250
8252		-31.250000
8253		-33.203125
8254		-29.296875
8255		-33.203125
8256		-27.343750
8257		-31.250000
8258		-27.343750
8259		-29.296875
8260		-25.390625
8261		-27.343750
8262		-23.437500
8263		-27.343750
8264		-21.484375
8265		-25.390625
8266		-21.484375
8267		-23.437500
8268		-19.531250
8269		-23.437500
8270		-17.578125
8271		-21.484375
8272		-15.625000
8273		-19.531250
8274		-13.671875
8275		-17.578125
8276		-13.671875
8277		-15.625000
8278		-11.718750
8279		-15.625000
8280		-9.765625
8281		-11.718750
8282		-7.812500
8283		-11.718750
8284		-7.812500
8285		-9.765625
8286		-5.859375
8287		-9.765625
8288		-3.906250
8289		-5.859375
8290		-1.953125
8291		-3.906250
8292		0.000000
8293		-1.953125
8294		0.000000
8295		-3.906250
8296		1.953125
8297		0.000000
8298		3.906250
8299		1.953125
8300		5.859375
8301		3.906250
8302		7.812500
8303		3.906250
8304		7.812500
8305		5.859375
8306		9.765625
8307		5.859375
8308		11.718750
8309		9.765625
8310		13.671875
8311		11.718750
8312		15.625000
8313		11.718750
8314		15.625000
8315		13.671875
8316		17.578125
8317		15.625000
8318		17.578125
8319		17.578125
8320		19.531250
8321		17.578125
8322		21.484375
8323		19.531250
8324		23.437500
8325		21.484375
8326		23.437500
8327		23.437500
8328		25.390625
8329		23.437500
8330		27.343750
8331		25.390625
8332		29.296875
8333		25.390625
8334		29.296875
8335		27.343750
8336		31.250000
8337		29.296875
8338		33.203125
8339		29.296875
8340		33.203125
8341		31.250000
8342		35.156250
8343		33.203125
8344		35.156250
8345		33.203125
8346		37.109375
8347		35.156250
8348		39.062500
8349		37.109375
8350		39.062500
8351		37.109375
8352		41.015625
8353		37.109375
8354		41.015625
8355		39.062500
8356		42.968750
8357		41.015625
8358		42.968750
8359		41.015625
8360		44.921875
8361		41.015625
8362		46.875000
8363		42.968750
8364		46.875000
8365		42.968750
8366		46.875000
8367		44.921875
8368		48.828125
8369		46.875000
8370		48.828125
8371		46.875000
8372		48.828125
8373		46.875000
8374		52.734375
8375		48.828125
8376		50.781250
8377		48.828125
8378		50.781250
8379		48.828125
8380		52.734375
8381		48.828125
8382		54.687500
8383		50.781250
8384		54.687500
8385		50.781250
8386		54.687500
8387		50.781250
8388		54.687500
8389		52.734375
8390		54.687500
8391		50.781250
8392		56.640625
8393		52.734375
8394		56.640625
8395		52.734375
8396		56.640625
8397		54.687500
8398		58.593750
8399		52.734375
8400		58.593750
8401		54.687500
8402		58.593750
8403		54.687500
8404		58.593750
8405		54.687500
8406		58.593750
8407		54.687500
8408		58.593750
8409		54.687500
8410		58.593750
8411		54.687500
8412		58.593750
8413		54.687500
8414		58.593750
8415		54.687500
8416		58.593750
8417		54.687500
8418		58.593750
8419		54.687500
8420		58.593750
8421		54.687500
8422		58.593750
8423		54.687500
8424		58.593750
8425		54.687500
8426		58.593750
8427		54.687500
8428		56.640625
8429		52.734375
8430		58.593750
8431		52.734375
8432		56.640625
8433		52.734375
8434		56.640625
8435		52.734375
8436		56.640625
8437		52.734375
8438		56.640625
8439		52.734375
8440		56.640625
8441		50.781250
8442		54.687500
8443		50.781250
8444		54.687500
8445		50.781250
8446		54.687500
8447		50.781250
8448		54.687500
8449		48.828125
8450		52.734375
8451		48.828125
8452		52.734375
8453		48.828125
8454		50.781250
8455		46.875000
8456		50.781250
8457		44.921875
8458		50.781250
8459		46.875000
8460		48.828125
8461		44.921875
8462		48.828125
8463		44.921875
8464		48.828125
8465		42.968750
8466		46.875000
8467		42.968750
8468		46.875000
8469		41.015625
8470		44.921875
8471		41.015625
8472		42.968750
8473		39.062500
8474		42.968750
8475		37.109375
8476		42.968750
8477		37.109375
8478		41.015625
8479		35.156250
8480		39.062500
8481		35.156250
8482		39.062500
8483		33.203125
8484		37.109375
8485		33.203125
8486		37.109375
8487		31.250000
8488		35.156250
8489		29.296875
8490		33.203125
8491		29.296875
8492		33.203125
8493		27.343750
8494		31.250000
8495		27.343750
8496		29.296875
8497		23.437500
8498		29.296875
8499		23.437500
8500		27.343750
8501		21.484375
8502		25.390625
8503		21.484375
8504		23.437500
8505		19.531250
8506		23.437500
8507		17.578125
8508		21.484375
8509		17.578125
8510		21.484375
8511		15.625000
8512		17.578125
8513		11.718750
8514		17.578125
8515		11.718750
8516		15.625000
8517		9.765625
8518		15.625000
8519		7.812500
8520		11.718750
8521		7.812500
8522		11.718750
8523		5.859375
8524		9.765625
8525		3.906250
8526		9.765625
8527		3.906250
8528		5.859375
8529		1.953125
8530		3.906250
8531		0.000000
8532		5.859375
8533		-1.953125
8534		1.953125
8535		-3.906250
8536		0.000000
8537		-5.859375
8538		-1.953125
8539		-5.859375
8540		-3.906250
8541		-9.765625
8542		-3.906250
8543		-9.765625
8544		-5.859375
8545		-11.718750
8546		-7.812500
8547		-11.718750
8548		-9.765625
8549		-15.625000
8550		-9.765625
8551		-15.625000
8552		-11.718750
8553		-17.578125
8554		-13.671875
8555		-19.531250
8556		-15.625000
8557		-21.484375
8558		-17.578125
8559		-21.484375
8560		-17.578125
8561		-23.437500
8562		-19.531250
8563		-25.390625
8564		-21.484375
8565		-27.343750
8566		-23.437500
8567		-27.343750
8568		-23.437500
8569		-29.296875
8570		-25.390625
8571		-31.250000
8572		-27.343750
8573		-31.250000
8574		-29.296875
8575		-35.156250
8576		-29.296875
8577		-35.156250
8578		-31.250000
8579		-35.156250
8580		-33.203125
8581		-39.062500
8582		-33.203125
8583		-39.062500
8584		-35.156250
8585		-39.062500
8586		-37.109375
8587		-42.968750
8588		-39.062500
8589		-42.968750
8590		-39.062500
8591		-44.921875
8592		-41.015625
8593		-44.921875
8594		-41.015625
8595		-46.875000
8596		-42.968750
8597		-46.875000
8598		-42.968750
8599		-48.828125
8600		-44.921875
8601		-48.828125
8602		-46.875000
8603		-50.781250
8604		-46.875000
8605		-52.734375
8606		-48.828125
8607		-52.734375
8608		-48.828125
8609		-54.687500
8610		-48.828125
8611		-54.687500
8612		-50.781250
8613		-54.687500
8614		-52.734375
8615		-54.687500
8616		-52.734375
8617		-56.640625
8618		-52.734375
8619		-56.640625
8620		-54.687500
8621		-58.593750
8622		-54.687500
8623		-58.593750
8624		-54.687500
8625		-60.546875
8626		-54.687500
8627		-58.593750
8628		-56.640625
8629		-60.546875
8630		-56.640625
8631		-60.546875
8632		-56.640625
8633		-62.500000
8634		-58.593750
8635		-62.500000
8636		-58.593750
8637		-62.500000
8638		-58.593750
8639		-62.500000
8640		-58.593750
8641		-62.500000
8642		-58.593750
8643		-62.500000
8644		-58.593750
8645		-62.500000
8646		-60.546875
8647		-64.453125
8648		-58.593750
8649		-62.500000
8650		-58.593750
8651		-62.500000
8652		-60.546875
8653		-62.500000
8654		-58.593750
8655		-64.453125
8656		-58.593750
8657		-62.500000
8658		-60.546875
8659		-62.500000
8660		-58.593750
8661		-62.500000
8662		-58.593750
8663		-60.546875
8664		-58.593750
8665		-62.500000
8666		-56.640625
8667		-60.546875
8668		-58.593750
8669		-60.546875
8670		-56.640625
8671		-60.546875
8672		-56.640625
8673		-60.546875
8674		-56.640625
8675		-60.546875
8676		-56.640625
8677		-60.546875
8678		-54.687500
8679		-58.593750
8680		-54.687500
8681		-56.640625
8682		-52.734375
8683		-56.640625
8684		-52.734375
8685		-56.640625
8686		-52.734375
8687		-54.687500
8688		-52.734375
8689		-54.687500
8690		-50.781250
8691		-54.687500
8692		-50.781250
8693		-52.734375
8694		-48.828125
8695		-50.781250
8696		-48.828125
8697		-50.781250
8698		-46.875000
8699		-50.781250
8700		-46.875000
8701		-48.828125
8702		-44.921875
8703		-48.828125
8704		-44.921875
8705		-48.828125
8706		-42.968750
8707		-46.875000
8708		-41.015625
8709		-44.921875
8710		-39.062500
8711		-42.968750
8712		-39.062500
8713		-41.015625
8714		-39.062500
8715		-42.968750
8716		-37.109375
8717		-41.015625
8718		-35.156250
8719		-39.062500
8720		-35.156250
8721		-37.109375
8722		-33.203125
8723		-35.156250
8724		-31.250000
8725		-35.156250
8726		-29.296875
8727		-33.203125
8728		-29.296875
8729		-31.250000
8730		-29.296875
8731		-31.250000
8732		-25.390625
8733		-29.296875
8734		-25.390625
8735		-27.343750
8736		-23.437500
8737		-25.390625
8738		-21.484375
8739		-25.390625
8740		-21.484375
8741		-23.437500
8742		-19.531250
8743		-21.484375
8744		-17.578125
8745		-19.531250
8746		-15.625000
8747		-17.578125
8748		-15.625000
8749		-17.578125
8750		-11.718750
8751		-15.625000
8752		-11.718750
8753		-13.671875
8754		-9.765625
8755		-11.718750
8756		-7.812500
8757		-11.718750
8758		-5.859375
8759		-9.765625
8760		-3.906250
8761		-7.812500
8762		-3.906250
8763		-5.859375
8764		-1.953125
8765		-3.906250
8766		0.000000
8767		-1.953125
8768		1.953125
8769		-1.953125
8770		3.906250
8771		0.000000
8772		3.906250
8773		1.953125
8774		5.859375
8775		3.906250
8776		7.812500
8777		3.906250
8778		9.765625
8779		7.812500
8780		9.765625
8781		7.812500
8782		11.718750
8783		7.812500
8784		13.671875
8785		11.718750
8786		15.625000
8787		13.671875
8788		15.625000
8789		13.671875
8790		17.578125
8791		15.625000
8792		19.531250
8793		17.578125
8794		21.484375
8795		17.578125
8796		21.484375
8797		19.531250
8798		23.437500
8799		21.484375
8800		25.390625
8801		21.484375
8802		27.343750
8803		23.437500
8804		27.343750
8805		25.390625
8806		29.296875
8807		27.343750
8808		31.250000
8809		27.343750
8810		33.203125
8811		29.296875
8812		33.203125
8813		31.250000
8814		35.156250
8815		31.250000
8816		37.109375
8817		33.203125
8818		37.109375
8819		35.156250
8820		37.109375
8821		35.156250
8822		39.062500
8823		37.109375
8824		39.062500
8825		37.109375
8826		41.015625
8827		39.062500
8828		42.968750
8829		41.015625
8830		42.968750
8831		41.015625
8832		44.921875
8833		41.015625
8834		44.921875
8835		42.968750
8836		46.875000
8837		42.968750
8838		46.875000
8839		44.921875
8840		48.828125
8841		44.921875
8842		48.828125
8843		46.875000
8844		48.828125
8845		46.875000
8846		50.781250
8847		48.828125
8848		50.781250
8849		48.828125
8850		52.734375
8851		48.828125
8852		52.734375
8853		48.828125
8854		52.734375
8855		50.781250
8856		52.734375
8857		50.781250
8858		54.687500
8859		50.781250
8860		54.687500
8861		50.781250
8862		54.687500
8863		52.734375
8864		54.687500
8865		52.734375
8866		56.640625
8867		52.734375
8868		56.640625
8869		52.734375
8870		56.640625
8871		54.687500
8872		56.640625
8873		52.734375
8874		58.593750
8875		54.687500
8876		58.593750
8877		54.687500
8878		58.593750
8879		54.687500
8880		58.593750
8881		54.687500
8882		58.593750
8883		54.687500
8884		58.593750
8885		54.687500
8886		58.593750
8887		54.687500
8888		58.593750
8889		54.687500
8890		58.593750
8891		54.687500
8892		58.593750
8893		54.687500
8894		58.593750
8895		54.687500
8896		58.593750
8897		54.687500
8898		58.593750
8899		54.687500
8900		58.593750
8901		54.687500
8902		58.593750
8903		54.687500
8904		56.640625
8905		54.687500
8906		58.593750
8907		52.734375
8908		56.640625
8909		52.734375
8910		56.640625
8911		52.734375
8912		56.640625
8913		52.734375
8914		54.687500
8915		52.734375
8916		54.687500
8917		50.781250
8918		54.687500
8919		50.781250
8920		54.687500
8921		50.781250
8922		52.734375
8923		48.828125
8924		52.734375
8925		48.828125
8926		52.734375
8927		48.828125
8928		50.781250
8929		46.875000
8930		50.781250
8931		46.875000
8932		48.828125
8933		44.921875
8934		48.828125
8935		44.921875
8936		48.828125
8937		42.968750
8938		46.875000
8939		42.968750
8940		46.875000
8941		42.968750
8942		46.875000
8943		41.015625
8944		44.921875
8945		39.062500
8946		44.921875
8947		39.062500
8948		42.968750
8949		39.062500
8950		41.015625
8951		37.109375
8952		42.968750
8953		35.156250
8954		39.062500
8955		35.156250
8956		39.062500
8957		33.203125
8958		37.109375
8959		31.250000
8960		37.109375
8961		31.250000
8962		35.156250
8963		29.296875
8964		35.156250
8965		29.296875
8966		31.250000
8967		27.343750
8968		31.250000
8969		25.390625
8970		31.250000
8971		25.390625
8972		29.296875
8973		23.437500
8974		27.343750
8975		21.484375
8976		25.390625
8977		19.531250
8978		25.390625
8979		19.531250
8980		23.437500
8981		17.578125
8982		21.484375
8983		15.625000
8984		19.531250
8985		13.671875
8986		19.531250
8987		13.671875
8988		17.578125
8989		11.718750
8990		15.625000
8991		9.765625
8992		13.671875
8993		7.812500
8994		11.718750
8995		7.812500
8996		11.718750
8997		5.859375
8998		9.765625
8999		3.906250
9000		7.812500
9001		1.953125
9002		7.812500
9003		1.953125
9004		5.859375
9005		0.000000
9006		3.906250
9007		-1.953125
9008		1.953125
9009		-3.906250
9010		0.000000
9011		-5.859375
9012		-1.953125
9013		-5.859375
9014		-1.953125
9015		-7.812500
9016		-3.906250
9017		-11.718750
9018		-5.859375
9019		-11.718750
9020		-7.812500
9021		-13.671875
9022		-9.765625
9023		-13.671875
9024		-11.718750
9025		-15.625000
9026		-11.718750
9027		-17.578125
9028		-13.671875
9029		-19.531250
9030		-15.625000
9031		-19.531250
9032		-17.578125
9033		-21.484375
9034		-19.531250
9035		-23.437500
9036		-19.531250
9037		-25.390625
9038		-19.531250
9039		-27.343750
9040		-23.437500
9041		-29.296875
9042		-23.437500
9043		-29.296875
9044		-25.390625
9045		-31.250000
9046		-27.343750
9047		-33.203125
9048		-27.343750
9049		-33.203125
9050		-31.250000
9051		-37.109375
9052		-31.250000
9053		-37.109375
9054		-33.203125
9055		-37.109375
9056		-35.156250
9057		-39.062500
9058		-35.156250
9059		-41.015625
9060		-37.109375
9061		-42.968750
9062		-39.062500
9063		-42.968750
9064		-39.062500
9065		-42.968750
9066		-41.015625
9067		-46.875000
9068		-41.015625
9069		-46.875000
9070		-42.968750
9071		-48.828125
9072		-44.921875
9073		-48.828125
9074		-44.921875
9075		-48.828125
9076		-44.921875
9077		-50.781250
9078		-46.875000
9079		-52.734375
9080		-48.828125
9081		-52.734375
9082		-48.828125
9083		-52.734375
9084		-50.781250
9085		-54.687500
9086		-50.781250
9087		-54.687500
9088		-50.781250
9089		-56.640625
9090		-52.734375
9091		-56.640625
9092		-52.734375
9093		-58.593750
9094		-54.687500
9095		-58.593750
9096		-54.687500
9097		-60.546875
9098		-54.687500
9099		-58.593750
9100		-56.640625
9101		-60.546875
9102		-56.640625
9103		-60.546875
9104		-56.640625
9105		-60.546875
9106		-56.640625
9107		-60.546875
9108		-58.593750
9109		-62.500000
9110		-58.593750
9111		-62.500000
9112		-58.593750
9113		-62.500000
9114		-58.593750
9115		-62.500000
9116		-60.546875
9117		-62.500000
9118		-60.546875
9119		-64.453125
9120		-58.593750
9121		-62.500000
9122		-58.593750
9123		-64.453125
9124		-58.593750
9125		-62.500000
9126		-58.593750
9127		-62.500000
9128		-58.593750
9129		-62.500000
9130		-58.593750
9131		-62.500000
9132		-58.593750
9133		-62.500000
9134		-60.546875
9135		-62.500000
9136		-58.593750
9137		-62.500000
9138		-58.593750
9139		-62.500000
9140		-58.593750
9141		-62.500000
9142		-58.593750
9143		-60.546875
9144		-56.640625
9145		-60.546875
9146		-56.640625
9147		-60.546875
9148		-56.640625
9149		-58.593750
9150		-56.640625
9151		-58.593750
9152		-56.640625
9153		-58.593750
9154		-54.687500
9155		-58.593750
9156		-52.734375
9157		-56.640625
9158		-52.734375
9159		-56.640625
9160		-52.734375
9161		-56.640625
9162		-52.734375
9163		-54.687500
9164		-50.781250
9165		-52.734375
9166		-50.781250
9167		-52.734375
9168		-50.781250
9169		-52.734375
9170		-48.828125
9171		-52.734375
9172		-46.875000
9173		-50.781250
9174		-46.875000
9175		-48.828125
9176		-44.921875
9177		-48.828125
9178		-44.921875
9179		-46.875000
9180		-42.968750
9181		-46.875000
9182		-41.015625
9183		-44.921875
9184		-41.015625
9185		-42.968750
9186		-39.062500
9187		-42.968750
9188		-39.062500
9189		-41.015625
9190		-37.109375
9191		-41.015625
9192		-37.109375
9193		-39.062500
9194		-35.156250
9195		-37.109375
9196		-33.203125
9197		-37.109375
9198		-31.250000
9199		-33.203125
9200		-31.250000
9201		-33.203125
9202		-29.296875
9203		-33.203125
9204		-27.343750
9205		-29.296875
9206		-25.390625
9207		-29.296875
9208		-25.390625
9209		-27.343750
9210		-23.437500
9211		-25.390625
9212		-21.484375
9213		-23.437500
9214		-19.531250
9215		-23.437500
9216		-19.531250
9217		-21.484375
9218		-17.578125
9219		-19.531250
9220		-15.625000
9221		-17.578125
9222		-13.671875
9223		-17.578125
9224		-11.718750
9225		-15.625000
9226		-11.718750
9227		-13.671875
9228		-9.765625
9229		-11.718750
9230		-7.812500
9231		-11.718750
9232		-5.859375
9233		-7.812500
9234		-5.859375
9235		-7.812500
9236		-3.906250
9237		-5.859375
9238		-1.953125
9239		-3.906250
9240		0.000000
9241		-3.906250
9242		1.953125
9243		-1.953125
9244		1.953125
9245		1.953125
9246		5.859375
9247		1.953125
9248		7.812500
9249		1.953125
9250		7.812500
9251		5.859375
9252		9.765625
9253		5.859375
9254		11.718750
9255		7.812500
9256		13.671875
9257		9.765625
9258		13.671875
9259		11.718750
9260		15.625000
9261		11.718750
9262		17.578125
9263		13.671875
9264		19.531250
9265		15.625000
9266		19.531250
9267		17.578125
9268		21.484375
9269		17.578125
9270		23.437500
9271		19.531250
9272		25.390625
9273		21.484375
9274		25.390625
9275		21.484375
9276		27.343750
9277		25.390625
9278		27.343750
9279		25.390625
9280		29.296875
9281		27.343750
9282		31.250000
9283		29.296875
9284		31.250000
9285		29.296875
9286		33.203125
9287		29.296875
9288		35.156250
9289		33.203125
9290		37.109375
9291		33.203125
9292		37.109375
9293		35.156250
9294		37.109375
9295		35.156250
9296		39.062500
9297		37.109375
9298		41.015625
9299		37.109375
9300		41.015625
9301		39.062500
9302		42.968750
9303		39.062500
9304		44.921875
9305		41.015625
9306		44.921875
9307		41.015625
9308		44.921875
9309		42.968750
9310		44.921875
9311		42.968750
9312		46.875000
9313		44.921875
9314		48.828125
9315		44.921875
9316		48.828125
9317		46.875000
9318		48.828125
9319		46.875000
9320		50.781250
9321		46.875000
9322		50.781250
9323		48.828125
9324		52.734375
9325		48.828125
9326		52.734375
9327		50.781250
9328		52.734375
9329		50.781250
9330		54.687500
9331		50.781250
9332		54.687500
9333		50.781250
9334		54.687500
9335		52.734375
9336		54.687500
9337		50.781250
9338		56.640625
9339		52.734375
9340		56.640625
9341		52.734375
9342		56.640625
9343		54.687500
9344		56.640625
9345		54.687500
9346		56.640625
9347		54.687500
9348		58.593750
9349		54.687500
9350		58.593750
9351		54.687500
9352		56.640625
9353		54.687500
9354		58.593750
9355		54.687500
9356		58.593750
9357		54.687500
9358		58.593750
9359		54.687500
9360		58.593750
9361		54.687500
9362		58.593750
9363		54.687500
9364		58.593750
9365		54.687500
9366		58.593750
9367		54.687500
9368		58.593750
9369		54.687500
9370		58.593750
9371		54.687500
9372		58.593750
9373		54.687500
9374		58.593750
9375		54.687500
9376		56.640625
9377		54.687500
9378		56.640625
9379		54.687500
9380		56.640625
9381		54.687500
9382		56.640625
9383		52.734375
9384		58.593750
9385		52.734375
9386		54.687500
9387		52.734375
9388		56.640625
9389		52.734375
9390		54.687500
9391		50.781250
9392		54.687500
9393		50.781250
9394		54.687500
9395		48.828125
9396		54.687500
9397		48.828125
9398		52.734375
9399		48.828125
9400		52.734375
9401		48.828125
9402		50.781250
9403		46.875000
9404		50.781250
9405		46.875000
9406		50.781250
9407		44.921875
9408		48.828125
9409		44.921875
9410		48.828125
9411		44.921875
9412		46.875000
9413		42.968750
9414		46.875000
9415		41.015625
9416		46.875000
9417		41.015625
9418		44.921875
9419		41.015625
9420		42.968750
9421		39.062500
9422		42.968750
9423		37.109375
9424		41.015625
9425		37.109375
9426		41.015625
9427		35.156250
9428		39.062500
9429		35.156250
9430		39.062500
9431		33.203125
9432		37.109375
9433		31.250000
9434		35.156250
9435		31.250000
9436		35.156250
9437		27.343750
9438		33.203125
9439		27.343750
9440		33.203125
9441		27.343750
9442		31.250000
9443		25.390625
9444		29.296875
9445		25.390625
9446		29.296875
9447		21.484375
9448		27.343750
9449		19.531250
9450		25.390625
9451		21.484375
9452		23.437500
9453		19.531250
9454		23.437500
9455		17.578125
9456		21.484375
9457		17.578125
9458		19.531250
9459		15.625000
9460		19.531250
9461		13.671875
9462		17.578125
9463		11.718750
9464		15.625000
9465		9.765625
9466		15.625000
9467		7.812500
9468		13.671875
9469		7.812500
9470		9.765625
9471		3.906250
9472		9.765625
9473		3.906250
9474		7.812500
9475		1.953125
9476		5.859375
9477		0.000000
9478		5.859375
9479		-1.953125
9480		3.906250
9481		-1.953125
9482		1.953125
9483		-3.906250
9484		0.000000
9485		-3.906250
9486		-1.953125
9487		-5.859375
9488		-3.906250
9489		-7.812500
9490		-3.906250
9491		-11.718750
9492		-5.859375
9493		-11.718750
9494		-7.812500
9495		-13.671875
9496		-9.765625
9497		-15.625000
9498		-9.765625
9499		-17.578125
9500		-11.718750
9501		-17.578125
9502		-13.671875
9503		-19.531250
9504		-15.625000
9505		-21.484375
9506		-17.578125
9507		-23.437500
9508		-17.578125
9509		-23.437500
9510		-19.531250
9511		-25.390625
9512		-21.484375
9513		-27.343750
9514		-23.437500
9515		-27.343750
9516		-23.437500
9517		-29.296875
9518		-25.390625
9519		-31.250000
9520		-27.343750
9521		-33.203125
9522		-29.296875
9523		-35.156250
9524		-31.250000
9525		-35.156250
9526		-31.250000
9527		-37.109375
9528		-33.203125
9529		-39.062500
9530		-33.203125
9531		-39.062500
9532		-35.156250
9533		-41.015625
9534		-37.109375
9535		-41.015625
9536		-39.062500
9537		-42.968750
9538		-39.062500
9539		-44.921875
9540		-39.062500
9541		-44.921875
9542		-41.015625
9543		-46.875000
9544		-42.968750
9545		-48.828125
9546		-42.968750
9547		-48.828125
9548		-44.921875
9549		-50.781250
9550		-44.921875
9551		-50.781250
9552		-44.921875
9553		-50.781250
9554		-48.828125
9555		-52.734375
9556		-48.828125
9557		-52.734375
9558		-50.781250
9559		-54.687500
9560		-50.781250
9561		-54.687500
9562		-52.734375
9563		-56.640625
9564		-52.734375
9565		-56.640625
9566		-52.734375
9567		-58.593750
9568		-54.687500
9569		-58.593750
9570		-54.687500
9571		-58.593750
9572		-56.640625
9573		-60.546875
9574		-54.687500
9575		-60.546875
9576		-56.640625
9577		-60.546875
9578		-56.640625
9579		-60.546875
9580		-56.640625
9581		-60.546875
9582		-56.640625
9583		-62.500000
9584		-58.593750
9585		-62.500000
9586		-56.640625
9587		-60.546875
9588		-58.593750
9589		-62.500000
9590		-58.593750
9591		-62.500000
9592		-58.593750
9593		-62.500000
9594		-58.593750
9595		-62.500000
9596		-58.593750
9597		-62.500000
9598		-58.593750
9599		-62.500000
9600		-58.593750
9601		-64.453125
9602		-58.593750
9603		-62.500000
9604		-58.593750
9605		-62.500000
9606		-58.593750
9607		-62.500000
9608		-58.593750
9609		-62.500000
9610		-58.593750
9611		-62.500000
9612		-58.593750
9613		-60.546875
9614		-58.593750
9615		-60.546875
9616		-56.640625
9617		-60.546875
9618		-54.687500
9619		-58.593750
9620		-56.640625
9621		-58.593750
9622		-56.640625
9623		-60.546875
9624		-54.687500
9625		-58.593750
9626		-54.687500
9627		-58.593750
9628		-52.734375
9629		-56.640625
9630		-54.687500
9631		-56.640625
9632		-52.734375
9633		-54.687500
9634		-52.734375
9635		-54.687500
9636		-50.781250
9637		-54.687500
9638		-50.781250
9639		-54.687500
9640		-48.828125
9641		-52.734375
9642		-48.828125
9643		-50.781250
9644		-46.875000
9645		-50.781250
9646		-46.875000
9647		-48.828125
9648		-44.921875
9649		-48.828125
9650		-44.921875
9651		-48.828125
9652		-42.968750
9653		-44.921875
9654		-42.968750
9655		-44.921875
9656		-41.015625
9657		-42.968750
9658		-39.062500
9659		-42.968750
9660		-39.062500
9661		-41.015625
9662		-37.109375
9663		-41.015625
9664		-37.109375
9665		-39.062500
9666		-35.156250
9667		-37.109375
9668		-33.203125
9669		-37.109375
9670		-31.250000
9671		-35.156250
9672		-31.250000
9673		-33.203125
9674		-29.296875
9675		-31.250000
9676		-29.296875
9677		-31.250000
9678		-27.343750
9679		-29.296875
9680		-25.390625
9681		-27.343750
9682		-23.437500
9683		-25.390625
9684		-21.484375
9685		-25.390625
9686		-19.531250
9687		-23.437500
9688		-19.531250
9689		-21.484375
9690		-15.625000
9691		-19.531250
9692		-17.578125
9693		-19.531250
9694		-15.625000
9695		-17.578125
9696		-13.671875
9697		-15.625000
9698		-11.718750
9699		-13.671875
9700		-9.765625
9701		-13.671875
9702		-7.812500
9703		-11.718750
9704		-7.812500
9705		-9.765625
9706		-5.859375
9707		-9.765625
9708		-3.906250
9709		-7.812500
9710		-1.953125
9711		-5.859375
9712		0.000000
9713		-3.906250
9714		1.953125
9715		-1.953125
9716		1.953125
9717		0.000000
9718		3.906250
9719		0.000000
9720		5.859375
9721		3.906250
9722		5.859375
9723		3.906250
9724		9.765625
9725		5.859375
9726		9.765625
9727		7.812500
9728		11.718750
9729		9.765625
9730		13.671875
9731		9.765625
9732		13.671875
9733		11.718750
9734		15.625000
9735		13.671875
9736		19.531250
9737		13.671875
9738		19.531250
9739		17.578125
9740		19.531250
9741		17.578125
9742		21.484375
9743		19.531250
9744		23.437500
9745		21.484375
9746		25.390625
9747		23.437500
9748		25.390625
9749		23.437500
9750		27.343750
9751		25.390625
9752		29.296875
9753		25.390625
9754		29.296875
9755		27.343750
9756		31.250000
9757		29.296875
9758		33.203125
9759		31.250000
9760		33.203125
9761		31.250000
9762		35.156250
9763		33.203125
9764		37.109375
9765		33.203125
9766		37.109375
9767		35.156250
9768		39.062500
9769		35.156250
9770		41.015625
9771		37.109375
9772		41.015625
9773		39.062500
9774		41.015625
9775		39.062500
9776		42.968750
9777		41.015625
9778		44.921875
9779		41.015625
9780		44.921875
9781		42.968750
9782		46.875000
9783		42.968750
9784		46.875000
9785		44.921875
9786		48.828125
9787		44.921875
9788		48.828125
9789		46.875000
9790		48.828125
9791		46.875000
9792		50.781250
9793		46.875000
9794		50.781250
9795		46.875000
9796		52.734375
9797		48.828125
9798		52.734375
9799		50.781250
9800		52.734375
9801		50.781250
9802		52.734375
9803		50.781250
9804		54.687500
9805		52.734375
9806		54.687500
9807		52.734375
9808		54.687500
9809		52.734375
9810		56.640625
9811		52.734375
9812		56.640625
9813		52.734375
9814		56.640625
9815		54.687500
9816		56.640625
9817		54.687500
9818		58.593750
9819		54.687500
9820		58.593750
9821		54.687500
9822		58.593750
9823		56.640625
9824		58.593750
9825		54.687500
9826		58.593750
9827		54.687500
9828		58.593750
9829		56.640625
9830		58.593750
9831		54.687500
9832		58.593750
9833		54.687500
9834		58.593750
9835		54.687500
9836		60.546875
9837		56.640625
9838		60.546875
9839		56.640625
9840		58.593750
9841		54.687500
9842		60.546875
9843		56.640625
9844		58.593750
9845		54.687500
9846		58.593750
9847		54.687500
9848		58.593750
9849		54.687500
9850		58.593750
9851		54.687500
9852		58.593750
9853		52.734375
9854		58.593750
9855		54.687500
9856		56.640625
9857		54.687500
9858		56.640625
9859		52.734375
9860		56.640625
9861		52.734375
9862		56.640625
9863		52.734375
9864		56.640625
9865		52.734375
9866		54.687500
9867		50.781250
9868		54.687500
9869		48.828125
9870		54.687500
9871		48.828125
9872		54.687500
9873		50.781250
9874		52.734375
9875		46.875000
9876		52.734375
9877		46.875000
9878		52.734375
9879		46.875000
9880		50.781250
9881		44.921875
9882		50.781250
9883		44.921875
9884		48.828125
9885		44.921875
9886		48.828125
9887		42.968750
9888		46.875000
9889		42.968750
9890		44.921875
9891		41.015625
9892		44.921875
9893		41.015625
9894		44.921875
9895		39.062500
9896		42.968750
9897		39.062500
9898		42.968750
9899		37.109375
9900		41.015625
9901		37.109375
9902		41.015625
9903		35.156250
9904		39.062500
9905		35.156250
9906		37.109375
9907		33.203125
9908		37.109375
9909		31.250000
9910		37.109375
9911		31.250000
9912		33.203125
9913		29.296875
9914		33.203125
9915		27.343750
9916		31.250000
9917		25.390625
9918		31.250000
9919		25.390625
9920		29.296875
9921		23.437500
9922		27.343750
9923		23.437500
9924		25.390625
9925		21.484375
9926		25.390625
9927		19.531250
9928		23.437500
9929		17.578125
9930		21.484375
9931		17.578125
9932		19.531250
9933		15.625000
9934		19.531250
9935		13.671875
9936		17.578125
9937		11.718750
9938		15.625000
9939		11.718750
9940		13.671875
9941		9.765625
9942		11.718750
9943		7.812500
9944		11.718750
9945		5.859375
9946		9.765625
9947		3.906250
9948		7.812500
9949		1.953125
9950		5.859375
9951		1.953125
9952		5.859375
9953		0.000000
9954		3.906250
9955		-1.953125
9956		3.906250
9957		-1.953125
9958		0.000000
9959		-5.859375
9960		0.000000
9961		-7.812500
9962		-1.953125
9963		-7.812500
9964		-3.906250
9965		-9.765625
9966		-3.906250
9967		-11.718750
9968		-7.812500
9969		-11.718750
9970		-7.812500
9971		-13.671875
9972		-9.765625
9973		-15.625000
9974		-11.718750
9975		-19.531250
9976		-13.671875
9977		-19.531250
9978		-15.625000
9979		-21.484375
9980		-15.625000
9981		-21.484375
9982		-17.578125
9983		-23.437500
9984		-19.531250
9985		-25.390625
9986		-21.484375
9987		-27.343750
9988		-23.437500
9989		-27.343750
9990		-25.390625
9991		-29.296875
9992		-25.390625
9993		-33.203125
9994		-25.390625
9995		-33.203125
9996		-29.296875
9997		-33.203125
9998		-29.296875
9999		-35.156250
10000		-31.250000
