Channel              :		CH1
Frequency            :		1.056kHz
Period               :		0.947ms
PK-PK                :		201.2mV
Probe attenuation    :		1X
Voltage per ADC value:		0.122070mV
Time interval        :		2.00000us

index		CH1_Voltage(mV)
1		17.578125
2		17.578125
3		25.390625
4		15.625000
5		23.437500
6		11.718750
7		21.484375
8		11.718750
9		17.578125
10		9.765625
11		13.671875
12		5.859375
13		11.718750
14		1.953125
15		11.718750
16		0.000000
17		7.812500
18		-1.953125
19		5.859375
20		-5.859375
21		3.906250
22		-7.812500
23		0.000000
24		-9.765625
25		-1.953125
26		-9.765625
27		-5.859375
28		-13.671875
29		-9.765625
30		-17.578125
31		-9.765625
32		-19.531250
33		-11.718750
34		-23.437500
35		-13.671875
36		-25.390625
37		-17.578125
38		-29.296875
39		-19.531250
40		-29.296875
41		-23.437500
42		-31.250000
43		-25.390625
44		-33.203125
45		-29.296875
46		-39.062500
47		-31.250000
48		-41.015625
49		-33.203125
50		-42.968750
51		-35.156250
52		-44.921875
53		-37.109375
54		-48.828125
55		-39.062500
56		-50.781250
57		-41.015625
58		-50.781250
59		-44.921875
60		-52.734375
61		-48.828125
62		-56.640625
63		-50.781250
64		-60.546875
65		-50.781250
66		-62.500000
67		-54.687500
68		-64.453125
69		-56.640625
70		-66.406250
71		-58.593750
72		-68.359375
73		-60.546875
74		-70.312500
75		-62.500000
76		-70.312500
77		-66.406250
78		-72.265625
79		-68.359375
80		-76.171875
81		-68.359375
82		-78.125000
83		-70.312500
84		-80.078125
85		-72.265625
86		-82.031250
87		-74.218750
88		-83.984375
89		-76.171875
90		-85.937500
91		-78.125000
92		-85.937500
93		-80.078125
94		-85.937500
95		-83.984375
96		-89.843750
97		-83.984375
98		-91.796875
99		-83.984375
100		-93.750000
101		-85.937500
102		-93.750000
103		-85.937500
104		-95.703125
105		-87.890625
106		-95.703125
107		-87.890625
108		-97.656250
109		-89.843750
110		-95.703125
111		-93.750000
112		-97.656250
113		-95.703125
114		-101.562500
115		-93.750000
116		-101.562500
117		-93.750000
118		-101.562500
119		-95.703125
120		-103.515625
121		-95.703125
122		-103.515625
123		-95.703125
124		-103.515625
125		-97.656250
126		-103.515625
127		-99.609375
128		-103.515625
129		-99.609375
130		-105.468750
131		-97.656250
132		-105.468750
133		-97.656250
134		-105.468750
135		-97.656250
136		-105.468750
137		-97.656250
138		-105.468750
139		-97.656250
140		-105.468750
141		-99.609375
142		-105.468750
143		-99.609375
144		-103.515625
145		-99.609375
146		-103.515625
147		-99.609375
148		-105.468750
149		-97.656250
150		-103.515625
151		-95.703125
152		-103.515625
153		-97.656250
154		-103.515625
155		-95.703125
156		-101.562500
157		-95.703125
158		-101.562500
159		-95.703125
160		-97.656250
161		-95.703125
162		-97.656250
163		-95.703125
164		-99.609375
165		-91.796875
166		-97.656250
167		-89.843750
168		-97.656250
169		-89.843750
170		-95.703125
171		-87.890625
172		-93.750000
173		-85.937500
174		-93.750000
175		-85.937500
176		-89.843750
177		-85.937500
178		-87.890625
179		-85.937500
180		-87.890625
181		-82.031250
182		-85.937500
183		-80.078125
184		-85.937500
185		-78.125000
186		-83.984375
187		-76.171875
188		-82.031250
189		-74.218750
190		-80.078125
191		-72.265625
192		-78.125000
193		-72.265625
194		-74.218750
195		-70.312500
196		-72.265625
197		-68.359375
198		-72.265625
199		-64.453125
200		-72.265625
201		-62.500000
202		-68.359375
203		-60.546875
204		-66.406250
205		-58.593750
206		-64.453125
207		-56.640625
208		-62.500000
209		-54.687500
210		-60.546875
211		-52.734375
212		-54.687500
213		-50.781250
214		-54.687500
215		-46.875000
216		-52.734375
217		-44.921875
218		-50.781250
219		-41.015625
220		-48.828125
221		-41.015625
222		-44.921875
223		-37.109375
224		-42.968750
225		-35.156250
226		-41.015625
227		-33.203125
228		-35.156250
229		-31.250000
230		-33.203125
231		-25.390625
232		-33.203125
233		-25.390625
234		-31.250000
235		-21.484375
236		-27.343750
237		-19.531250
238		-25.390625
239		-17.578125
240		-23.437500
241		-13.671875
242		-19.531250
243		-11.718750
244		-15.625000
245		-11.718750
246		-13.671875
247		-9.765625
248		-11.718750
249		-3.906250
250		-9.765625
251		-1.953125
252		-7.812500
253		1.953125
254		-5.859375
255		3.906250
256		-3.906250
257		5.859375
258		0.000000
259		9.765625
260		1.953125
261		9.765625
262		7.812500
263		11.718750
264		9.765625
265		15.625000
266		9.765625
267		19.531250
268		11.718750
269		21.484375
270		15.625000
271		23.437500
272		17.578125
273		27.343750
274		19.531250
275		29.296875
276		21.484375
277		29.296875
278		27.343750
279		31.250000
280		29.296875
281		33.203125
282		29.296875
283		37.109375
284		31.250000
285		39.062500
286		33.203125
287		41.015625
288		35.156250
289		44.921875
290		37.109375
291		46.875000
292		41.015625
293		46.875000
294		42.968750
295		48.828125
296		46.875000
297		50.781250
298		46.875000
299		54.687500
300		48.828125
301		56.640625
302		48.828125
303		58.593750
304		52.734375
305		60.546875
306		54.687500
307		62.500000
308		54.687500
309		64.453125
310		56.640625
311		64.453125
312		62.500000
313		64.453125
314		62.500000
315		68.359375
316		62.500000
317		70.312500
318		64.453125
319		72.265625
320		64.453125
321		74.218750
322		66.406250
323		74.218750
324		68.359375
325		76.171875
326		70.312500
327		78.125000
328		72.265625
329		76.171875
330		74.218750
331		78.125000
332		74.218750
333		82.031250
334		74.218750
335		82.031250
336		76.171875
337		82.031250
338		78.125000
339		83.984375
340		78.125000
341		85.937500
342		78.125000
343		85.937500
344		80.078125
345		85.937500
346		83.984375
347		85.937500
348		83.984375
349		89.843750
350		82.031250
351		89.843750
352		82.031250
353		89.843750
354		83.984375
355		91.796875
356		83.984375
357		91.796875
358		83.984375
359		91.796875
360		83.984375
361		91.796875
362		87.890625
363		89.843750
364		87.890625
365		89.843750
366		85.937500
367		93.750000
368		85.937500
369		93.750000
370		85.937500
371		93.750000
372		85.937500
373		93.750000
374		85.937500
375		93.750000
376		85.937500
377		93.750000
378		85.937500
379		93.750000
380		87.890625
381		91.796875
382		85.937500
383		91.796875
384		83.984375
385		93.750000
386		83.984375
387		93.750000
388		83.984375
389		91.796875
390		83.984375
391		91.796875
392		83.984375
393		91.796875
394		82.031250
395		89.843750
396		85.937500
397		87.890625
398		82.031250
399		87.890625
400		82.031250
401		89.843750
402		80.078125
403		87.890625
404		80.078125
405		87.890625
406		78.125000
407		85.937500
408		78.125000
409		85.937500
410		76.171875
411		83.984375
412		78.125000
413		82.031250
414		76.171875
415		80.078125
416		72.265625
417		80.078125
418		72.265625
419		80.078125
420		70.312500
421		78.125000
422		70.312500
423		76.171875
424		68.359375
425		76.171875
426		66.406250
427		74.218750
428		66.406250
429		72.265625
430		66.406250
431		68.359375
432		62.500000
433		70.312500
434		60.546875
435		68.359375
436		58.593750
437		66.406250
438		56.640625
439		64.453125
440		54.687500
441		62.500000
442		52.734375
443		60.546875
444		50.781250
445		58.593750
446		50.781250
447		54.687500
448		48.828125
449		52.734375
450		44.921875
451		54.687500
452		42.968750
453		50.781250
454		41.015625
455		50.781250
456		39.062500
457		46.875000
458		37.109375
459		44.921875
460		35.156250
461		42.968750
462		33.203125
463		41.015625
464		33.203125
465		37.109375
466		27.343750
467		35.156250
468		25.390625
469		33.203125
470		23.437500
471		31.250000
472		21.484375
473		29.296875
474		19.531250
475		27.343750
476		15.625000
477		23.437500
478		15.625000
479		21.484375
480		13.671875
481		17.578125
482		9.765625
483		15.625000
484		5.859375
485		15.625000
486		3.906250
487		11.718750
488		0.000000
489		9.765625
490		-1.953125
491		7.812500
492		-3.906250
493		3.906250
494		-7.812500
495		0.000000
496		-5.859375
497		-1.953125
498		-9.765625
499		-5.859375
500		-15.625000
501		-5.859375
502		-17.578125
503		-9.765625
504		-19.531250
505		-11.718750
506		-21.484375
507		-13.671875
508		-25.390625
509		-15.625000
510		-27.343750
511		-19.531250
512		-29.296875
513		-21.484375
514		-29.296875
515		-25.390625
516		-35.156250
517		-27.343750
518		-37.109375
519		-29.296875
520		-39.062500
521		-31.250000
522		-41.015625
523		-33.203125
524		-44.921875
525		-35.156250
526		-46.875000
527		-39.062500
528		-48.828125
529		-41.015625
530		-48.828125
531		-44.921875
532		-52.734375
533		-48.828125
534		-56.640625
535		-48.828125
536		-58.593750
537		-50.781250
538		-60.546875
539		-52.734375
540		-64.453125
541		-56.640625
542		-66.406250
543		-56.640625
544		-68.359375
545		-58.593750
546		-68.359375
547		-62.500000
548		-70.312500
549		-66.406250
550		-74.218750
551		-66.406250
552		-76.171875
553		-66.406250
554		-78.125000
555		-70.312500
556		-80.078125
557		-70.312500
558		-80.078125
559		-74.218750
560		-83.984375
561		-76.171875
562		-83.984375
563		-76.171875
564		-83.984375
565		-80.078125
566		-85.937500
567		-82.031250
568		-89.843750
569		-82.031250
570		-91.796875
571		-83.984375
572		-93.750000
573		-85.937500
574		-93.750000
575		-85.937500
576		-95.703125
577		-87.890625
578		-97.656250
579		-89.843750
580		-95.703125
581		-91.796875
582		-95.703125
583		-93.750000
584		-99.609375
585		-91.796875
586		-101.562500
587		-93.750000
588		-101.562500
589		-93.750000
590		-103.515625
591		-93.750000
592		-103.515625
593		-95.703125
594		-103.515625
595		-95.703125
596		-103.515625
597		-97.656250
598		-101.562500
599		-99.609375
600		-105.468750
601		-97.656250
602		-105.468750
603		-97.656250
604		-105.468750
605		-97.656250
606		-105.468750
607		-99.609375
608		-105.468750
609		-99.609375
610		-107.421875
611		-99.609375
612		-105.468750
613		-99.609375
614		-103.515625
615		-101.562500
616		-103.515625
617		-101.562500
618		-105.468750
619		-99.609375
620		-105.468750
621		-97.656250
622		-105.468750
623		-97.656250
624		-105.468750
625		-97.656250
626		-103.515625
627		-97.656250
628		-103.515625
629		-95.703125
630		-101.562500
631		-97.656250
632		-99.609375
633		-97.656250
634		-99.609375
635		-93.750000
636		-99.609375
637		-91.796875
638		-99.609375
639		-91.796875
640		-97.656250
641		-89.843750
642		-97.656250
643		-89.843750
644		-97.656250
645		-87.890625
646		-95.703125
647		-87.890625
648		-91.796875
649		-87.890625
650		-89.843750
651		-85.937500
652		-89.843750
653		-82.031250
654		-89.843750
655		-80.078125
656		-87.890625
657		-80.078125
658		-85.937500
659		-78.125000
660		-83.984375
661		-76.171875
662		-82.031250
663		-74.218750
664		-78.125000
665		-74.218750
666		-76.171875
667		-72.265625
668		-76.171875
669		-68.359375
670		-76.171875
671		-66.406250
672		-72.265625
673		-64.453125
674		-70.312500
675		-62.500000
676		-68.359375
677		-60.546875
678		-66.406250
679		-58.593750
680		-64.453125
681		-58.593750
682		-60.546875
683		-56.640625
684		-58.593750
685		-52.734375
686		-58.593750
687		-48.828125
688		-54.687500
689		-46.875000
690		-52.734375
691		-44.921875
692		-50.781250
693		-41.015625
694		-46.875000
695		-39.062500
696		-44.921875
697		-37.109375
698		-41.015625
699		-37.109375
700		-39.062500
701		-35.156250
702		-37.109375
703		-29.296875
704		-35.156250
705		-27.343750
706		-33.203125
707		-25.390625
708		-31.250000
709		-21.484375
710		-27.343750
711		-19.531250
712		-25.390625
713		-15.625000
714		-21.484375
715		-15.625000
716		-17.578125
717		-13.671875
718		-15.625000
719		-9.765625
720		-15.625000
721		-5.859375
722		-11.718750
723		-3.906250
724		-9.765625
725		-1.953125
726		-7.812500
727		1.953125
728		-5.859375
729		3.906250
730		-1.953125
731		5.859375
732		1.953125
733		5.859375
734		5.859375
735		9.765625
736		5.859375
737		13.671875
738		7.812500
739		15.625000
740		11.718750
741		19.531250
742		13.671875
743		21.484375
744		15.625000
745		23.437500
746		17.578125
747		27.343750
748		19.531250
749		27.343750
750		25.390625
751		29.296875
752		27.343750
753		33.203125
754		27.343750
755		35.156250
756		29.296875
757		37.109375
758		31.250000
759		39.062500
760		33.203125
761		42.968750
762		35.156250
763		42.968750
764		37.109375
765		44.921875
766		42.968750
767		46.875000
768		44.921875
769		48.828125
770		44.921875
771		52.734375
772		46.875000
773		54.687500
774		48.828125
775		56.640625
776		50.781250
777		58.593750
778		52.734375
779		60.546875
780		54.687500
781		62.500000
782		58.593750
783		62.500000
784		60.546875
785		62.500000
786		58.593750
787		66.406250
788		60.546875
789		68.359375
790		62.500000
791		70.312500
792		64.453125
793		72.265625
794		66.406250
795		74.218750
796		68.359375
797		74.218750
798		68.359375
799		74.218750
800		72.265625
801		76.171875
802		72.265625
803		78.125000
804		72.265625
805		80.078125
806		74.218750
807		80.078125
808		74.218750
809		82.031250
810		76.171875
811		83.984375
812		76.171875
813		83.984375
814		78.125000
815		83.984375
816		82.031250
817		83.984375
818		82.031250
819		83.984375
820		80.078125
821		87.890625
822		82.031250
823		87.890625
824		82.031250
825		89.843750
826		82.031250
827		89.843750
828		83.984375
829		89.843750
830		83.984375
831		91.796875
832		85.937500
833		91.796875
834		87.890625
835		89.843750
836		85.937500
837		91.796875
838		85.937500
839		93.750000
840		85.937500
841		93.750000
842		85.937500
843		93.750000
844		85.937500
845		93.750000
846		85.937500
847		93.750000
848		85.937500
849		93.750000
850		87.890625
851		89.843750
852		87.890625
853		91.796875
854		85.937500
855		93.750000
856		85.937500
857		93.750000
858		85.937500
859		91.796875
860		85.937500
861		91.796875
862		83.984375
863		91.796875
864		83.984375
865		91.796875
866		85.937500
867		89.843750
868		85.937500
869		87.890625
870		82.031250
871		89.843750
872		82.031250
873		89.843750
874		80.078125
875		87.890625
876		80.078125
877		87.890625
878		80.078125
879		87.890625
880		78.125000
881		85.937500
882		78.125000
883		85.937500
884		78.125000
885		82.031250
886		76.171875
887		82.031250
888		74.218750
889		82.031250
890		74.218750
891		80.078125
892		72.265625
893		80.078125
894		70.312500
895		78.125000
896		70.312500
897		78.125000
898		68.359375
899		76.171875
900		68.359375
901		72.265625
902		68.359375
903		70.312500
904		64.453125
905		70.312500
906		62.500000
907		70.312500
908		60.546875
909		68.359375
910		58.593750
911		66.406250
912		56.640625
913		64.453125
914		54.687500
915		62.500000
916		54.687500
917		62.500000
918		54.687500
919		56.640625
920		48.828125
921		56.640625
922		46.875000
923		56.640625
924		44.921875
925		54.687500
926		42.968750
927		50.781250
928		41.015625
929		48.828125
930		39.062500
931		46.875000
932		37.109375
933		44.921875
934		37.109375
935		41.015625
936		33.203125
937		39.062500
938		31.250000
939		39.062500
940		27.343750
941		37.109375
942		27.343750
943		33.203125
944		23.437500
945		31.250000
946		21.484375
947		29.296875
948		17.578125
949		27.343750
950		19.531250
951		21.484375
952		15.625000
953		19.531250
954		11.718750
955		19.531250
956		7.812500
957		17.578125
958		5.859375
959		13.671875
960		3.906250
961		11.718750
962		0.000000
963		9.765625
964		0.000000
965		5.859375
966		-1.953125
967		3.906250
968		-3.906250
969		0.000000
970		-7.812500
971		-3.906250
972		-11.718750
973		-3.906250
974		-13.671875
975		-5.859375
976		-17.578125
977		-7.812500
978		-19.531250
979		-9.765625
980		-21.484375
981		-13.671875
982		-23.437500
983		-15.625000
984		-25.390625
985		-21.484375
986		-27.343750
987		-23.437500
988		-31.250000
989		-25.390625
990		-35.156250
991		-27.343750
992		-37.109375
993		-29.296875
994		-41.015625
995		-31.250000
996		-41.015625
997		-33.203125
998		-44.921875
999		-37.109375
1000		-44.921875
1001		-39.062500
1002		-46.875000
1003		-42.968750
1004		-52.734375
1005		-44.921875
1006		-54.687500
1007		-46.875000
1008		-56.640625
1009		-46.875000
1010		-58.593750
1011		-50.781250
1012		-62.500000
1013		-52.734375
1014		-62.500000
1015		-54.687500
1016		-64.453125
1017		-56.640625
1018		-64.453125
1019		-60.546875
1020		-68.359375
1021		-64.453125
1022		-72.265625
1023		-64.453125
1024		-74.218750
1025		-64.453125
1026		-74.218750
1027		-68.359375
1028		-78.125000
1029		-68.359375
1030		-80.078125
1031		-72.265625
1032		-82.031250
1033		-74.218750
1034		-80.078125
1035		-76.171875
1036		-82.031250
1037		-78.125000
1038		-85.937500
1039		-80.078125
1040		-87.890625
1041		-80.078125
1042		-89.843750
1043		-80.078125
1044		-91.796875
1045		-83.984375
1046		-91.796875
1047		-83.984375
1048		-93.750000
1049		-85.937500
1050		-93.750000
1051		-85.937500
1052		-93.750000
1053		-91.796875
1054		-97.656250
1055		-91.796875
1056		-97.656250
1057		-89.843750
1058		-99.609375
1059		-91.796875
1060		-99.609375
1061		-93.750000
1062		-101.562500
1063		-93.750000
1064		-101.562500
1065		-93.750000
1066		-101.562500
1067		-95.703125
1068		-99.609375
1069		-97.656250
1070		-101.562500
1071		-97.656250
1072		-103.515625
1073		-97.656250
1074		-105.468750
1075		-97.656250
1076		-105.468750
1077		-97.656250
1078		-105.468750
1079		-97.656250
1080		-105.468750
1081		-97.656250
1082		-105.468750
1083		-97.656250
1084		-105.468750
1085		-99.609375
1086		-103.515625
1087		-101.562500
1088		-105.468750
1089		-97.656250
1090		-105.468750
1091		-97.656250
1092		-105.468750
1093		-97.656250
1094		-105.468750
1095		-97.656250
1096		-105.468750
1097		-97.656250
1098		-103.515625
1099		-95.703125
1100		-103.515625
1101		-95.703125
1102		-99.609375
1103		-97.656250
1104		-99.609375
1105		-95.703125
1106		-101.562500
1107		-93.750000
1108		-99.609375
1109		-93.750000
1110		-99.609375
1111		-91.796875
1112		-99.609375
1113		-89.843750
1114		-97.656250
1115		-89.843750
1116		-95.703125
1117		-87.890625
1118		-91.796875
1119		-89.843750
1120		-91.796875
1121		-87.890625
1122		-91.796875
1123		-83.984375
1124		-91.796875
1125		-83.984375
1126		-89.843750
1127		-82.031250
1128		-87.890625
1129		-80.078125
1130		-85.937500
1131		-78.125000
1132		-85.937500
1133		-76.171875
1134		-82.031250
1135		-76.171875
1136		-78.125000
1137		-76.171875
1138		-76.171875
1139		-72.265625
1140		-78.125000
1141		-70.312500
1142		-76.171875
1143		-66.406250
1144		-74.218750
1145		-64.453125
1146		-72.265625
1147		-64.453125
1148		-70.312500
1149		-62.500000
1150		-66.406250
1151		-60.546875
1152		-62.500000
1153		-58.593750
1154		-60.546875
1155		-56.640625
1156		-60.546875
1157		-52.734375
1158		-58.593750
1159		-50.781250
1160		-56.640625
1161		-48.828125
1162		-54.687500
1163		-44.921875
1164		-50.781250
1165		-44.921875
1166		-48.828125
1167		-41.015625
1168		-46.875000
1169		-41.015625
1170		-41.015625
1171		-37.109375
1172		-39.062500
1173		-33.203125
1174		-39.062500
1175		-31.250000
1176		-37.109375
1177		-27.343750
1178		-35.156250
1179		-25.390625
1180		-31.250000
1181		-23.437500
1182		-29.296875
1183		-19.531250
1184		-27.343750
1185		-17.578125
1186		-21.484375
1187		-17.578125
1188		-19.531250
1189		-15.625000
1190		-17.578125
1191		-9.765625
1192		-15.625000
1193		-7.812500
1194		-13.671875
1195		-5.859375
1196		-9.765625
1197		-1.953125
1198		-9.765625
1199		0.000000
1200		-5.859375
1201		1.953125
1202		-1.953125
1203		1.953125
1204		1.953125
1205		5.859375
1206		3.906250
1207		11.718750
1208		3.906250
1209		13.671875
1210		5.859375
1211		15.625000
1212		9.765625
1213		17.578125
1214		11.718750
1215		19.531250
1216		15.625000
1217		23.437500
1218		17.578125
1219		23.437500
1220		21.484375
1221		25.390625
1222		23.437500
1223		29.296875
1224		23.437500
1225		33.203125
1226		25.390625
1227		33.203125
1228		29.296875
1229		37.109375
1230		29.296875
1231		39.062500
1232		33.203125
1233		41.015625
1234		35.156250
1235		42.968750
1236		39.062500
1237		42.968750
1238		42.968750
1239		44.921875
1240		42.968750
1241		50.781250
1242		42.968750
1243		50.781250
1244		44.921875
1245		52.734375
1246		46.875000
1247		54.687500
1248		48.828125
1249		58.593750
1250		50.781250
1251		58.593750
1252		52.734375
1253		60.546875
1254		56.640625
1255		60.546875
1256		56.640625
1257		64.453125
1258		58.593750
1259		66.406250
1260		60.546875
1261		68.359375
1262		62.500000
1263		70.312500
1264		62.500000
1265		72.265625
1266		64.453125
1267		72.265625
1268		66.406250
1269		74.218750
1270		70.312500
1271		74.218750
1272		72.265625
1273		76.171875
1274		70.312500
1275		78.125000
1276		72.265625
1277		80.078125
1278		72.265625
1279		82.031250
1280		74.218750
1281		82.031250
1282		76.171875
1283		83.984375
1284		76.171875
1285		83.984375
1286		80.078125
1287		83.984375
1288		82.031250
1289		83.984375
1290		80.078125
1291		85.937500
1292		80.078125
1293		87.890625
1294		82.031250
1295		87.890625
1296		82.031250
1297		89.843750
1298		82.031250
1299		89.843750
1300		82.031250
1301		91.796875
1302		83.984375
1303		91.796875
1304		87.890625
1305		89.843750
1306		85.937500
1307		91.796875
1308		85.937500
1309		93.750000
1310		85.937500
1311		93.750000
1312		85.937500
1313		93.750000
1314		85.937500
1315		93.750000
1316		85.937500
1317		93.750000
1318		85.937500
1319		93.750000
1320		87.890625
1321		93.750000
1322		89.843750
1323		91.796875
1324		85.937500
1325		93.750000
1326		85.937500
1327		93.750000
1328		85.937500
1329		93.750000
1330		85.937500
1331		93.750000
1332		85.937500
1333		93.750000
1334		85.937500
1335		91.796875
1336		85.937500
1337		91.796875
1338		87.890625
1339		89.843750
1340		83.984375
1341		89.843750
1342		83.984375
1343		91.796875
1344		82.031250
1345		89.843750
1346		82.031250
1347		89.843750
1348		82.031250
1349		87.890625
1350		82.031250
1351		87.890625
1352		80.078125
1353		87.890625
1354		82.031250
1355		83.984375
1356		80.078125
1357		83.984375
1358		76.171875
1359		83.984375
1360		76.171875
1361		83.984375
1362		76.171875
1363		82.031250
1364		74.218750
1365		82.031250
1366		72.265625
1367		80.078125
1368		70.312500
1369		78.125000
1370		72.265625
1371		76.171875
1372		70.312500
1373		74.218750
1374		66.406250
1375		74.218750
1376		64.453125
1377		74.218750
1378		64.453125
1379		72.265625
1380		62.500000
1381		70.312500
1382		60.546875
1383		68.359375
1384		58.593750
1385		66.406250
1386		56.640625
1387		66.406250
1388		56.640625
1389		60.546875
1390		54.687500
1391		60.546875
1392		50.781250
1393		60.546875
1394		48.828125
1395		56.640625
1396		46.875000
1397		56.640625
1398		44.921875
1399		54.687500
1400		42.968750
1401		50.781250
1402		41.015625
1403		48.828125
1404		41.015625
1405		44.921875
1406		39.062500
1407		42.968750
1408		35.156250
1409		42.968750
1410		33.203125
1411		41.015625
1412		31.250000
1413		39.062500
1414		27.343750
1415		37.109375
1416		27.343750
1417		33.203125
1418		23.437500
1419		33.203125
1420		21.484375
1421		29.296875
1422		21.484375
1423		25.390625
1424		15.625000
1425		23.437500
1426		13.671875
1427		23.437500
1428		9.765625
1429		19.531250
1430		7.812500
1431		17.578125
1432		5.859375
1433		13.671875
1434		3.906250
1435		11.718750
1436		1.953125
1437		9.765625
1438		0.000000
1439		3.906250
1440		-3.906250
1441		1.953125
1442		-5.859375
1443		1.953125
1444		-9.765625
1445		0.000000
1446		-11.718750
1447		-3.906250
1448		-13.671875
1449		-5.859375
1450		-15.625000
1451		-7.812500
1452		-19.531250
1453		-9.765625
1454		-19.531250
1455		-11.718750
1456		-21.484375
1457		-17.578125
1458		-27.343750
1459		-19.531250
1460		-29.296875
1461		-21.484375
1462		-31.250000
1463		-23.437500
1464		-35.156250
1465		-25.390625
1466		-37.109375
1467		-29.296875
1468		-41.015625
1469		-31.250000
1470		-41.015625
1471		-35.156250
1472		-42.968750
1473		-39.062500
1474		-44.921875
1475		-41.015625
1476		-48.828125
1477		-41.015625
1478		-52.734375
1479		-42.968750
1480		-54.687500
1481		-46.875000
1482		-56.640625
1483		-48.828125
1484		-58.593750
1485		-50.781250
1486		-60.546875
1487		-52.734375
1488		-60.546875
1489		-56.640625
1490		-62.500000
1491		-58.593750
1492		-66.406250
1493		-60.546875
1494		-70.312500
1495		-60.546875
1496		-72.265625
1497		-62.500000
1498		-74.218750
1499		-64.453125
1500		-76.171875
1501		-66.406250
1502		-78.125000
1503		-68.359375
1504		-78.125000
1505		-70.312500
1506		-78.125000
1507		-74.218750
1508		-82.031250
1509		-76.171875
1510		-83.984375
1511		-76.171875
1512		-85.937500
1513		-78.125000
1514		-87.890625
1515		-80.078125
1516		-87.890625
1517		-82.031250
1518		-89.843750
1519		-82.031250
1520		-91.796875
1521		-83.984375
1522		-89.843750
1523		-87.890625
1524		-91.796875
1525		-89.843750
1526		-95.703125
1527		-87.890625
1528		-97.656250
1529		-89.843750
1530		-99.609375
1531		-89.843750
1532		-99.609375
1533		-91.796875
1534		-99.609375
1535		-91.796875
1536		-101.562500
1537		-93.750000
1538		-101.562500
1539		-93.750000
1540		-99.609375
1541		-97.656250
1542		-103.515625
1543		-95.703125
1544		-103.515625
1545		-95.703125
1546		-103.515625
1547		-97.656250
1548		-105.468750
1549		-97.656250
1550		-105.468750
1551		-97.656250
1552		-105.468750
1553		-97.656250
1554		-105.468750
1555		-97.656250
1556		-101.562500
1557		-99.609375
1558		-103.515625
1559		-99.609375
1560		-105.468750
1561		-97.656250
1562		-105.468750
1563		-97.656250
1564		-105.468750
1565		-97.656250
1566		-105.468750
1567		-97.656250
1568		-103.515625
1569		-95.703125
1570		-105.468750
1571		-95.703125
1572		-99.609375
1573		-97.656250
1574		-99.609375
1575		-97.656250
1576		-101.562500
1577		-93.750000
1578		-101.562500
1579		-93.750000
1580		-101.562500
1581		-93.750000
1582		-99.609375
1583		-91.796875
1584		-99.609375
1585		-89.843750
1586		-97.656250
1587		-89.843750
1588		-95.703125
1589		-89.843750
1590		-93.750000
1591		-89.843750
1592		-91.796875
1593		-87.890625
1594		-91.796875
1595		-85.937500
1596		-91.796875
1597		-83.984375
1598		-89.843750
1599		-83.984375
1600		-87.890625
1601		-82.031250
1602		-85.937500
1603		-80.078125
1604		-83.984375
1605		-80.078125
1606		-82.031250
1607		-78.125000
1608		-80.078125
1609		-76.171875
1610		-80.078125
1611		-72.265625
1612		-78.125000
1613		-70.312500
1614		-76.171875
1615		-68.359375
1616		-74.218750
1617		-66.406250
1618		-72.265625
1619		-64.453125
1620		-72.265625
1621		-62.500000
1622		-68.359375
1623		-62.500000
1624		-64.453125
1625		-60.546875
1626		-62.500000
1627		-54.687500
1628		-62.500000
1629		-54.687500
1630		-60.546875
1631		-52.734375
1632		-58.593750
1633		-48.828125
1634		-54.687500
1635		-46.875000
1636		-52.734375
1637		-44.921875
1638		-50.781250
1639		-42.968750
1640		-46.875000
1641		-42.968750
1642		-42.968750
1643		-39.062500
1644		-42.968750
1645		-35.156250
1646		-41.015625
1647		-33.203125
1648		-39.062500
1649		-29.296875
1650		-37.109375
1651		-27.343750
1652		-33.203125
1653		-25.390625
1654		-31.250000
1655		-21.484375
1656		-25.390625
1657		-21.484375
1658		-23.437500
1659		-19.531250
1660		-21.484375
1661		-13.671875
1662		-21.484375
1663		-11.718750
1664		-17.578125
1665		-9.765625
1666		-15.625000
1667		-5.859375
1668		-13.671875
1669		-3.906250
1670		-9.765625
1671		-1.953125
1672		-7.812500
1673		0.000000
1674		-1.953125
1675		1.953125
1676		0.000000
1677		5.859375
1678		0.000000
1679		7.812500
1680		1.953125
1681		11.718750
1682		5.859375
1683		13.671875
1684		7.812500
1685		15.625000
1686		9.765625
1687		19.531250
1688		13.671875
1689		19.531250
1690		17.578125
1691		21.484375
1692		19.531250
1693		23.437500
1694		19.531250
1695		27.343750
1696		21.484375
1697		31.250000
1698		25.390625
1699		33.203125
1700		27.343750
1701		35.156250
1702		29.296875
1703		37.109375
1704		31.250000
1705		39.062500
1706		33.203125
1707		39.062500
1708		37.109375
1709		41.015625
1710		39.062500
1711		46.875000
1712		39.062500
1713		48.828125
1714		42.968750
1715		50.781250
1716		42.968750
1717		52.734375
1718		46.875000
1719		54.687500
1720		46.875000
1721		56.640625
1722		48.828125
1723		56.640625
1724		54.687500
1725		58.593750
1726		56.640625
1727		60.546875
1728		54.687500
1729		62.500000
1730		56.640625
1731		66.406250
1732		58.593750
1733		66.406250
1734		60.546875
1735		68.359375
1736		62.500000
1737		70.312500
1738		62.500000
1739		70.312500
1740		68.359375
1741		70.312500
1742		70.312500
1743		72.265625
1744		68.359375
1745		76.171875
1746		70.312500
1747		78.125000
1748		70.312500
1749		78.125000
1750		72.265625
1751		80.078125
1752		74.218750
1753		82.031250
1754		74.218750
1755		82.031250
1756		76.171875
1757		82.031250
1758		80.078125
1759		82.031250
1760		80.078125
1761		83.984375
1762		78.125000
1763		85.937500
1764		80.078125
1765		87.890625
1766		80.078125
1767		87.890625
1768		82.031250
1769		89.843750
1770		82.031250
1771		89.843750
1772		82.031250
1773		89.843750
1774		85.937500
1775		87.890625
1776		85.937500
1777		89.843750
1778		83.984375
1779		91.796875
1780		83.984375
1781		91.796875
1782		85.937500
1783		91.796875
1784		85.937500
1785		93.750000
1786		85.937500
1787		93.750000
1788		85.937500
1789		93.750000
1790		87.890625
1791		93.750000
1792		89.843750
1793		91.796875
1794		85.937500
1795		93.750000
1796		85.937500
1797		93.750000
1798		85.937500
1799		93.750000
1800		85.937500
1801		93.750000
1802		85.937500
1803		93.750000
1804		85.937500
1805		93.750000
1806		85.937500
1807		93.750000
1808		87.890625
1809		89.843750
1810		87.890625
1811		89.843750
1812		83.984375
1813		91.796875
1814		83.984375
1815		91.796875
1816		83.984375
1817		91.796875
1818		82.031250
1819		89.843750
1820		82.031250
1821		89.843750
1822		80.078125
1823		89.843750
1824		83.984375
1825		85.937500
1826		82.031250
1827		83.984375
1828		78.125000
1829		85.937500
1830		78.125000
1831		85.937500
1832		76.171875
1833		83.984375
1834		76.171875
1835		82.031250
1836		74.218750
1837		82.031250
1838		72.265625
1839		80.078125
1840		72.265625
1841		80.078125
1842		72.265625
1843		76.171875
1844		70.312500
1845		74.218750
1846		68.359375
1847		76.171875
1848		66.406250
1849		74.218750
1850		64.453125
1851		72.265625
1852		62.500000
1853		70.312500
1854		62.500000
1855		68.359375
1856		60.546875
1857		66.406250
1858		60.546875
1859		64.453125
1860		58.593750
1861		62.500000
1862		54.687500
1863		60.546875
1864		52.734375
1865		60.546875
1866		52.734375
1867		60.546875
1868		48.828125
1869		56.640625
1870		46.875000
1871		54.687500
1872		44.921875
1873		52.734375
1874		44.921875
1875		50.781250
1876		42.968750
1877		46.875000
1878		39.062500
1879		44.921875
1880		37.109375
1881		44.921875
1882		35.156250
1883		42.968750
1884		31.250000
1885		39.062500
1886		29.296875
1887		37.109375
1888		27.343750
1889		35.156250
1890		25.390625
1891		33.203125
1892		25.390625
1893		29.296875
1894		23.437500
1895		27.343750
1896		17.578125
1897		25.390625
1898		15.625000
1899		23.437500
1900		13.671875
1901		21.484375
1902		9.765625
1903		19.531250
1904		7.812500
1905		15.625000
1906		3.906250
1907		13.671875
1908		5.859375
1909		9.765625
1910		1.953125
1911		5.859375
1912		0.000000
1913		3.906250
1914		-5.859375
1915		3.906250
1916		-7.812500
1917		0.000000
1918		-9.765625
1919		0.000000
1920		-11.718750
1921		-3.906250
1922		-15.625000
1923		-5.859375
1924		-15.625000
1925		-9.765625
1926		-17.578125
1927		-13.671875
1928		-21.484375
1929		-15.625000
1930		-25.390625
1931		-15.625000
1932		-27.343750
1933		-19.531250
1934		-31.250000
1935		-21.484375
1936		-33.203125
1937		-23.437500
1938		-35.156250
1939		-27.343750
1940		-37.109375
1941		-29.296875
1942		-39.062500
1943		-35.156250
1944		-41.015625
1945		-37.109375
1946		-44.921875
1947		-39.062500
1948		-48.828125
1949		-39.062500
1950		-48.828125
1951		-42.968750
1952		-52.734375
1953		-42.968750
1954		-54.687500
1955		-46.875000
1956		-56.640625
1957		-48.828125
1958		-58.593750
1959		-50.781250
1960		-58.593750
1961		-54.687500
1962		-64.453125
1963		-56.640625
1964		-66.406250
1965		-58.593750
1966		-68.359375
1967		-60.546875
1968		-70.312500
1969		-62.500000
1970		-72.265625
1971		-64.453125
1972		-74.218750
1973		-64.453125
1974		-76.171875
1975		-68.359375
1976		-76.171875
1977		-72.265625
1978		-78.125000
1979		-74.218750
1980		-82.031250
1981		-74.218750
1982		-83.984375
1983		-74.218750
1984		-85.937500
1985		-78.125000
1986		-85.937500
1987		-80.078125
1988		-89.843750
1989		-80.078125
1990		-89.843750
1991		-82.031250
1992		-87.890625
1993		-83.984375
1994		-89.843750
1995		-87.890625
1996		-91.796875
1997		-87.890625
1998		-95.703125
1999		-85.937500
2000		-95.703125
2001		-87.890625
2002		-97.656250
2003		-89.843750
2004		-99.609375
2005		-89.843750
2006		-99.609375
2007		-91.796875
2008		-97.656250
2009		-93.750000
2010		-99.609375
2011		-95.703125
2012		-101.562500
2013		-95.703125
2014		-103.515625
2015		-93.750000
2016		-103.515625
2017		-95.703125
2018		-103.515625
2019		-95.703125
2020		-103.515625
2021		-97.656250
2022		-105.468750
2023		-97.656250
2024		-105.468750
2025		-97.656250
2026		-101.562500
2027		-99.609375
2028		-101.562500
2029		-99.609375
2030		-105.468750
2031		-97.656250
2032		-105.468750
2033		-97.656250
2034		-105.468750
2035		-97.656250
2036		-105.468750
2037		-97.656250
2038		-105.468750
2039		-97.656250
2040		-105.468750
2041		-95.703125
2042		-103.515625
2043		-97.656250
2044		-101.562500
2045		-99.609375
2046		-101.562500
2047		-95.703125
2048		-103.515625
2049		-95.703125
2050		-101.562500
2051		-93.750000
2052		-101.562500
2053		-93.750000
2054		-99.609375
2055		-93.750000
2056		-99.609375
2057		-91.796875
2058		-99.609375
2059		-91.796875
2060		-95.703125
2061		-91.796875
2062		-93.750000
2063		-91.796875
2064		-95.703125
2065		-87.890625
2066		-93.750000
2067		-85.937500
2068		-93.750000
2069		-85.937500
2070		-91.796875
2071		-83.984375
2072		-89.843750
2073		-82.031250
2074		-87.890625
2075		-80.078125
2076		-85.937500
2077		-80.078125
2078		-83.984375
2079		-80.078125
2080		-83.984375
2081		-74.218750
2082		-82.031250
2083		-74.218750
2084		-80.078125
2085		-72.265625
2086		-78.125000
2087		-70.312500
2088		-76.171875
2089		-68.359375
2090		-74.218750
2091		-66.406250
2092		-72.265625
2093		-66.406250
2094		-68.359375
2095		-64.453125
2096		-66.406250
2097		-60.546875
2098		-66.406250
2099		-56.640625
2100		-64.453125
2101		-56.640625
2102		-62.500000
2103		-52.734375
2104		-60.546875
2105		-50.781250
2106		-56.640625
2107		-48.828125
2108		-54.687500
2109		-46.875000
2110		-50.781250
2111		-46.875000
2112		-48.828125
2113		-44.921875
2114		-46.875000
2115		-41.015625
2116		-44.921875
2117		-37.109375
2118		-42.968750
2119		-33.203125
2120		-39.062500
2121		-31.250000
2122		-39.062500
2123		-31.250000
2124		-37.109375
2125		-27.343750
2126		-33.203125
2127		-27.343750
2128		-27.343750
2129		-23.437500
2130		-25.390625
2131		-19.531250
2132		-25.390625
2133		-17.578125
2134		-23.437500
2135		-13.671875
2136		-19.531250
2137		-11.718750
2138		-17.578125
2139		-9.765625
2140		-15.625000
2141		-7.812500
2142		-11.718750
2143		-3.906250
2144		-7.812500
2145		-3.906250
2146		-5.859375
2147		0.000000
2148		-3.906250
2149		3.906250
2150		-3.906250
2151		7.812500
2152		0.000000
2153		7.812500
2154		1.953125
2155		11.718750
2156		5.859375
2157		13.671875
2158		7.812500
2159		17.578125
2160		11.718750
2161		15.625000
2162		15.625000
2163		19.531250
2164		17.578125
2165		23.437500
2166		17.578125
2167		25.390625
2168		19.531250
2169		29.296875
2170		21.484375
2171		31.250000
2172		25.390625
2173		33.203125
2174		27.343750
2175		35.156250
2176		29.296875
2177		37.109375
2178		33.203125
2179		37.109375
2180		35.156250
2181		41.015625
2182		37.109375
2183		44.921875
2184		39.062500
2185		46.875000
2186		39.062500
2187		48.828125
2188		42.968750
2189		50.781250
2190		44.921875
2191		52.734375
2192		46.875000
2193		54.687500
2194		50.781250
2195		54.687500
2196		52.734375
2197		56.640625
2198		52.734375
2199		60.546875
2200		52.734375
2201		62.500000
2202		56.640625
2203		64.453125
2204		56.640625
2205		66.406250
2206		58.593750
2207		66.406250
2208		60.546875
2209		68.359375
2210		62.500000
2211		70.312500
2212		66.406250
2213		70.312500
2214		66.406250
2215		72.265625
2216		66.406250
2217		76.171875
2218		68.359375
2219		76.171875
2220		70.312500
2221		78.125000
2222		70.312500
2223		78.125000
2224		72.265625
2225		80.078125
2226		74.218750
2227		82.031250
2228		78.125000
2229		80.078125
2230		78.125000
2231		82.031250
2232		78.125000
2233		83.984375
2234		78.125000
2235		85.937500
2236		78.125000
2237		85.937500
2238		80.078125
2239		87.890625
2240		80.078125
2241		87.890625
2242		82.031250
2243		87.890625
2244		83.984375
2245		89.843750
2246		85.937500
2247		87.890625
2248		83.984375
2249		91.796875
2250		83.984375
2251		91.796875
2252		83.984375
2253		91.796875
2254		83.984375
2255		91.796875
2256		85.937500
2257		93.750000
2258		85.937500
2259		93.750000
2260		85.937500
2261		93.750000
2262		89.843750
2263		91.796875
2264		87.890625
2265		91.796875
2266		85.937500
2267		93.750000
2268		85.937500
2269		93.750000
2270		85.937500
2271		93.750000
2272		85.937500
2273		93.750000
2274		85.937500
2275		93.750000
2276		85.937500
2277		93.750000
2278		87.890625
2279		91.796875
2280		87.890625
2281		89.843750
2282		85.937500
2283		93.750000
2284		83.984375
2285		91.796875
2286		83.984375
2287		91.796875
2288		83.984375
2289		91.796875
2290		83.984375
2291		89.843750
2292		82.031250
2293		89.843750
2294		82.031250
2295		89.843750
2296		83.984375
2297		85.937500
2298		82.031250
2299		85.937500
2300		80.078125
2301		87.890625
2302		78.125000
2303		85.937500
2304		78.125000
2305		85.937500
2306		76.171875
2307		83.984375
2308		76.171875
2309		83.984375
2310		74.218750
2311		82.031250
2312		76.171875
2313		78.125000
2314		74.218750
2315		76.171875
2316		70.312500
2317		78.125000
2318		68.359375
2319		76.171875
2320		68.359375
2321		74.218750
2322		66.406250
2323		74.218750
2324		64.453125
2325		72.265625
2326		62.500000
2327		70.312500
2328		62.500000
2329		70.312500
2330		62.500000
2331		64.453125
2332		58.593750
2333		64.453125
2334		56.640625
2335		64.453125
2336		54.687500
2337		62.500000
2338		50.781250
2339		60.546875
2340		50.781250
2341		58.593750
2342		48.828125
2343		56.640625
2344		46.875000
2345		54.687500
2346		46.875000
2347		50.781250
2348		42.968750
2349		48.828125
2350		41.015625
2351		48.828125
2352		39.062500
2353		46.875000
2354		35.156250
2355		44.921875
2356		33.203125
2357		41.015625
2358		31.250000
2359		39.062500
2360		29.296875
2361		37.109375
2362		29.296875
2363		33.203125
2364		27.343750
2365		31.250000
2366		21.484375
2367		29.296875
2368		19.531250
2369		27.343750
2370		17.578125
2371		25.390625
2372		15.625000
2373		23.437500
2374		11.718750
2375		21.484375
2376		9.765625
2377		17.578125
2378		9.765625
2379		15.625000
2380		7.812500
2381		11.718750
2382		3.906250
2383		9.765625
2384		0.000000
2385		7.812500
2386		-1.953125
2387		3.906250
2388		-3.906250
2389		3.906250
2390		-7.812500
2391		0.000000
2392		-9.765625
2393		-1.953125
2394		-11.718750
2395		-5.859375
2396		-13.671875
2397		-9.765625
2398		-15.625000
2399		-11.718750
2400		-21.484375
2401		-13.671875
2402		-23.437500
2403		-15.625000
2404		-25.390625
2405		-17.578125
2406		-29.296875
2407		-19.531250
2408		-31.250000
2409		-23.437500
2410		-33.203125
2411		-25.390625
2412		-33.203125
2413		-27.343750
2414		-35.156250
2415		-31.250000
2416		-41.015625
2417		-33.203125
2418		-42.968750
2419		-35.156250
2420		-44.921875
2421		-37.109375
2422		-48.828125
2423		-39.062500
2424		-50.781250
2425		-42.968750
2426		-52.734375
2427		-44.921875
2428		-54.687500
2429		-46.875000
2430		-54.687500
2431		-50.781250
2432		-56.640625
2433		-52.734375
2434		-60.546875
2435		-54.687500
2436		-62.500000
2437		-56.640625
2438		-64.453125
2439		-58.593750
2440		-66.406250
2441		-62.500000
2442		-68.359375
2443		-62.500000
2444		-72.265625
2445		-64.453125
2446		-72.265625
2447		-68.359375
2448		-74.218750
2449		-70.312500
2450		-78.125000
2451		-70.312500
2452		-82.031250
2453		-72.265625
2454		-82.031250
2455		-74.218750
2456		-83.984375
2457		-76.171875
2458		-85.937500
2459		-78.125000
2460		-87.890625
2461		-80.078125
2462		-85.937500
2463		-82.031250
2464		-87.890625
2465		-83.984375
2466		-89.843750
2467		-85.937500
2468		-93.750000
2469		-85.937500
2470		-93.750000
2471		-85.937500
2472		-95.703125
2473		-87.890625
2474		-93.750000
2475		-89.843750
2476		-97.656250
2477		-91.796875
2478		-97.656250
2479		-91.796875
2480		-97.656250
2481		-93.750000
2482		-97.656250
2483		-95.703125
2484		-99.609375
2485		-95.703125
2486		-101.562500
2487		-93.750000
2488		-103.515625
2489		-95.703125
2490		-103.515625
2491		-95.703125
2492		-101.562500
2493		-97.656250
2494		-103.515625
2495		-97.656250
2496		-101.562500
2497		-99.609375
2498		-101.562500
2499		-99.609375
2500		-103.515625
2501		-99.609375
2502		-103.515625
2503		-99.609375
2504		-103.515625
2505		-99.609375
2506		-103.515625
2507		-99.609375
2508		-103.515625
2509		-99.609375
2510		-103.515625
2511		-99.609375
2512		-103.515625
2513		-99.609375
2514		-101.562500
2515		-99.609375
2516		-101.562500
2517		-99.609375
2518		-103.515625
2519		-97.656250
2520		-101.562500
2521		-97.656250
2522		-99.609375
2523		-97.656250
2524		-99.609375
2525		-95.703125
2526		-99.609375
2527		-95.703125
2528		-97.656250
2529		-95.703125
2530		-99.609375
2531		-93.750000
2532		-95.703125
2533		-93.750000
2534		-95.703125
2535		-91.796875
2536		-95.703125
2537		-91.796875
2538		-93.750000
2539		-89.843750
2540		-91.796875
2541		-87.890625
2542		-91.796875
2543		-87.890625
2544		-89.843750
2545		-85.937500
2546		-87.890625
2547		-83.984375
2548		-85.937500
2549		-82.031250
2550		-83.984375
2551		-80.078125
2552		-83.984375
2553		-80.078125
2554		-82.031250
2555		-78.125000
2556		-80.078125
2557		-76.171875
2558		-78.125000
2559		-74.218750
2560		-76.171875
2561		-72.265625
2562		-74.218750
2563		-70.312500
2564		-72.265625
2565		-68.359375
2566		-70.312500
2567		-66.406250
2568		-68.359375
2569		-64.453125
2570		-66.406250
2571		-62.500000
2572		-64.453125
2573		-60.546875
2574		-62.500000
2575		-58.593750
2576		-60.546875
2577		-54.687500
2578		-56.640625
2579		-52.734375
2580		-54.687500
2581		-50.781250
2582		-52.734375
2583		-48.828125
2584		-50.781250
2585		-44.921875
2586		-46.875000
2587		-44.921875
2588		-44.921875
2589		-41.015625
2590		-42.968750
2591		-39.062500
2592		-41.015625
2593		-35.156250
2594		-39.062500
2595		-33.203125
2596		-35.156250
2597		-31.250000
2598		-33.203125
2599		-29.296875
2600		-29.296875
2601		-25.390625
2602		-29.296875
2603		-23.437500
2604		-25.390625
2605		-19.531250
2606		-23.437500
2607		-19.531250
2608		-21.484375
2609		-15.625000
2610		-17.578125
2611		-13.671875
2612		-15.625000
2613		-9.765625
2614		-13.671875
2615		-7.812500
2616		-9.765625
2617		-5.859375
2618		-7.812500
2619		-3.906250
2620		-3.906250
2621		0.000000
2622		-1.953125
2623		1.953125
2624		0.000000
2625		5.859375
2626		1.953125
2627		7.812500
2628		5.859375
2629		9.765625
2630		7.812500
2631		11.718750
2632		9.765625
2633		13.671875
2634		13.671875
2635		17.578125
2636		15.625000
2637		19.531250
2638		17.578125
2639		21.484375
2640		19.531250
2641		23.437500
2642		23.437500
2643		27.343750
2644		23.437500
2645		29.296875
2646		27.343750
2647		31.250000
2648		29.296875
2649		33.203125
2650		31.250000
2651		35.156250
2652		33.203125
2653		39.062500
2654		37.109375
2655		41.015625
2656		37.109375
2657		42.968750
2658		41.015625
2659		44.921875
2660		42.968750
2661		46.875000
2662		44.921875
2663		48.828125
2664		46.875000
2665		50.781250
2666		48.828125
2667		52.734375
2668		50.781250
2669		54.687500
2670		52.734375
2671		56.640625
2672		54.687500
2673		58.593750
2674		56.640625
2675		60.546875
2676		56.640625
2677		62.500000
2678		60.546875
2679		64.453125
2680		62.500000
2681		66.406250
2682		64.453125
2683		66.406250
2684		64.453125
2685		68.359375
2686		66.406250
2687		70.312500
2688		68.359375
2689		72.265625
2690		68.359375
2691		74.218750
2692		70.312500
2693		76.171875
2694		72.265625
2695		76.171875
2696		74.218750
2697		76.171875
2698		74.218750
2699		78.125000
2700		76.171875
2701		80.078125
2702		76.171875
2703		82.031250
2704		78.125000
2705		82.031250
2706		80.078125
2707		82.031250
2708		80.078125
2709		83.984375
2710		82.031250
2711		83.984375
2712		82.031250
2713		85.937500
2714		82.031250
2715		85.937500
2716		83.984375
2717		85.937500
2718		83.984375
2719		87.890625
2720		83.984375
2721		87.890625
2722		85.937500
2723		89.843750
2724		85.937500
2725		89.843750
2726		85.937500
2727		89.843750
2728		85.937500
2729		89.843750
2730		85.937500
2731		91.796875
2732		87.890625
2733		89.843750
2734		87.890625
2735		91.796875
2736		87.890625
2737		91.796875
2738		89.843750
2739		91.796875
2740		87.890625
2741		91.796875
2742		87.890625
2743		91.796875
2744		87.890625
2745		91.796875
2746		87.890625
2747		91.796875
2748		87.890625
2749		91.796875
2750		87.890625
2751		91.796875
2752		87.890625
2753		91.796875
2754		87.890625
2755		91.796875
2756		87.890625
2757		91.796875
2758		87.890625
2759		89.843750
2760		85.937500
2761		89.843750
2762		85.937500
2763		89.843750
2764		83.984375
2765		87.890625
2766		85.937500
2767		87.890625
2768		83.984375
2769		85.937500
2770		82.031250
2771		87.890625
2772		82.031250
2773		85.937500
2774		82.031250
2775		83.984375
2776		80.078125
2777		85.937500
2778		80.078125
2779		82.031250
2780		78.125000
2781		82.031250
2782		78.125000
2783		82.031250
2784		76.171875
2785		80.078125
2786		74.218750
2787		78.125000
2788		72.265625
2789		76.171875
2790		72.265625
2791		76.171875
2792		70.312500
2793		74.218750
2794		68.359375
2795		74.218750
2796		68.359375
2797		72.265625
2798		66.406250
2799		70.312500
2800		64.453125
2801		68.359375
2802		62.500000
2803		66.406250
2804		60.546875
2805		66.406250
2806		60.546875
2807		64.453125
2808		58.593750
2809		62.500000
2810		56.640625
2811		60.546875
2812		54.687500
2813		58.593750
2814		50.781250
2815		56.640625
2816		50.781250
2817		54.687500
2818		48.828125
2819		52.734375
2820		44.921875
2821		50.781250
2822		44.921875
2823		48.828125
2824		41.015625
2825		46.875000
2826		41.015625
2827		44.921875
2828		37.109375
2829		42.968750
2830		35.156250
2831		39.062500
2832		33.203125
2833		39.062500
2834		31.250000
2835		35.156250
2836		27.343750
2837		33.203125
2838		27.343750
2839		31.250000
2840		23.437500
2841		29.296875
2842		21.484375
2843		25.390625
2844		17.578125
2845		23.437500
2846		17.578125
2847		21.484375
2848		13.671875
2849		19.531250
2850		11.718750
2851		15.625000
2852		9.765625
2853		13.671875
2854		5.859375
2855		11.718750
2856		3.906250
2857		7.812500
2858		1.953125
2859		5.859375
2860		-1.953125
2861		3.906250
2862		-3.906250
2863		0.000000
2864		-7.812500
2865		-1.953125
2866		-7.812500
2867		-3.906250
2868		-11.718750
2869		-7.812500
2870		-13.671875
2871		-9.765625
2872		-17.578125
2873		-11.718750
2874		-19.531250
2875		-15.625000
2876		-21.484375
2877		-17.578125
2878		-23.437500
2879		-19.531250
2880		-27.343750
2881		-21.484375
2882		-29.296875
2883		-25.390625
2884		-31.250000
2885		-27.343750
2886		-35.156250
2887		-29.296875
2888		-37.109375
2889		-33.203125
2890		-39.062500
2891		-35.156250
2892		-41.015625
2893		-37.109375
2894		-44.921875
2895		-39.062500
2896		-46.875000
2897		-42.968750
2898		-50.781250
2899		-44.921875
2900		-50.781250
2901		-46.875000
2902		-52.734375
2903		-48.828125
2904		-54.687500
2905		-50.781250
2906		-58.593750
2907		-52.734375
2908		-60.546875
2909		-56.640625
2910		-62.500000
2911		-58.593750
2912		-64.453125
2913		-60.546875
2914		-66.406250
2915		-62.500000
2916		-68.359375
2917		-64.453125
2918		-70.312500
2919		-66.406250
2920		-74.218750
2921		-68.359375
2922		-74.218750
2923		-70.312500
2924		-76.171875
2925		-72.265625
2926		-78.125000
2927		-74.218750
2928		-80.078125
2929		-76.171875
2930		-82.031250
2931		-78.125000
2932		-83.984375
2933		-78.125000
2934		-83.984375
2935		-82.031250
2936		-85.937500
2937		-83.984375
2938		-87.890625
2939		-83.984375
2940		-89.843750
2941		-85.937500
2942		-91.796875
2943		-87.890625
2944		-91.796875
2945		-87.890625
2946		-93.750000
2947		-89.843750
2948		-95.703125
2949		-89.843750
2950		-95.703125
2951		-91.796875
2952		-95.703125
2953		-93.750000
2954		-97.656250
2955		-93.750000
2956		-97.656250
2957		-95.703125
2958		-99.609375
2959		-95.703125
2960		-99.609375
2961		-97.656250
2962		-99.609375
2963		-97.656250
2964		-101.562500
2965		-97.656250
2966		-101.562500
2967		-97.656250
2968		-101.562500
2969		-99.609375
2970		-103.515625
2971		-97.656250
2972		-103.515625
2973		-99.609375
2974		-103.515625
2975		-99.609375
2976		-103.515625
2977		-99.609375
2978		-103.515625
2979		-99.609375
2980		-103.515625
2981		-99.609375
2982		-103.515625
2983		-97.656250
2984		-101.562500
2985		-99.609375
2986		-101.562500
2987		-99.609375
2988		-103.515625
2989		-97.656250
2990		-101.562500
2991		-99.609375
2992		-101.562500
2993		-97.656250
2994		-101.562500
2995		-97.656250
2996		-99.609375
2997		-97.656250
2998		-99.609375
2999		-95.703125
3000		-99.609375
3001		-95.703125
3002		-97.656250
3003		-95.703125
3004		-97.656250
3005		-91.796875
3006		-95.703125
3007		-91.796875
3008		-95.703125
3009		-91.796875
3010		-93.750000
3011		-89.843750
3012		-91.796875
3013		-87.890625
3014		-91.796875
3015		-87.890625
3016		-89.843750
3017		-85.937500
3018		-87.890625
3019		-85.937500
3020		-87.890625
3021		-83.984375
3022		-85.937500
3023		-82.031250
3024		-83.984375
3025		-80.078125
3026		-83.984375
3027		-80.078125
3028		-80.078125
3029		-76.171875
3030		-80.078125
3031		-76.171875
3032		-78.125000
3033		-72.265625
3034		-76.171875
3035		-72.265625
3036		-74.218750
3037		-70.312500
3038		-72.265625
3039		-68.359375
3040		-70.312500
3041		-66.406250
3042		-68.359375
3043		-62.500000
3044		-66.406250
3045		-60.546875
3046		-64.453125
3047		-58.593750
3048		-60.546875
3049		-56.640625
3050		-58.593750
3051		-54.687500
3052		-56.640625
3053		-52.734375
3054		-54.687500
3055		-50.781250
3056		-52.734375
3057		-48.828125
3058		-50.781250
3059		-44.921875
3060		-46.875000
3061		-42.968750
3062		-44.921875
3063		-41.015625
3064		-42.968750
3065		-37.109375
3066		-39.062500
3067		-35.156250
3068		-37.109375
3069		-33.203125
3070		-35.156250
3071		-31.250000
3072		-33.203125
3073		-27.343750
3074		-31.250000
3075		-25.390625
3076		-27.343750
3077		-23.437500
3078		-25.390625
3079		-21.484375
3080		-21.484375
3081		-17.578125
3082		-19.531250
3083		-15.625000
3084		-17.578125
3085		-13.671875
3086		-13.671875
3087		-9.765625
3088		-11.718750
3089		-5.859375
3090		-9.765625
3091		-5.859375
3092		-5.859375
3093		-1.953125
3094		-3.906250
3095		0.000000
3096		-1.953125
3097		3.906250
3098		1.953125
3099		5.859375
3100		3.906250
3101		9.765625
3102		5.859375
3103		9.765625
3104		9.765625
3105		13.671875
3106		9.765625
3107		15.625000
3108		13.671875
3109		17.578125
3110		15.625000
3111		19.531250
3112		17.578125
3113		21.484375
3114		19.531250
3115		25.390625
3116		23.437500
3117		27.343750
3118		25.390625
3119		29.296875
3120		27.343750
3121		31.250000
3122		29.296875
3123		35.156250
3124		33.203125
3125		37.109375
3126		33.203125
3127		39.062500
3128		37.109375
3129		41.015625
3130		39.062500
3131		42.968750
3132		41.015625
3133		44.921875
3134		42.968750
3135		46.875000
3136		44.921875
3137		48.828125
3138		46.875000
3139		50.781250
3140		46.875000
3141		52.734375
3142		50.781250
3143		54.687500
3144		52.734375
3145		56.640625
3146		54.687500
3147		58.593750
3148		56.640625
3149		60.546875
3150		58.593750
3151		62.500000
3152		58.593750
3153		64.453125
3154		62.500000
3155		66.406250
3156		64.453125
3157		68.359375
3158		64.453125
3159		70.312500
3160		66.406250
3161		70.312500
3162		68.359375
3163		72.265625
3164		70.312500
3165		74.218750
3166		70.312500
3167		74.218750
3168		72.265625
3169		76.171875
3170		74.218750
3171		76.171875
3172		76.171875
3173		80.078125
3174		76.171875
3175		80.078125
3176		78.125000
3177		80.078125
3178		78.125000
3179		82.031250
3180		80.078125
3181		83.984375
3182		80.078125
3183		83.984375
3184		82.031250
3185		85.937500
3186		82.031250
3187		85.937500
3188		83.984375
3189		85.937500
3190		83.984375
3191		87.890625
3192		83.984375
3193		87.890625
3194		83.984375
3195		87.890625
3196		85.937500
3197		89.843750
3198		85.937500
3199		89.843750
3200		85.937500
3201		89.843750
3202		87.890625
3203		91.796875
3204		87.890625
3205		89.843750
3206		87.890625
3207		91.796875
3208		87.890625
3209		91.796875
3210		87.890625
3211		91.796875
3212		89.843750
3213		91.796875
3214		87.890625
3215		91.796875
3216		87.890625
3217		91.796875
3218		87.890625
3219		91.796875
3220		89.843750
3221		91.796875
3222		89.843750
3223		91.796875
3224		87.890625
3225		91.796875
3226		87.890625
3227		91.796875
3228		87.890625
3229		91.796875
3230		87.890625
3231		89.843750
3232		85.937500
3233		89.843750
3234		85.937500
3235		89.843750
3236		85.937500
3237		89.843750
3238		85.937500
3239		87.890625
3240		83.984375
3241		87.890625
3242		83.984375
3243		87.890625
3244		83.984375
3245		85.937500
3246		82.031250
3247		85.937500
3248		82.031250
3249		83.984375
3250		80.078125
3251		83.984375
3252		78.125000
3253		83.984375
3254		78.125000
3255		82.031250
3256		76.171875
3257		80.078125
3258		76.171875
3259		80.078125
3260		74.218750
3261		78.125000
3262		74.218750
3263		78.125000
3264		72.265625
3265		76.171875
3266		70.312500
3267		74.218750
3268		68.359375
3269		74.218750
3270		68.359375
3271		70.312500
3272		66.406250
3273		70.312500
3274		64.453125
3275		68.359375
3276		62.500000
3277		66.406250
3278		60.546875
3279		64.453125
3280		60.546875
3281		62.500000
3282		58.593750
3283		60.546875
3284		56.640625
3285		58.593750
3286		54.687500
3287		58.593750
3288		52.734375
3289		56.640625
3290		48.828125
3291		54.687500
3292		48.828125
3293		52.734375
3294		44.921875
3295		50.781250
3296		44.921875
3297		48.828125
3298		41.015625
3299		46.875000
3300		39.062500
3301		42.968750
3302		37.109375
3303		42.968750
3304		35.156250
3305		39.062500
3306		33.203125
3307		37.109375
3308		31.250000
3309		35.156250
3310		27.343750
3311		33.203125
3312		25.390625
3313		29.296875
3314		23.437500
3315		27.343750
3316		21.484375
3317		25.390625
3318		19.531250
3319		23.437500
3320		17.578125
3321		21.484375
3322		13.671875
3323		17.578125
3324		11.718750
3325		15.625000
3326		7.812500
3327		13.671875
3328		5.859375
3329		9.765625
3330		3.906250
3331		7.812500
3332		0.000000
3333		5.859375
3334		-1.953125
3335		3.906250
3336		-3.906250
3337		0.000000
3338		-5.859375
3339		-1.953125
3340		-9.765625
3341		-5.859375
3342		-11.718750
3343		-7.812500
3344		-13.671875
3345		-9.765625
3346		-17.578125
3347		-11.718750
3348		-19.531250
3349		-15.625000
3350		-21.484375
3351		-17.578125
3352		-25.390625
3353		-19.531250
3354		-27.343750
3355		-23.437500
3356		-29.296875
3357		-25.390625
3358		-33.203125
3359		-27.343750
3360		-35.156250
3361		-31.250000
3362		-37.109375
3363		-33.203125
3364		-39.062500
3365		-35.156250
3366		-42.968750
3367		-37.109375
3368		-44.921875
3369		-41.015625
3370		-46.875000
3371		-41.015625
3372		-48.828125
3373		-44.921875
3374		-52.734375
3375		-46.875000
3376		-54.687500
3377		-48.828125
3378		-56.640625
3379		-52.734375
3380		-58.593750
3381		-54.687500
3382		-60.546875
3383		-56.640625
3384		-62.500000
3385		-58.593750
3386		-66.406250
3387		-60.546875
3388		-66.406250
3389		-62.500000
3390		-68.359375
3391		-66.406250
3392		-70.312500
3393		-66.406250
3394		-72.265625
3395		-68.359375
3396		-74.218750
3397		-70.312500
3398		-78.125000
3399		-72.265625
3400		-78.125000
3401		-74.218750
3402		-80.078125
3403		-76.171875
3404		-82.031250
3405		-78.125000
3406		-83.984375
3407		-80.078125
3408		-85.937500
3409		-82.031250
3410		-87.890625
3411		-83.984375
3412		-87.890625
3413		-83.984375
3414		-89.843750
3415		-85.937500
3416		-89.843750
3417		-87.890625
3418		-91.796875
3419		-87.890625
3420		-93.750000
3421		-89.843750
3422		-93.750000
3423		-91.796875
3424		-95.703125
3425		-91.796875
3426		-95.703125
3427		-91.796875
3428		-97.656250
3429		-93.750000
3430		-99.609375
3431		-95.703125
3432		-99.609375
3433		-95.703125
3434		-99.609375
3435		-95.703125
3436		-101.562500
3437		-97.656250
3438		-101.562500
3439		-97.656250
3440		-101.562500
3441		-99.609375
3442		-101.562500
3443		-97.656250
3444		-103.515625
3445		-99.609375
3446		-101.562500
3447		-99.609375
3448		-103.515625
3449		-99.609375
3450		-103.515625
3451		-99.609375
3452		-101.562500
3453		-99.609375
3454		-103.515625
3455		-99.609375
3456		-103.515625
3457		-99.609375
3458		-101.562500
3459		-99.609375
3460		-101.562500
3461		-99.609375
3462		-101.562500
3463		-97.656250
3464		-101.562500
3465		-97.656250
3466		-101.562500
3467		-97.656250
3468		-99.609375
3469		-97.656250
3470		-99.609375
3471		-95.703125
3472		-97.656250
3473		-95.703125
3474		-97.656250
3475		-95.703125
3476		-99.609375
3477		-93.750000
3478		-97.656250
3479		-93.750000
3480		-95.703125
3481		-91.796875
3482		-93.750000
3483		-89.843750
3484		-93.750000
3485		-89.843750
3486		-91.796875
3487		-87.890625
3488		-91.796875
3489		-87.890625
3490		-89.843750
3491		-85.937500
3492		-89.843750
3493		-83.984375
3494		-85.937500
3495		-82.031250
3496		-85.937500
3497		-82.031250
3498		-83.984375
3499		-80.078125
3500		-82.031250
3501		-78.125000
3502		-80.078125
3503		-76.171875
3504		-78.125000
3505		-74.218750
3506		-76.171875
3507		-72.265625
3508		-74.218750
3509		-70.312500
3510		-72.265625
3511		-68.359375
3512		-70.312500
3513		-66.406250
3514		-70.312500
3515		-64.453125
3516		-66.406250
3517		-62.500000
3518		-64.453125
3519		-60.546875
3520		-62.500000
3521		-58.593750
3522		-60.546875
3523		-56.640625
3524		-58.593750
3525		-54.687500
3526		-56.640625
3527		-52.734375
3528		-54.687500
3529		-48.828125
3530		-50.781250
3531		-46.875000
3532		-48.828125
3533		-44.921875
3534		-46.875000
3535		-41.015625
3536		-42.968750
3537		-39.062500
3538		-42.968750
3539		-37.109375
3540		-39.062500
3541		-35.156250
3542		-37.109375
3543		-33.203125
3544		-35.156250
3545		-29.296875
3546		-31.250000
3547		-27.343750
3548		-29.296875
3549		-25.390625
3550		-25.390625
3551		-21.484375
3552		-23.437500
3553		-19.531250
3554		-21.484375
3555		-17.578125
3556		-17.578125
3557		-13.671875
3558		-15.625000
3559		-11.718750
3560		-15.625000
3561		-9.765625
3562		-11.718750
3563		-7.812500
3564		-9.765625
3565		-3.906250
3566		-5.859375
3567		-1.953125
3568		-3.906250
3569		1.953125
3570		0.000000
3571		3.906250
3572		0.000000
3573		5.859375
3574		3.906250
3575		7.812500
3576		7.812500
3577		11.718750
3578		9.765625
3579		13.671875
3580		11.718750
3581		15.625000
3582		13.671875
3583		19.531250
3584		17.578125
3585		21.484375
3586		19.531250
3587		23.437500
3588		21.484375
3589		25.390625
3590		23.437500
3591		27.343750
3592		27.343750
3593		29.296875
3594		27.343750
3595		33.203125
3596		31.250000
3597		35.156250
3598		33.203125
3599		37.109375
3600		35.156250
3601		39.062500
3602		37.109375
3603		42.968750
3604		41.015625
3605		44.921875
3606		42.968750
3607		44.921875
3608		44.921875
3609		46.875000
3610		44.921875
3611		50.781250
3612		48.828125
3613		52.734375
3614		50.781250
3615		54.687500
3616		50.781250
3617		56.640625
3618		54.687500
3619		58.593750
3620		54.687500
3621		60.546875
3622		56.640625
3623		60.546875
3624		58.593750
3625		62.500000
3626		60.546875
3627		66.406250
3628		62.500000
3629		66.406250
3630		64.453125
3631		68.359375
3632		66.406250
3633		70.312500
3634		68.359375
3635		72.265625
3636		68.359375
3637		72.265625
3638		70.312500
3639		74.218750
3640		72.265625
3641		74.218750
3642		74.218750
3643		76.171875
3644		74.218750
3645		78.125000
3646		76.171875
3647		80.078125
3648		76.171875
3649		80.078125
3650		78.125000
3651		82.031250
3652		78.125000
3653		82.031250
3654		80.078125
3655		83.984375
3656		80.078125
3657		83.984375
3658		82.031250
3659		85.937500
3660		82.031250
3661		85.937500
3662		83.984375
3663		87.890625
3664		83.984375
3665		87.890625
3666		85.937500
3667		87.890625
3668		85.937500
3669		87.890625
3670		85.937500
3671		89.843750
3672		85.937500
3673		89.843750
3674		87.890625
3675		89.843750
3676		87.890625
3677		89.843750
3678		87.890625
3679		91.796875
3680		87.890625
3681		91.796875
3682		89.843750
3683		91.796875
3684		87.890625
3685		91.796875
3686		87.890625
3687		91.796875
3688		87.890625
3689		91.796875
3690		89.843750
3691		91.796875
3692		89.843750
3693		91.796875
3694		87.890625
3695		91.796875
3696		87.890625
3697		91.796875
3698		87.890625
3699		91.796875
3700		87.890625
3701		91.796875
3702		87.890625
3703		91.796875
3704		87.890625
3705		89.843750
3706		85.937500
3707		89.843750
3708		85.937500
3709		89.843750
3710		85.937500
3711		89.843750
3712		85.937500
3713		87.890625
3714		83.984375
3715		87.890625
3716		83.984375
3717		85.937500
3718		83.984375
3719		85.937500
3720		82.031250
3721		85.937500
3722		80.078125
3723		83.984375
3724		80.078125
3725		83.984375
3726		80.078125
3727		82.031250
3728		78.125000
3729		82.031250
3730		78.125000
3731		80.078125
3732		76.171875
3733		80.078125
3734		74.218750
3735		78.125000
3736		74.218750
3737		76.171875
3738		72.265625
3739		76.171875
3740		70.312500
3741		76.171875
3742		68.359375
3743		72.265625
3744		66.406250
3745		70.312500
3746		66.406250
3747		70.312500
3748		64.453125
3749		68.359375
3750		62.500000
3751		66.406250
3752		60.546875
3753		64.453125
3754		58.593750
3755		62.500000
3756		56.640625
3757		60.546875
3758		56.640625
3759		58.593750
3760		52.734375
3761		56.640625
3762		50.781250
3763		56.640625
3764		48.828125
3765		52.734375
3766		46.875000
3767		50.781250
3768		44.921875
3769		48.828125
3770		42.968750
3771		46.875000
3772		41.015625
3773		44.921875
3774		39.062500
3775		42.968750
3776		37.109375
3777		41.015625
3778		33.203125
3779		39.062500
3780		31.250000
3781		37.109375
3782		29.296875
3783		33.203125
3784		27.343750
3785		33.203125
3786		25.390625
3787		29.296875
3788		23.437500
3789		27.343750
3790		19.531250
3791		25.390625
3792		17.578125
3793		21.484375
3794		15.625000
3795		19.531250
3796		11.718750
3797		17.578125
3798		11.718750
3799		13.671875
3800		7.812500
3801		13.671875
3802		5.859375
3803		9.765625
3804		3.906250
3805		7.812500
3806		0.000000
3807		3.906250
3808		-1.953125
3809		1.953125
3810		-3.906250
3811		0.000000
3812		-7.812500
3813		-3.906250
3814		-9.765625
3815		-5.859375
3816		-11.718750
3817		-7.812500
3818		-15.625000
3819		-11.718750
3820		-17.578125
3821		-11.718750
3822		-19.531250
3823		-15.625000
3824		-21.484375
3825		-17.578125
3826		-25.390625
3827		-21.484375
3828		-29.296875
3829		-23.437500
3830		-29.296875
3831		-25.390625
3832		-33.203125
3833		-27.343750
3834		-35.156250
3835		-31.250000
3836		-39.062500
3837		-33.203125
3838		-41.015625
3839		-37.109375
3840		-42.968750
3841		-37.109375
3842		-44.921875
3843		-41.015625
3844		-46.875000
3845		-42.968750
3846		-50.781250
3847		-44.921875
3848		-52.734375
3849		-48.828125
3850		-54.687500
3851		-50.781250
3852		-56.640625
3853		-52.734375
3854		-58.593750
3855		-54.687500
3856		-62.500000
3857		-56.640625
3858		-62.500000
3859		-58.593750
3860		-66.406250
3861		-62.500000
3862		-68.359375
3863		-62.500000
3864		-70.312500
3865		-66.406250
3866		-72.265625
3867		-68.359375
3868		-74.218750
3869		-70.312500
3870		-74.218750
3871		-72.265625
3872		-78.125000
3873		-72.265625
3874		-80.078125
3875		-74.218750
3876		-80.078125
3877		-78.125000
3878		-82.031250
3879		-78.125000
3880		-83.984375
3881		-80.078125
3882		-85.937500
3883		-82.031250
3884		-87.890625
3885		-83.984375
3886		-89.843750
3887		-83.984375
3888		-89.843750
3889		-85.937500
3890		-91.796875
3891		-87.890625
3892		-91.796875
3893		-89.843750
3894		-93.750000
3895		-89.843750
3896		-95.703125
3897		-91.796875
3898		-95.703125
3899		-91.796875
3900		-97.656250
3901		-93.750000
3902		-97.656250
3903		-93.750000
3904		-97.656250
3905		-95.703125
3906		-99.609375
3907		-95.703125
3908		-99.609375
3909		-97.656250
3910		-99.609375
3911		-97.656250
3912		-101.562500
3913		-97.656250
3914		-101.562500
3915		-97.656250
3916		-101.562500
3917		-99.609375
3918		-101.562500
3919		-99.609375
3920		-103.515625
3921		-99.609375
3922		-103.515625
3923		-99.609375
3924		-103.515625
3925		-99.609375
3926		-103.515625
3927		-99.609375
3928		-103.515625
3929		-99.609375
3930		-103.515625
3931		-97.656250
3932		-103.515625
3933		-99.609375
3934		-101.562500
3935		-99.609375
3936		-101.562500
3937		-99.609375
3938		-101.562500
3939		-97.656250
3940		-101.562500
3941		-97.656250
3942		-101.562500
3943		-95.703125
3944		-99.609375
3945		-97.656250
3946		-99.609375
3947		-95.703125
3948		-97.656250
3949		-93.750000
3950		-97.656250
3951		-93.750000
3952		-95.703125
3953		-93.750000
3954		-95.703125
3955		-91.796875
3956		-93.750000
3957		-91.796875
3958		-93.750000
3959		-89.843750
3960		-91.796875
3961		-89.843750
3962		-89.843750
3963		-87.890625
3964		-89.843750
3965		-85.937500
3966		-87.890625
3967		-83.984375
3968		-87.890625
3969		-83.984375
3970		-83.984375
3971		-80.078125
3972		-83.984375
3973		-80.078125
3974		-82.031250
3975		-78.125000
3976		-80.078125
3977		-76.171875
3978		-78.125000
3979		-74.218750
3980		-78.125000
3981		-72.265625
3982		-74.218750
3983		-70.312500
3984		-72.265625
3985		-68.359375
3986		-70.312500
3987		-66.406250
3988		-68.359375
3989		-64.453125
3990		-66.406250
3991		-62.500000
3992		-64.453125
3993		-60.546875
3994		-62.500000
3995		-58.593750
3996		-60.546875
3997		-54.687500
3998		-58.593750
3999		-52.734375
4000		-56.640625
4001		-50.781250
4002		-52.734375
4003		-48.828125
4004		-52.734375
4005		-44.921875
4006		-48.828125
4007		-44.921875
4008		-46.875000
4009		-41.015625
4010		-42.968750
4011		-39.062500
4012		-41.015625
4013		-37.109375
4014		-39.062500
4015		-33.203125
4016		-37.109375
4017		-29.296875
4018		-35.156250
4019		-29.296875
4020		-31.250000
4021		-27.343750
4022		-29.296875
4023		-23.437500
4024		-27.343750
4025		-21.484375
4026		-25.390625
4027		-19.531250
4028		-21.484375
4029		-17.578125
4030		-19.531250
4031		-13.671875
4032		-15.625000
4033		-9.765625
4034		-13.671875
4035		-7.812500
4036		-11.718750
4037		-5.859375
4038		-7.812500
4039		-3.906250
4040		-5.859375
4041		0.000000
4042		-3.906250
4043		1.953125
4044		0.000000
4045		3.906250
4046		1.953125
4047		7.812500
4048		3.906250
4049		9.765625
4050		5.859375
4051		11.718750
4052		7.812500
4053		15.625000
4054		9.765625
4055		17.578125
4056		13.671875
4057		19.531250
4058		15.625000
4059		21.484375
4060		19.531250
4061		23.437500
4062		21.484375
4063		25.390625
4064		23.437500
4065		29.296875
4066		25.390625
4067		31.250000
4068		27.343750
4069		33.203125
4070		29.296875
4071		35.156250
4072		33.203125
4073		39.062500
4074		35.156250
4075		41.015625
4076		37.109375
4077		41.015625
4078		41.015625
4079		42.968750
4080		42.968750
4081		46.875000
4082		42.968750
4083		48.828125
4084		44.921875
4085		52.734375
4086		46.875000
4087		52.734375
4088		48.828125
4089		54.687500
4090		50.781250
4091		56.640625
4092		52.734375
4093		58.593750
4094		56.640625
4095		58.593750
4096		58.593750
4097		60.546875
4098		58.593750
4099		64.453125
4100		60.546875
4101		66.406250
4102		62.500000
4103		68.359375
4104		62.500000
4105		70.312500
4106		64.453125
4107		70.312500
4108		66.406250
4109		72.265625
4110		68.359375
4111		72.265625
4112		70.312500
4113		74.218750
4114		72.265625
4115		76.171875
4116		74.218750
4117		76.171875
4118		74.218750
4119		78.125000
4120		76.171875
4121		78.125000
4122		78.125000
4123		80.078125
4124		78.125000
4125		82.031250
4126		80.078125
4127		83.984375
4128		80.078125
4129		82.031250
4130		80.078125
4131		85.937500
4132		82.031250
4133		83.984375
4134		83.984375
4135		85.937500
4136		83.984375
4137		85.937500
4138		83.984375
4139		87.890625
4140		85.937500
4141		87.890625
4142		83.984375
4143		89.843750
4144		85.937500
4145		89.843750
4146		87.890625
4147		89.843750
4148		87.890625
4149		89.843750
4150		87.890625
4151		89.843750
4152		87.890625
4153		89.843750
4154		87.890625
4155		91.796875
4156		89.843750
4157		91.796875
4158		89.843750
4159		91.796875
4160		89.843750
4161		91.796875
4162		89.843750
4163		91.796875
4164		89.843750
4165		91.796875
4166		89.843750
4167		91.796875
4168		87.890625
4169		91.796875
4170		87.890625
4171		91.796875
4172		87.890625
4173		89.843750
4174		87.890625
4175		89.843750
4176		87.890625
4177		89.843750
4178		87.890625
4179		89.843750
4180		87.890625
4181		89.843750
4182		85.937500
4183		87.890625
4184		85.937500
4185		87.890625
4186		85.937500
4187		87.890625
4188		83.984375
4189		87.890625
4190		83.984375
4191		85.937500
4192		83.984375
4193		85.937500
4194		82.031250
4195		83.984375
4196		82.031250
4197		83.984375
4198		80.078125
4199		83.984375
4200		80.078125
4201		82.031250
4202		78.125000
4203		80.078125
4204		78.125000
4205		80.078125
4206		74.218750
4207		78.125000
4208		74.218750
4209		78.125000
4210		74.218750
4211		76.171875
4212		72.265625
4213		74.218750
4214		70.312500
4215		74.218750
4216		66.406250
4217		76.171875
4218		64.453125
4219		74.218750
4220		64.453125
4221		72.265625
4222		64.453125
4223		66.406250
4224		62.500000
4225		66.406250
4226		60.546875
4227		64.453125
4228		58.593750
4229		62.500000
4230		56.640625
4231		60.546875
4232		52.734375
4233		60.546875
4234		50.781250
4235		60.546875
4236		48.828125
4237		58.593750
4238		48.828125
4239		52.734375
4240		46.875000
4241		50.781250
4242		44.921875
4243		48.828125
4244		42.968750
4245		46.875000
4246		41.015625
4247		44.921875
4248		35.156250
4249		44.921875
4250		33.203125
4251		44.921875
4252		31.250000
4253		41.015625
4254		31.250000
4255		39.062500
4256		29.296875
4257		33.203125
4258		27.343750
4259		31.250000
4260		25.390625
4261		29.296875
4262		23.437500
4263		27.343750
4264		21.484375
4265		23.437500
4266		15.625000
4267		25.390625
4268		13.671875
4269		23.437500
4270		11.718750
4271		19.531250
4272		9.765625
4273		13.671875
4274		7.812500
4275		11.718750
4276		5.859375
4277		9.765625
4278		1.953125
4279		7.812500
4280		0.000000
4281		3.906250
4282		-5.859375
4283		3.906250
4284		-7.812500
4285		1.953125
4286		-9.765625
4287		0.000000
4288		-9.765625
4289		-3.906250
4290		-11.718750
4291		-7.812500
4292		-15.625000
4293		-11.718750
4294		-17.578125
4295		-13.671875
4296		-19.531250
4297		-15.625000
4298		-23.437500
4299		-19.531250
4300		-27.343750
4301		-17.578125
4302		-31.250000
4303		-19.531250
4304		-33.203125
4305		-23.437500
4306		-33.203125
4307		-29.296875
4308		-35.156250
4309		-31.250000
4310		-37.109375
4311		-35.156250
4312		-41.015625
4313		-37.109375
4314		-42.968750
4315		-39.062500
4316		-48.828125
4317		-39.062500
4318		-50.781250
4319		-41.015625
4320		-52.734375
4321		-44.921875
4322		-52.734375
4323		-48.828125
4324		-54.687500
4325		-50.781250
4326		-56.640625
4327		-52.734375
4328		-58.593750
4329		-56.640625
4330		-60.546875
4331		-58.593750
4332		-66.406250
4333		-58.593750
4334		-68.359375
4335		-58.593750
4336		-70.312500
4337		-60.546875
4338		-72.265625
4339		-62.500000
4340		-72.265625
4341		-68.359375
4342		-74.218750
4343		-70.312500
4344		-74.218750
4345		-72.265625
4346		-78.125000
4347		-74.218750
4348		-78.125000
4349		-76.171875
4350		-83.984375
4351		-74.218750
4352		-83.984375
4353		-76.171875
4354		-85.937500
4355		-78.125000
4356		-85.937500
4357		-82.031250
4358		-87.890625
4359		-83.984375
4360		-87.890625
4361		-85.937500
4362		-89.843750
4363		-87.890625
4364		-91.796875
4365		-87.890625
4366		-95.703125
4367		-87.890625
4368		-97.656250
4369		-87.890625
4370		-97.656250
4371		-87.890625
4372		-97.656250
4373		-89.843750
4374		-95.703125
4375		-93.750000
4376		-97.656250
4377		-95.703125
4378		-97.656250
4379		-95.703125
4380		-99.609375
4381		-95.703125
4382		-99.609375
4383		-97.656250
4384		-103.515625
4385		-93.750000
4386		-103.515625
4387		-93.750000
4388		-105.468750
4389		-95.703125
4390		-103.515625
4391		-97.656250
4392		-101.562500
4393		-99.609375
4394		-101.562500
4395		-99.609375
4396		-101.562500
4397		-99.609375
4398		-101.562500
4399		-99.609375
4400		-101.562500
4401		-99.609375
4402		-105.468750
4403		-97.656250
4404		-103.515625
4405		-97.656250
4406		-101.562500
4407		-99.609375
4408		-101.562500
4409		-99.609375
4410		-101.562500
4411		-99.609375
4412		-101.562500
4413		-99.609375
4414		-101.562500
4415		-97.656250
4416		-99.609375
4417		-97.656250
4418		-101.562500
4419		-95.703125
4420		-101.562500
4421		-91.796875
4422		-97.656250
4423		-95.703125
4424		-95.703125
4425		-93.750000
4426		-95.703125
4427		-93.750000
4428		-95.703125
4429		-91.796875
4430		-93.750000
4431		-91.796875
4432		-91.796875
4433		-89.843750
4434		-93.750000
4435		-87.890625
4436		-91.796875
4437		-83.984375
4438		-89.843750
4439		-83.984375
4440		-87.890625
4441		-83.984375
4442		-85.937500
4443		-82.031250
4444		-83.984375
4445		-82.031250
4446		-82.031250
4447		-78.125000
4448		-82.031250
4449		-78.125000
4450		-80.078125
4451		-76.171875
4452		-78.125000
4453		-74.218750
4454		-76.171875
4455		-72.265625
4456		-74.218750
4457		-70.312500
4458		-72.265625
4459		-68.359375
4460		-70.312500
4461		-66.406250
4462		-68.359375
4463		-64.453125
4464		-66.406250
4465		-62.500000
4466		-64.453125
4467		-60.546875
4468		-62.500000
4469		-58.593750
4470		-58.593750
4471		-54.687500
4472		-56.640625
4473		-52.734375
4474		-54.687500
4475		-50.781250
4476		-52.734375
4477		-48.828125
4478		-50.781250
4479		-46.875000
4480		-46.875000
4481		-44.921875
4482		-44.921875
4483		-41.015625
4484		-42.968750
4485		-39.062500
4486		-41.015625
4487		-37.109375
4488		-39.062500
4489		-35.156250
4490		-35.156250
4491		-31.250000
4492		-33.203125
4493		-29.296875
4494		-31.250000
4495		-27.343750
4496		-27.343750
4497		-23.437500
4498		-25.390625
4499		-21.484375
4500		-23.437500
4501		-17.578125
4502		-21.484375
4503		-15.625000
4504		-17.578125
4505		-13.671875
4506		-15.625000
4507		-11.718750
4508		-13.671875
4509		-7.812500
4510		-11.718750
4511		-5.859375
4512		-7.812500
4513		-3.906250
4514		-3.906250
4515		0.000000
4516		-1.953125
4517		1.953125
4518		0.000000
4519		3.906250
4520		1.953125
4521		7.812500
4522		5.859375
4523		9.765625
4524		7.812500
4525		11.718750
4526		9.765625
4527		13.671875
4528		13.671875
4529		17.578125
4530		15.625000
4531		19.531250
4532		17.578125
4533		21.484375
4534		19.531250
4535		25.390625
4536		21.484375
4537		27.343750
4538		25.390625
4539		29.296875
4540		27.343750
4541		31.250000
4542		29.296875
4543		35.156250
4544		31.250000
4545		35.156250
4546		35.156250
4547		37.109375
4548		37.109375
4549		41.015625
4550		39.062500
4551		42.968750
4552		39.062500
4553		44.921875
4554		41.015625
4555		46.875000
4556		44.921875
4557		48.828125
4558		46.875000
4559		50.781250
4560		46.875000
4561		52.734375
4562		50.781250
4563		54.687500
4564		52.734375
4565		56.640625
4566		54.687500
4567		58.593750
4568		54.687500
4569		60.546875
4570		58.593750
4571		62.500000
4572		60.546875
4573		62.500000
4574		62.500000
4575		66.406250
4576		62.500000
4577		66.406250
4578		64.453125
4579		68.359375
4580		66.406250
4581		70.312500
4582		68.359375
4583		72.265625
4584		70.312500
4585		74.218750
4586		70.312500
4587		74.218750
4588		72.265625
4589		76.171875
4590		74.218750
4591		76.171875
4592		74.218750
4593		78.125000
4594		76.171875
4595		78.125000
4596		78.125000
4597		80.078125
4598		78.125000
4599		82.031250
4600		80.078125
4601		82.031250
4602		78.125000
4603		85.937500
4604		80.078125
4605		83.984375
4606		82.031250
4607		85.937500
4608		82.031250
4609		85.937500
4610		83.984375
4611		87.890625
4612		85.937500
4613		87.890625
4614		85.937500
4615		87.890625
4616		85.937500
4617		87.890625
4618		83.984375
4619		91.796875
4620		85.937500
4621		89.843750
4622		87.890625
4623		89.843750
4624		87.890625
4625		91.796875
4626		87.890625
4627		91.796875
4628		87.890625
4629		91.796875
4630		89.843750
4631		91.796875
4632		89.843750
4633		91.796875
4634		89.843750
4635		91.796875
4636		85.937500
4637		93.750000
4638		87.890625
4639		91.796875
4640		89.843750
4641		91.796875
4642		87.890625
4643		91.796875
4644		87.890625
4645		91.796875
4646		87.890625
4647		89.843750
4648		87.890625
4649		89.843750
4650		87.890625
4651		89.843750
4652		85.937500
4653		91.796875
4654		85.937500
4655		89.843750
4656		85.937500
4657		87.890625
4658		83.984375
4659		87.890625
4660		83.984375
4661		87.890625
4662		83.984375
4663		87.890625
4664		83.984375
4665		85.937500
4666		83.984375
4667		85.937500
4668		80.078125
4669		85.937500
4670		80.078125
4671		83.984375
4672		80.078125
4673		83.984375
4674		80.078125
4675		82.031250
4676		76.171875
4677		82.031250
4678		76.171875
4679		80.078125
4680		76.171875
4681		78.125000
4682		74.218750
4683		78.125000
4684		72.265625
4685		76.171875
4686		72.265625
4687		76.171875
4688		70.312500
4689		72.265625
4690		68.359375
4691		72.265625
4692		66.406250
4693		70.312500
4694		66.406250
4695		68.359375
4696		64.453125
4697		66.406250
4698		62.500000
4699		64.453125
4700		60.546875
4701		64.453125
4702		58.593750
4703		62.500000
4704		56.640625
4705		60.546875
4706		54.687500
4707		58.593750
4708		52.734375
4709		56.640625
4710		50.781250
4711		54.687500
4712		48.828125
4713		52.734375
4714		46.875000
4715		50.781250
4716		44.921875
4717		48.828125
4718		42.968750
4719		46.875000
4720		41.015625
4721		44.921875
4722		39.062500
4723		42.968750
4724		37.109375
4725		39.062500
4726		33.203125
4727		37.109375
4728		31.250000
4729		35.156250
4730		29.296875
4731		33.203125
4732		27.343750
4733		31.250000
4734		25.390625
4735		29.296875
4736		21.484375
4737		25.390625
4738		19.531250
4739		23.437500
4740		17.578125
4741		21.484375
4742		15.625000
4743		19.531250
4744		11.718750
4745		15.625000
4746		9.765625
4747		13.671875
4748		7.812500
4749		11.718750
4750		5.859375
4751		7.812500
4752		1.953125
4753		5.859375
4754		0.000000
4755		3.906250
4756		-3.906250
4757		1.953125
4758		-5.859375
4759		-1.953125
4760		-7.812500
4761		-3.906250
4762		-9.765625
4763		-5.859375
4764		-13.671875
4765		-9.765625
4766		-15.625000
4767		-11.718750
4768		-17.578125
4769		-13.671875
4770		-21.484375
4771		-17.578125
4772		-23.437500
4773		-19.531250
4774		-25.390625
4775		-21.484375
4776		-29.296875
4777		-25.390625
4778		-31.250000
4779		-27.343750
4780		-33.203125
4781		-29.296875
4782		-35.156250
4783		-33.203125
4784		-39.062500
4785		-35.156250
4786		-41.015625
4787		-37.109375
4788		-42.968750
4789		-39.062500
4790		-44.921875
4791		-42.968750
4792		-48.828125
4793		-44.921875
4794		-50.781250
4795		-46.875000
4796		-52.734375
4797		-48.828125
4798		-54.687500
4799		-50.781250
4800		-56.640625
4801		-52.734375
4802		-60.546875
4803		-56.640625
4804		-62.500000
4805		-56.640625
4806		-64.453125
4807		-60.546875
4808		-66.406250
4809		-62.500000
4810		-68.359375
4811		-64.453125
4812		-70.312500
4813		-66.406250
4814		-72.265625
4815		-68.359375
4816		-74.218750
4817		-70.312500
4818		-76.171875
4819		-72.265625
4820		-78.125000
4821		-74.218750
4822		-80.078125
4823		-76.171875
4824		-82.031250
4825		-78.125000
4826		-82.031250
4827		-80.078125
4828		-83.984375
4829		-82.031250
4830		-85.937500
4831		-83.984375
4832		-87.890625
4833		-83.984375
4834		-87.890625
4835		-85.937500
4836		-93.750000
4837		-87.890625
4838		-93.750000
4839		-85.937500
4840		-93.750000
4841		-87.890625
4842		-93.750000
4843		-91.796875
4844		-95.703125
4845		-91.796875
4846		-95.703125
4847		-93.750000
4848		-97.656250
4849		-93.750000
4850		-97.656250
4851		-95.703125
4852		-97.656250
4853		-95.703125
4854		-101.562500
4855		-95.703125
4856		-101.562500
4857		-95.703125
4858		-99.609375
4859		-97.656250
4860		-101.562500
4861		-99.609375
4862		-101.562500
4863		-99.609375
4864		-101.562500
4865		-99.609375
4866		-101.562500
4867		-99.609375
4868		-101.562500
4869		-99.609375
4870		-103.515625
4871		-97.656250
4872		-103.515625
4873		-97.656250
4874		-103.515625
4875		-99.609375
4876		-101.562500
4877		-99.609375
4878		-101.562500
4879		-99.609375
4880		-101.562500
4881		-99.609375
4882		-101.562500
4883		-99.609375
4884		-101.562500
4885		-97.656250
4886		-101.562500
4887		-99.609375
4888		-103.515625
4889		-95.703125
4890		-101.562500
4891		-95.703125
4892		-99.609375
4893		-95.703125
4894		-97.656250
4895		-95.703125
4896		-97.656250
4897		-95.703125
4898		-97.656250
4899		-93.750000
4900		-95.703125
4901		-93.750000
4902		-93.750000
4903		-91.796875
4904		-95.703125
4905		-89.843750
4906		-93.750000
4907		-87.890625
4908		-91.796875
4909		-87.890625
4910		-89.843750
4911		-87.890625
4912		-87.890625
4913		-85.937500
4914		-87.890625
4915		-83.984375
4916		-85.937500
4917		-82.031250
4918		-83.984375
4919		-80.078125
4920		-82.031250
4921		-78.125000
4922		-82.031250
4923		-76.171875
4924		-80.078125
4925		-76.171875
4926		-78.125000
4927		-74.218750
4928		-76.171875
4929		-72.265625
4930		-74.218750
4931		-70.312500
4932		-72.265625
4933		-68.359375
4934		-70.312500
4935		-66.406250
4936		-66.406250
4937		-64.453125
4938		-66.406250
4939		-60.546875
4940		-64.453125
4941		-58.593750
4942		-60.546875
4943		-56.640625
4944		-58.593750
4945		-54.687500
4946		-56.640625
4947		-52.734375
4948		-54.687500
4949		-50.781250
4950		-52.734375
4951		-48.828125
4952		-48.828125
4953		-44.921875
4954		-46.875000
4955		-41.015625
4956		-46.875000
4957		-39.062500
4958		-42.968750
4959		-39.062500
4960		-39.062500
4961		-35.156250
4962		-37.109375
4963		-33.203125
4964		-35.156250
4965		-31.250000
4966		-33.203125
4967		-27.343750
4968		-29.296875
4969		-25.390625
4970		-27.343750
4971		-23.437500
4972		-27.343750
4973		-19.531250
4974		-23.437500
4975		-17.578125
4976		-19.531250
4977		-15.625000
4978		-17.578125
4979		-13.671875
4980		-13.671875
4981		-9.765625
4982		-11.718750
4983		-7.812500
4984		-9.765625
4985		-5.859375
4986		-5.859375
4987		-1.953125
4988		-5.859375
4989		1.953125
4990		-1.953125
4991		3.906250
4992		0.000000
4993		5.859375
4994		3.906250
4995		7.812500
4996		5.859375
4997		9.765625
4998		7.812500
4999		11.718750
5000		11.718750
5001		15.625000
5002		13.671875
5003		17.578125
5004		15.625000
5005		21.484375
5006		15.625000
5007		23.437500
5008		17.578125
5009		25.390625
5010		23.437500
5011		27.343750
5012		25.390625
5013		29.296875
5014		27.343750
5015		31.250000
5016		29.296875
5017		33.203125
5018		33.203125
5019		37.109375
5020		35.156250
5021		39.062500
5022		35.156250
5023		41.015625
5024		39.062500
5025		42.968750
5026		41.015625
5027		44.921875
5028		42.968750
5029		46.875000
5030		44.921875
5031		48.828125
5032		46.875000
5033		50.781250
5034		48.828125
5035		52.734375
5036		50.781250
5037		54.687500
5038		52.734375
5039		58.593750
5040		54.687500
5041		58.593750
5042		56.640625
5043		60.546875
5044		58.593750
5045		62.500000
5046		60.546875
5047		64.453125
5048		60.546875
5049		66.406250
5050		64.453125
5051		66.406250
5052		64.453125
5053		68.359375
5054		68.359375
5055		70.312500
5056		66.406250
5057		72.265625
5058		70.312500
5059		72.265625
5060		72.265625
5061		74.218750
5062		72.265625
5063		76.171875
5064		74.218750
5065		78.125000
5066		76.171875
5067		78.125000
5068		76.171875
5069		80.078125
5070		78.125000
5071		80.078125
5072		80.078125
5073		82.031250
5074		80.078125
5075		82.031250
5076		80.078125
5077		83.984375
5078		82.031250
5079		83.984375
5080		83.984375
5081		85.937500
5082		83.984375
5083		85.937500
5084		83.984375
5085		85.937500
5086		85.937500
5087		87.890625
5088		85.937500
5089		87.890625
5090		85.937500
5091		87.890625
5092		87.890625
5093		89.843750
5094		87.890625
5095		89.843750
5096		87.890625
5097		89.843750
5098		87.890625
5099		91.796875
5100		89.843750
5101		91.796875
5102		89.843750
5103		91.796875
5104		89.843750
5105		91.796875
5106		89.843750
5107		91.796875
5108		89.843750
5109		91.796875
5110		89.843750
5111		91.796875
5112		89.843750
5113		91.796875
5114		89.843750
5115		91.796875
5116		89.843750
5117		91.796875
5118		89.843750
5119		91.796875
5120		87.890625
5121		91.796875
5122		87.890625
5123		89.843750
5124		87.890625
5125		89.843750
5126		87.890625
5127		89.843750
5128		87.890625
5129		89.843750
5130		85.937500
5131		89.843750
5132		85.937500
5133		87.890625
5134		85.937500
5135		87.890625
5136		83.984375
5137		87.890625
5138		83.984375
5139		85.937500
5140		82.031250
5141		85.937500
5142		82.031250
5143		83.984375
5144		80.078125
5145		83.984375
5146		80.078125
5147		82.031250
5148		80.078125
5149		82.031250
5150		78.125000
5151		80.078125
5152		76.171875
5153		80.078125
5154		76.171875
5155		78.125000
5156		74.218750
5157		76.171875
5158		72.265625
5159		76.171875
5160		72.265625
5161		74.218750
5162		70.312500
5163		72.265625
5164		68.359375
5165		72.265625
5166		66.406250
5167		70.312500
5168		64.453125
5169		68.359375
5170		64.453125
5171		66.406250
5172		62.500000
5173		64.453125
5174		60.546875
5175		62.500000
5176		58.593750
5177		60.546875
5178		56.640625
5179		60.546875
5180		54.687500
5181		58.593750
5182		52.734375
5183		56.640625
5184		50.781250
5185		54.687500
5186		48.828125
5187		52.734375
5188		46.875000
5189		50.781250
5190		44.921875
5191		48.828125
5192		42.968750
5193		44.921875
5194		41.015625
5195		44.921875
5196		37.109375
5197		41.015625
5198		35.156250
5199		39.062500
5200		33.203125
5201		37.109375
5202		31.250000
5203		35.156250
5204		29.296875
5205		33.203125
5206		27.343750
5207		29.296875
5208		23.437500
5209		27.343750
5210		21.484375
5211		25.390625
5212		19.531250
5213		23.437500
5214		17.578125
5215		21.484375
5216		13.671875
5217		17.578125
5218		11.718750
5219		15.625000
5220		9.765625
5221		13.671875
5222		7.812500
5223		11.718750
5224		3.906250
5225		7.812500
5226		1.953125
5227		5.859375
5228		0.000000
5229		3.906250
5230		-3.906250
5231		1.953125
5232		-5.859375
5233		-1.953125
5234		-7.812500
5235		-3.906250
5236		-11.718750
5237		-7.812500
5238		-13.671875
5239		-9.765625
5240		-15.625000
5241		-11.718750
5242		-19.531250
5243		-15.625000
5244		-21.484375
5245		-17.578125
5246		-23.437500
5247		-19.531250
5248		-27.343750
5249		-23.437500
5250		-29.296875
5251		-25.390625
5252		-31.250000
5253		-27.343750
5254		-33.203125
5255		-29.296875
5256		-37.109375
5257		-33.203125
5258		-39.062500
5259		-35.156250
5260		-41.015625
5261		-37.109375
5262		-44.921875
5263		-41.015625
5264		-46.875000
5265		-42.968750
5266		-48.828125
5267		-44.921875
5268		-50.781250
5269		-46.875000
5270		-52.734375
5271		-48.828125
5272		-54.687500
5273		-52.734375
5274		-58.593750
5275		-52.734375
5276		-60.546875
5277		-56.640625
5278		-62.500000
5279		-58.593750
5280		-64.453125
5281		-60.546875
5282		-66.406250
5283		-62.500000
5284		-68.359375
5285		-64.453125
5286		-70.312500
5287		-66.406250
5288		-72.265625
5289		-68.359375
5290		-74.218750
5291		-70.312500
5292		-76.171875
5293		-72.265625
5294		-78.125000
5295		-74.218750
5296		-80.078125
5297		-76.171875
5298		-82.031250
5299		-78.125000
5300		-82.031250
5301		-80.078125
5302		-83.984375
5303		-82.031250
5304		-85.937500
5305		-83.984375
5306		-87.890625
5307		-83.984375
5308		-87.890625
5309		-85.937500
5310		-89.843750
5311		-87.890625
5312		-91.796875
5313		-87.890625
5314		-91.796875
5315		-89.843750
5316		-93.750000
5317		-91.796875
5318		-95.703125
5319		-91.796875
5320		-95.703125
5321		-93.750000
5322		-95.703125
5323		-93.750000
5324		-97.656250
5325		-95.703125
5326		-99.609375
5327		-95.703125
5328		-99.609375
5329		-97.656250
5330		-99.609375
5331		-97.656250
5332		-99.609375
5333		-97.656250
5334		-101.562500
5335		-97.656250
5336		-101.562500
5337		-99.609375
5338		-101.562500
5339		-99.609375
5340		-101.562500
5341		-99.609375
5342		-101.562500
5343		-99.609375
5344		-101.562500
5345		-99.609375
5346		-101.562500
5347		-99.609375
5348		-101.562500
5349		-99.609375
5350		-101.562500
5351		-99.609375
5352		-101.562500
5353		-99.609375
5354		-101.562500
5355		-99.609375
5356		-101.562500
5357		-99.609375
5358		-101.562500
5359		-99.609375
5360		-99.609375
5361		-97.656250
5362		-99.609375
5363		-97.656250
5364		-99.609375
5365		-97.656250
5366		-97.656250
5367		-95.703125
5368		-97.656250
5369		-95.703125
5370		-97.656250
5371		-93.750000
5372		-95.703125
5373		-93.750000
5374		-95.703125
5375		-91.796875
5376		-93.750000
5377		-91.796875
5378		-93.750000
5379		-89.843750
5380		-91.796875
5381		-89.843750
5382		-91.796875
5383		-87.890625
5384		-89.843750
5385		-85.937500
5386		-87.890625
5387		-83.984375
5388		-85.937500
5389		-83.984375
5390		-83.984375
5391		-82.031250
5392		-83.984375
5393		-80.078125
5394		-82.031250
5395		-78.125000
5396		-80.078125
5397		-76.171875
5398		-78.125000
5399		-74.218750
5400		-76.171875
5401		-74.218750
5402		-74.218750
5403		-72.265625
5404		-72.265625
5405		-68.359375
5406		-70.312500
5407		-68.359375
5408		-68.359375
5409		-64.453125
5410		-66.406250
5411		-62.500000
5412		-64.453125
5413		-60.546875
5414		-62.500000
5415		-58.593750
5416		-60.546875
5417		-56.640625
5418		-58.593750
5419		-54.687500
5420		-56.640625
5421		-52.734375
5422		-52.734375
5423		-50.781250
5424		-50.781250
5425		-46.875000
5426		-48.828125
5427		-44.921875
5428		-46.875000
5429		-42.968750
5430		-44.921875
5431		-39.062500
5432		-41.015625
5433		-37.109375
5434		-39.062500
5435		-35.156250
5436		-37.109375
5437		-33.203125
5438		-33.203125
5439		-29.296875
5440		-31.250000
5441		-27.343750
5442		-29.296875
5443		-25.390625
5444		-27.343750
5445		-21.484375
5446		-23.437500
5447		-19.531250
5448		-21.484375
5449		-17.578125
5450		-19.531250
5451		-15.625000
5452		-15.625000
5453		-11.718750
5454		-13.671875
5455		-9.765625
5456		-11.718750
5457		-7.812500
5458		-7.812500
5459		-3.906250
5460		-5.859375
5461		-1.953125
5462		-3.906250
5463		0.000000
5464		-1.953125
5465		3.906250
5466		1.953125
5467		5.859375
5468		3.906250
5469		7.812500
5470		7.812500
5471		9.765625
5472		7.812500
5473		13.671875
5474		11.718750
5475		15.625000
5476		13.671875
5477		17.578125
5478		17.578125
5479		19.531250
5480		19.531250
5481		23.437500
5482		21.484375
5483		25.390625
5484		23.437500
5485		27.343750
5486		25.390625
5487		29.296875
5488		29.296875
5489		33.203125
5490		31.250000
5491		35.156250
5492		33.203125
5493		37.109375
5494		35.156250
5495		39.062500
5496		37.109375
5497		41.015625
5498		39.062500
5499		42.968750
5500		41.015625
5501		44.921875
5502		42.968750
5503		46.875000
5504		46.875000
5505		48.828125
5506		48.828125
5507		50.781250
5508		50.781250
5509		52.734375
5510		52.734375
5511		54.687500
5512		54.687500
5513		56.640625
5514		56.640625
5515		58.593750
5516		58.593750
5517		60.546875
5518		58.593750
5519		62.500000
5520		60.546875
5521		64.453125
5522		62.500000
5523		66.406250
5524		64.453125
5525		68.359375
5526		66.406250
5527		68.359375
5528		68.359375
5529		70.312500
5530		68.359375
5531		72.265625
5532		70.312500
5533		74.218750
5534		72.265625
5535		74.218750
5536		72.265625
5537		76.171875
5538		74.218750
5539		78.125000
5540		76.171875
5541		78.125000
5542		76.171875
5543		80.078125
5544		78.125000
5545		80.078125
5546		78.125000
5547		82.031250
5548		80.078125
5549		82.031250
5550		82.031250
5551		83.984375
5552		82.031250
5553		83.984375
5554		83.984375
5555		85.937500
5556		83.984375
5557		85.937500
5558		83.984375
5559		87.890625
5560		85.937500
5561		87.890625
5562		85.937500
5563		89.843750
5564		85.937500
5565		89.843750
5566		87.890625
5567		89.843750
5568		87.890625
5569		89.843750
5570		87.890625
5571		89.843750
5572		87.890625
5573		89.843750
5574		87.890625
5575		91.796875
5576		87.890625
5577		91.796875
5578		89.843750
5579		91.796875
5580		89.843750
5581		91.796875
5582		89.843750
5583		91.796875
5584		89.843750
5585		91.796875
5586		89.843750
5587		91.796875
5588		89.843750
5589		91.796875
5590		87.890625
5591		91.796875
5592		87.890625
5593		91.796875
5594		87.890625
5595		91.796875
5596		87.890625
5597		89.843750
5598		87.890625
5599		89.843750
5600		87.890625
5601		89.843750
5602		85.937500
5603		89.843750
5604		85.937500
5605		87.890625
5606		83.984375
5607		87.890625
5608		83.984375
5609		87.890625
5610		83.984375
5611		85.937500
5612		83.984375
5613		85.937500
5614		82.031250
5615		83.984375
5616		82.031250
5617		83.984375
5618		80.078125
5619		83.984375
5620		80.078125
5621		82.031250
5622		78.125000
5623		82.031250
5624		76.171875
5625		80.078125
5626		76.171875
5627		78.125000
5628		74.218750
5629		78.125000
5630		74.218750
5631		76.171875
5632		72.265625
5633		74.218750
5634		70.312500
5635		74.218750
5636		70.312500
5637		72.265625
5638		68.359375
5639		70.312500
5640		66.406250
5641		68.359375
5642		64.453125
5643		68.359375
5644		62.500000
5645		66.406250
5646		60.546875
5647		64.453125
5648		58.593750
5649		62.500000
5650		56.640625
5651		60.546875
5652		56.640625
5653		58.593750
5654		52.734375
5655		56.640625
5656		50.781250
5657		54.687500
5658		50.781250
5659		52.734375
5660		46.875000
5661		50.781250
5662		44.921875
5663		48.828125
5664		42.968750
5665		46.875000
5666		41.015625
5667		44.921875
5668		39.062500
5669		42.968750
5670		37.109375
5671		41.015625
5672		35.156250
5673		39.062500
5674		31.250000
5675		37.109375
5676		29.296875
5677		33.203125
5678		27.343750
5679		31.250000
5680		25.390625
5681		29.296875
5682		23.437500
5683		27.343750
5684		21.484375
5685		25.390625
5686		17.578125
5687		21.484375
5688		15.625000
5689		19.531250
5690		13.671875
5691		17.578125
5692		11.718750
5693		15.625000
5694		7.812500
5695		11.718750
5696		5.859375
5697		9.765625
5698		3.906250
5699		7.812500
5700		0.000000
5701		3.906250
5702		-1.953125
5703		1.953125
5704		-3.906250
5705		0.000000
5706		-7.812500
5707		-3.906250
5708		-9.765625
5709		-5.859375
5710		-11.718750
5711		-7.812500
5712		-15.625000
5713		-9.765625
5714		-17.578125
5715		-13.671875
5716		-19.531250
5717		-15.625000
5718		-21.484375
5719		-17.578125
5720		-25.390625
5721		-21.484375
5722		-27.343750
5723		-23.437500
5724		-29.296875
5725		-25.390625
5726		-33.203125
5727		-29.296875
5728		-35.156250
5729		-31.250000
5730		-37.109375
5731		-33.203125
5732		-39.062500
5733		-35.156250
5734		-42.968750
5735		-39.062500
5736		-44.921875
5737		-41.015625
5738		-46.875000
5739		-42.968750
5740		-48.828125
5741		-44.921875
5742		-52.734375
5743		-48.828125
5744		-54.687500
5745		-50.781250
5746		-56.640625
5747		-52.734375
5748		-58.593750
5749		-54.687500
5750		-60.546875
5751		-56.640625
5752		-62.500000
5753		-60.546875
5754		-64.453125
5755		-60.546875
5756		-66.406250
5757		-64.453125
5758		-70.312500
5759		-66.406250
5760		-72.265625
5761		-68.359375
5762		-74.218750
5763		-70.312500
5764		-76.171875
5765		-72.265625
5766		-78.125000
5767		-72.265625
5768		-78.125000
5769		-76.171875
5770		-80.078125
5771		-78.125000
5772		-82.031250
5773		-80.078125
5774		-83.984375
5775		-80.078125
5776		-85.937500
5777		-82.031250
5778		-87.890625
5779		-83.984375
5780		-87.890625
5781		-85.937500
5782		-89.843750
5783		-87.890625
5784		-91.796875
5785		-87.890625
5786		-91.796875
5787		-89.843750
5788		-93.750000
5789		-89.843750
5790		-93.750000
5791		-91.796875
5792		-95.703125
5793		-93.750000
5794		-97.656250
5795		-93.750000
5796		-97.656250
5797		-93.750000
5798		-97.656250
5799		-95.703125
5800		-99.609375
5801		-95.703125
5802		-99.609375
5803		-97.656250
5804		-99.609375
5805		-97.656250
5806		-101.562500
5807		-97.656250
5808		-101.562500
5809		-99.609375
5810		-103.515625
5811		-99.609375
5812		-103.515625
5813		-97.656250
5814		-101.562500
5815		-99.609375
5816		-101.562500
5817		-99.609375
5818		-101.562500
5819		-99.609375
5820		-101.562500
5821		-99.609375
5822		-103.515625
5823		-99.609375
5824		-101.562500
5825		-99.609375
5826		-101.562500
5827		-99.609375
5828		-101.562500
5829		-99.609375
5830		-101.562500
5831		-99.609375
5832		-101.562500
5833		-99.609375
5834		-101.562500
5835		-97.656250
5836		-99.609375
5837		-97.656250
5838		-99.609375
5839		-97.656250
5840		-97.656250
5841		-95.703125
5842		-97.656250
5843		-95.703125
5844		-97.656250
5845		-93.750000
5846		-97.656250
5847		-93.750000
5848		-95.703125
5849		-91.796875
5850		-93.750000
5851		-91.796875
5852		-93.750000
5853		-89.843750
5854		-91.796875
5855		-87.890625
5856		-89.843750
5857		-87.890625
5858		-89.843750
5859		-85.937500
5860		-87.890625
5861		-83.984375
5862		-87.890625
5863		-82.031250
5864		-83.984375
5865		-82.031250
5866		-85.937500
5867		-78.125000
5868		-82.031250
5869		-78.125000
5870		-80.078125
5871		-74.218750
5872		-78.125000
5873		-74.218750
5874		-76.171875
5875		-72.265625
5876		-74.218750
5877		-70.312500
5878		-72.265625
5879		-68.359375
5880		-70.312500
5881		-66.406250
5882		-70.312500
5883		-62.500000
5884		-70.312500
5885		-62.500000
5886		-64.453125
5887		-58.593750
5888		-64.453125
5889		-56.640625
5890		-60.546875
5891		-52.734375
5892		-58.593750
5893		-54.687500
5894		-54.687500
5895		-52.734375
5896		-52.734375
5897		-48.828125
5898		-50.781250
5899		-46.875000
5900		-50.781250
5901		-42.968750
5902		-46.875000
5903		-41.015625
5904		-44.921875
5905		-37.109375
5906		-41.015625
5907		-37.109375
5908		-41.015625
5909		-33.203125
5910		-35.156250
5911		-31.250000
5912		-33.203125
5913		-29.296875
5914		-33.203125
5915		-25.390625
5916		-29.296875
5917		-21.484375
5918		-27.343750
5919		-19.531250
5920		-23.437500
5921		-19.531250
5922		-21.484375
5923		-15.625000
5924		-17.578125
5925		-11.718750
5926		-15.625000
5927		-11.718750
5928		-13.671875
5929		-9.765625
5930		-11.718750
5931		-3.906250
5932		-11.718750
5933		-1.953125
5934		-5.859375
5935		0.000000
5936		-3.906250
5937		1.953125
5938		-1.953125
5939		3.906250
5940		1.953125
5941		5.859375
5942		3.906250
5943		9.765625
5944		7.812500
5945		11.718750
5946		9.765625
5947		15.625000
5948		11.718750
5949		19.531250
5950		13.671875
5951		19.531250
5952		17.578125
5953		21.484375
5954		19.531250
5955		27.343750
5956		19.531250
5957		27.343750
5958		21.484375
5959		31.250000
5960		27.343750
5961		31.250000
5962		29.296875
5963		33.203125
5964		31.250000
5965		37.109375
5966		31.250000
5967		41.015625
5968		33.203125
5969		39.062500
5970		37.109375
5971		41.015625
5972		39.062500
5973		48.828125
5974		41.015625
5975		48.828125
5976		41.015625
5977		48.828125
5978		46.875000
5979		50.781250
5980		48.828125
5981		52.734375
5982		48.828125
5983		56.640625
5984		50.781250
5985		58.593750
5986		54.687500
5987		58.593750
5988		54.687500
5989		62.500000
5990		54.687500
5991		64.453125
5992		56.640625
5993		66.406250
5994		62.500000
5995		64.453125
5996		62.500000
5997		66.406250
5998		62.500000
5999		70.312500
6000		62.500000
6001		72.265625
6002		68.359375
6003		72.265625
6004		68.359375
6005		74.218750
6006		68.359375
6007		78.125000
6008		70.312500
6009		78.125000
6010		74.218750
6011		76.171875
6012		74.218750
6013		78.125000
6014		74.218750
6015		80.078125
6016		74.218750
6017		83.984375
6018		76.171875
6019		82.031250
6020		78.125000
6021		82.031250
6022		78.125000
6023		85.937500
6024		78.125000
6025		85.937500
6026		78.125000
6027		87.890625
6028		83.984375
6029		85.937500
6030		83.984375
6031		87.890625
6032		82.031250
6033		91.796875
6034		83.984375
6035		89.843750
6036		85.937500
6037		87.890625
6038		83.984375
6039		91.796875
6040		83.984375
6041		93.750000
6042		83.984375
6043		93.750000
6044		87.890625
6045		91.796875
6046		87.890625
6047		89.843750
6048		85.937500
6049		91.796875
6050		85.937500
6051		95.703125
6052		87.890625
6053		93.750000
6054		87.890625
6055		91.796875
6056		85.937500
6057		95.703125
6058		87.890625
6059		91.796875
6060		85.937500
6061		95.703125
6062		89.843750
6063		91.796875
6064		87.890625
6065		91.796875
6066		85.937500
6067		93.750000
6068		87.890625
6069		91.796875
6070		87.890625
6071		89.843750
6072		85.937500
6073		93.750000
6074		83.984375
6075		93.750000
6076		85.937500
6077		91.796875
6078		85.937500
6079		89.843750
6080		85.937500
6081		87.890625
6082		83.984375
6083		87.890625
6084		82.031250
6085		89.843750
6086		82.031250
6087		85.937500
6088		82.031250
6089		85.937500
6090		78.125000
6091		87.890625
6092		78.125000
6093		83.984375
6094		80.078125
6095		82.031250
6096		78.125000
6097		82.031250
6098		76.171875
6099		82.031250
6100		72.265625
6101		82.031250
6102		72.265625
6103		80.078125
6104		74.218750
6105		76.171875
6106		68.359375
6107		78.125000
6108		68.359375
6109		76.171875
6110		66.406250
6111		76.171875
6112		68.359375
6113		70.312500
6114		64.453125
6115		70.312500
6116		62.500000
6117		68.359375
6118		60.546875
6119		68.359375
6120		60.546875
6121		64.453125
6122		56.640625
6123		64.453125
6124		54.687500
6125		64.453125
6126		52.734375
6127		60.546875
6128		52.734375
6129		56.640625
6130		50.781250
6131		54.687500
6132		46.875000
6133		52.734375
6134		44.921875
6135		54.687500
6136		44.921875
6137		50.781250
6138		42.968750
6139		46.875000
6140		41.015625
6141		46.875000
6142		39.062500
6143		42.968750
6144		37.109375
6145		44.921875
6146		35.156250
6147		39.062500
6148		31.250000
6149		35.156250
6150		25.390625
6151		35.156250
6152		25.390625
6153		33.203125
6154		25.390625
6155		29.296875
6156		19.531250
6157		27.343750
6158		21.484375
6159		23.437500
6160		17.578125
6161		21.484375
6162		15.625000
6163		19.531250
6164		13.671875
6165		17.578125
6166		9.765625
6167		13.671875
6168		5.859375
6169		11.718750
6170		5.859375
6171		9.765625
6172		1.953125
6173		7.812500
6174		0.000000
6175		5.859375
6176		-1.953125
6177		1.953125
6178		-3.906250
6179		0.000000
6180		-7.812500
6181		-3.906250
6182		-9.765625
6183		-5.859375
6184		-13.671875
6185		-7.812500
6186		-15.625000
6187		-11.718750
6188		-17.578125
6189		-13.671875
6190		-19.531250
6191		-15.625000
6192		-23.437500
6193		-19.531250
6194		-25.390625
6195		-21.484375
6196		-27.343750
6197		-23.437500
6198		-31.250000
6199		-27.343750
6200		-33.203125
6201		-29.296875
6202		-35.156250
6203		-31.250000
6204		-39.062500
6205		-33.203125
6206		-41.015625
6207		-37.109375
6208		-42.968750
6209		-39.062500
6210		-44.921875
6211		-41.015625
6212		-46.875000
6213		-44.921875
6214		-50.781250
6215		-46.875000
6216		-52.734375
6217		-46.875000
6218		-56.640625
6219		-50.781250
6220		-58.593750
6221		-52.734375
6222		-60.546875
6223		-52.734375
6224		-62.500000
6225		-56.640625
6226		-64.453125
6227		-58.593750
6228		-66.406250
6229		-60.546875
6230		-68.359375
6231		-64.453125
6232		-72.265625
6233		-66.406250
6234		-74.218750
6235		-66.406250
6236		-74.218750
6237		-68.359375
6238		-76.171875
6239		-70.312500
6240		-78.125000
6241		-72.265625
6242		-80.078125
6243		-74.218750
6244		-82.031250
6245		-76.171875
6246		-82.031250
6247		-80.078125
6248		-83.984375
6249		-82.031250
6250		-87.890625
6251		-82.031250
6252		-89.843750
6253		-82.031250
6254		-89.843750
6255		-83.984375
6256		-91.796875
6257		-85.937500
6258		-91.796875
6259		-85.937500
6260		-93.750000
6261		-87.890625
6262		-93.750000
6263		-89.843750
6264		-95.703125
6265		-91.796875
6266		-97.656250
6267		-91.796875
6268		-97.656250
6269		-91.796875
6270		-99.609375
6271		-93.750000
6272		-99.609375
6273		-93.750000
6274		-99.609375
6275		-93.750000
6276		-101.562500
6277		-95.703125
6278		-101.562500
6279		-95.703125
6280		-101.562500
6281		-97.656250
6282		-103.515625
6283		-99.609375
6284		-103.515625
6285		-97.656250
6286		-103.515625
6287		-99.609375
6288		-105.468750
6289		-97.656250
6290		-103.515625
6291		-99.609375
6292		-103.515625
6293		-99.609375
6294		-103.515625
6295		-99.609375
6296		-103.515625
6297		-101.562500
6298		-103.515625
6299		-101.562500
6300		-103.515625
6301		-99.609375
6302		-103.515625
6303		-99.609375
6304		-103.515625
6305		-97.656250
6306		-103.515625
6307		-97.656250
6308		-101.562500
6309		-97.656250
6310		-101.562500
6311		-95.703125
6312		-101.562500
6313		-95.703125
6314		-99.609375
6315		-95.703125
6316		-99.609375
6317		-93.750000
6318		-97.656250
6319		-93.750000
6320		-97.656250
6321		-91.796875
6322		-97.656250
6323		-91.796875
6324		-95.703125
6325		-89.843750
6326		-93.750000
6327		-89.843750
6328		-93.750000
6329		-87.890625
6330		-89.843750
6331		-87.890625
6332		-89.843750
6333		-85.937500
6334		-87.890625
6335		-83.984375
6336		-87.890625
6337		-82.031250
6338		-85.937500
6339		-82.031250
6340		-85.937500
6341		-78.125000
6342		-82.031250
6343		-78.125000
6344		-80.078125
6345		-76.171875
6346		-78.125000
6347		-74.218750
6348		-76.171875
6349		-72.265625
6350		-76.171875
6351		-70.312500
6352		-74.218750
6353		-68.359375
6354		-70.312500
6355		-66.406250
6356		-70.312500
6357		-62.500000
6358		-66.406250
6359		-62.500000
6360		-64.453125
6361		-60.546875
6362		-62.500000
6363		-58.593750
6364		-60.546875
6365		-56.640625
6366		-56.640625
6367		-52.734375
6368		-56.640625
6369		-50.781250
6370		-52.734375
6371		-48.828125
6372		-50.781250
6373		-44.921875
6374		-48.828125
6375		-42.968750
6376		-46.875000
6377		-41.015625
6378		-42.968750
6379		-39.062500
6380		-41.015625
6381		-37.109375
6382		-39.062500
6383		-35.156250
6384		-37.109375
6385		-31.250000
6386		-33.203125
6387		-29.296875
6388		-31.250000
6389		-27.343750
6390		-29.296875
6391		-23.437500
6392		-25.390625
6393		-21.484375
6394		-23.437500
6395		-19.531250
6396		-21.484375
6397		-17.578125
6398		-17.578125
6399		-13.671875
6400		-15.625000
6401		-9.765625
6402		-13.671875
6403		-9.765625
6404		-9.765625
6405		-5.859375
6406		-7.812500
6407		-3.906250
6408		-5.859375
6409		-1.953125
6410		-1.953125
6411		1.953125
6412		0.000000
6413		3.906250
6414		1.953125
6415		5.859375
6416		5.859375
6417		7.812500
6418		5.859375
6419		11.718750
6420		9.765625
6421		13.671875
6422		11.718750
6423		15.625000
6424		13.671875
6425		19.531250
6426		17.578125
6427		21.484375
6428		17.578125
6429		23.437500
6430		21.484375
6431		25.390625
6432		25.390625
6433		27.343750
6434		27.343750
6435		31.250000
6436		29.296875
6437		33.203125
6438		31.250000
6439		35.156250
6440		33.203125
6441		39.062500
6442		35.156250
6443		39.062500
6444		37.109375
6445		42.968750
6446		39.062500
6447		42.968750
6448		42.968750
6449		46.875000
6450		44.921875
6451		48.828125
6452		46.875000
6453		50.781250
6454		48.828125
6455		52.734375
6456		50.781250
6457		54.687500
6458		50.781250
6459		56.640625
6460		54.687500
6461		58.593750
6462		56.640625
6463		60.546875
6464		58.593750
6465		60.546875
6466		60.546875
6467		62.500000
6468		60.546875
6469		66.406250
6470		62.500000
6471		66.406250
6472		64.453125
6473		68.359375
6474		66.406250
6475		70.312500
6476		66.406250
6477		72.265625
6478		68.359375
6479		72.265625
6480		70.312500
6481		74.218750
6482		72.265625
6483		74.218750
6484		74.218750
6485		76.171875
6486		74.218750
6487		78.125000
6488		76.171875
6489		80.078125
6490		76.171875
6491		80.078125
6492		78.125000
6493		82.031250
6494		80.078125
6495		82.031250
6496		80.078125
6497		83.984375
6498		82.031250
6499		83.984375
6500		82.031250
6501		83.984375
6502		82.031250
6503		85.937500
6504		83.984375
6505		87.890625
6506		83.984375
6507		87.890625
6508		85.937500
6509		87.890625
6510		85.937500
6511		87.890625
6512		85.937500
6513		89.843750
6514		85.937500
6515		89.843750
6516		85.937500
6517		89.843750
6518		85.937500
6519		91.796875
6520		87.890625
6521		91.796875
6522		87.890625
6523		91.796875
6524		87.890625
6525		91.796875
6526		87.890625
6527		91.796875
6528		87.890625
6529		91.796875
6530		87.890625
6531		91.796875
6532		89.843750
6533		91.796875
6534		87.890625
6535		91.796875
6536		87.890625
6537		91.796875
6538		87.890625
6539		91.796875
6540		87.890625
6541		91.796875
6542		87.890625
6543		91.796875
6544		85.937500
6545		91.796875
6546		85.937500
6547		91.796875
6548		87.890625
6549		89.843750
6550		85.937500
6551		89.843750
6552		83.984375
6553		89.843750
6554		83.984375
6555		87.890625
6556		83.984375
6557		87.890625
6558		83.984375
6559		85.937500
6560		82.031250
6561		85.937500
6562		82.031250
6563		85.937500
6564		80.078125
6565		83.984375
6566		80.078125
6567		82.031250
6568		78.125000
6569		82.031250
6570		78.125000
6571		82.031250
6572		76.171875
6573		80.078125
6574		74.218750
6575		80.078125
6576		74.218750
6577		78.125000
6578		72.265625
6579		76.171875
6580		70.312500
6581		74.218750
6582		70.312500
6583		72.265625
6584		68.359375
6585		72.265625
6586		66.406250
6587		72.265625
6588		64.453125
6589		68.359375
6590		62.500000
6591		68.359375
6592		62.500000
6593		64.453125
6594		60.546875
6595		64.453125
6596		58.593750
6597		62.500000
6598		56.640625
6599		60.546875
6600		54.687500
6601		58.593750
6602		52.734375
6603		56.640625
6604		50.781250
6605		54.687500
6606		48.828125
6607		52.734375
6608		44.921875
6609		50.781250
6610		44.921875
6611		48.828125
6612		42.968750
6613		46.875000
6614		39.062500
6615		44.921875
6616		39.062500
6617		41.015625
6618		35.156250
6619		39.062500
6620		33.203125
6621		39.062500
6622		31.250000
6623		37.109375
6624		29.296875
6625		33.203125
6626		27.343750
6627		31.250000
6628		23.437500
6629		29.296875
6630		21.484375
6631		25.390625
6632		19.531250
6633		23.437500
6634		17.578125
6635		21.484375
6636		13.671875
6637		19.531250
6638		11.718750
6639		15.625000
6640		9.765625
6641		13.671875
6642		7.812500
6643		11.718750
6644		3.906250
6645		9.765625
6646		1.953125
6647		5.859375
6648		0.000000
6649		3.906250
6650		-1.953125
6651		1.953125
6652		-5.859375
6653		-1.953125
6654		-7.812500
6655		-3.906250
6656		-9.765625
6657		-5.859375
6658		-13.671875
6659		-7.812500
6660		-15.625000
6661		-11.718750
6662		-17.578125
6663		-13.671875
6664		-21.484375
6665		-15.625000
6666		-23.437500
6667		-19.531250
6668		-25.390625
6669		-21.484375
6670		-29.296875
6671		-23.437500
6672		-31.250000
6673		-27.343750
6674		-33.203125
6675		-29.296875
6676		-37.109375
6677		-31.250000
6678		-39.062500
6679		-35.156250
6680		-42.968750
6681		-37.109375
6682		-42.968750
6683		-39.062500
6684		-44.921875
6685		-41.015625
6686		-48.828125
6687		-44.921875
6688		-50.781250
6689		-46.875000
6690		-52.734375
6691		-48.828125
6692		-56.640625
6693		-50.781250
6694		-56.640625
6695		-52.734375
6696		-60.546875
6697		-56.640625
6698		-64.453125
6699		-58.593750
6700		-64.453125
6701		-58.593750
6702		-66.406250
6703		-62.500000
6704		-68.359375
6705		-64.453125
6706		-70.312500
6707		-66.406250
6708		-72.265625
6709		-68.359375
6710		-74.218750
6711		-70.312500
6712		-76.171875
6713		-72.265625
6714		-78.125000
6715		-74.218750
6716		-80.078125
6717		-76.171875
6718		-82.031250
6719		-78.125000
6720		-83.984375
6721		-80.078125
6722		-83.984375
6723		-80.078125
6724		-85.937500
6725		-82.031250
6726		-87.890625
6727		-83.984375
6728		-89.843750
6729		-85.937500
6730		-89.843750
6731		-87.890625
6732		-91.796875
6733		-87.890625
6734		-93.750000
6735		-89.843750
6736		-95.703125
6737		-89.843750
6738		-95.703125
6739		-91.796875
6740		-95.703125
6741		-91.796875
6742		-97.656250
6743		-93.750000
6744		-99.609375
6745		-95.703125
6746		-99.609375
6747		-95.703125
6748		-101.562500
6749		-95.703125
6750		-99.609375
6751		-97.656250
6752		-101.562500
6753		-97.656250
6754		-101.562500
6755		-97.656250
6756		-101.562500
6757		-97.656250
6758		-103.515625
6759		-97.656250
6760		-103.515625
6761		-99.609375
6762		-103.515625
6763		-99.609375
6764		-103.515625
6765		-99.609375
6766		-103.515625
6767		-99.609375
6768		-103.515625
6769		-99.609375
6770		-103.515625
6771		-99.609375
6772		-103.515625
6773		-99.609375
6774		-103.515625
6775		-99.609375
6776		-101.562500
6777		-99.609375
6778		-101.562500
6779		-99.609375
6780		-101.562500
6781		-97.656250
6782		-101.562500
6783		-97.656250
6784		-99.609375
6785		-97.656250
6786		-99.609375
6787		-97.656250
6788		-99.609375
6789		-95.703125
6790		-97.656250
6791		-95.703125
6792		-97.656250
6793		-93.750000
6794		-95.703125
6795		-93.750000
6796		-95.703125
6797		-91.796875
6798		-93.750000
6799		-89.843750
6800		-93.750000
6801		-89.843750
6802		-91.796875
6803		-87.890625
6804		-91.796875
6805		-85.937500
6806		-89.843750
6807		-85.937500
6808		-87.890625
6809		-83.984375
6810		-85.937500
6811		-82.031250
6812		-83.984375
6813		-80.078125
6814		-83.984375
6815		-78.125000
6816		-82.031250
6817		-78.125000
6818		-80.078125
6819		-76.171875
6820		-78.125000
6821		-72.265625
6822		-76.171875
6823		-72.265625
6824		-74.218750
6825		-70.312500
6826		-72.265625
6827		-68.359375
6828		-70.312500
6829		-66.406250
6830		-68.359375
6831		-64.453125
6832		-66.406250
6833		-60.546875
6834		-64.453125
6835		-60.546875
6836		-60.546875
6837		-58.593750
6838		-60.546875
6839		-54.687500
6840		-56.640625
6841		-52.734375
6842		-54.687500
6843		-50.781250
6844		-52.734375
6845		-48.828125
6846		-50.781250
6847		-44.921875
6848		-48.828125
6849		-42.968750
6850		-46.875000
6851		-41.015625
6852		-42.968750
6853		-39.062500
6854		-41.015625
6855		-35.156250
6856		-37.109375
6857		-33.203125
6858		-37.109375
6859		-31.250000
6860		-33.203125
6861		-29.296875
6862		-31.250000
6863		-25.390625
6864		-27.343750
6865		-23.437500
6866		-27.343750
6867		-21.484375
6868		-23.437500
6869		-19.531250
6870		-19.531250
6871		-15.625000
6872		-19.531250
6873		-13.671875
6874		-15.625000
6875		-9.765625
6876		-11.718750
6877		-7.812500
6878		-9.765625
6879		-5.859375
6880		-7.812500
6881		-3.906250
6882		-5.859375
6883		0.000000
6884		-3.906250
6885		1.953125
6886		0.000000
6887		3.906250
6888		1.953125
6889		7.812500
6890		3.906250
6891		9.765625
6892		7.812500
6893		11.718750
6894		9.765625
6895		15.625000
6896		11.718750
6897		17.578125
6898		15.625000
6899		19.531250
6900		17.578125
6901		21.484375
6902		19.531250
6903		23.437500
6904		23.437500
6905		27.343750
6906		25.390625
6907		29.296875
6908		27.343750
6909		31.250000
6910		29.296875
6911		33.203125
6912		31.250000
6913		37.109375
6914		33.203125
6915		39.062500
6916		35.156250
6917		41.015625
6918		39.062500
6919		42.968750
6920		41.015625
6921		44.921875
6922		41.015625
6923		46.875000
6924		44.921875
6925		48.828125
6926		46.875000
6927		50.781250
6928		48.828125
6929		52.734375
6930		50.781250
6931		54.687500
6932		52.734375
6933		56.640625
6934		54.687500
6935		58.593750
6936		56.640625
6937		60.546875
6938		58.593750
6939		64.453125
6940		58.593750
6941		64.453125
6942		60.546875
6943		64.453125
6944		62.500000
6945		66.406250
6946		64.453125
6947		68.359375
6948		66.406250
6949		70.312500
6950		68.359375
6951		72.265625
6952		70.312500
6953		72.265625
6954		72.265625
6955		74.218750
6956		72.265625
6957		76.171875
6958		74.218750
6959		78.125000
6960		74.218750
6961		78.125000
6962		76.171875
6963		80.078125
6964		76.171875
6965		82.031250
6966		78.125000
6967		82.031250
6968		78.125000
6969		83.984375
6970		80.078125
6971		83.984375
6972		82.031250
6973		83.984375
6974		82.031250
6975		85.937500
6976		83.984375
6977		85.937500
6978		83.984375
6979		87.890625
6980		83.984375
6981		87.890625
6982		85.937500
6983		87.890625
6984		85.937500
6985		89.843750
6986		85.937500
6987		89.843750
6988		85.937500
6989		91.796875
6990		85.937500
6991		89.843750
6992		87.890625
6993		89.843750
6994		87.890625
6995		91.796875
6996		87.890625
6997		91.796875
6998		87.890625
6999		91.796875
7000		87.890625
7001		91.796875
7002		89.843750
7003		91.796875
7004		89.843750
7005		91.796875
7006		87.890625
7007		91.796875
7008		87.890625
7009		91.796875
7010		87.890625
7011		91.796875
7012		87.890625
7013		91.796875
7014		87.890625
7015		91.796875
7016		87.890625
7017		89.843750
7018		85.937500
7019		91.796875
7020		87.890625
7021		89.843750
7022		85.937500
7023		89.843750
7024		85.937500
7025		89.843750
7026		85.937500
7027		89.843750
7028		85.937500
7029		87.890625
7030		83.984375
7031		87.890625
7032		83.984375
7033		85.937500
7034		82.031250
7035		85.937500
7036		82.031250
7037		83.984375
7038		80.078125
7039		83.984375
7040		80.078125
7041		83.984375
7042		78.125000
7043		82.031250
7044		78.125000
7045		80.078125
7046		76.171875
7047		80.078125
7048		74.218750
7049		78.125000
7050		74.218750
7051		78.125000
7052		72.265625
7053		78.125000
7054		70.312500
7055		74.218750
7056		70.312500
7057		72.265625
7058		68.359375
7059		72.265625
7060		66.406250
7061		70.312500
7062		64.453125
7063		68.359375
7064		64.453125
7065		66.406250
7066		62.500000
7067		64.453125
7068		58.593750
7069		62.500000
7070		58.593750
7071		60.546875
7072		54.687500
7073		60.546875
7074		54.687500
7075		58.593750
7076		50.781250
7077		56.640625
7078		50.781250
7079		54.687500
7080		48.828125
7081		52.734375
7082		46.875000
7083		50.781250
7084		42.968750
7085		48.828125
7086		42.968750
7087		46.875000
7088		41.015625
7089		44.921875
7090		37.109375
7091		42.968750
7092		35.156250
7093		41.015625
7094		33.203125
7095		39.062500
7096		31.250000
7097		35.156250
7098		29.296875
7099		33.203125
7100		27.343750
7101		31.250000
7102		23.437500
7103		29.296875
7104		21.484375
7105		25.390625
7106		19.531250
7107		23.437500
7108		15.625000
7109		21.484375
7110		13.671875
7111		17.578125
7112		11.718750
7113		15.625000
7114		9.765625
7115		13.671875
7116		5.859375
7117		11.718750
7118		3.906250
7119		7.812500
7120		1.953125
7121		5.859375
7122		0.000000
7123		3.906250
7124		-3.906250
7125		1.953125
7126		-5.859375
7127		-1.953125
7128		-9.765625
7129		-3.906250
7130		-11.718750
7131		-7.812500
7132		-13.671875
7133		-9.765625
7134		-15.625000
7135		-11.718750
7136		-19.531250
7137		-13.671875
7138		-21.484375
7139		-17.578125
7140		-25.390625
7141		-19.531250
7142		-27.343750
7143		-21.484375
7144		-29.296875
7145		-25.390625
7146		-33.203125
7147		-27.343750
7148		-35.156250
7149		-29.296875
7150		-37.109375
7151		-33.203125
7152		-39.062500
7153		-35.156250
7154		-41.015625
7155		-37.109375
7156		-44.921875
7157		-41.015625
7158		-46.875000
7159		-42.968750
7160		-48.828125
7161		-44.921875
7162		-50.781250
7163		-46.875000
7164		-52.734375
7165		-48.828125
7166		-56.640625
7167		-50.781250
7168		-60.546875
7169		-54.687500
7170		-60.546875
7171		-56.640625
7172		-62.500000
7173		-58.593750
7174		-64.453125
7175		-60.546875
7176		-66.406250
7177		-62.500000
7178		-68.359375
7179		-64.453125
7180		-72.265625
7181		-66.406250
7182		-74.218750
7183		-68.359375
7184		-74.218750
7185		-70.312500
7186		-76.171875
7187		-72.265625
7188		-78.125000
7189		-74.218750
7190		-80.078125
7191		-76.171875
7192		-82.031250
7193		-78.125000
7194		-83.984375
7195		-80.078125
7196		-85.937500
7197		-82.031250
7198		-87.890625
7199		-82.031250
7200		-87.890625
7201		-83.984375
7202		-89.843750
7203		-85.937500
7204		-89.843750
7205		-87.890625
7206		-91.796875
7207		-89.843750
7208		-93.750000
7209		-89.843750
7210		-95.703125
7211		-91.796875
7212		-95.703125
7213		-91.796875
7214		-97.656250
7215		-93.750000
7216		-97.656250
7217		-93.750000
7218		-99.609375
7219		-95.703125
7220		-99.609375
7221		-95.703125
7222		-99.609375
7223		-97.656250
7224		-101.562500
7225		-97.656250
7226		-101.562500
7227		-97.656250
7228		-101.562500
7229		-97.656250
7230		-103.515625
7231		-99.609375
7232		-103.515625
7233		-99.609375
7234		-103.515625
7235		-99.609375
7236		-105.468750
7237		-99.609375
7238		-103.515625
7239		-101.562500
7240		-103.515625
7241		-101.562500
7242		-103.515625
7243		-99.609375
7244		-103.515625
7245		-99.609375
7246		-103.515625
7247		-99.609375
7248		-103.515625
7249		-99.609375
7250		-103.515625
7251		-99.609375
7252		-103.515625
7253		-97.656250
7254		-101.562500
7255		-99.609375
7256		-101.562500
7257		-99.609375
7258		-101.562500
7259		-97.656250
7260		-101.562500
7261		-97.656250
7262		-99.609375
7263		-95.703125
7264		-99.609375
7265		-95.703125
7266		-97.656250
7267		-93.750000
7268		-95.703125
7269		-93.750000
7270		-95.703125
7271		-91.796875
7272		-93.750000
7273		-91.796875
7274		-93.750000
7275		-87.890625
7276		-91.796875
7277		-87.890625
7278		-89.843750
7279		-87.890625
7280		-89.843750
7281		-85.937500
7282		-87.890625
7283		-83.984375
7284		-85.937500
7285		-82.031250
7286		-85.937500
7287		-80.078125
7288		-82.031250
7289		-80.078125
7290		-82.031250
7291		-78.125000
7292		-80.078125
7293		-76.171875
7294		-78.125000
7295		-74.218750
7296		-76.171875
7297		-72.265625
7298		-74.218750
7299		-70.312500
7300		-72.265625
7301		-68.359375
7302		-70.312500
7303		-66.406250
7304		-68.359375
7305		-64.453125
7306		-66.406250
7307		-62.500000
7308		-64.453125
7309		-58.593750
7310		-62.500000
7311		-58.593750
7312		-58.593750
7313		-54.687500
7314		-56.640625
7315		-52.734375
7316		-56.640625
7317		-50.781250
7318		-52.734375
7319		-48.828125
7320		-50.781250
7321		-44.921875
7322		-46.875000
7323		-42.968750
7324		-44.921875
7325		-41.015625
7326		-42.968750
7327		-39.062500
7328		-41.015625
7329		-37.109375
7330		-37.109375
7331		-33.203125
7332		-35.156250
7333		-31.250000
7334		-33.203125
7335		-27.343750
7336		-29.296875
7337		-23.437500
7338		-29.296875
7339		-23.437500
7340		-25.390625
7341		-21.484375
7342		-23.437500
7343		-17.578125
7344		-19.531250
7345		-15.625000
7346		-17.578125
7347		-13.671875
7348		-15.625000
7349		-9.765625
7350		-11.718750
7351		-7.812500
7352		-9.765625
7353		-3.906250
7354		-7.812500
7355		-3.906250
7356		-3.906250
7357		0.000000
7358		-1.953125
7359		3.906250
7360		0.000000
7361		3.906250
7362		1.953125
7363		7.812500
7364		5.859375
7365		9.765625
7366		7.812500
7367		13.671875
7368		9.765625
7369		15.625000
7370		13.671875
7371		17.578125
7372		15.625000
7373		19.531250
7374		17.578125
7375		21.484375
7376		19.531250
7377		25.390625
7378		23.437500
7379		27.343750
7380		25.390625
7381		29.296875
7382		27.343750
7383		31.250000
7384		29.296875
7385		35.156250
7386		31.250000
7387		37.109375
7388		33.203125
7389		39.062500
7390		37.109375
7391		41.015625
7392		39.062500
7393		42.968750
7394		41.015625
7395		44.921875
7396		42.968750
7397		46.875000
7398		44.921875
7399		48.828125
7400		46.875000
7401		50.781250
7402		48.828125
7403		52.734375
7404		50.781250
7405		54.687500
7406		52.734375
7407		56.640625
7408		54.687500
7409		58.593750
7410		54.687500
7411		60.546875
7412		58.593750
7413		62.500000
7414		60.546875
7415		64.453125
7416		62.500000
7417		66.406250
7418		62.500000
7419		68.359375
7420		64.453125
7421		68.359375
7422		66.406250
7423		70.312500
7424		68.359375
7425		72.265625
7426		68.359375
7427		74.218750
7428		70.312500
7429		74.218750
7430		72.265625
7431		76.171875
7432		72.265625
7433		76.171875
7434		74.218750
7435		78.125000
7436		76.171875
7437		80.078125
7438		76.171875
7439		80.078125
7440		78.125000
7441		82.031250
7442		80.078125
7443		83.984375
7444		80.078125
7445		83.984375
7446		82.031250
7447		83.984375
7448		82.031250
7449		85.937500
7450		82.031250
7451		85.937500
7452		83.984375
7453		87.890625
7454		83.984375
7455		87.890625
7456		85.937500
7457		87.890625
7458		85.937500
7459		87.890625
7460		85.937500
7461		89.843750
7462		85.937500
7463		89.843750
7464		87.890625
7465		89.843750
7466		87.890625
7467		91.796875
7468		87.890625
7469		91.796875
7470		87.890625
7471		91.796875
7472		87.890625
7473		91.796875
7474		89.843750
7475		91.796875
7476		87.890625
7477		91.796875
7478		87.890625
7479		91.796875
7480		87.890625
7481		91.796875
7482		87.890625
7483		91.796875
7484		87.890625
7485		91.796875
7486		87.890625
7487		91.796875
7488		87.890625
7489		91.796875
7490		87.890625
7491		89.843750
7492		87.890625
7493		89.843750
7494		85.937500
7495		91.796875
7496		85.937500
7497		89.843750
7498		85.937500
7499		89.843750
7500		85.937500
7501		87.890625
7502		83.984375
7503		87.890625
7504		83.984375
7505		87.890625
7506		83.984375
7507		85.937500
7508		82.031250
7509		83.984375
7510		80.078125
7511		85.937500
7512		80.078125
7513		83.984375
7514		80.078125
7515		82.031250
7516		78.125000
7517		82.031250
7518		78.125000
7519		80.078125
7520		76.171875
7521		80.078125
7522		74.218750
7523		78.125000
7524		74.218750
7525		76.171875
7526		72.265625
7527		76.171875
7528		70.312500
7529		74.218750
7530		70.312500
7531		72.265625
7532		68.359375
7533		72.265625
7534		66.406250
7535		70.312500
7536		64.453125
7537		68.359375
7538		62.500000
7539		66.406250
7540		60.546875
7541		64.453125
7542		58.593750
7543		62.500000
7544		56.640625
7545		60.546875
7546		54.687500
7547		58.593750
7548		52.734375
7549		56.640625
7550		52.734375
7551		56.640625
7552		50.781250
7553		54.687500
7554		46.875000
7555		52.734375
7556		46.875000
7557		50.781250
7558		42.968750
7559		46.875000
7560		41.015625
7561		44.921875
7562		39.062500
7563		42.968750
7564		37.109375
7565		41.015625
7566		33.203125
7567		39.062500
7568		31.250000
7569		37.109375
7570		31.250000
7571		35.156250
7572		27.343750
7573		33.203125
7574		25.390625
7575		29.296875
7576		23.437500
7577		27.343750
7578		19.531250
7579		25.390625
7580		17.578125
7581		21.484375
7582		15.625000
7583		19.531250
7584		13.671875
7585		17.578125
7586		11.718750
7587		15.625000
7588		7.812500
7589		13.671875
7590		5.859375
7591		11.718750
7592		3.906250
7593		7.812500
7594		0.000000
7595		5.859375
7596		-1.953125
7597		3.906250
7598		-5.859375
7599		0.000000
7600		-7.812500
7601		-1.953125
7602		-9.765625
7603		-5.859375
7604		-11.718750
7605		-7.812500
7606		-15.625000
7607		-9.765625
7608		-17.578125
7609		-11.718750
7610		-19.531250
7611		-15.625000
7612		-23.437500
7613		-17.578125
7614		-25.390625
7615		-19.531250
7616		-27.343750
7617		-23.437500
7618		-29.296875
7619		-25.390625
7620		-33.203125
7621		-27.343750
7622		-35.156250
7623		-31.250000
7624		-37.109375
7625		-33.203125
7626		-39.062500
7627		-35.156250
7628		-42.968750
7629		-37.109375
7630		-44.921875
7631		-41.015625
7632		-46.875000
7633		-42.968750
7634		-48.828125
7635		-44.921875
7636		-52.734375
7637		-46.875000
7638		-54.687500
7639		-50.781250
7640		-56.640625
7641		-52.734375
7642		-58.593750
7643		-54.687500
7644		-62.500000
7645		-56.640625
7646		-62.500000
7647		-58.593750
7648		-66.406250
7649		-60.546875
7650		-66.406250
7651		-62.500000
7652		-70.312500
7653		-66.406250
7654		-72.265625
7655		-66.406250
7656		-74.218750
7657		-68.359375
7658		-74.218750
7659		-72.265625
7660		-76.171875
7661		-74.218750
7662		-80.078125
7663		-74.218750
7664		-82.031250
7665		-76.171875
7666		-82.031250
7667		-78.125000
7668		-83.984375
7669		-80.078125
7670		-85.937500
7671		-82.031250
7672		-87.890625
7673		-83.984375
7674		-87.890625
7675		-83.984375
7676		-89.843750
7677		-85.937500
7678		-91.796875
7679		-87.890625
7680		-91.796875
7681		-87.890625
7682		-93.750000
7683		-89.843750
7684		-95.703125
7685		-91.796875
7686		-95.703125
7687		-91.796875
7688		-97.656250
7689		-93.750000
7690		-97.656250
7691		-93.750000
7692		-97.656250
7693		-95.703125
7694		-99.609375
7695		-95.703125
7696		-99.609375
7697		-97.656250
7698		-101.562500
7699		-97.656250
7700		-101.562500
7701		-97.656250
7702		-101.562500
7703		-99.609375
7704		-103.515625
7705		-99.609375
7706		-103.515625
7707		-99.609375
7708		-101.562500
7709		-99.609375
7710		-101.562500
7711		-101.562500
7712		-103.515625
7713		-99.609375
7714		-103.515625
7715		-99.609375
7716		-103.515625
7717		-99.609375
7718		-103.515625
7719		-99.609375
7720		-103.515625
7721		-99.609375
7722		-103.515625
7723		-99.609375
7724		-103.515625
7725		-99.609375
7726		-101.562500
7727		-99.609375
7728		-101.562500
7729		-97.656250
7730		-101.562500
7731		-97.656250
7732		-99.609375
7733		-95.703125
7734		-99.609375
7735		-95.703125
7736		-99.609375
7737		-95.703125
7738		-97.656250
7739		-93.750000
7740		-97.656250
7741		-93.750000
7742		-95.703125
7743		-93.750000
7744		-93.750000
7745		-91.796875
7746		-93.750000
7747		-89.843750
7748		-93.750000
7749		-89.843750
7750		-91.796875
7751		-87.890625
7752		-89.843750
7753		-85.937500
7754		-89.843750
7755		-85.937500
7756		-87.890625
7757		-83.984375
7758		-85.937500
7759		-82.031250
7760		-83.984375
7761		-80.078125
7762		-83.984375
7763		-78.125000
7764		-80.078125
7765		-76.171875
7766		-80.078125
7767		-76.171875
7768		-78.125000
7769		-74.218750
7770		-76.171875
7771		-72.265625
7772		-74.218750
7773		-70.312500
7774		-72.265625
7775		-68.359375
7776		-70.312500
7777		-66.406250
7778		-66.406250
7779		-62.500000
7780		-66.406250
7781		-62.500000
7782		-62.500000
7783		-58.593750
7784		-60.546875
7785		-56.640625
7786		-58.593750
7787		-54.687500
7788		-56.640625
7789		-52.734375
7790		-54.687500
7791		-48.828125
7792		-52.734375
7793		-48.828125
7794		-48.828125
7795		-44.921875
7796		-46.875000
7797		-42.968750
7798		-44.921875
7799		-41.015625
7800		-42.968750
7801		-37.109375
7802		-39.062500
7803		-35.156250
7804		-37.109375
7805		-33.203125
7806		-35.156250
7807		-31.250000
7808		-33.203125
7809		-27.343750
7810		-29.296875
7811		-25.390625
7812		-27.343750
7813		-23.437500
7814		-23.437500
7815		-19.531250
7816		-21.484375
7817		-17.578125
7818		-19.531250
7819		-15.625000
7820		-17.578125
7821		-13.671875
7822		-13.671875
7823		-9.765625
7824		-11.718750
7825		-7.812500
7826		-9.765625
7827		-5.859375
7828		-5.859375
7829		-1.953125
7830		-3.906250
7831		0.000000
7832		-1.953125
7833		1.953125
7834		1.953125
7835		5.859375
7836		3.906250
7837		7.812500
7838		5.859375
7839		9.765625
7840		7.812500
7841		13.671875
7842		11.718750
7843		15.625000
7844		13.671875
7845		17.578125
7846		15.625000
7847		21.484375
7848		17.578125
7849		23.437500
7850		19.531250
7851		25.390625
7852		23.437500
7853		27.343750
7854		25.390625
7855		29.296875
7856		27.343750
7857		33.203125
7858		29.296875
7859		33.203125
7860		33.203125
7861		37.109375
7862		35.156250
7863		39.062500
7864		35.156250
7865		41.015625
7866		39.062500
7867		42.968750
7868		41.015625
7869		44.921875
7870		42.968750
7871		46.875000
7872		44.921875
7873		48.828125
7874		46.875000
7875		52.734375
7876		48.828125
7877		52.734375
7878		50.781250
7879		54.687500
7880		52.734375
7881		56.640625
7882		54.687500
7883		58.593750
7884		56.640625
7885		60.546875
7886		58.593750
7887		62.500000
7888		60.546875
7889		64.453125
7890		62.500000
7891		66.406250
7892		62.500000
7893		68.359375
7894		66.406250
7895		68.359375
7896		66.406250
7897		70.312500
7898		68.359375
7899		72.265625
7900		70.312500
7901		72.265625
7902		72.265625
7903		74.218750
7904		72.265625
7905		76.171875
7906		74.218750
7907		78.125000
7908		76.171875
7909		78.125000
7910		76.171875
7911		80.078125
7912		78.125000
7913		80.078125
7914		78.125000
7915		82.031250
7916		80.078125
7917		82.031250
7918		80.078125
7919		83.984375
7920		82.031250
7921		83.984375
7922		82.031250
7923		85.937500
7924		83.984375
7925		87.890625
7926		83.984375
7927		87.890625
7928		85.937500
7929		87.890625
7930		83.984375
7931		89.843750
7932		85.937500
7933		89.843750
7934		85.937500
7935		89.843750
7936		87.890625
7937		89.843750
7938		87.890625
7939		89.843750
7940		87.890625
7941		91.796875
7942		85.937500
7943		91.796875
7944		87.890625
7945		91.796875
7946		89.843750
7947		91.796875
7948		87.890625
7949		91.796875
7950		87.890625
7951		91.796875
7952		87.890625
7953		91.796875
7954		87.890625
7955		91.796875
7956		87.890625
7957		91.796875
7958		87.890625
7959		91.796875
7960		87.890625
7961		91.796875
7962		87.890625
7963		89.843750
7964		85.937500
7965		93.750000
7966		85.937500
7967		93.750000
7968		83.984375
7969		91.796875
7970		85.937500
7971		89.843750
7972		83.984375
7973		89.843750
7974		83.984375
7975		89.843750
7976		82.031250
7977		87.890625
7978		83.984375
7979		85.937500
7980		80.078125
7981		87.890625
7982		80.078125
7983		87.890625
7984		78.125000
7985		85.937500
7986		80.078125
7987		83.984375
7988		78.125000
7989		82.031250
7990		76.171875
7991		82.031250
7992		74.218750
7993		82.031250
7994		76.171875
7995		78.125000
7996		74.218750
7997		78.125000
7998		70.312500
7999		78.125000
8000		70.312500
8001		78.125000
8002		68.359375
8003		76.171875
8004		66.406250
8005		74.218750
8006		64.453125
8007		72.265625
8008		62.500000
8009		72.265625
8010		64.453125
8011		68.359375
8012		62.500000
8013		66.406250
8014		58.593750
8015		64.453125
8016		56.640625
8017		64.453125
8018		54.687500
8019		62.500000
8020		52.734375
8021		60.546875
8022		50.781250
8023		58.593750
8024		48.828125
8025		56.640625
8026		48.828125
8027		54.687500
8028		48.828125
8029		50.781250
8030		44.921875
8031		48.828125
8032		41.015625
8033		48.828125
8034		39.062500
8035		46.875000
8036		37.109375
8037		44.921875
8038		35.156250
8039		42.968750
8040		33.203125
8041		39.062500
8042		31.250000
8043		39.062500
8044		29.296875
8045		35.156250
8046		27.343750
8047		31.250000
8048		23.437500
8049		29.296875
8050		21.484375
8051		29.296875
8052		17.578125
8053		27.343750
8054		15.625000
8055		25.390625
8056		13.671875
8057		21.484375
8058		11.718750
8059		19.531250
8060		9.765625
8061		15.625000
8062		7.812500
8063		11.718750
8064		1.953125
8065		9.765625
8066		0.000000
8067		9.765625
8068		-1.953125
8069		7.812500
8070		-3.906250
8071		3.906250
8072		-5.859375
8073		1.953125
8074		-9.765625
8075		0.000000
8076		-11.718750
8077		-3.906250
8078		-11.718750
8079		-7.812500
8080		-15.625000
8081		-9.765625
8082		-19.531250
8083		-11.718750
8084		-21.484375
8085		-13.671875
8086		-25.390625
8087		-15.625000
8088		-27.343750
8089		-17.578125
8090		-29.296875
8091		-21.484375
8092		-33.203125
8093		-23.437500
8094		-33.203125
8095		-27.343750
8096		-35.156250
8097		-31.250000
8098		-39.062500
8099		-33.203125
8100		-42.968750
8101		-35.156250
8102		-44.921875
8103		-37.109375
8104		-46.875000
8105		-39.062500
8106		-48.828125
8107		-41.015625
8108		-52.734375
8109		-42.968750
8110		-52.734375
8111		-46.875000
8112		-54.687500
8113		-50.781250
8114		-56.640625
8115		-52.734375
8116		-60.546875
8117		-52.734375
8118		-62.500000
8119		-54.687500
8120		-66.406250
8121		-56.640625
8122		-68.359375
8123		-58.593750
8124		-70.312500
8125		-62.500000
8126		-72.265625
8127		-62.500000
8128		-72.265625
8129		-68.359375
8130		-74.218750
8131		-70.312500
8132		-78.125000
8133		-70.312500
8134		-80.078125
8135		-72.265625
8136		-82.031250
8137		-72.265625
8138		-83.984375
8139		-74.218750
8140		-85.937500
8141		-78.125000
8142		-85.937500
8143		-78.125000
8144		-87.890625
8145		-80.078125
8146		-87.890625
8147		-83.984375
8148		-91.796875
8149		-83.984375
8150		-91.796875
8151		-83.984375
8152		-93.750000
8153		-85.937500
8154		-95.703125
8155		-87.890625
8156		-95.703125
8157		-87.890625
8158		-97.656250
8159		-89.843750
8160		-97.656250
8161		-91.796875
8162		-97.656250
8163		-93.750000
8164		-97.656250
8165		-95.703125
8166		-101.562500
8167		-93.750000
8168		-101.562500
8169		-93.750000
8170		-103.515625
8171		-95.703125
8172		-103.515625
8173		-95.703125
8174		-103.515625
8175		-95.703125
8176		-105.468750
8177		-95.703125
8178		-103.515625
8179		-97.656250
8180		-103.515625
8181		-99.609375
8182		-105.468750
8183		-97.656250
8184		-105.468750
8185		-97.656250
8186		-105.468750
8187		-97.656250
8188		-105.468750
8189		-97.656250
8190		-105.468750
8191		-97.656250
8192		-105.468750
8193		-97.656250
8194		-105.468750
8195		-97.656250
8196		-101.562500
8197		-99.609375
8198		-101.562500
8199		-99.609375
8200		-103.515625
8201		-95.703125
8202		-105.468750
8203		-95.703125
8204		-103.515625
8205		-95.703125
8206		-103.515625
8207		-95.703125
8208		-101.562500
8209		-95.703125
8210		-101.562500
8211		-93.750000
8212		-99.609375
8213		-95.703125
8214		-97.656250
8215		-93.750000
8216		-97.656250
8217		-89.843750
8218		-97.656250
8219		-89.843750
8220		-97.656250
8221		-87.890625
8222		-95.703125
8223		-85.937500
8224		-93.750000
8225		-85.937500
8226		-91.796875
8227		-83.984375
8228		-91.796875
8229		-83.984375
8230		-85.937500
8231		-83.984375
8232		-85.937500
8233		-80.078125
8234		-85.937500
8235		-78.125000
8236		-83.984375
8237		-76.171875
8238		-83.984375
8239		-76.171875
8240		-82.031250
8241		-74.218750
8242		-80.078125
8243		-72.265625
8244		-76.171875
8245		-70.312500
8246		-74.218750
8247		-70.312500
8248		-70.312500
8249		-68.359375
8250		-70.312500
8251		-62.500000
8252		-70.312500
8253		-60.546875
8254		-66.406250
8255		-58.593750
8256		-64.453125
8257		-56.640625
8258		-62.500000
8259		-54.687500
8260		-60.546875
8261		-52.734375
8262		-58.593750
8263		-52.734375
8264		-52.734375
8265		-50.781250
8266		-52.734375
8267		-44.921875
8268		-50.781250
8269		-42.968750
8270		-48.828125
8271		-41.015625
8272		-46.875000
8273		-39.062500
8274		-44.921875
8275		-35.156250
8276		-42.968750
8277		-33.203125
8278		-41.015625
8279		-31.250000
8280		-35.156250
8281		-31.250000
8282		-31.250000
8283		-27.343750
8284		-31.250000
8285		-23.437500
8286		-29.296875
8287		-21.484375
8288		-27.343750
8289		-17.578125
8290		-23.437500
8291		-15.625000
8292		-21.484375
8293		-13.671875
8294		-19.531250
8295		-9.765625
8296		-15.625000
8297		-9.765625
8298		-11.718750
8299		-7.812500
8300		-9.765625
8301		-1.953125
8302		-7.812500
8303		0.000000
8304		-5.859375
8305		1.953125
8306		-1.953125
8307		5.859375
8308		-1.953125
8309		7.812500
8310		1.953125
8311		9.765625
8312		3.906250
8313		11.718750
8314		9.765625
8315		13.671875
8316		11.718750
8317		17.578125
8318		11.718750
8319		19.531250
8320		13.671875
8321		21.484375
8322		15.625000
8323		25.390625
8324		19.531250
8325		27.343750
8326		21.484375
8327		29.296875
8328		23.437500
8329		31.250000
8330		27.343750
8331		31.250000
8332		31.250000
8333		33.203125
8334		31.250000
8335		39.062500
8336		33.203125
8337		41.015625
8338		35.156250
8339		42.968750
8340		37.109375
8341		46.875000
8342		39.062500
8343		46.875000
8344		41.015625
8345		50.781250
8346		44.921875
8347		48.828125
8348		48.828125
8349		50.781250
8350		48.828125
8351		56.640625
8352		50.781250
8353		58.593750
8354		50.781250
8355		58.593750
8356		52.734375
8357		60.546875
8358		54.687500
8359		64.453125
8360		56.640625
8361		64.453125
8362		58.593750
8363		64.453125
8364		62.500000
8365		66.406250
8366		64.453125
8367		68.359375
8368		62.500000
8369		72.265625
8370		64.453125
8371		72.265625
8372		66.406250
8373		74.218750
8374		68.359375
8375		76.171875
8376		68.359375
8377		76.171875
8378		70.312500
8379		78.125000
8380		72.265625
8381		78.125000
8382		76.171875
8383		78.125000
8384		76.171875
8385		82.031250
8386		74.218750
8387		83.984375
8388		76.171875
8389		83.984375
8390		78.125000
8391		85.937500
8392		78.125000
8393		85.937500
8394		78.125000
8395		85.937500
8396		80.078125
8397		87.890625
8398		83.984375
8399		85.937500
8400		83.984375
8401		87.890625
8402		82.031250
8403		89.843750
8404		82.031250
8405		91.796875
8406		83.984375
8407		89.843750
8408		83.984375
8409		91.796875
8410		83.984375
8411		91.796875
8412		85.937500
8413		91.796875
8414		87.890625
8415		89.843750
8416		87.890625
8417		89.843750
8418		85.937500
8419		93.750000
8420		85.937500
8421		93.750000
8422		85.937500
8423		93.750000
8424		85.937500
8425		93.750000
8426		85.937500
8427		93.750000
8428		85.937500
8429		93.750000
8430		87.890625
8431		91.796875
8432		87.890625
8433		91.796875
8434		85.937500
8435		93.750000
8436		83.984375
8437		93.750000
8438		85.937500
8439		91.796875
8440		83.984375
8441		91.796875
8442		83.984375
8443		91.796875
8444		83.984375
8445		89.843750
8446		83.984375
8447		89.843750
8448		85.937500
8449		87.890625
8450		83.984375
8451		85.937500
8452		80.078125
8453		87.890625
8454		80.078125
8455		87.890625
8456		80.078125
8457		87.890625
8458		78.125000
8459		85.937500
8460		76.171875
8461		85.937500
8462		76.171875
8463		83.984375
8464		78.125000
8465		82.031250
8466		76.171875
8467		80.078125
8468		74.218750
8469		80.078125
8470		72.265625
8471		80.078125
8472		70.312500
8473		78.125000
8474		68.359375
8475		76.171875
8476		68.359375
8477		76.171875
8478		66.406250
8479		74.218750
8480		64.453125
8481		72.265625
8482		66.406250
8483		68.359375
8484		64.453125
8485		66.406250
8486		58.593750
8487		66.406250
8488		58.593750
8489		66.406250
8490		56.640625
8491		64.453125
8492		54.687500
8493		62.500000
8494		52.734375
8495		60.546875
8496		50.781250
8497		58.593750
8498		50.781250
8499		54.687500
8500		48.828125
8501		52.734375
8502		44.921875
8503		52.734375
8504		42.968750
8505		50.781250
8506		39.062500
8507		48.828125
8508		39.062500
8509		46.875000
8510		37.109375
8511		44.921875
8512		35.156250
8513		42.968750
8514		33.203125
8515		41.015625
8516		31.250000
8517		35.156250
8518		25.390625
8519		33.203125
8520		25.390625
8521		31.250000
8522		23.437500
8523		31.250000
8524		19.531250
8525		27.343750
8526		17.578125
8527		25.390625
8528		15.625000
8529		23.437500
8530		13.671875
8531		21.484375
8532		11.718750
8533		15.625000
8534		9.765625
8535		13.671875
8536		3.906250
8537		13.671875
8538		1.953125
8539		11.718750
8540		0.000000
8541		7.812500
8542		-3.906250
8543		5.859375
8544		-5.859375
8545		3.906250
8546		-7.812500
8547		0.000000
8548		-7.812500
8549		-3.906250
8550		-9.765625
8551		-5.859375
8552		-15.625000
8553		-7.812500
8554		-17.578125
8555		-9.765625
8556		-19.531250
8557		-11.718750
8558		-23.437500
8559		-15.625000
8560		-25.390625
8561		-17.578125
8562		-29.296875
8563		-19.531250
8564		-29.296875
8565		-23.437500
8566		-31.250000
8567		-27.343750
8568		-33.203125
8569		-29.296875
8570		-39.062500
8571		-29.296875
8572		-41.015625
8573		-33.203125
8574		-42.968750
8575		-35.156250
8576		-46.875000
8577		-37.109375
8578		-48.828125
8579		-39.062500
8580		-50.781250
8581		-41.015625
8582		-50.781250
8583		-44.921875
8584		-52.734375
8585		-48.828125
8586		-58.593750
8587		-50.781250
8588		-60.546875
8589		-52.734375
8590		-62.500000
8591		-54.687500
8592		-64.453125
8593		-56.640625
8594		-66.406250
8595		-58.593750
8596		-68.359375
8597		-60.546875
8598		-70.312500
8599		-62.500000
8600		-70.312500
8601		-66.406250
8602		-74.218750
8603		-68.359375
8604		-76.171875
8605		-68.359375
8606		-78.125000
8607		-70.312500
8608		-80.078125
8609		-72.265625
8610		-82.031250
8611		-74.218750
8612		-83.984375
8613		-76.171875
8614		-83.984375
8615		-78.125000
8616		-83.984375
8617		-82.031250
8618		-85.937500
8619		-83.984375
8620		-89.843750
8621		-82.031250
8622		-91.796875
8623		-83.984375
8624		-93.750000
8625		-85.937500
8626		-93.750000
8627		-85.937500
8628		-95.703125
8629		-87.890625
8630		-95.703125
8631		-89.843750
8632		-95.703125
8633		-91.796875
8634		-95.703125
8635		-93.750000
8636		-99.609375
8637		-93.750000
8638		-101.562500
8639		-93.750000
8640		-101.562500
8641		-93.750000
8642		-101.562500
8643		-95.703125
8644		-103.515625
8645		-95.703125
8646		-103.515625
8647		-95.703125
8648		-103.515625
8649		-97.656250
8650		-101.562500
8651		-99.609375
8652		-103.515625
8653		-99.609375
8654		-105.468750
8655		-97.656250
8656		-105.468750
8657		-97.656250
8658		-105.468750
8659		-97.656250
8660		-105.468750
8661		-97.656250
8662		-105.468750
8663		-97.656250
8664		-105.468750
8665		-99.609375
8666		-103.515625
8667		-99.609375
8668		-103.515625
8669		-101.562500
8670		-105.468750
8671		-97.656250
8672		-105.468750
8673		-97.656250
8674		-105.468750
8675		-97.656250
8676		-103.515625
8677		-95.703125
8678		-103.515625
8679		-95.703125
8680		-103.515625
8681		-95.703125
8682		-101.562500
8683		-95.703125
8684		-97.656250
8685		-95.703125
8686		-97.656250
8687		-93.750000
8688		-99.609375
8689		-91.796875
8690		-97.656250
8691		-89.843750
8692		-97.656250
8693		-89.843750
8694		-95.703125
8695		-87.890625
8696		-95.703125
8697		-87.890625
8698		-93.750000
8699		-85.937500
8700		-89.843750
8701		-85.937500
8702		-87.890625
8703		-85.937500
8704		-89.843750
8705		-82.031250
8706		-87.890625
8707		-80.078125
8708		-85.937500
8709		-78.125000
8710		-85.937500
8711		-76.171875
8712		-83.984375
8713		-74.218750
8714		-82.031250
8715		-72.265625
8716		-78.125000
8717		-74.218750
8718		-74.218750
8719		-72.265625
8720		-74.218750
8721		-66.406250
8722		-72.265625
8723		-64.453125
8724		-72.265625
8725		-64.453125
8726		-70.312500
8727		-60.546875
8728		-68.359375
8729		-58.593750
8730		-64.453125
8731		-56.640625
8732		-64.453125
8733		-54.687500
8734		-58.593750
8735		-54.687500
8736		-56.640625
8737		-52.734375
8738		-54.687500
8739		-48.828125
8740		-52.734375
8741		-46.875000
8742		-50.781250
8743		-44.921875
8744		-46.875000
8745		-41.015625
8746		-44.921875
8747		-39.062500
8748		-42.968750
8749		-37.109375
8750		-39.062500
8751		-35.156250
8752		-37.109375
8753		-33.203125
8754		-35.156250
8755		-27.343750
8756		-33.203125
8757		-25.390625
8758		-31.250000
8759		-23.437500
8760		-29.296875
8761		-19.531250
8762		-27.343750
8763		-17.578125
8764		-23.437500
8765		-15.625000
8766		-21.484375
8767		-13.671875
8768		-15.625000
8769		-11.718750
8770		-13.671875
8771		-7.812500
8772		-13.671875
8773		-3.906250
8774		-9.765625
8775		-1.953125
8776		-7.812500
8777		0.000000
8778		-5.859375
8779		1.953125
8780		-3.906250
8781		5.859375
8782		-1.953125
8783		7.812500
8784		3.906250
8785		7.812500
8786		7.812500
8787		11.718750
8788		7.812500
8789		15.625000
8790		9.765625
8791		19.531250
8792		11.718750
8793		19.531250
8794		15.625000
8795		21.484375
8796		17.578125
8797		25.390625
8798		19.531250
8799		27.343750
8800		21.484375
8801		29.296875
8802		27.343750
8803		31.250000
8804		27.343750
8805		35.156250
8806		27.343750
8807		37.109375
8808		31.250000
8809		39.062500
8810		33.203125
8811		41.015625
8812		35.156250
8813		42.968750
8814		37.109375
8815		46.875000
8816		39.062500
8817		46.875000
8818		44.921875
8819		46.875000
8820		46.875000
8821		48.828125
8822		44.921875
8823		54.687500
8824		46.875000
8825		54.687500
8826		48.828125
8827		58.593750
8828		50.781250
8829		60.546875
8830		52.734375
8831		62.500000
8832		54.687500
8833		62.500000
8834		58.593750
8835		62.500000
8836		60.546875
8837		64.453125
8838		60.546875
8839		68.359375
8840		62.500000
8841		70.312500
8842		62.500000
8843		72.265625
8844		66.406250
8845		72.265625
8846		66.406250
8847		74.218750
8848		68.359375
8849		76.171875
8850		68.359375
8851		76.171875
8852		72.265625
8853		76.171875
8854		74.218750
8855		80.078125
8856		74.218750
8857		80.078125
8858		74.218750
8859		82.031250
8860		76.171875
8861		83.984375
8862		76.171875
8863		83.984375
8864		78.125000
8865		85.937500
8866		78.125000
8867		85.937500
8868		82.031250
8869		83.984375
8870		82.031250
8871		85.937500
8872		82.031250
8873		87.890625
8874		82.031250
8875		89.843750
8876		82.031250
8877		89.843750
8878		82.031250
8879		89.843750
8880		83.984375
8881		91.796875
8882		83.984375
8883		91.796875
8884		85.937500
8885		91.796875
8886		87.890625
8887		89.843750
8888		85.937500
8889		91.796875
8890		85.937500
8891		93.750000
8892		85.937500
8893		93.750000
8894		85.937500
8895		93.750000
8896		85.937500
8897		93.750000
8898		85.937500
8899		93.750000
8900		85.937500
8901		93.750000
8902		87.890625
8903		89.843750
8904		87.890625
8905		89.843750
8906		85.937500
8907		93.750000
8908		85.937500
8909		93.750000
8910		85.937500
8911		93.750000
8912		83.984375
8913		91.796875
8914		83.984375
8915		91.796875
8916		83.984375
8917		91.796875
8918		83.984375
8919		89.843750
8920		85.937500
8921		87.890625
8922		82.031250
8923		89.843750
8924		82.031250
8925		89.843750
8926		80.078125
8927		87.890625
8928		80.078125
8929		87.890625
8930		78.125000
8931		85.937500
8932		78.125000
8933		85.937500
8934		78.125000
8935		83.984375
8936		78.125000
8937		82.031250
8938		76.171875
8939		80.078125
8940		74.218750
8941		80.078125
8942		72.265625
8943		80.078125
8944		72.265625
8945		80.078125
8946		70.312500
8947		78.125000
8948		68.359375
8949		76.171875
8950		68.359375
8951		74.218750
8952		68.359375
8953		70.312500
8954		66.406250
8955		70.312500
8956		62.500000
8957		70.312500
8958		60.546875
8959		70.312500
8960		58.593750
8961		66.406250
8962		56.640625
8963		66.406250
8964		54.687500
8965		62.500000
8966		54.687500
8967		60.546875
8968		54.687500
8969		58.593750
8970		52.734375
8971		56.640625
8972		46.875000
8973		54.687500
8974		44.921875
8975		54.687500
8976		44.921875
8977		52.734375
8978		41.015625
8979		50.781250
8980		41.015625
8981		46.875000
8982		37.109375
8983		46.875000
8984		37.109375
8985		44.921875
8986		35.156250
8987		39.062500
8988		33.203125
8989		37.109375
8990		29.296875
8991		37.109375
8992		27.343750
8993		35.156250
8994		25.390625
8995		31.250000
8996		21.484375
8997		29.296875
8998		19.531250
8999		27.343750
9000		17.578125
9001		25.390625
9002		17.578125
9003		21.484375
9004		13.671875
9005		17.578125
9006		9.765625
9007		17.578125
9008		5.859375
9009		15.625000
9010		5.859375
9011		11.718750
9012		1.953125
9013		9.765625
9014		0.000000
9015		7.812500
9016		-3.906250
9017		5.859375
9018		-3.906250
9019		1.953125
9020		-5.859375
9021		-1.953125
9022		-9.765625
9023		-3.906250
9024		-13.671875
9025		-5.859375
9026		-15.625000
9027		-7.812500
9028		-19.531250
9029		-9.765625
9030		-21.484375
9031		-13.671875
9032		-23.437500
9033		-15.625000
9034		-25.390625
9035		-17.578125
9036		-25.390625
9037		-21.484375
9038		-29.296875
9039		-25.390625
9040		-33.203125
9041		-27.343750
9042		-37.109375
9043		-27.343750
9044		-39.062500
9045		-29.296875
9046		-41.015625
9047		-33.203125
9048		-44.921875
9049		-35.156250
9050		-46.875000
9051		-39.062500
9052		-46.875000
9053		-41.015625
9054		-48.828125
9055		-44.921875
9056		-54.687500
9057		-46.875000
9058		-56.640625
9059		-48.828125
9060		-56.640625
9061		-50.781250
9062		-60.546875
9063		-52.734375
9064		-62.500000
9065		-54.687500
9066		-64.453125
9067		-56.640625
9068		-66.406250
9069		-58.593750
9070		-66.406250
9071		-62.500000
9072		-68.359375
9073		-64.453125
9074		-74.218750
9075		-64.453125
9076		-74.218750
9077		-66.406250
9078		-78.125000
9079		-68.359375
9080		-78.125000
9081		-72.265625
9082		-80.078125
9083		-72.265625
9084		-82.031250
9085		-74.218750
9086		-82.031250
9087		-78.125000
9088		-83.984375
9089		-80.078125
9090		-87.890625
9091		-78.125000
9092		-89.843750
9093		-82.031250
9094		-89.843750
9095		-82.031250
9096		-91.796875
9097		-83.984375
9098		-93.750000
9099		-85.937500
9100		-93.750000
9101		-85.937500
9102		-95.703125
9103		-87.890625
9104		-93.750000
9105		-91.796875
9106		-97.656250
9107		-91.796875
9108		-99.609375
9109		-91.796875
9110		-99.609375
9111		-91.796875
9112		-101.562500
9113		-93.750000
9114		-101.562500
9115		-93.750000
9116		-103.515625
9117		-93.750000
9118		-103.515625
9119		-95.703125
9120		-101.562500
9121		-97.656250
9122		-101.562500
9123		-99.609375
9124		-105.468750
9125		-97.656250
9126		-105.468750
9127		-97.656250
9128		-105.468750
9129		-97.656250
9130		-105.468750
9131		-97.656250
9132		-105.468750
9133		-97.656250
9134		-105.468750
9135		-99.609375
9136		-105.468750
9137		-99.609375
9138		-103.515625
9139		-101.562500
9140		-103.515625
9141		-99.609375
9142		-105.468750
9143		-97.656250
9144		-105.468750
9145		-97.656250
9146		-103.515625
9147		-97.656250
9148		-103.515625
9149		-97.656250
9150		-103.515625
9151		-95.703125
9152		-103.515625
9153		-95.703125
9154		-99.609375
9155		-97.656250
9156		-99.609375
9157		-95.703125
9158		-101.562500
9159		-93.750000
9160		-99.609375
9161		-91.796875
9162		-99.609375
9163		-91.796875
9164		-97.656250
9165		-89.843750
9166		-97.656250
9167		-89.843750
9168		-95.703125
9169		-87.890625
9170		-93.750000
9171		-87.890625
9172		-89.843750
9173		-87.890625
9174		-91.796875
9175		-83.984375
9176		-89.843750
9177		-83.984375
9178		-89.843750
9179		-80.078125
9180		-87.890625
9181		-80.078125
9182		-85.937500
9183		-78.125000
9184		-83.984375
9185		-76.171875
9186		-82.031250
9187		-74.218750
9188		-78.125000
9189		-74.218750
9190		-76.171875
9191		-72.265625
9192		-76.171875
9193		-68.359375
9194		-74.218750
9195		-66.406250
9196		-72.265625
9197		-64.453125
9198		-72.265625
9199		-62.500000
9200		-68.359375
9201		-60.546875
9202		-66.406250
9203		-58.593750
9204		-64.453125
9205		-58.593750
9206		-60.546875
9207		-56.640625
9208		-58.593750
9209		-50.781250
9210		-58.593750
9211		-48.828125
9212		-54.687500
9213		-46.875000
9214		-52.734375
9215		-44.921875
9216		-50.781250
9217		-42.968750
9218		-48.828125
9219		-41.015625
9220		-44.921875
9221		-39.062500
9222		-41.015625
9223		-37.109375
9224		-39.062500
9225		-33.203125
9226		-39.062500
9227		-29.296875
9228		-37.109375
9229		-27.343750
9230		-33.203125
9231		-25.390625
9232		-31.250000
9233		-21.484375
9234		-27.343750
9235		-19.531250
9236		-25.390625
9237		-15.625000
9238		-19.531250
9239		-15.625000
9240		-17.578125
9241		-13.671875
9242		-17.578125
9243		-7.812500
9244		-15.625000
9245		-7.812500
9246		-11.718750
9247		-3.906250
9248		-9.765625
9249		-1.953125
9250		-7.812500
9251		0.000000
9252		-5.859375
9253		3.906250
9254		0.000000
9255		5.859375
9256		1.953125
9257		7.812500
9258		3.906250
9259		11.718750
9260		3.906250
9261		13.671875
9262		7.812500
9263		15.625000
9264		9.765625
9265		19.531250
9266		13.671875
9267		21.484375
9268		15.625000
9269		23.437500
9270		17.578125
9271		25.390625
9272		21.484375
9273		25.390625
9274		25.390625
9275		29.296875
9276		25.390625
9277		33.203125
9278		27.343750
9279		35.156250
9280		29.296875
9281		37.109375
9282		31.250000
9283		39.062500
9284		35.156250
9285		42.968750
9286		37.109375
9287		42.968750
9288		37.109375
9289		44.921875
9290		42.968750
9291		46.875000
9292		42.968750
9293		50.781250
9294		44.921875
9295		52.734375
9296		46.875000
9297		54.687500
9298		48.828125
9299		56.640625
9300		50.781250
9301		58.593750
9302		52.734375
9303		60.546875
9304		54.687500
9305		60.546875
9306		58.593750
9307		62.500000
9308		58.593750
9309		64.453125
9310		58.593750
9311		66.406250
9312		60.546875
9313		68.359375
9314		62.500000
9315		70.312500
9316		64.453125
9317		72.265625
9318		64.453125
9319		74.218750
9320		66.406250
9321		74.218750
9322		70.312500
9323		74.218750
9324		72.265625
9325		74.218750
9326		72.265625
9327		80.078125
9328		72.265625
9329		80.078125
9330		74.218750
9331		82.031250
9332		74.218750
9333		82.031250
9334		76.171875
9335		83.984375
9336		76.171875
9337		83.984375
9338		78.125000
9339		83.984375
9340		82.031250
9341		83.984375
9342		82.031250
9343		85.937500
9344		80.078125
9345		87.890625
9346		82.031250
9347		87.890625
9348		82.031250
9349		89.843750
9350		82.031250
9351		89.843750
9352		83.984375
9353		89.843750
9354		83.984375
9355		91.796875
9356		85.937500
9357		89.843750
9358		87.890625
9359		89.843750
9360		83.984375
9361		91.796875
9362		85.937500
9363		91.796875
9364		85.937500
9365		93.750000
9366		85.937500
9367		93.750000
9368		85.937500
9369		93.750000
9370		85.937500
9371		93.750000
9372		85.937500
9373		93.750000
9374		89.843750
9375		91.796875
9376		85.937500
9377		93.750000
9378		85.937500
9379		93.750000
9380		85.937500
9381		93.750000
9382		85.937500
9383		91.796875
9384		85.937500
9385		91.796875
9386		83.984375
9387		91.796875
9388		83.984375
9389		91.796875
9390		85.937500
9391		87.890625
9392		83.984375
9393		89.843750
9394		82.031250
9395		89.843750
9396		82.031250
9397		89.843750
9398		82.031250
9399		87.890625
9400		80.078125
9401		87.890625
9402		80.078125
9403		87.890625
9404		78.125000
9405		85.937500
9406		80.078125
9407		83.984375
9408		80.078125
9409		82.031250
9410		74.218750
9411		82.031250
9412		74.218750
9413		82.031250
9414		74.218750
9415		80.078125
9416		72.265625
9417		80.078125
9418		70.312500
9419		78.125000
9420		70.312500
9421		78.125000
9422		70.312500
9423		76.171875
9424		70.312500
9425		72.265625
9426		64.453125
9427		72.265625
9428		64.453125
9429		72.265625
9430		62.500000
9431		70.312500
9432		60.546875
9433		68.359375
9434		58.593750
9435		66.406250
9436		56.640625
9437		64.453125
9438		54.687500
9439		62.500000
9440		56.640625
9441		58.593750
9442		54.687500
9443		56.640625
9444		48.828125
9445		56.640625
9446		46.875000
9447		56.640625
9448		44.921875
9449		54.687500
9450		42.968750
9451		50.781250
9452		41.015625
9453		48.828125
9454		39.062500
9455		46.875000
9456		39.062500
9457		44.921875
9458		37.109375
9459		41.015625
9460		33.203125
9461		39.062500
9462		31.250000
9463		39.062500
9464		27.343750
9465		37.109375
9466		25.390625
9467		33.203125
9468		23.437500
9469		31.250000
9470		21.484375
9471		29.296875
9472		19.531250
9473		27.343750
9474		19.531250
9475		23.437500
9476		13.671875
9477		19.531250
9478		11.718750
9479		19.531250
9480		7.812500
9481		17.578125
9482		5.859375
9483		15.625000
9484		3.906250
9485		11.718750
9486		1.953125
9487		9.765625
9488		-1.953125
9489		5.859375
9490		-1.953125
9491		1.953125
9492		-3.906250
9493		0.000000
9494		-9.765625
9495		-1.953125
9496		-11.718750
9497		-1.953125
9498		-13.671875
9499		-5.859375
9500		-17.578125
9501		-7.812500
9502		-19.531250
9503		-9.765625
9504		-21.484375
9505		-13.671875
9506		-23.437500
9507		-15.625000
9508		-25.390625
9509		-21.484375
9510		-29.296875
9511		-23.437500
9512		-31.250000
9513		-23.437500
9514		-35.156250
9515		-25.390625
9516		-37.109375
9517		-27.343750
9518		-39.062500
9519		-31.250000
9520		-42.968750
9521		-33.203125
9522		-42.968750
9523		-35.156250
9524		-44.921875
9525		-41.015625
9526		-46.875000
9527		-42.968750
9528		-52.734375
9529		-42.968750
9530		-54.687500
9531		-44.921875
9532		-56.640625
9533		-46.875000
9534		-58.593750
9535		-50.781250
9536		-60.546875
9537		-52.734375
9538		-62.500000
9539		-54.687500
9540		-62.500000
9541		-56.640625
9542		-64.453125
9543		-62.500000
9544		-70.312500
9545		-62.500000
9546		-72.265625
9547		-64.453125
9548		-74.218750
9549		-64.453125
9550		-76.171875
9551		-68.359375
9552		-78.125000
9553		-70.312500
9554		-80.078125
9555		-72.265625
9556		-80.078125
9557		-72.265625
9558		-80.078125
9559		-76.171875
9560		-82.031250
9561		-78.125000
9562		-85.937500
9563		-78.125000
9564		-87.890625
9565		-80.078125
9566		-89.843750
9567		-82.031250
9568		-89.843750
9569		-83.984375
9570		-91.796875
9571		-83.984375
9572		-93.750000
9573		-85.937500
9574		-91.796875
9575		-89.843750
9576		-93.750000
9577		-89.843750
9578		-97.656250
9579		-89.843750
9580		-97.656250
9581		-89.843750
9582		-99.609375
9583		-91.796875
9584		-99.609375
9585		-91.796875
9586		-101.562500
9587		-93.750000
9588		-101.562500
9589		-93.750000
9590		-101.562500
9591		-95.703125
9592		-99.609375
9593		-97.656250
9594		-103.515625
9595		-97.656250
9596		-103.515625
9597		-97.656250
9598		-105.468750
9599		-97.656250
9600		-105.468750
9601		-97.656250
9602		-105.468750
9603		-97.656250
9604		-105.468750
9605		-97.656250
9606		-105.468750
9607		-99.609375
9608		-103.515625
9609		-101.562500
9610		-103.515625
9611		-101.562500
9612		-105.468750
9613		-97.656250
9614		-105.468750
9615		-97.656250
9616		-105.468750
9617		-97.656250
9618		-105.468750
9619		-97.656250
9620		-105.468750
9621		-97.656250
9622		-105.468750
9623		-97.656250
9624		-101.562500
9625		-97.656250
9626		-99.609375
9627		-97.656250
9628		-101.562500
9629		-95.703125
9630		-101.562500
9631		-93.750000
9632		-101.562500
9633		-93.750000
9634		-99.609375
9635		-91.796875
9636		-99.609375
9637		-91.796875
9638		-97.656250
9639		-89.843750
9640		-97.656250
9641		-89.843750
9642		-93.750000
9643		-89.843750
9644		-91.796875
9645		-87.890625
9646		-93.750000
9647		-85.937500
9648		-91.796875
9649		-83.984375
9650		-89.843750
9651		-82.031250
9652		-87.890625
9653		-80.078125
9654		-85.937500
9655		-78.125000
9656		-85.937500
9657		-76.171875
9658		-82.031250
9659		-78.125000
9660		-80.078125
9661		-76.171875
9662		-80.078125
9663		-72.265625
9664		-78.125000
9665		-70.312500
9666		-76.171875
9667		-68.359375
9668		-74.218750
9669		-66.406250
9670		-72.265625
9671		-64.453125
9672		-70.312500
9673		-62.500000
9674		-68.359375
9675		-60.546875
9676		-64.453125
9677		-60.546875
9678		-62.500000
9679		-56.640625
9680		-60.546875
9681		-52.734375
9682		-58.593750
9683		-50.781250
9684		-56.640625
9685		-48.828125
9686		-54.687500
9687		-46.875000
9688		-52.734375
9689		-42.968750
9690		-50.781250
9691		-41.015625
9692		-44.921875
9693		-41.015625
9694		-42.968750
9695		-39.062500
9696		-42.968750
9697		-33.203125
9698		-39.062500
9699		-31.250000
9700		-37.109375
9701		-29.296875
9702		-35.156250
9703		-25.390625
9704		-31.250000
9705		-23.437500
9706		-29.296875
9707		-21.484375
9708		-27.343750
9709		-21.484375
9710		-21.484375
9711		-19.531250
9712		-21.484375
9713		-13.671875
9714		-19.531250
9715		-9.765625
9716		-17.578125
9717		-7.812500
9718		-15.625000
9719		-5.859375
9720		-11.718750
9721		-3.906250
9722		-9.765625
9723		0.000000
9724		-5.859375
9725		0.000000
9726		-1.953125
9727		1.953125
9728		0.000000
9729		3.906250
9730		0.000000
9731		9.765625
9732		3.906250
9733		11.718750
9734		5.859375
9735		13.671875
9736		7.812500
9737		17.578125
9738		11.718750
9739		17.578125
9740		13.671875
9741		21.484375
9742		17.578125
9743		21.484375
9744		21.484375
9745		25.390625
9746		21.484375
9747		29.296875
9748		21.484375
9749		31.250000
9750		25.390625
9751		33.203125
9752		27.343750
9753		35.156250
9754		29.296875
9755		39.062500
9756		31.250000
9757		41.015625
9758		35.156250
9759		41.015625
9760		39.062500
9761		42.968750
9762		41.015625
9763		46.875000
9764		41.015625
9765		48.828125
9766		42.968750
9767		50.781250
9768		44.921875
9769		52.734375
9770		46.875000
9771		54.687500
9772		48.828125
9773		56.640625
9774		50.781250
9775		58.593750
9776		54.687500
9777		58.593750
9778		56.640625
9779		60.546875
9780		56.640625
9781		64.453125
9782		58.593750
9783		66.406250
9784		58.593750
9785		66.406250
9786		60.546875
9787		70.312500
9788		62.500000
9789		70.312500
9790		64.453125
9791		72.265625
9792		66.406250
9793		72.265625
9794		70.312500
9795		72.265625
9796		70.312500
9797		76.171875
9798		70.312500
9799		78.125000
9800		72.265625
9801		78.125000
9802		72.265625
9803		80.078125
9804		74.218750
9805		82.031250
9806		74.218750
9807		82.031250
9808		76.171875
9809		83.984375
9810		80.078125
9811		82.031250
9812		80.078125
9813		83.984375
9814		78.125000
9815		85.937500
9816		80.078125
9817		87.890625
9818		80.078125
9819		87.890625
9820		82.031250
9821		87.890625
9822		82.031250
9823		89.843750
9824		82.031250
9825		89.843750
9826		85.937500
9827		89.843750
9828		85.937500
9829		89.843750
9830		85.937500
9831		91.796875
9832		83.984375
9833		91.796875
9834		85.937500
9835		93.750000
9836		85.937500
9837		93.750000
9838		85.937500
9839		93.750000
9840		85.937500
9841		93.750000
9842		85.937500
9843		93.750000
9844		89.843750
9845		91.796875
9846		87.890625
9847		91.796875
9848		85.937500
9849		93.750000
9850		85.937500
9851		93.750000
9852		85.937500
9853		93.750000
9854		85.937500
9855		93.750000
9856		85.937500
9857		93.750000
9858		85.937500
9859		93.750000
9860		87.890625
9861		89.843750
9862		87.890625
9863		89.843750
9864		83.984375
9865		91.796875
9866		82.031250
9867		91.796875
9868		82.031250
9869		89.843750
9870		82.031250
9871		89.843750
9872		82.031250
9873		87.890625
9874		80.078125
9875		87.890625
9876		80.078125
9877		85.937500
9878		82.031250
9879		83.984375
9880		80.078125
9881		85.937500
9882		76.171875
9883		83.984375
9884		76.171875
9885		83.984375
9886		74.218750
9887		82.031250
9888		74.218750
9889		80.078125
9890		72.265625
9891		80.078125
9892		70.312500
9893		78.125000
9894		72.265625
9895		74.218750
9896		70.312500
9897		74.218750
9898		66.406250
9899		74.218750
9900		66.406250
9901		72.265625
9902		62.500000
9903		70.312500
9904		62.500000
9905		70.312500
9906		60.546875
9907		68.359375
9908		58.593750
9909		66.406250
9910		58.593750
9911		64.453125
9912		56.640625
9913		60.546875
9914		52.734375
9915		60.546875
9916		50.781250
9917		60.546875
9918		48.828125
9919		56.640625
9920		48.828125
9921		54.687500
9922		44.921875
9923		54.687500
9924		42.968750
9925		50.781250
9926		42.968750
9927		50.781250
9928		41.015625
9929		44.921875
9930		39.062500
9931		42.968750
9932		35.156250
9933		42.968750
9934		31.250000
9935		41.015625
9936		31.250000
9937		39.062500
9938		29.296875
9939		35.156250
9940		25.390625
9941		35.156250
9942		23.437500
9943		33.203125
9944		23.437500
9945		27.343750
9946		21.484375
9947		25.390625
9948		15.625000
9949		23.437500
9950		13.671875
9951		21.484375
9952		9.765625
9953		19.531250
9954		9.765625
9955		17.578125
9956		5.859375
9957		15.625000
9958		3.906250
9959		11.718750
9960		1.953125
9961		9.765625
9962		1.953125
9963		3.906250
9964		-3.906250
9965		1.953125
9966		-5.859375
9967		1.953125
9968		-9.765625
9969		0.000000
9970		-11.718750
9971		-3.906250
9972		-13.671875
9973		-5.859375
9974		-17.578125
9975		-7.812500
9976		-19.531250
9977		-11.718750
9978		-19.531250
9979		-15.625000
9980		-21.484375
9981		-17.578125
9982		-27.343750
9983		-19.531250
9984		-29.296875
9985		-21.484375
9986		-31.250000
9987		-23.437500
9988		-35.156250
9989		-27.343750
9990		-39.062500
9991		-29.296875
9992		-39.062500
9993		-31.250000
9994		-39.062500
9995		-35.156250
9996		-42.968750
9997		-39.062500
9998		-46.875000
9999		-39.062500
10000		-48.828125
