Channel              :		CH1
Frequency            :		1.061kHz
Period               :		0.942ms
PK-PK                :		132.8mV
Probe attenuation    :		1X
Voltage per ADC value:		0.122070mV
Time interval        :		2.00000us

index		CH1_Voltage(mV)
1		27.343750
2		27.343750
3		31.250000
4		25.390625
5		31.250000
6		23.437500
7		27.343750
8		23.437500
9		27.343750
10		21.484375
11		25.390625
12		19.531250
13		23.437500
14		17.578125
15		21.484375
16		17.578125
17		21.484375
18		15.625000
19		19.531250
20		13.671875
21		17.578125
22		13.671875
23		15.625000
24		11.718750
25		15.625000
26		9.765625
27		13.671875
28		7.812500
29		11.718750
30		5.859375
31		9.765625
32		5.859375
33		9.765625
34		3.906250
35		7.812500
36		1.953125
37		5.859375
38		0.000000
39		3.906250
40		-1.953125
41		1.953125
42		-3.906250
43		0.000000
44		-5.859375
45		0.000000
46		-5.859375
47		-1.953125
48		-7.812500
49		-3.906250
50		-9.765625
51		-5.859375
52		-11.718750
53		-7.812500
54		-11.718750
55		-7.812500
56		-13.671875
57		-9.765625
58		-15.625000
59		-11.718750
60		-17.578125
61		-13.671875
62		-19.531250
63		-13.671875
64		-19.531250
65		-15.625000
66		-21.484375
67		-17.578125
68		-23.437500
69		-19.531250
70		-25.390625
71		-21.484375
72		-27.343750
73		-21.484375
74		-27.343750
75		-23.437500
76		-29.296875
77		-25.390625
78		-31.250000
79		-25.390625
80		-31.250000
81		-27.343750
82		-33.203125
83		-29.296875
84		-35.156250
85		-31.250000
86		-35.156250
87		-31.250000
88		-37.109375
89		-33.203125
90		-37.109375
91		-35.156250
92		-39.062500
93		-35.156250
94		-41.015625
95		-37.109375
96		-41.015625
97		-37.109375
98		-42.968750
99		-39.062500
100		-44.921875
101		-41.015625
102		-44.921875
103		-41.015625
104		-44.921875
105		-42.968750
106		-46.875000
107		-42.968750
108		-46.875000
109		-44.921875
110		-48.828125
111		-44.921875
112		-50.781250
113		-46.875000
114		-50.781250
115		-46.875000
116		-50.781250
117		-48.828125
118		-52.734375
119		-48.828125
120		-52.734375
121		-48.828125
122		-54.687500
123		-50.781250
124		-54.687500
125		-50.781250
126		-54.687500
127		-50.781250
128		-54.687500
129		-50.781250
130		-54.687500
131		-52.734375
132		-56.640625
133		-52.734375
134		-56.640625
135		-52.734375
136		-56.640625
137		-54.687500
138		-56.640625
139		-54.687500
140		-56.640625
141		-54.687500
142		-58.593750
143		-54.687500
144		-58.593750
145		-54.687500
146		-58.593750
147		-54.687500
148		-58.593750
149		-54.687500
150		-58.593750
151		-54.687500
152		-58.593750
153		-54.687500
154		-58.593750
155		-54.687500
156		-58.593750
157		-54.687500
158		-58.593750
159		-54.687500
160		-58.593750
161		-54.687500
162		-58.593750
163		-54.687500
164		-58.593750
165		-54.687500
166		-56.640625
167		-54.687500
168		-58.593750
169		-52.734375
170		-56.640625
171		-52.734375
172		-56.640625
173		-52.734375
174		-54.687500
175		-52.734375
176		-54.687500
177		-52.734375
178		-54.687500
179		-50.781250
180		-54.687500
181		-50.781250
182		-52.734375
183		-50.781250
184		-52.734375
185		-48.828125
186		-52.734375
187		-48.828125
188		-50.781250
189		-48.828125
190		-50.781250
191		-46.875000
192		-50.781250
193		-46.875000
194		-48.828125
195		-44.921875
196		-48.828125
197		-44.921875
198		-46.875000
199		-42.968750
200		-46.875000
201		-42.968750
202		-46.875000
203		-41.015625
204		-44.921875
205		-41.015625
206		-42.968750
207		-39.062500
208		-42.968750
209		-39.062500
210		-41.015625
211		-37.109375
212		-39.062500
213		-35.156250
214		-39.062500
215		-35.156250
216		-37.109375
217		-33.203125
218		-35.156250
219		-31.250000
220		-35.156250
221		-31.250000
222		-33.203125
223		-29.296875
224		-31.250000
225		-27.343750
226		-31.250000
227		-27.343750
228		-29.296875
229		-25.390625
230		-29.296875
231		-23.437500
232		-27.343750
233		-23.437500
234		-25.390625
235		-21.484375
236		-23.437500
237		-19.531250
238		-23.437500
239		-17.578125
240		-21.484375
241		-17.578125
242		-19.531250
243		-15.625000
244		-17.578125
245		-13.671875
246		-15.625000
247		-11.718750
248		-15.625000
249		-9.765625
250		-13.671875
251		-9.765625
252		-11.718750
253		-7.812500
254		-9.765625
255		-5.859375
256		-9.765625
257		-3.906250
258		-7.812500
259		-3.906250
260		-5.859375
261		-1.953125
262		-3.906250
263		0.000000
264		-1.953125
265		1.953125
266		0.000000
267		3.906250
268		1.953125
269		3.906250
270		1.953125
271		5.859375
272		3.906250
273		7.812500
274		5.859375
275		9.765625
276		5.859375
277		11.718750
278		7.812500
279		11.718750
280		9.765625
281		15.625000
282		11.718750
283		15.625000
284		13.671875
285		17.578125
286		13.671875
287		17.578125
288		15.625000
289		19.531250
290		17.578125
291		21.484375
292		19.531250
293		23.437500
294		21.484375
295		23.437500
296		21.484375
297		25.390625
298		21.484375
299		27.343750
300		25.390625
301		29.296875
302		25.390625
303		31.250000
304		27.343750
305		31.250000
306		29.296875
307		33.203125
308		29.296875
309		33.203125
310		31.250000
311		35.156250
312		33.203125
313		37.109375
314		33.203125
315		39.062500
316		35.156250
317		39.062500
318		37.109375
319		41.015625
320		37.109375
321		41.015625
322		39.062500
323		42.968750
324		39.062500
325		42.968750
326		41.015625
327		44.921875
328		41.015625
329		44.921875
330		42.968750
331		46.875000
332		42.968750
333		46.875000
334		44.921875
335		48.828125
336		44.921875
337		48.828125
338		46.875000
339		50.781250
340		46.875000
341		52.734375
342		48.828125
343		52.734375
344		50.781250
345		52.734375
346		50.781250
347		54.687500
348		50.781250
349		54.687500
350		52.734375
351		54.687500
352		52.734375
353		56.640625
354		52.734375
355		56.640625
356		52.734375
357		56.640625
358		54.687500
359		58.593750
360		54.687500
361		58.593750
362		54.687500
363		58.593750
364		56.640625
365		60.546875
366		56.640625
367		60.546875
368		56.640625
369		60.546875
370		56.640625
371		62.500000
372		56.640625
373		62.500000
374		58.593750
375		60.546875
376		58.593750
377		62.500000
378		58.593750
379		60.546875
380		58.593750
381		62.500000
382		58.593750
383		62.500000
384		58.593750
385		62.500000
386		58.593750
387		62.500000
388		58.593750
389		62.500000
390		58.593750
391		62.500000
392		58.593750
393		62.500000
394		58.593750
395		62.500000
396		58.593750
397		62.500000
398		58.593750
399		62.500000
400		58.593750
401		60.546875
402		58.593750
403		60.546875
404		56.640625
405		60.546875
406		56.640625
407		60.546875
408		56.640625
409		60.546875
410		56.640625
411		60.546875
412		56.640625
413		60.546875
414		56.640625
415		58.593750
416		54.687500
417		58.593750
418		54.687500
419		58.593750
420		52.734375
421		58.593750
422		54.687500
423		56.640625
424		52.734375
425		56.640625
426		50.781250
427		56.640625
428		52.734375
429		54.687500
430		50.781250
431		54.687500
432		48.828125
433		52.734375
434		48.828125
435		52.734375
436		48.828125
437		50.781250
438		46.875000
439		50.781250
440		44.921875
441		50.781250
442		44.921875
443		48.828125
444		44.921875
445		48.828125
446		42.968750
447		46.875000
448		41.015625
449		46.875000
450		41.015625
451		46.875000
452		41.015625
453		42.968750
454		39.062500
455		42.968750
456		37.109375
457		41.015625
458		37.109375
459		41.015625
460		35.156250
461		39.062500
462		35.156250
463		39.062500
464		33.203125
465		37.109375
466		31.250000
467		37.109375
468		31.250000
469		33.203125
470		27.343750
471		33.203125
472		27.343750
473		31.250000
474		27.343750
475		29.296875
476		25.390625
477		29.296875
478		23.437500
479		27.343750
480		21.484375
481		25.390625
482		19.531250
483		25.390625
484		19.531250
485		23.437500
486		17.578125
487		21.484375
488		15.625000
489		21.484375
490		13.671875
491		19.531250
492		13.671875
493		17.578125
494		11.718750
495		15.625000
496		9.765625
497		13.671875
498		7.812500
499		11.718750
500		5.859375
501		11.718750
502		5.859375
503		9.765625
504		3.906250
505		7.812500
506		1.953125
507		5.859375
508		0.000000
509		3.906250
510		-1.953125
511		1.953125
512		-1.953125
513		1.953125
514		-3.906250
515		0.000000
516		-5.859375
517		-1.953125
518		-7.812500
519		-3.906250
520		-7.812500
521		-5.859375
522		-11.718750
523		-5.859375
524		-11.718750
525		-7.812500
526		-13.671875
527		-9.765625
528		-15.625000
529		-11.718750
530		-17.578125
531		-11.718750
532		-19.531250
533		-13.671875
534		-19.531250
535		-15.625000
536		-21.484375
537		-17.578125
538		-23.437500
539		-19.531250
540		-25.390625
541		-19.531250
542		-25.390625
543		-21.484375
544		-27.343750
545		-23.437500
546		-29.296875
547		-25.390625
548		-31.250000
549		-25.390625
550		-31.250000
551		-27.343750
552		-33.203125
553		-29.296875
554		-35.156250
555		-29.296875
556		-35.156250
557		-31.250000
558		-37.109375
559		-33.203125
560		-37.109375
561		-33.203125
562		-39.062500
563		-35.156250
564		-41.015625
565		-37.109375
566		-42.968750
567		-37.109375
568		-42.968750
569		-39.062500
570		-42.968750
571		-41.015625
572		-44.921875
573		-41.015625
574		-46.875000
575		-41.015625
576		-46.875000
577		-42.968750
578		-46.875000
579		-44.921875
580		-48.828125
581		-44.921875
582		-50.781250
583		-46.875000
584		-50.781250
585		-46.875000
586		-50.781250
587		-48.828125
588		-52.734375
589		-48.828125
590		-52.734375
591		-48.828125
592		-54.687500
593		-50.781250
594		-54.687500
595		-50.781250
596		-54.687500
597		-52.734375
598		-56.640625
599		-50.781250
600		-56.640625
601		-52.734375
602		-56.640625
603		-52.734375
604		-56.640625
605		-52.734375
606		-56.640625
607		-54.687500
608		-58.593750
609		-54.687500
610		-58.593750
611		-54.687500
612		-58.593750
613		-54.687500
614		-58.593750
615		-54.687500
616		-60.546875
617		-54.687500
618		-60.546875
619		-54.687500
620		-58.593750
621		-56.640625
622		-60.546875
623		-54.687500
624		-58.593750
625		-56.640625
626		-58.593750
627		-54.687500
628		-58.593750
629		-56.640625
630		-58.593750
631		-56.640625
632		-58.593750
633		-54.687500
634		-58.593750
635		-54.687500
636		-58.593750
637		-54.687500
638		-58.593750
639		-54.687500
640		-58.593750
641		-54.687500
642		-56.640625
643		-54.687500
644		-56.640625
645		-54.687500
646		-56.640625
647		-52.734375
648		-56.640625
649		-52.734375
650		-54.687500
651		-50.781250
652		-54.687500
653		-50.781250
654		-54.687500
655		-50.781250
656		-52.734375
657		-48.828125
658		-52.734375
659		-48.828125
660		-50.781250
661		-48.828125
662		-50.781250
663		-46.875000
664		-50.781250
665		-46.875000
666		-48.828125
667		-46.875000
668		-48.828125
669		-44.921875
670		-46.875000
671		-44.921875
672		-46.875000
673		-42.968750
674		-44.921875
675		-42.968750
676		-44.921875
677		-41.015625
678		-44.921875
679		-39.062500
680		-42.968750
681		-39.062500
682		-41.015625
683		-37.109375
684		-39.062500
685		-37.109375
686		-39.062500
687		-35.156250
688		-37.109375
689		-33.203125
690		-37.109375
691		-33.203125
692		-35.156250
693		-31.250000
694		-33.203125
695		-29.296875
696		-31.250000
697		-29.296875
698		-31.250000
699		-27.343750
700		-29.296875
701		-25.390625
702		-29.296875
703		-25.390625
704		-27.343750
705		-23.437500
706		-25.390625
707		-21.484375
708		-23.437500
709		-19.531250
710		-23.437500
711		-19.531250
712		-21.484375
713		-17.578125
714		-19.531250
715		-15.625000
716		-17.578125
717		-13.671875
718		-17.578125
719		-13.671875
720		-15.625000
721		-11.718750
722		-13.671875
723		-9.765625
724		-11.718750
725		-7.812500
726		-9.765625
727		-5.859375
728		-7.812500
729		-5.859375
730		-7.812500
731		-3.906250
732		-5.859375
733		-1.953125
734		-3.906250
735		0.000000
736		-1.953125
737		1.953125
738		0.000000
739		1.953125
740		1.953125
741		3.906250
742		1.953125
743		5.859375
744		3.906250
745		7.812500
746		5.859375
747		9.765625
748		5.859375
749		11.718750
750		7.812500
751		11.718750
752		9.765625
753		13.671875
754		11.718750
755		15.625000
756		13.671875
757		17.578125
758		13.671875
759		17.578125
760		15.625000
761		19.531250
762		17.578125
763		21.484375
764		17.578125
765		23.437500
766		21.484375
767		25.390625
768		21.484375
769		25.390625
770		23.437500
771		27.343750
772		25.390625
773		27.343750
774		25.390625
775		29.296875
776		27.343750
777		31.250000
778		27.343750
779		33.203125
780		29.296875
781		33.203125
782		31.250000
783		35.156250
784		33.203125
785		37.109375
786		33.203125
787		37.109375
788		35.156250
789		39.062500
790		37.109375
791		41.015625
792		37.109375
793		41.015625
794		39.062500
795		42.968750
796		39.062500
797		42.968750
798		41.015625
799		44.921875
800		41.015625
801		44.921875
802		42.968750
803		46.875000
804		44.921875
805		46.875000
806		44.921875
807		48.828125
808		46.875000
809		50.781250
810		46.875000
811		50.781250
812		48.828125
813		50.781250
814		48.828125
815		52.734375
816		48.828125
817		52.734375
818		48.828125
819		52.734375
820		50.781250
821		54.687500
822		50.781250
823		54.687500
824		52.734375
825		56.640625
826		52.734375
827		56.640625
828		52.734375
829		56.640625
830		54.687500
831		58.593750
832		54.687500
833		58.593750
834		54.687500
835		58.593750
836		54.687500
837		58.593750
838		56.640625
839		58.593750
840		56.640625
841		60.546875
842		56.640625
843		60.546875
844		58.593750
845		60.546875
846		58.593750
847		60.546875
848		58.593750
849		60.546875
850		58.593750
851		60.546875
852		58.593750
853		62.500000
854		58.593750
855		60.546875
856		58.593750
857		60.546875
858		58.593750
859		62.500000
860		58.593750
861		62.500000
862		58.593750
863		62.500000
864		58.593750
865		62.500000
866		58.593750
867		62.500000
868		58.593750
869		60.546875
870		58.593750
871		62.500000
872		58.593750
873		60.546875
874		56.640625
875		60.546875
876		56.640625
877		60.546875
878		56.640625
879		60.546875
880		56.640625
881		58.593750
882		56.640625
883		58.593750
884		54.687500
885		58.593750
886		54.687500
887		58.593750
888		54.687500
889		58.593750
890		54.687500
891		56.640625
892		52.734375
893		56.640625
894		52.734375
895		56.640625
896		52.734375
897		54.687500
898		50.781250
899		54.687500
900		50.781250
901		54.687500
902		50.781250
903		52.734375
904		48.828125
905		52.734375
906		48.828125
907		50.781250
908		46.875000
909		50.781250
910		46.875000
911		50.781250
912		44.921875
913		48.828125
914		44.921875
915		48.828125
916		42.968750
917		46.875000
918		42.968750
919		46.875000
920		41.015625
921		44.921875
922		41.015625
923		42.968750
924		39.062500
925		42.968750
926		37.109375
927		42.968750
928		37.109375
929		41.015625
930		35.156250
931		39.062500
932		35.156250
933		39.062500
934		33.203125
935		37.109375
936		31.250000
937		35.156250
938		31.250000
939		35.156250
940		29.296875
941		33.203125
942		27.343750
943		33.203125
944		27.343750
945		29.296875
946		25.390625
947		29.296875
948		23.437500
949		27.343750
950		23.437500
951		25.390625
952		21.484375
953		25.390625
954		19.531250
955		23.437500
956		17.578125
957		21.484375
958		15.625000
959		19.531250
960		13.671875
961		19.531250
962		13.671875
963		17.578125
964		11.718750
965		15.625000
966		9.765625
967		13.671875
968		9.765625
969		11.718750
970		5.859375
971		11.718750
972		5.859375
973		9.765625
974		3.906250
975		7.812500
976		1.953125
977		7.812500
978		0.000000
979		5.859375
980		-1.953125
981		3.906250
982		-1.953125
983		1.953125
984		-3.906250
985		0.000000
986		-5.859375
987		0.000000
988		-7.812500
989		-3.906250
990		-9.765625
991		-5.859375
992		-11.718750
993		-5.859375
994		-11.718750
995		-7.812500
996		-13.671875
997		-9.765625
998		-15.625000
999		-9.765625
1000		-15.625000
1001		-11.718750
1002		-17.578125
1003		-13.671875
1004		-19.531250
1005		-15.625000
1006		-21.484375
1007		-17.578125
1008		-23.437500
1009		-17.578125
1010		-23.437500
1011		-19.531250
1012		-25.390625
1013		-21.484375
1014		-27.343750
1015		-23.437500
1016		-29.296875
1017		-25.390625
1018		-31.250000
1019		-25.390625
1020		-33.203125
1021		-27.343750
1022		-33.203125
1023		-29.296875
1024		-33.203125
1025		-29.296875
1026		-35.156250
1027		-31.250000
1028		-37.109375
1029		-33.203125
1030		-39.062500
1031		-33.203125
1032		-39.062500
1033		-35.156250
1034		-41.015625
1035		-37.109375
1036		-41.015625
1037		-37.109375
1038		-42.968750
1039		-39.062500
1040		-42.968750
1041		-41.015625
1042		-46.875000
1043		-41.015625
1044		-46.875000
1045		-41.015625
1046		-46.875000
1047		-42.968750
1048		-46.875000
1049		-44.921875
1050		-48.828125
1051		-44.921875
1052		-48.828125
1053		-46.875000
1054		-50.781250
1055		-46.875000
1056		-50.781250
1057		-48.828125
1058		-52.734375
1059		-48.828125
1060		-52.734375
1061		-48.828125
1062		-54.687500
1063		-50.781250
1064		-54.687500
1065		-50.781250
1066		-54.687500
1067		-52.734375
1068		-56.640625
1069		-52.734375
1070		-56.640625
1071		-52.734375
1072		-56.640625
1073		-52.734375
1074		-56.640625
1075		-54.687500
1076		-58.593750
1077		-54.687500
1078		-58.593750
1079		-54.687500
1080		-58.593750
1081		-54.687500
1082		-58.593750
1083		-56.640625
1084		-58.593750
1085		-56.640625
1086		-58.593750
1087		-56.640625
1088		-60.546875
1089		-54.687500
1090		-58.593750
1091		-56.640625
1092		-58.593750
1093		-56.640625
1094		-60.546875
1095		-56.640625
1096		-58.593750
1097		-56.640625
1098		-60.546875
1099		-56.640625
1100		-58.593750
1101		-56.640625
1102		-60.546875
1103		-56.640625
1104		-58.593750
1105		-54.687500
1106		-58.593750
1107		-56.640625
1108		-58.593750
1109		-54.687500
1110		-58.593750
1111		-54.687500
1112		-56.640625
1113		-54.687500
1114		-56.640625
1115		-54.687500
1116		-58.593750
1117		-52.734375
1118		-56.640625
1119		-52.734375
1120		-56.640625
1121		-52.734375
1122		-56.640625
1123		-50.781250
1124		-54.687500
1125		-52.734375
1126		-54.687500
1127		-50.781250
1128		-52.734375
1129		-50.781250
1130		-52.734375
1131		-48.828125
1132		-52.734375
1133		-48.828125
1134		-50.781250
1135		-46.875000
1136		-50.781250
1137		-46.875000
1138		-48.828125
1139		-46.875000
1140		-48.828125
1141		-44.921875
1142		-46.875000
1143		-44.921875
1144		-46.875000
1145		-42.968750
1146		-44.921875
1147		-41.015625
1148		-44.921875
1149		-41.015625
1150		-42.968750
1151		-39.062500
1152		-42.968750
1153		-39.062500
1154		-41.015625
1155		-37.109375
1156		-41.015625
1157		-37.109375
1158		-39.062500
1159		-35.156250
1160		-37.109375
1161		-33.203125
1162		-35.156250
1163		-33.203125
1164		-35.156250
1165		-31.250000
1166		-33.203125
1167		-29.296875
1168		-33.203125
1169		-29.296875
1170		-31.250000
1171		-27.343750
1172		-29.296875
1173		-25.390625
1174		-27.343750
1175		-25.390625
1176		-27.343750
1177		-21.484375
1178		-27.343750
1179		-21.484375
1180		-23.437500
1181		-19.531250
1182		-21.484375
1183		-17.578125
1184		-21.484375
1185		-17.578125
1186		-19.531250
1187		-15.625000
1188		-17.578125
1189		-13.671875
1190		-15.625000
1191		-11.718750
1192		-15.625000
1193		-9.765625
1194		-13.671875
1195		-9.765625
1196		-11.718750
1197		-7.812500
1198		-9.765625
1199		-5.859375
1200		-7.812500
1201		-3.906250
1202		-7.812500
1203		-1.953125
1204		-5.859375
1205		-1.953125
1206		-3.906250
1207		0.000000
1208		-1.953125
1209		1.953125
1210		0.000000
1211		3.906250
1212		0.000000
1213		3.906250
1214		1.953125
1215		5.859375
1216		3.906250
1217		7.812500
1218		5.859375
1219		9.765625
1220		7.812500
1221		11.718750
1222		9.765625
1223		13.671875
1224		9.765625
1225		13.671875
1226		11.718750
1227		15.625000
1228		13.671875
1229		17.578125
1230		13.671875
1231		19.531250
1232		15.625000
1233		19.531250
1234		17.578125
1235		21.484375
1236		19.531250
1237		23.437500
1238		19.531250
1239		23.437500
1240		21.484375
1241		25.390625
1242		23.437500
1243		27.343750
1244		23.437500
1245		29.296875
1246		25.390625
1247		29.296875
1248		27.343750
1249		31.250000
1250		29.296875
1251		33.203125
1252		29.296875
1253		33.203125
1254		31.250000
1255		35.156250
1256		33.203125
1257		35.156250
1258		35.156250
1259		37.109375
1260		35.156250
1261		39.062500
1262		35.156250
1263		41.015625
1264		37.109375
1265		41.015625
1266		39.062500
1267		42.968750
1268		39.062500
1269		42.968750
1270		41.015625
1271		44.921875
1272		41.015625
1273		44.921875
1274		42.968750
1275		46.875000
1276		44.921875
1277		46.875000
1278		44.921875
1279		48.828125
1280		44.921875
1281		48.828125
1282		46.875000
1283		50.781250
1284		46.875000
1285		52.734375
1286		48.828125
1287		52.734375
1288		48.828125
1289		52.734375
1290		50.781250
1291		52.734375
1292		50.781250
1293		54.687500
1294		50.781250
1295		56.640625
1296		52.734375
1297		54.687500
1298		52.734375
1299		56.640625
1300		52.734375
1301		56.640625
1302		54.687500
1303		56.640625
1304		54.687500
1305		58.593750
1306		54.687500
1307		60.546875
1308		56.640625
1309		58.593750
1310		56.640625
1311		58.593750
1312		54.687500
1313		60.546875
1314		56.640625
1315		60.546875
1316		56.640625
1317		60.546875
1318		56.640625
1319		60.546875
1320		58.593750
1321		60.546875
1322		56.640625
1323		60.546875
1324		58.593750
1325		62.500000
1326		58.593750
1327		60.546875
1328		56.640625
1329		60.546875
1330		58.593750
1331		62.500000
1332		58.593750
1333		62.500000
1334		58.593750
1335		60.546875
1336		58.593750
1337		60.546875
1338		58.593750
1339		60.546875
1340		56.640625
1341		60.546875
1342		56.640625
1343		60.546875
1344		56.640625
1345		60.546875
1346		56.640625
1347		60.546875
1348		56.640625
1349		60.546875
1350		56.640625
1351		60.546875
1352		56.640625
1353		60.546875
1354		54.687500
1355		58.593750
1356		54.687500
1357		58.593750
1358		54.687500
1359		58.593750
1360		54.687500
1361		56.640625
1362		52.734375
1363		56.640625
1364		52.734375
1365		56.640625
1366		52.734375
1367		56.640625
1368		50.781250
1369		54.687500
1370		50.781250
1371		54.687500
1372		50.781250
1373		52.734375
1374		48.828125
1375		52.734375
1376		48.828125
1377		52.734375
1378		46.875000
1379		50.781250
1380		46.875000
1381		50.781250
1382		46.875000
1383		48.828125
1384		44.921875
1385		48.828125
1386		42.968750
1387		46.875000
1388		42.968750
1389		46.875000
1390		41.015625
1391		44.921875
1392		41.015625
1393		44.921875
1394		39.062500
1395		42.968750
1396		37.109375
1397		42.968750
1398		37.109375
1399		41.015625
1400		37.109375
1401		41.015625
1402		35.156250
1403		39.062500
1404		35.156250
1405		37.109375
1406		31.250000
1407		35.156250
1408		31.250000
1409		35.156250
1410		29.296875
1411		33.203125
1412		29.296875
1413		33.203125
1414		27.343750
1415		31.250000
1416		25.390625
1417		29.296875
1418		25.390625
1419		27.343750
1420		23.437500
1421		27.343750
1422		21.484375
1423		25.390625
1424		19.531250
1425		25.390625
1426		19.531250
1427		21.484375
1428		17.578125
1429		21.484375
1430		15.625000
1431		19.531250
1432		13.671875
1433		17.578125
1434		11.718750
1435		17.578125
1436		9.765625
1437		15.625000
1438		9.765625
1439		13.671875
1440		7.812500
1441		11.718750
1442		5.859375
1443		11.718750
1444		5.859375
1445		9.765625
1446		3.906250
1447		7.812500
1448		0.000000
1449		5.859375
1450		0.000000
1451		3.906250
1452		-1.953125
1453		3.906250
1454		-3.906250
1455		1.953125
1456		-5.859375
1457		0.000000
1458		-5.859375
1459		-1.953125
1460		-7.812500
1461		-3.906250
1462		-9.765625
1463		-5.859375
1464		-11.718750
1465		-5.859375
1466		-13.671875
1467		-7.812500
1468		-13.671875
1469		-9.765625
1470		-15.625000
1471		-11.718750
1472		-17.578125
1473		-13.671875
1474		-19.531250
1475		-15.625000
1476		-19.531250
1477		-15.625000
1478		-21.484375
1479		-17.578125
1480		-23.437500
1481		-19.531250
1482		-25.390625
1483		-21.484375
1484		-27.343750
1485		-21.484375
1486		-27.343750
1487		-23.437500
1488		-29.296875
1489		-25.390625
1490		-31.250000
1491		-27.343750
1492		-33.203125
1493		-27.343750
1494		-33.203125
1495		-29.296875
1496		-35.156250
1497		-31.250000
1498		-37.109375
1499		-31.250000
1500		-37.109375
1501		-33.203125
1502		-39.062500
1503		-35.156250
1504		-41.015625
1505		-35.156250
1506		-41.015625
1507		-37.109375
1508		-42.968750
1509		-39.062500
1510		-42.968750
1511		-39.062500
1512		-44.921875
1513		-41.015625
1514		-46.875000
1515		-42.968750
1516		-46.875000
1517		-42.968750
1518		-48.828125
1519		-44.921875
1520		-48.828125
1521		-44.921875
1522		-50.781250
1523		-46.875000
1524		-50.781250
1525		-46.875000
1526		-50.781250
1527		-46.875000
1528		-52.734375
1529		-48.828125
1530		-54.687500
1531		-50.781250
1532		-54.687500
1533		-48.828125
1534		-56.640625
1535		-50.781250
1536		-54.687500
1537		-52.734375
1538		-56.640625
1539		-50.781250
1540		-56.640625
1541		-52.734375
1542		-58.593750
1543		-54.687500
1544		-58.593750
1545		-54.687500
1546		-60.546875
1547		-54.687500
1548		-58.593750
1549		-54.687500
1550		-60.546875
1551		-54.687500
1552		-58.593750
1553		-56.640625
1554		-60.546875
1555		-54.687500
1556		-60.546875
1557		-56.640625
1558		-60.546875
1559		-56.640625
1560		-60.546875
1561		-56.640625
1562		-60.546875
1563		-56.640625
1564		-62.500000
1565		-56.640625
1566		-62.500000
1567		-56.640625
1568		-62.500000
1569		-54.687500
1570		-60.546875
1571		-54.687500
1572		-62.500000
1573		-56.640625
1574		-60.546875
1575		-56.640625
1576		-60.546875
1577		-56.640625
1578		-60.546875
1579		-56.640625
1580		-58.593750
1581		-56.640625
1582		-60.546875
1583		-54.687500
1584		-60.546875
1585		-52.734375
1586		-60.546875
1587		-52.734375
1588		-60.546875
1589		-52.734375
1590		-58.593750
1591		-54.687500
1592		-56.640625
1593		-52.734375
1594		-56.640625
1595		-52.734375
1596		-54.687500
1597		-52.734375
1598		-56.640625
1599		-48.828125
1600		-56.640625
1601		-48.828125
1602		-56.640625
1603		-48.828125
1604		-54.687500
1605		-46.875000
1606		-52.734375
1607		-46.875000
1608		-52.734375
1609		-46.875000
1610		-50.781250
1611		-46.875000
1612		-48.828125
1613		-44.921875
1614		-48.828125
1615		-42.968750
1616		-48.828125
1617		-42.968750
1618		-48.828125
1619		-41.015625
1620		-46.875000
1621		-41.015625
1622		-46.875000
1623		-39.062500
1624		-44.921875
1625		-37.109375
1626		-42.968750
1627		-37.109375
1628		-41.015625
1629		-37.109375
1630		-39.062500
1631		-35.156250
1632		-39.062500
1633		-33.203125
1634		-39.062500
1635		-31.250000
1636		-37.109375
1637		-29.296875
1638		-35.156250
1639		-29.296875
1640		-35.156250
1641		-27.343750
1642		-33.203125
1643		-25.390625
1644		-29.296875
1645		-27.343750
1646		-29.296875
1647		-25.390625
1648		-29.296875
1649		-21.484375
1650		-27.343750
1651		-19.531250
1652		-25.390625
1653		-19.531250
1654		-25.390625
1655		-17.578125
1656		-23.437500
1657		-15.625000
1658		-21.484375
1659		-13.671875
1660		-17.578125
1661		-13.671875
1662		-15.625000
1663		-13.671875
1664		-15.625000
1665		-9.765625
1666		-15.625000
1667		-7.812500
1668		-13.671875
1669		-5.859375
1670		-11.718750
1671		-3.906250
1672		-9.765625
1673		-3.906250
1674		-7.812500
1675		-1.953125
1676		-7.812500
1677		0.000000
1678		-3.906250
1679		0.000000
1680		-1.953125
1681		1.953125
1682		-3.906250
1683		3.906250
1684		-1.953125
1685		5.859375
1686		0.000000
1687		7.812500
1688		1.953125
1689		9.765625
1690		3.906250
1691		9.765625
1692		3.906250
1693		11.718750
1694		7.812500
1695		11.718750
1696		9.765625
1697		13.671875
1698		9.765625
1699		17.578125
1700		9.765625
1701		19.531250
1702		11.718750
1703		19.531250
1704		13.671875
1705		21.484375
1706		15.625000
1707		23.437500
1708		15.625000
1709		25.390625
1710		17.578125
1711		23.437500
1712		21.484375
1713		25.390625
1714		23.437500
1715		27.343750
1716		21.484375
1717		29.296875
1718		23.437500
1719		33.203125
1720		25.390625
1721		33.203125
1722		27.343750
1723		33.203125
1724		27.343750
1725		37.109375
1726		29.296875
1727		35.156250
1728		33.203125
1729		35.156250
1730		33.203125
1731		37.109375
1732		33.203125
1733		41.015625
1734		33.203125
1735		41.015625
1736		35.156250
1737		42.968750
1738		37.109375
1739		44.921875
1740		37.109375
1741		44.921875
1742		39.062500
1743		44.921875
1744		39.062500
1745		46.875000
1746		42.968750
1747		46.875000
1748		42.968750
1749		48.828125
1750		42.968750
1751		48.828125
1752		44.921875
1753		50.781250
1754		44.921875
1755		52.734375
1756		44.921875
1757		52.734375
1758		46.875000
1759		52.734375
1760		46.875000
1761		52.734375
1762		48.828125
1763		52.734375
1764		50.781250
1765		54.687500
1766		48.828125
1767		56.640625
1768		50.781250
1769		58.593750
1770		50.781250
1771		56.640625
1772		50.781250
1773		58.593750
1774		50.781250
1775		58.593750
1776		52.734375
1777		60.546875
1778		52.734375
1779		58.593750
1780		54.687500
1781		58.593750
1782		54.687500
1783		58.593750
1784		54.687500
1785		60.546875
1786		54.687500
1787		60.546875
1788		54.687500
1789		60.546875
1790		54.687500
1791		60.546875
1792		56.640625
1793		60.546875
1794		56.640625
1795		60.546875
1796		56.640625
1797		60.546875
1798		56.640625
1799		60.546875
1800		54.687500
1801		62.500000
1802		54.687500
1803		62.500000
1804		54.687500
1805		62.500000
1806		54.687500
1807		62.500000
1808		54.687500
1809		62.500000
1810		54.687500
1811		62.500000
1812		56.640625
1813		60.546875
1814		56.640625
1815		60.546875
1816		54.687500
1817		60.546875
1818		54.687500
1819		60.546875
1820		54.687500
1821		60.546875
1822		54.687500
1823		60.546875
1824		52.734375
1825		60.546875
1826		52.734375
1827		60.546875
1828		52.734375
1829		58.593750
1830		54.687500
1831		56.640625
1832		50.781250
1833		56.640625
1834		50.781250
1835		58.593750
1836		50.781250
1837		56.640625
1838		48.828125
1839		56.640625
1840		48.828125
1841		56.640625
1842		46.875000
1843		54.687500
1844		46.875000
1845		54.687500
1846		46.875000
1847		52.734375
1848		48.828125
1849		50.781250
1850		44.921875
1851		50.781250
1852		44.921875
1853		50.781250
1854		42.968750
1855		50.781250
1856		42.968750
1857		48.828125
1858		41.015625
1859		48.828125
1860		39.062500
1861		46.875000
1862		41.015625
1863		44.921875
1864		39.062500
1865		42.968750
1866		39.062500
1867		42.968750
1868		35.156250
1869		42.968750
1870		35.156250
1871		41.015625
1872		33.203125
1873		41.015625
1874		31.250000
1875		39.062500
1876		31.250000
1877		39.062500
1878		29.296875
1879		37.109375
1880		29.296875
1881		33.203125
1882		29.296875
1883		33.203125
1884		25.390625
1885		33.203125
1886		23.437500
1887		31.250000
1888		23.437500
1889		31.250000
1890		21.484375
1891		29.296875
1892		19.531250
1893		27.343750
1894		17.578125
1895		25.390625
1896		19.531250
1897		23.437500
1898		17.578125
1899		21.484375
1900		13.671875
1901		21.484375
1902		11.718750
1903		19.531250
1904		11.718750
1905		19.531250
1906		9.765625
1907		17.578125
1908		7.812500
1909		15.625000
1910		5.859375
1911		13.671875
1912		5.859375
1913		11.718750
1914		5.859375
1915		9.765625
1916		1.953125
1917		7.812500
1918		0.000000
1919		5.859375
1920		0.000000
1921		5.859375
1922		-3.906250
1923		5.859375
1924		-3.906250
1925		1.953125
1926		-5.859375
1927		1.953125
1928		-7.812500
1929		0.000000
1930		-7.812500
1931		-3.906250
1932		-9.765625
1933		-5.859375
1934		-13.671875
1935		-5.859375
1936		-13.671875
1937		-5.859375
1938		-15.625000
1939		-7.812500
1940		-17.578125
1941		-9.765625
1942		-19.531250
1943		-11.718750
1944		-21.484375
1945		-11.718750
1946		-19.531250
1947		-15.625000
1948		-21.484375
1949		-17.578125
1950		-25.390625
1951		-17.578125
1952		-27.343750
1953		-19.531250
1954		-27.343750
1955		-21.484375
1956		-29.296875
1957		-21.484375
1958		-31.250000
1959		-23.437500
1960		-33.203125
1961		-25.390625
1962		-33.203125
1963		-27.343750
1964		-33.203125
1965		-29.296875
1966		-35.156250
1967		-29.296875
1968		-39.062500
1969		-31.250000
1970		-39.062500
1971		-31.250000
1972		-41.015625
1973		-33.203125
1974		-41.015625
1975		-35.156250
1976		-42.968750
1977		-35.156250
1978		-42.968750
1979		-37.109375
1980		-42.968750
1981		-39.062500
1982		-44.921875
1983		-41.015625
1984		-46.875000
1985		-41.015625
1986		-48.828125
1987		-41.015625
1988		-50.781250
1989		-42.968750
1990		-50.781250
1991		-42.968750
1992		-50.781250
1993		-44.921875
1994		-52.734375
1995		-44.921875
1996		-52.734375
1997		-46.875000
1998		-52.734375
1999		-48.828125
2000		-54.687500
2001		-48.828125
2002		-56.640625
2003		-48.828125
2004		-56.640625
2005		-48.828125
2006		-58.593750
2007		-50.781250
2008		-58.593750
2009		-50.781250
2010		-58.593750
2011		-52.734375
2012		-58.593750
2013		-52.734375
2014		-58.593750
2015		-54.687500
2016		-58.593750
2017		-54.687500
2018		-60.546875
2019		-54.687500
2020		-60.546875
2021		-52.734375
2022		-62.500000
2023		-54.687500
2024		-62.500000
2025		-54.687500
2026		-62.500000
2027		-54.687500
2028		-62.500000
2029		-54.687500
2030		-60.546875
2031		-56.640625
2032		-60.546875
2033		-56.640625
2034		-62.500000
2035		-56.640625
2036		-62.500000
2037		-56.640625
2038		-62.500000
2039		-54.687500
2040		-62.500000
2041		-54.687500
2042		-62.500000
2043		-54.687500
2044		-62.500000
2045		-54.687500
2046		-62.500000
2047		-54.687500
2048		-60.546875
2049		-56.640625
2050		-60.546875
2051		-56.640625
2052		-60.546875
2053		-54.687500
2054		-60.546875
2055		-54.687500
2056		-60.546875
2057		-54.687500
2058		-60.546875
2059		-52.734375
2060		-60.546875
2061		-52.734375
2062		-58.593750
2063		-52.734375
2064		-58.593750
2065		-52.734375
2066		-56.640625
2067		-52.734375
2068		-56.640625
2069		-50.781250
2070		-56.640625
2071		-50.781250
2072		-56.640625
2073		-48.828125
2074		-54.687500
2075		-48.828125
2076		-54.687500
2077		-46.875000
2078		-54.687500
2079		-46.875000
2080		-52.734375
2081		-46.875000
2082		-48.828125
2083		-44.921875
2084		-48.828125
2085		-42.968750
2086		-50.781250
2087		-42.968750
2088		-48.828125
2089		-41.015625
2090		-48.828125
2091		-41.015625
2092		-46.875000
2093		-39.062500
2094		-44.921875
2095		-37.109375
2096		-44.921875
2097		-37.109375
2098		-41.015625
2099		-37.109375
2100		-39.062500
2101		-37.109375
2102		-41.015625
2103		-33.203125
2104		-39.062500
2105		-31.250000
2106		-37.109375
2107		-31.250000
2108		-37.109375
2109		-29.296875
2110		-35.156250
2111		-27.343750
2112		-33.203125
2113		-27.343750
2114		-33.203125
2115		-25.390625
2116		-29.296875
2117		-25.390625
2118		-29.296875
2119		-23.437500
2120		-29.296875
2121		-21.484375
2122		-27.343750
2123		-19.531250
2124		-25.390625
2125		-17.578125
2126		-25.390625
2127		-17.578125
2128		-23.437500
2129		-15.625000
2130		-21.484375
2131		-15.625000
2132		-17.578125
2133		-13.671875
2134		-15.625000
2135		-11.718750
2136		-17.578125
2137		-9.765625
2138		-15.625000
2139		-7.812500
2140		-13.671875
2141		-5.859375
2142		-11.718750
2143		-3.906250
2144		-11.718750
2145		-1.953125
2146		-7.812500
2147		0.000000
2148		-7.812500
2149		-1.953125
2150		-3.906250
2151		0.000000
2152		-3.906250
2153		3.906250
2154		-1.953125
2155		5.859375
2156		-1.953125
2157		5.859375
2158		0.000000
2159		9.765625
2160		1.953125
2161		9.765625
2162		3.906250
2163		11.718750
2164		3.906250
2165		11.718750
2166		7.812500
2167		13.671875
2168		9.765625
2169		15.625000
2170		9.765625
2171		17.578125
2172		11.718750
2173		19.531250
2174		13.671875
2175		21.484375
2176		13.671875
2177		23.437500
2178		15.625000
2179		23.437500
2180		17.578125
2181		23.437500
2182		21.484375
2183		25.390625
2184		21.484375
2185		25.390625
2186		21.484375
2187		29.296875
2188		23.437500
2189		31.250000
2190		23.437500
2191		31.250000
2192		25.390625
2193		33.203125
2194		27.343750
2195		35.156250
2196		29.296875
2197		35.156250
2198		29.296875
2199		35.156250
2200		33.203125
2201		37.109375
2202		33.203125
2203		39.062500
2204		33.203125
2205		41.015625
2206		33.203125
2207		41.015625
2208		35.156250
2209		42.968750
2210		37.109375
2211		44.921875
2212		37.109375
2213		44.921875
2214		39.062500
2215		44.921875
2216		41.015625
2217		44.921875
2218		42.968750
2219		46.875000
2220		41.015625
2221		48.828125
2222		41.015625
2223		50.781250
2224		42.968750
2225		50.781250
2226		44.921875
2227		52.734375
2228		44.921875
2229		52.734375
2230		46.875000
2231		52.734375
2232		46.875000
2233		52.734375
2234		48.828125
2235		52.734375
2236		48.828125
2237		54.687500
2238		48.828125
2239		56.640625
2240		50.781250
2241		56.640625
2242		50.781250
2243		56.640625
2244		50.781250
2245		56.640625
2246		50.781250
2247		58.593750
2248		52.734375
2249		58.593750
2250		54.687500
2251		58.593750
2252		52.734375
2253		60.546875
2254		52.734375
2255		60.546875
2256		54.687500
2257		60.546875
2258		54.687500
2259		60.546875
2260		54.687500
2261		60.546875
2262		54.687500
2263		60.546875
2264		54.687500
2265		60.546875
2266		56.640625
2267		60.546875
2268		56.640625
2269		60.546875
2270		54.687500
2271		60.546875
2272		54.687500
2273		60.546875
2274		54.687500
2275		62.500000
2276		54.687500
2277		60.546875
2278		54.687500
2279		62.500000
2280		54.687500
2281		62.500000
2282		54.687500
2283		60.546875
2284		56.640625
2285		60.546875
2286		54.687500
2287		60.546875
2288		54.687500
2289		60.546875
2290		52.734375
2291		60.546875
2292		52.734375
2293		60.546875
2294		52.734375
2295		60.546875
2296		52.734375
2297		60.546875
2298		52.734375
2299		58.593750
2300		54.687500
2301		56.640625
2302		52.734375
2303		56.640625
2304		50.781250
2305		58.593750
2306		48.828125
2307		56.640625
2308		48.828125
2309		56.640625
2310		48.828125
2311		56.640625
2312		46.875000
2313		54.687500
2314		46.875000
2315		54.687500
2316		48.828125
2317		52.734375
2318		48.828125
2319		50.781250
2320		44.921875
2321		52.734375
2322		44.921875
2323		50.781250
2324		42.968750
2325		50.781250
2326		41.015625
2327		48.828125
2328		41.015625
2329		48.828125
2330		41.015625
2331		46.875000
2332		39.062500
2333		46.875000
2334		39.062500
2335		42.968750
2336		37.109375
2337		42.968750
2338		37.109375
2339		42.968750
2340		33.203125
2341		42.968750
2342		33.203125
2343		41.015625
2344		31.250000
2345		39.062500
2346		31.250000
2347		37.109375
2348		29.296875
2349		37.109375
2350		31.250000
2351		33.203125
2352		29.296875
2353		33.203125
2354		25.390625
2355		33.203125
2356		25.390625
2357		33.203125
2358		23.437500
2359		31.250000
2360		21.484375
2361		29.296875
2362		19.531250
2363		27.343750
2364		19.531250
2365		25.390625
2366		17.578125
2367		25.390625
2368		17.578125
2369		21.484375
2370		13.671875
2371		19.531250
2372		13.671875
2373		19.531250
2374		9.765625
2375		19.531250
2376		9.765625
2377		17.578125
2378		7.812500
2379		15.625000
2380		5.859375
2381		13.671875
2382		5.859375
2383		11.718750
2384		5.859375
2385		9.765625
2386		3.906250
2387		7.812500
2388		0.000000
2389		7.812500
2390		0.000000
2391		5.859375
2392		-1.953125
2393		3.906250
2394		-3.906250
2395		1.953125
2396		-5.859375
2397		1.953125
2398		-7.812500
2399		0.000000
2400		-7.812500
2401		-1.953125
2402		-9.765625
2403		-5.859375
2404		-11.718750
2405		-5.859375
2406		-13.671875
2407		-5.859375
2408		-15.625000
2409		-7.812500
2410		-17.578125
2411		-9.765625
2412		-17.578125
2413		-11.718750
2414		-21.484375
2415		-11.718750
2416		-21.484375
2417		-13.671875
2418		-21.484375
2419		-17.578125
2420		-23.437500
2421		-19.531250
2422		-25.390625
2423		-19.531250
2424		-27.343750
2425		-19.531250
2426		-29.296875
2427		-21.484375
2428		-31.250000
2429		-23.437500
2430		-33.203125
2431		-25.390625
2432		-33.203125
2433		-25.390625
2434		-33.203125
2435		-29.296875
2436		-35.156250
2437		-29.296875
2438		-37.109375
2439		-31.250000
2440		-39.062500
2441		-31.250000
2442		-41.015625
2443		-33.203125
2444		-41.015625
2445		-33.203125
2446		-42.968750
2447		-37.109375
2448		-44.921875
2449		-37.109375
2450		-44.921875
2451		-39.062500
2452		-44.921875
2453		-41.015625
2454		-46.875000
2455		-41.015625
2456		-48.828125
2457		-41.015625
2458		-48.828125
2459		-42.968750
2460		-50.781250
2461		-42.968750
2462		-52.734375
2463		-44.921875
2464		-52.734375
2465		-44.921875
2466		-52.734375
2467		-46.875000
2468		-52.734375
2469		-48.828125
2470		-52.734375
2471		-50.781250
2472		-56.640625
2473		-48.828125
2474		-56.640625
2475		-50.781250
2476		-58.593750
2477		-50.781250
2478		-58.593750
2479		-50.781250
2480		-58.593750
2481		-52.734375
2482		-60.546875
2483		-52.734375
2484		-60.546875
2485		-54.687500
2486		-58.593750
2487		-54.687500
2488		-60.546875
2489		-54.687500
2490		-62.500000
2491		-54.687500
2492		-62.500000
2493		-54.687500
2494		-62.500000
2495		-56.640625
2496		-62.500000
2497		-56.640625
2498		-62.500000
2499		-56.640625
2500		-64.453125
2501		-56.640625
2502		-60.546875
2503		-58.593750
2504		-60.546875
2505		-58.593750
2506		-64.453125
2507		-56.640625
2508		-62.500000
2509		-56.640625
2510		-64.453125
2511		-56.640625
2512		-64.453125
2513		-56.640625
2514		-62.500000
2515		-56.640625
2516		-62.500000
2517		-56.640625
2518		-60.546875
2519		-58.593750
2520		-60.546875
2521		-58.593750
2522		-62.500000
2523		-56.640625
2524		-62.500000
2525		-56.640625
2526		-62.500000
2527		-54.687500
2528		-62.500000
2529		-54.687500
2530		-60.546875
2531		-54.687500
2532		-60.546875
2533		-54.687500
2534		-60.546875
2535		-54.687500
2536		-58.593750
2537		-54.687500
2538		-56.640625
2539		-52.734375
2540		-58.593750
2541		-50.781250
2542		-58.593750
2543		-50.781250
2544		-56.640625
2545		-48.828125
2546		-54.687500
2547		-48.828125
2548		-54.687500
2549		-48.828125
2550		-54.687500
2551		-46.875000
2552		-50.781250
2553		-48.828125
2554		-50.781250
2555		-46.875000
2556		-50.781250
2557		-44.921875
2558		-50.781250
2559		-42.968750
2560		-50.781250
2561		-42.968750
2562		-48.828125
2563		-41.015625
2564		-46.875000
2565		-41.015625
2566		-44.921875
2567		-39.062500
2568		-44.921875
2569		-39.062500
2570		-41.015625
2571		-37.109375
2572		-41.015625
2573		-35.156250
2574		-41.015625
2575		-35.156250
2576		-41.015625
2577		-33.203125
2578		-39.062500
2579		-31.250000
2580		-37.109375
2581		-29.296875
2582		-35.156250
2583		-27.343750
2584		-33.203125
2585		-27.343750
2586		-31.250000
2587		-27.343750
2588		-29.296875
2589		-25.390625
2590		-29.296875
2591		-21.484375
2592		-27.343750
2593		-21.484375
2594		-27.343750
2595		-21.484375
2596		-25.390625
2597		-19.531250
2598		-25.390625
2599		-17.578125
2600		-23.437500
2601		-15.625000
2602		-19.531250
2603		-15.625000
2604		-17.578125
2605		-13.671875
2606		-17.578125
2607		-11.718750
2608		-15.625000
2609		-9.765625
2610		-13.671875
2611		-7.812500
2612		-13.671875
2613		-5.859375
2614		-11.718750
2615		-3.906250
2616		-9.765625
2617		-3.906250
2618		-7.812500
2619		-1.953125
2620		-5.859375
2621		-1.953125
2622		-3.906250
2623		0.000000
2624		-3.906250
2625		3.906250
2626		-1.953125
2627		5.859375
2628		0.000000
2629		5.859375
2630		0.000000
2631		7.812500
2632		1.953125
2633		9.765625
2634		3.906250
2635		9.765625
2636		7.812500
2637		11.718750
2638		7.812500
2639		11.718750
2640		9.765625
2641		15.625000
2642		9.765625
2643		17.578125
2644		11.718750
2645		19.531250
2646		11.718750
2647		19.531250
2648		15.625000
2649		21.484375
2650		15.625000
2651		23.437500
2652		17.578125
2653		23.437500
2654		21.484375
2655		23.437500
2656		21.484375
2657		27.343750
2658		21.484375
2659		29.296875
2660		21.484375
2661		31.250000
2662		23.437500
2663		31.250000
2664		25.390625
2665		33.203125
2666		27.343750
2667		33.203125
2668		29.296875
2669		35.156250
2670		31.250000
2671		35.156250
2672		33.203125
2673		37.109375
2674		31.250000
2675		39.062500
2676		33.203125
2677		41.015625
2678		33.203125
2679		41.015625
2680		35.156250
2681		42.968750
2682		37.109375
2683		42.968750
2684		37.109375
2685		44.921875
2686		39.062500
2687		44.921875
2688		41.015625
2689		44.921875
2690		41.015625
2691		46.875000
2692		41.015625
2693		48.828125
2694		42.968750
2695		48.828125
2696		42.968750
2697		50.781250
2698		42.968750
2699		50.781250
2700		44.921875
2701		52.734375
2702		46.875000
2703		52.734375
2704		48.828125
2705		52.734375
2706		48.828125
2707		54.687500
2708		48.828125
2709		56.640625
2710		48.828125
2711		56.640625
2712		48.828125
2713		56.640625
2714		48.828125
2715		58.593750
2716		50.781250
2717		56.640625
2718		50.781250
2719		58.593750
2720		52.734375
2721		56.640625
2722		54.687500
2723		56.640625
2724		52.734375
2725		58.593750
2726		52.734375
2727		60.546875
2728		52.734375
2729		60.546875
2730		52.734375
2731		60.546875
2732		54.687500
2733		60.546875
2734		54.687500
2735		60.546875
2736		54.687500
2737		60.546875
2738		54.687500
2739		60.546875
2740		56.640625
2741		60.546875
2742		54.687500
2743		62.500000
2744		54.687500
2745		62.500000
2746		54.687500
2747		60.546875
2748		54.687500
2749		60.546875
2750		54.687500
2751		60.546875
2752		54.687500
2753		60.546875
2754		56.640625
2755		58.593750
2756		56.640625
2757		58.593750
2758		54.687500
2759		60.546875
2760		54.687500
2761		60.546875
2762		52.734375
2763		60.546875
2764		52.734375
2765		58.593750
2766		52.734375
2767		60.546875
2768		52.734375
2769		58.593750
2770		52.734375
2771		58.593750
2772		52.734375
2773		56.640625
2774		50.781250
2775		56.640625
2776		50.781250
2777		56.640625
2778		48.828125
2779		56.640625
2780		48.828125
2781		56.640625
2782		46.875000
2783		54.687500
2784		46.875000
2785		54.687500
2786		46.875000
2787		52.734375
2788		48.828125
2789		50.781250
2790		44.921875
2791		50.781250
2792		44.921875
2793		50.781250
2794		42.968750
2795		50.781250
2796		42.968750
2797		50.781250
2798		41.015625
2799		48.828125
2800		41.015625
2801		48.828125
2802		39.062500
2803		46.875000
2804		41.015625
2805		42.968750
2806		39.062500
2807		42.968750
2808		37.109375
2809		42.968750
2810		35.156250
2811		42.968750
2812		33.203125
2813		41.015625
2814		33.203125
2815		41.015625
2816		31.250000
2817		39.062500
2818		31.250000
2819		37.109375
2820		31.250000
2821		37.109375
2822		29.296875
2823		33.203125
2824		25.390625
2825		33.203125
2826		25.390625
2827		33.203125
2828		23.437500
2829		31.250000
2830		23.437500
2831		29.296875
2832		21.484375
2833		29.296875
2834		19.531250
2835		27.343750
2836		19.531250
2837		25.390625
2838		17.578125
2839		21.484375
2840		17.578125
2841		21.484375
2842		13.671875
2843		21.484375
2844		11.718750
2845		19.531250
2846		9.765625
2847		17.578125
2848		9.765625
2849		17.578125
2850		7.812500
2851		15.625000
2852		5.859375
2853		13.671875
2854		5.859375
2855		11.718750
2856		3.906250
2857		9.765625
2858		1.953125
2859		7.812500
2860		0.000000
2861		7.812500
2862		-1.953125
2863		5.859375
2864		-3.906250
2865		3.906250
2866		-5.859375
2867		1.953125
2868		-5.859375
2869		0.000000
2870		-7.812500
2871		0.000000
2872		-7.812500
2873		-3.906250
2874		-9.765625
2875		-5.859375
2876		-13.671875
2877		-5.859375
2878		-15.625000
2879		-7.812500
2880		-15.625000
2881		-9.765625
2882		-17.578125
2883		-9.765625
2884		-19.531250
2885		-11.718750
2886		-21.484375
2887		-13.671875
2888		-19.531250
2889		-17.578125
2890		-21.484375
2891		-17.578125
2892		-25.390625
2893		-17.578125
2894		-27.343750
2895		-19.531250
2896		-27.343750
2897		-21.484375
2898		-31.250000
2899		-23.437500
2900		-31.250000
2901		-23.437500
2902		-33.203125
2903		-25.390625
2904		-33.203125
2905		-27.343750
2906		-33.203125
2907		-29.296875
2908		-37.109375
2909		-31.250000
2910		-39.062500
2911		-31.250000
2912		-41.015625
2913		-33.203125
2914		-41.015625
2915		-33.203125
2916		-41.015625
2917		-35.156250
2918		-42.968750
2919		-35.156250
2920		-42.968750
2921		-37.109375
2922		-42.968750
2923		-41.015625
2924		-44.921875
2925		-41.015625
2926		-48.828125
2927		-41.015625
2928		-48.828125
2929		-41.015625
2930		-50.781250
2931		-41.015625
2932		-50.781250
2933		-42.968750
2934		-52.734375
2935		-44.921875
2936		-52.734375
2937		-46.875000
2938		-52.734375
2939		-46.875000
2940		-52.734375
2941		-48.828125
2942		-56.640625
2943		-48.828125
2944		-56.640625
2945		-48.828125
2946		-56.640625
2947		-50.781250
2948		-58.593750
2949		-50.781250
2950		-58.593750
2951		-50.781250
2952		-58.593750
2953		-52.734375
2954		-58.593750
2955		-52.734375
2956		-58.593750
2957		-54.687500
2958		-60.546875
2959		-54.687500
2960		-60.546875
2961		-54.687500
2962		-60.546875
2963		-54.687500
2964		-62.500000
2965		-54.687500
2966		-62.500000
2967		-54.687500
2968		-62.500000
2969		-54.687500
2970		-62.500000
2971		-56.640625
2972		-60.546875
2973		-58.593750
2974		-60.546875
2975		-58.593750
2976		-62.500000
2977		-56.640625
2978		-62.500000
2979		-54.687500
2980		-64.453125
2981		-56.640625
2982		-64.453125
2983		-56.640625
2984		-62.500000
2985		-56.640625
2986		-62.500000
2987		-56.640625
2988		-62.500000
2989		-56.640625
2990		-60.546875
2991		-58.593750
2992		-60.546875
2993		-56.640625
2994		-62.500000
2995		-54.687500
2996		-62.500000
2997		-54.687500
2998		-62.500000
2999		-52.734375
3000		-60.546875
3001		-52.734375
3002		-60.546875
3003		-52.734375
3004		-60.546875
3005		-52.734375
3006		-56.640625
3007		-54.687500
3008		-56.640625
3009		-52.734375
3010		-58.593750
3011		-50.781250
3012		-58.593750
3013		-50.781250
3014		-56.640625
3015		-48.828125
3016		-56.640625
3017		-48.828125
3018		-54.687500
3019		-48.828125
3020		-54.687500
3021		-46.875000
3022		-52.734375
3023		-46.875000
3024		-50.781250
3025		-46.875000
3026		-50.781250
3027		-44.921875
3028		-50.781250
3029		-42.968750
3030		-48.828125
3031		-42.968750
3032		-48.828125
3033		-41.015625
3034		-46.875000
3035		-41.015625
3036		-46.875000
3037		-39.062500
3038		-44.921875
3039		-39.062500
3040		-42.968750
3041		-39.062500
3042		-41.015625
3043		-37.109375
3044		-41.015625
3045		-33.203125
3046		-41.015625
3047		-33.203125
3048		-39.062500
3049		-31.250000
3050		-37.109375
3051		-31.250000
3052		-37.109375
3053		-29.296875
3054		-35.156250
3055		-27.343750
3056		-31.250000
3057		-27.343750
3058		-29.296875
3059		-27.343750
3060		-31.250000
3061		-23.437500
3062		-29.296875
3063		-21.484375
3064		-27.343750
3065		-19.531250
3066		-27.343750
3067		-19.531250
3068		-25.390625
3069		-17.578125
3070		-23.437500
3071		-15.625000
3072		-21.484375
3073		-15.625000
3074		-19.531250
3075		-15.625000
3076		-17.578125
3077		-11.718750
3078		-17.578125
3079		-9.765625
3080		-15.625000
3081		-7.812500
3082		-13.671875
3083		-5.859375
3084		-13.671875
3085		-5.859375
3086		-11.718750
3087		-3.906250
3088		-9.765625
3089		-1.953125
3090		-5.859375
3091		-1.953125
3092		-5.859375
3093		0.000000
3094		-3.906250
3095		1.953125
3096		-3.906250
3097		3.906250
3098		-1.953125
3099		5.859375
3100		0.000000
3101		7.812500
3102		1.953125
3103		9.765625
3104		3.906250
3105		11.718750
3106		3.906250
3107		9.765625
3108		7.812500
3109		11.718750
3110		7.812500
3111		15.625000
3112		9.765625
3113		17.578125
3114		9.765625
3115		17.578125
3116		11.718750
3117		19.531250
3118		13.671875
3119		21.484375
3120		15.625000
3121		23.437500
3122		15.625000
3123		23.437500
3124		19.531250
3125		23.437500
3126		21.484375
3127		25.390625
3128		21.484375
3129		27.343750
3130		21.484375
3131		29.296875
3132		23.437500
3133		31.250000
3134		25.390625
3135		31.250000
3136		25.390625
3137		33.203125
3138		27.343750
3139		35.156250
3140		31.250000
3141		35.156250
3142		31.250000
3143		35.156250
3144		31.250000
3145		37.109375
3146		33.203125
3147		41.015625
3148		33.203125
3149		41.015625
3150		35.156250
3151		42.968750
3152		35.156250
3153		42.968750
3154		37.109375
3155		44.921875
3156		37.109375
3157		44.921875
3158		41.015625
3159		44.921875
3160		41.015625
3161		46.875000
3162		41.015625
3163		48.828125
3164		41.015625
3165		48.828125
3166		42.968750
3167		50.781250
3168		42.968750
3169		50.781250
3170		44.921875
3171		52.734375
3172		44.921875
3173		52.734375
3174		48.828125
3175		52.734375
3176		48.828125
3177		52.734375
3178		48.828125
3179		54.687500
3180		48.828125
3181		56.640625
3182		48.828125
3183		56.640625
3184		50.781250
3185		56.640625
3186		50.781250
3187		56.640625
3188		50.781250
3189		58.593750
3190		52.734375
3191		58.593750
3192		54.687500
3193		56.640625
3194		52.734375
3195		58.593750
3196		52.734375
3197		60.546875
3198		52.734375
3199		60.546875
3200		54.687500
3201		60.546875
3202		52.734375
3203		60.546875
3204		54.687500
3205		60.546875
3206		54.687500
3207		60.546875
3208		56.640625
3209		58.593750
3210		54.687500
3211		60.546875
3212		54.687500
3213		62.500000
3214		54.687500
3215		62.500000
3216		54.687500
3217		62.500000
3218		54.687500
3219		62.500000
3220		54.687500
3221		62.500000
3222		54.687500
3223		62.500000
3224		56.640625
3225		60.546875
3226		56.640625
3227		60.546875
3228		54.687500
3229		60.546875
3230		54.687500
3231		60.546875
3232		52.734375
3233		60.546875
3234		52.734375
3235		60.546875
3236		52.734375
3237		60.546875
3238		52.734375
3239		58.593750
3240		52.734375
3241		58.593750
3242		52.734375
3243		56.640625
3244		50.781250
3245		56.640625
3246		50.781250
3247		56.640625
3248		50.781250
3249		58.593750
3250		48.828125
3251		54.687500
3252		48.828125
3253		54.687500
3254		48.828125
3255		54.687500
3256		46.875000
3257		54.687500
3258		48.828125
3259		52.734375
3260		46.875000
3261		50.781250
3262		44.921875
3263		50.781250
3264		42.968750
3265		50.781250
3266		42.968750
3267		50.781250
3268		41.015625
3269		48.828125
3270		41.015625
3271		48.828125
3272		39.062500
3273		46.875000
3274		41.015625
3275		46.875000
3276		41.015625
3277		42.968750
3278		37.109375
3279		44.921875
3280		35.156250
3281		42.968750
3282		33.203125
3283		41.015625
3284		33.203125
3285		41.015625
3286		31.250000
3287		39.062500
3288		31.250000
3289		39.062500
3290		31.250000
3291		37.109375
3292		31.250000
3293		33.203125
3294		27.343750
3295		33.203125
3296		25.390625
3297		33.203125
3298		23.437500
3299		31.250000
3300		23.437500
3301		31.250000
3302		21.484375
3303		29.296875
3304		19.531250
3305		27.343750
3306		17.578125
3307		27.343750
3308		19.531250
3309		23.437500
3310		17.578125
3311		21.484375
3312		15.625000
3313		21.484375
3314		11.718750
3315		21.484375
3316		11.718750
3317		19.531250
3318		9.765625
3319		17.578125
3320		7.812500
3321		15.625000
3322		7.812500
3323		13.671875
3324		5.859375
3325		11.718750
3326		5.859375
3327		9.765625
3328		1.953125
3329		7.812500
3330		0.000000
3331		7.812500
3332		-1.953125
3333		5.859375
3334		-3.906250
3335		5.859375
3336		-3.906250
3337		3.906250
3338		-5.859375
3339		1.953125
3340		-7.812500
3341		0.000000
3342		-7.812500
3343		-3.906250
3344		-7.812500
3345		-3.906250
3346		-11.718750
3347		-3.906250
3348		-13.671875
3349		-5.859375
3350		-13.671875
3351		-7.812500
3352		-17.578125
3353		-9.765625
3354		-17.578125
3355		-9.765625
3356		-19.531250
3357		-11.718750
3358		-19.531250
3359		-13.671875
3360		-21.484375
3361		-17.578125
3362		-25.390625
3363		-19.531250
3364		-27.343750
3365		-17.578125
3366		-27.343750
3367		-19.531250
3368		-29.296875
3369		-21.484375
3370		-31.250000
3371		-23.437500
3372		-31.250000
3373		-23.437500
3374		-33.203125
3375		-25.390625
3376		-33.203125
3377		-29.296875
3378		-33.203125
3379		-31.250000
3380		-37.109375
3381		-29.296875
3382		-39.062500
3383		-31.250000
3384		-41.015625
3385		-33.203125
3386		-41.015625
3387		-33.203125
3388		-42.968750
3389		-35.156250
3390		-44.921875
3391		-37.109375
3392		-42.968750
3393		-39.062500
3394		-44.921875
3395		-41.015625
3396		-46.875000
3397		-41.015625
3398		-48.828125
3399		-41.015625
3400		-48.828125
3401		-42.968750
3402		-50.781250
3403		-42.968750
3404		-50.781250
3405		-44.921875
3406		-52.734375
3407		-44.921875
3408		-52.734375
3409		-44.921875
3410		-52.734375
3411		-48.828125
3412		-54.687500
3413		-48.828125
3414		-56.640625
3415		-48.828125
3416		-56.640625
3417		-48.828125
3418		-56.640625
3419		-50.781250
3420		-58.593750
3421		-50.781250
3422		-58.593750
3423		-50.781250
3424		-60.546875
3425		-50.781250
3426		-58.593750
3427		-54.687500
3428		-58.593750
3429		-54.687500
3430		-60.546875
3431		-54.687500
3432		-60.546875
3433		-54.687500
3434		-62.500000
3435		-54.687500
3436		-62.500000
3437		-54.687500
3438		-62.500000
3439		-54.687500
3440		-62.500000
3441		-54.687500
3442		-62.500000
3443		-54.687500
3444		-60.546875
3445		-58.593750
3446		-62.500000
3447		-56.640625
3448		-64.453125
3449		-56.640625
3450		-64.453125
3451		-56.640625
3452		-62.500000
3453		-56.640625
3454		-64.453125
3455		-56.640625
3456		-62.500000
3457		-56.640625
3458		-62.500000
3459		-56.640625
3460		-60.546875
3461		-58.593750
3462		-60.546875
3463		-56.640625
3464		-60.546875
3465		-54.687500
3466		-60.546875
3467		-54.687500
3468		-60.546875
3469		-54.687500
3470		-60.546875
3471		-54.687500
3472		-60.546875
3473		-54.687500
3474		-58.593750
3475		-52.734375
3476		-56.640625
3477		-54.687500
3478		-56.640625
3479		-54.687500
3480		-58.593750
3481		-50.781250
3482		-56.640625
3483		-50.781250
3484		-56.640625
3485		-48.828125
3486		-56.640625
3487		-48.828125
3488		-56.640625
3489		-48.828125
3490		-54.687500
3491		-46.875000
3492		-52.734375
3493		-46.875000
3494		-50.781250
3495		-46.875000
3496		-50.781250
3497		-46.875000
3498		-52.734375
3499		-42.968750
3500		-48.828125
3501		-42.968750
3502		-48.828125
3503		-41.015625
3504		-48.828125
3505		-41.015625
3506		-46.875000
3507		-39.062500
3508		-44.921875
3509		-37.109375
3510		-42.968750
3511		-39.062500
3512		-41.015625
3513		-37.109375
3514		-42.968750
3515		-35.156250
3516		-41.015625
3517		-33.203125
3518		-41.015625
3519		-31.250000
3520		-37.109375
3521		-29.296875
3522		-37.109375
3523		-29.296875
3524		-35.156250
3525		-27.343750
3526		-35.156250
3527		-27.343750
3528		-31.250000
3529		-27.343750
3530		-29.296875
3531		-25.390625
3532		-29.296875
3533		-23.437500
3534		-29.296875
3535		-21.484375
3536		-27.343750
3537		-19.531250
3538		-25.390625
3539		-17.578125
3540		-25.390625
3541		-15.625000
3542		-23.437500
3543		-15.625000
3544		-19.531250
3545		-15.625000
3546		-17.578125
3547		-13.671875
3548		-17.578125
3549		-11.718750
3550		-15.625000
3551		-9.765625
3552		-15.625000
3553		-7.812500
3554		-13.671875
3555		-5.859375
3556		-11.718750
3557		-3.906250
3558		-9.765625
3559		-1.953125
3560		-7.812500
3561		-1.953125
3562		-5.859375
3563		-1.953125
3564		-5.859375
3565		1.953125
3566		-3.906250
3567		3.906250
3568		-1.953125
3569		5.859375
3570		0.000000
3571		5.859375
3572		0.000000
3573		7.812500
3574		1.953125
3575		9.765625
3576		3.906250
3577		9.765625
3578		7.812500
3579		11.718750
3580		9.765625
3581		13.671875
3582		7.812500
3583		15.625000
3584		11.718750
3585		17.578125
3586		11.718750
3587		17.578125
3588		13.671875
3589		19.531250
3590		15.625000
3591		21.484375
3592		15.625000
3593		23.437500
3594		19.531250
3595		23.437500
3596		21.484375
3597		25.390625
3598		21.484375
3599		25.390625
3600		21.484375
3601		29.296875
3602		23.437500
3603		31.250000
3604		23.437500
3605		31.250000
3606		25.390625
3607		33.203125
3608		27.343750
3609		35.156250
3610		29.296875
3611		35.156250
3612		31.250000
3613		35.156250
3614		33.203125
3615		37.109375
3616		31.250000
3617		41.015625
3618		33.203125
3619		39.062500
3620		33.203125
3621		41.015625
3622		35.156250
3623		42.968750
3624		37.109375
3625		42.968750
3626		39.062500
3627		44.921875
3628		41.015625
3629		44.921875
3630		41.015625
3631		44.921875
3632		41.015625
3633		46.875000
3634		42.968750
3635		48.828125
3636		42.968750
3637		48.828125
3638		44.921875
3639		50.781250
3640		44.921875
3641		52.734375
3642		44.921875
3643		52.734375
3644		46.875000
3645		52.734375
3646		48.828125
3647		52.734375
3648		48.828125
3649		54.687500
3650		48.828125
3651		54.687500
3652		50.781250
3653		56.640625
3654		52.734375
3655		54.687500
3656		52.734375
3657		56.640625
3658		50.781250
3659		58.593750
3660		50.781250
3661		58.593750
3662		54.687500
3663		56.640625
3664		54.687500
3665		56.640625
3666		52.734375
3667		58.593750
3668		52.734375
3669		60.546875
3670		54.687500
3671		58.593750
3672		54.687500
3673		58.593750
3674		52.734375
3675		60.546875
3676		54.687500
3677		60.546875
3678		56.640625
3679		60.546875
3680		56.640625
3681		60.546875
3682		56.640625
3683		60.546875
3684		56.640625
3685		60.546875
3686		56.640625
3687		60.546875
3688		56.640625
3689		60.546875
3690		56.640625
3691		60.546875
3692		54.687500
3693		60.546875
3694		54.687500
3695		62.500000
3696		56.640625
3697		60.546875
3698		54.687500
3699		60.546875
3700		56.640625
3701		60.546875
3702		56.640625
3703		58.593750
3704		54.687500
3705		58.593750
3706		54.687500
3707		58.593750
3708		52.734375
3709		58.593750
3710		52.734375
3711		58.593750
3712		54.687500
3713		56.640625
3714		52.734375
3715		56.640625
3716		52.734375
3717		56.640625
3718		50.781250
3719		56.640625
3720		50.781250
3721		54.687500
3722		50.781250
3723		54.687500
3724		48.828125
3725		54.687500
3726		48.828125
3727		52.734375
3728		48.828125
3729		54.687500
3730		48.828125
3731		50.781250
3732		46.875000
3733		50.781250
3734		46.875000
3735		50.781250
3736		44.921875
3737		50.781250
3738		44.921875
3739		48.828125
3740		42.968750
3741		46.875000
3742		42.968750
3743		46.875000
3744		41.015625
3745		44.921875
3746		41.015625
3747		44.921875
3748		39.062500
3749		42.968750
3750		39.062500
3751		42.968750
3752		37.109375
3753		41.015625
3754		37.109375
3755		41.015625
3756		35.156250
3757		39.062500
3758		33.203125
3759		37.109375
3760		33.203125
3761		37.109375
3762		31.250000
3763		35.156250
3764		31.250000
3765		33.203125
3766		27.343750
3767		33.203125
3768		25.390625
3769		31.250000
3770		25.390625
3771		29.296875
3772		25.390625
3773		29.296875
3774		23.437500
3775		27.343750
3776		21.484375
3777		25.390625
3778		19.531250
3779		25.390625
3780		19.531250
3781		23.437500
3782		17.578125
3783		21.484375
3784		15.625000
3785		19.531250
3786		13.671875
3787		19.531250
3788		11.718750
3789		17.578125
3790		9.765625
3791		15.625000
3792		9.765625
3793		13.671875
3794		7.812500
3795		11.718750
3796		5.859375
3797		9.765625
3798		5.859375
3799		9.765625
3800		3.906250
3801		7.812500
3802		1.953125
3803		5.859375
3804		0.000000
3805		3.906250
3806		-1.953125
3807		3.906250
3808		-1.953125
3809		1.953125
3810		-3.906250
3811		0.000000
3812		-5.859375
3813		-1.953125
3814		-7.812500
3815		-3.906250
3816		-9.765625
3817		-5.859375
3818		-9.765625
3819		-5.859375
3820		-11.718750
3821		-7.812500
3822		-13.671875
3823		-9.765625
3824		-15.625000
3825		-9.765625
3826		-17.578125
3827		-13.671875
3828		-19.531250
3829		-13.671875
3830		-19.531250
3831		-15.625000
3832		-21.484375
3833		-17.578125
3834		-23.437500
3835		-17.578125
3836		-25.390625
3837		-21.484375
3838		-25.390625
3839		-21.484375
3840		-27.343750
3841		-23.437500
3842		-29.296875
3843		-25.390625
3844		-31.250000
3845		-27.343750
3846		-31.250000
3847		-27.343750
3848		-33.203125
3849		-29.296875
3850		-35.156250
3851		-29.296875
3852		-35.156250
3853		-31.250000
3854		-37.109375
3855		-33.203125
3856		-39.062500
3857		-35.156250
3858		-41.015625
3859		-35.156250
3860		-41.015625
3861		-37.109375
3862		-42.968750
3863		-39.062500
3864		-42.968750
3865		-39.062500
3866		-44.921875
3867		-41.015625
3868		-44.921875
3869		-42.968750
3870		-46.875000
3871		-42.968750
3872		-48.828125
3873		-44.921875
3874		-48.828125
3875		-44.921875
3876		-50.781250
3877		-46.875000
3878		-52.734375
3879		-46.875000
3880		-50.781250
3881		-48.828125
3882		-52.734375
3883		-48.828125
3884		-52.734375
3885		-48.828125
3886		-54.687500
3887		-50.781250
3888		-54.687500
3889		-50.781250
3890		-54.687500
3891		-52.734375
3892		-56.640625
3893		-52.734375
3894		-56.640625
3895		-52.734375
3896		-56.640625
3897		-52.734375
3898		-58.593750
3899		-54.687500
3900		-58.593750
3901		-54.687500
3902		-58.593750
3903		-56.640625
3904		-58.593750
3905		-56.640625
3906		-60.546875
3907		-56.640625
3908		-60.546875
3909		-56.640625
3910		-60.546875
3911		-56.640625
3912		-60.546875
3913		-56.640625
3914		-60.546875
3915		-56.640625
3916		-62.500000
3917		-58.593750
3918		-62.500000
3919		-56.640625
3920		-60.546875
3921		-56.640625
3922		-60.546875
3923		-56.640625
3924		-60.546875
3925		-56.640625
3926		-60.546875
3927		-58.593750
3928		-62.500000
3929		-56.640625
3930		-62.500000
3931		-56.640625
3932		-60.546875
3933		-56.640625
3934		-60.546875
3935		-56.640625
3936		-60.546875
3937		-56.640625
3938		-60.546875
3939		-56.640625
3940		-60.546875
3941		-56.640625
3942		-58.593750
3943		-54.687500
3944		-58.593750
3945		-54.687500
3946		-58.593750
3947		-54.687500
3948		-56.640625
3949		-54.687500
3950		-56.640625
3951		-52.734375
3952		-56.640625
3953		-52.734375
3954		-54.687500
3955		-52.734375
3956		-54.687500
3957		-50.781250
3958		-54.687500
3959		-50.781250
3960		-52.734375
3961		-50.781250
3962		-52.734375
3963		-48.828125
3964		-50.781250
3965		-48.828125
3966		-50.781250
3967		-46.875000
3968		-50.781250
3969		-44.921875
3970		-48.828125
3971		-44.921875
3972		-48.828125
3973		-42.968750
3974		-46.875000
3975		-42.968750
3976		-44.921875
3977		-42.968750
3978		-44.921875
3979		-41.015625
3980		-42.968750
3981		-39.062500
3982		-42.968750
3983		-39.062500
3984		-41.015625
3985		-37.109375
3986		-39.062500
3987		-37.109375
3988		-39.062500
3989		-35.156250
3990		-37.109375
3991		-33.203125
3992		-37.109375
3993		-31.250000
3994		-35.156250
3995		-31.250000
3996		-33.203125
3997		-29.296875
3998		-31.250000
3999		-27.343750
4000		-31.250000
4001		-27.343750
4002		-29.296875
4003		-25.390625
4004		-27.343750
4005		-23.437500
4006		-25.390625
4007		-21.484375
4008		-25.390625
4009		-19.531250
4010		-23.437500
4011		-19.531250
4012		-21.484375
4013		-17.578125
4014		-21.484375
4015		-15.625000
4016		-19.531250
4017		-15.625000
4018		-17.578125
4019		-13.671875
4020		-15.625000
4021		-11.718750
4022		-13.671875
4023		-9.765625
4024		-11.718750
4025		-7.812500
4026		-11.718750
4027		-7.812500
4028		-9.765625
4029		-5.859375
4030		-7.812500
4031		-3.906250
4032		-5.859375
4033		-1.953125
4034		-3.906250
4035		0.000000
4036		-3.906250
4037		1.953125
4038		-1.953125
4039		1.953125
4040		0.000000
4041		3.906250
4042		1.953125
4043		5.859375
4044		3.906250
4045		7.812500
4046		3.906250
4047		9.765625
4048		5.859375
4049		9.765625
4050		7.812500
4051		11.718750
4052		7.812500
4053		13.671875
4054		11.718750
4055		15.625000
4056		11.718750
4057		15.625000
4058		13.671875
4059		17.578125
4060		15.625000
4061		19.531250
4062		17.578125
4063		21.484375
4064		17.578125
4065		21.484375
4066		19.531250
4067		23.437500
4068		21.484375
4069		25.390625
4070		21.484375
4071		27.343750
4072		23.437500
4073		27.343750
4074		25.390625
4075		29.296875
4076		27.343750
4077		31.250000
4078		27.343750
4079		31.250000
4080		29.296875
4081		33.203125
4082		31.250000
4083		35.156250
4084		31.250000
4085		35.156250
4086		33.203125
4087		37.109375
4088		33.203125
4089		39.062500
4090		35.156250
4091		39.062500
4092		37.109375
4093		41.015625
4094		37.109375
4095		41.015625
4096		39.062500
4097		42.968750
4098		39.062500
4099		42.968750
4100		41.015625
4101		44.921875
4102		41.015625
4103		46.875000
4104		42.968750
4105		46.875000
4106		44.921875
4107		46.875000
4108		44.921875
4109		48.828125
4110		44.921875
4111		48.828125
4112		46.875000
4113		50.781250
4114		46.875000
4115		50.781250
4116		48.828125
4117		50.781250
4118		48.828125
4119		52.734375
4120		48.828125
4121		54.687500
4122		50.781250
4123		54.687500
4124		50.781250
4125		54.687500
4126		50.781250
4127		54.687500
4128		52.734375
4129		56.640625
4130		52.734375
4131		56.640625
4132		52.734375
4133		56.640625
4134		54.687500
4135		58.593750
4136		54.687500
4137		58.593750
4138		54.687500
4139		58.593750
4140		54.687500
4141		58.593750
4142		54.687500
4143		58.593750
4144		56.640625
4145		60.546875
4146		56.640625
4147		58.593750
4148		56.640625
4149		60.546875
4150		56.640625
4151		60.546875
4152		56.640625
4153		60.546875
4154		56.640625
4155		60.546875
4156		56.640625
4157		60.546875
4158		56.640625
4159		60.546875
4160		56.640625
4161		60.546875
4162		56.640625
4163		60.546875
4164		56.640625
4165		60.546875
4166		56.640625
4167		60.546875
4168		56.640625
4169		60.546875
4170		56.640625
4171		60.546875
4172		56.640625
4173		58.593750
4174		54.687500
4175		60.546875
4176		56.640625
4177		58.593750
4178		54.687500
4179		58.593750
4180		54.687500
4181		58.593750
4182		54.687500
4183		58.593750
4184		54.687500
4185		56.640625
4186		52.734375
4187		58.593750
4188		52.734375
4189		56.640625
4190		52.734375
4191		56.640625
4192		50.781250
4193		54.687500
4194		50.781250
4195		54.687500
4196		50.781250
4197		54.687500
4198		48.828125
4199		54.687500
4200		48.828125
4201		52.734375
4202		46.875000
4203		50.781250
4204		46.875000
4205		50.781250
4206		46.875000
4207		50.781250
4208		44.921875
4209		48.828125
4210		44.921875
4211		48.828125
4212		42.968750
4213		46.875000
4214		41.015625
4215		46.875000
4216		41.015625
4217		44.921875
4218		41.015625
4219		44.921875
4220		39.062500
4221		42.968750
4222		39.062500
4223		42.968750
4224		37.109375
4225		41.015625
4226		35.156250
4227		39.062500
4228		35.156250
4229		39.062500
4230		33.203125
4231		37.109375
4232		33.203125
4233		37.109375
4234		31.250000
4235		35.156250
4236		29.296875
4237		33.203125
4238		29.296875
4239		33.203125
4240		27.343750
4241		31.250000
4242		25.390625
4243		29.296875
4244		23.437500
4245		27.343750
4246		23.437500
4247		27.343750
4248		21.484375
4249		25.390625
4250		19.531250
4251		23.437500
4252		19.531250
4253		23.437500
4254		17.578125
4255		21.484375
4256		15.625000
4257		19.531250
4258		13.671875
4259		19.531250
4260		13.671875
4261		17.578125
4262		11.718750
4263		15.625000
4264		9.765625
4265		13.671875
4266		7.812500
4267		11.718750
4268		5.859375
4269		11.718750
4270		3.906250
4271		9.765625
4272		3.906250
4273		7.812500
4274		0.000000
4275		5.859375
4276		0.000000
4277		3.906250
4278		-1.953125
4279		3.906250
4280		-1.953125
4281		1.953125
4282		-3.906250
4283		0.000000
4284		-5.859375
4285		-1.953125
4286		-7.812500
4287		-3.906250
4288		-9.765625
4289		-5.859375
4290		-11.718750
4291		-5.859375
4292		-13.671875
4293		-7.812500
4294		-13.671875
4295		-9.765625
4296		-15.625000
4297		-11.718750
4298		-17.578125
4299		-13.671875
4300		-19.531250
4301		-15.625000
4302		-19.531250
4303		-15.625000
4304		-21.484375
4305		-17.578125
4306		-23.437500
4307		-19.531250
4308		-25.390625
4309		-21.484375
4310		-25.390625
4311		-23.437500
4312		-27.343750
4313		-23.437500
4314		-29.296875
4315		-25.390625
4316		-31.250000
4317		-27.343750
4318		-31.250000
4319		-27.343750
4320		-35.156250
4321		-29.296875
4322		-35.156250
4323		-31.250000
4324		-37.109375
4325		-33.203125
4326		-37.109375
4327		-33.203125
4328		-39.062500
4329		-35.156250
4330		-39.062500
4331		-35.156250
4332		-41.015625
4333		-37.109375
4334		-42.968750
4335		-39.062500
4336		-42.968750
4337		-39.062500
4338		-44.921875
4339		-41.015625
4340		-46.875000
4341		-42.968750
4342		-46.875000
4343		-42.968750
4344		-46.875000
4345		-44.921875
4346		-48.828125
4347		-44.921875
4348		-48.828125
4349		-46.875000
4350		-50.781250
4351		-46.875000
4352		-52.734375
4353		-46.875000
4354		-52.734375
4355		-48.828125
4356		-52.734375
4357		-48.828125
4358		-54.687500
4359		-50.781250
4360		-54.687500
4361		-50.781250
4362		-56.640625
4363		-52.734375
4364		-56.640625
4365		-52.734375
4366		-56.640625
4367		-52.734375
4368		-56.640625
4369		-54.687500
4370		-58.593750
4371		-54.687500
4372		-58.593750
4373		-54.687500
4374		-58.593750
4375		-54.687500
4376		-58.593750
4377		-56.640625
4378		-60.546875
4379		-56.640625
4380		-60.546875
4381		-56.640625
4382		-60.546875
4383		-56.640625
4384		-60.546875
4385		-56.640625
4386		-60.546875
4387		-56.640625
4388		-62.500000
4389		-56.640625
4390		-60.546875
4391		-56.640625
4392		-60.546875
4393		-56.640625
4394		-60.546875
4395		-58.593750
4396		-60.546875
4397		-58.593750
4398		-60.546875
4399		-56.640625
4400		-60.546875
4401		-56.640625
4402		-60.546875
4403		-56.640625
4404		-60.546875
4405		-56.640625
4406		-60.546875
4407		-56.640625
4408		-60.546875
4409		-56.640625
4410		-58.593750
4411		-56.640625
4412		-58.593750
4413		-54.687500
4414		-58.593750
4415		-54.687500
4416		-58.593750
4417		-54.687500
4418		-56.640625
4419		-54.687500
4420		-56.640625
4421		-52.734375
4422		-56.640625
4423		-52.734375
4424		-54.687500
4425		-52.734375
4426		-54.687500
4427		-50.781250
4428		-54.687500
4429		-50.781250
4430		-54.687500
4431		-50.781250
4432		-52.734375
4433		-48.828125
4434		-52.734375
4435		-48.828125
4436		-50.781250
4437		-46.875000
4438		-50.781250
4439		-46.875000
4440		-48.828125
4441		-44.921875
4442		-48.828125
4443		-44.921875
4444		-48.828125
4445		-42.968750
4446		-46.875000
4447		-42.968750
4448		-44.921875
4449		-41.015625
4450		-44.921875
4451		-39.062500
4452		-42.968750
4453		-39.062500
4454		-41.015625
4455		-37.109375
4456		-41.015625
4457		-37.109375
4458		-39.062500
4459		-35.156250
4460		-37.109375
4461		-33.203125
4462		-37.109375
4463		-33.203125
4464		-35.156250
4465		-31.250000
4466		-35.156250
4467		-29.296875
4468		-33.203125
4469		-29.296875
4470		-31.250000
4471		-27.343750
4472		-29.296875
4473		-25.390625
4474		-29.296875
4475		-23.437500
4476		-27.343750
4477		-23.437500
4478		-27.343750
4479		-21.484375
4480		-23.437500
4481		-19.531250
4482		-23.437500
4483		-17.578125
4484		-21.484375
4485		-17.578125
4486		-19.531250
4487		-15.625000
4488		-17.578125
4489		-13.671875
4490		-17.578125
4491		-11.718750
4492		-15.625000
4493		-11.718750
4494		-13.671875
4495		-9.765625
4496		-11.718750
4497		-7.812500
4498		-9.765625
4499		-5.859375
4500		-7.812500
4501		-3.906250
4502		-7.812500
4503		-3.906250
4504		-5.859375
4505		-1.953125
4506		-3.906250
4507		0.000000
4508		-1.953125
4509		1.953125
4510		-1.953125
4511		3.906250
4512		0.000000
4513		5.859375
4514		1.953125
4515		5.859375
4516		3.906250
4517		7.812500
4518		5.859375
4519		9.765625
4520		7.812500
4521		11.718750
4522		7.812500
4523		13.671875
4524		9.765625
4525		13.671875
4526		11.718750
4527		15.625000
4528		13.671875
4529		17.578125
4530		15.625000
4531		19.531250
4532		15.625000
4533		19.531250
4534		17.578125
4535		21.484375
4536		19.531250
4537		23.437500
4538		21.484375
4539		23.437500
4540		21.484375
4541		25.390625
4542		23.437500
4543		27.343750
4544		23.437500
4545		29.296875
4546		25.390625
4547		29.296875
4548		27.343750
4549		31.250000
4550		29.296875
4551		33.203125
4552		29.296875
4553		33.203125
4554		31.250000
4555		35.156250
4556		33.203125
4557		37.109375
4558		33.203125
4559		37.109375
4560		35.156250
4561		39.062500
4562		37.109375
4563		39.062500
4564		37.109375
4565		41.015625
4566		37.109375
4567		42.968750
4568		39.062500
4569		42.968750
4570		41.015625
4571		44.921875
4572		41.015625
4573		44.921875
4574		42.968750
4575		46.875000
4576		42.968750
4577		46.875000
4578		44.921875
4579		48.828125
4580		44.921875
4581		48.828125
4582		46.875000
4583		50.781250
4584		46.875000
4585		50.781250
4586		48.828125
4587		52.734375
4588		48.828125
4589		52.734375
4590		48.828125
4591		52.734375
4592		50.781250
4593		54.687500
4594		50.781250
4595		54.687500
4596		52.734375
4597		54.687500
4598		52.734375
4599		56.640625
4600		52.734375
4601		56.640625
4602		52.734375
4603		56.640625
4604		54.687500
4605		56.640625
4606		54.687500
4607		58.593750
4608		54.687500
4609		58.593750
4610		54.687500
4611		58.593750
4612		54.687500
4613		58.593750
4614		54.687500
4615		60.546875
4616		56.640625
4617		60.546875
4618		56.640625
4619		60.546875
4620		56.640625
4621		60.546875
4622		56.640625
4623		60.546875
4624		56.640625
4625		60.546875
4626		56.640625
4627		60.546875
4628		56.640625
4629		60.546875
4630		56.640625
4631		60.546875
4632		56.640625
4633		60.546875
4634		56.640625
4635		60.546875
4636		56.640625
4637		60.546875
4638		56.640625
4639		60.546875
4640		56.640625
4641		60.546875
4642		56.640625
4643		60.546875
4644		56.640625
4645		60.546875
4646		56.640625
4647		60.546875
4648		56.640625
4649		58.593750
4650		54.687500
4651		58.593750
4652		54.687500
4653		58.593750
4654		54.687500
4655		58.593750
4656		52.734375
4657		56.640625
4658		54.687500
4659		56.640625
4660		52.734375
4661		56.640625
4662		52.734375
4663		56.640625
4664		52.734375
4665		54.687500
4666		50.781250
4667		54.687500
4668		50.781250
4669		54.687500
4670		50.781250
4671		52.734375
4672		48.828125
4673		52.734375
4674		46.875000
4675		52.734375
4676		46.875000
4677		50.781250
4678		46.875000
4679		50.781250
4680		44.921875
4681		48.828125
4682		44.921875
4683		48.828125
4684		42.968750
4685		46.875000
4686		42.968750
4687		46.875000
4688		42.968750
4689		44.921875
4690		41.015625
4691		44.921875
4692		39.062500
4693		42.968750
4694		37.109375
4695		42.968750
4696		37.109375
4697		41.015625
4698		35.156250
4699		41.015625
4700		35.156250
4701		39.062500
4702		33.203125
4703		37.109375
4704		33.203125
4705		37.109375
4706		31.250000
4707		35.156250
4708		29.296875
4709		35.156250
4710		29.296875
4711		33.203125
4712		27.343750
4713		31.250000
4714		25.390625
4715		29.296875
4716		25.390625
4717		29.296875
4718		23.437500
4719		27.343750
4720		21.484375
4721		27.343750
4722		21.484375
4723		23.437500
4724		19.531250
4725		23.437500
4726		15.625000
4727		21.484375
4728		15.625000
4729		19.531250
4730		13.671875
4731		19.531250
4732		13.671875
4733		17.578125
4734		11.718750
4735		15.625000
4736		9.765625
4737		13.671875
4738		7.812500
4739		11.718750
4740		5.859375
4741		11.718750
4742		5.859375
4743		9.765625
4744		3.906250
4745		7.812500
4746		1.953125
4747		5.859375
4748		0.000000
4749		3.906250
4750		-1.953125
4751		3.906250
4752		-1.953125
4753		1.953125
4754		-3.906250
4755		0.000000
4756		-5.859375
4757		-1.953125
4758		-7.812500
4759		-1.953125
4760		-9.765625
4761		-5.859375
4762		-11.718750
4763		-5.859375
4764		-11.718750
4765		-7.812500
4766		-13.671875
4767		-9.765625
4768		-15.625000
4769		-11.718750
4770		-17.578125
4771		-11.718750
4772		-17.578125
4773		-13.671875
4774		-19.531250
4775		-15.625000
4776		-21.484375
4777		-17.578125
4778		-23.437500
4779		-19.531250
4780		-23.437500
4781		-19.531250
4782		-25.390625
4783		-21.484375
4784		-27.343750
4785		-23.437500
4786		-29.296875
4787		-25.390625
4788		-29.296875
4789		-27.343750
4790		-31.250000
4791		-27.343750
4792		-33.203125
4793		-29.296875
4794		-35.156250
4795		-31.250000
4796		-35.156250
4797		-31.250000
4798		-37.109375
4799		-33.203125
4800		-37.109375
4801		-35.156250
4802		-39.062500
4803		-35.156250
4804		-41.015625
4805		-37.109375
4806		-41.015625
4807		-39.062500
4808		-42.968750
4809		-39.062500
4810		-44.921875
4811		-41.015625
4812		-44.921875
4813		-41.015625
4814		-46.875000
4815		-42.968750
4816		-46.875000
4817		-42.968750
4818		-48.828125
4819		-44.921875
4820		-48.828125
4821		-44.921875
4822		-50.781250
4823		-46.875000
4824		-52.734375
4825		-46.875000
4826		-52.734375
4827		-48.828125
4828		-52.734375
4829		-48.828125
4830		-52.734375
4831		-48.828125
4832		-54.687500
4833		-50.781250
4834		-54.687500
4835		-50.781250
4836		-56.640625
4837		-50.781250
4838		-56.640625
4839		-52.734375
4840		-56.640625
4841		-52.734375
4842		-56.640625
4843		-52.734375
4844		-58.593750
4845		-52.734375
4846		-58.593750
4847		-54.687500
4848		-58.593750
4849		-54.687500
4850		-58.593750
4851		-54.687500
4852		-58.593750
4853		-56.640625
4854		-60.546875
4855		-54.687500
4856		-58.593750
4857		-56.640625
4858		-58.593750
4859		-56.640625
4860		-60.546875
4861		-56.640625
4862		-60.546875
4863		-56.640625
4864		-58.593750
4865		-56.640625
4866		-60.546875
4867		-56.640625
4868		-60.546875
4869		-56.640625
4870		-60.546875
4871		-56.640625
4872		-58.593750
4873		-56.640625
4874		-58.593750
4875		-56.640625
4876		-60.546875
4877		-54.687500
4878		-58.593750
4879		-54.687500
4880		-58.593750
4881		-54.687500
4882		-58.593750
4883		-54.687500
4884		-58.593750
4885		-54.687500
4886		-56.640625
4887		-52.734375
4888		-56.640625
4889		-52.734375
4890		-56.640625
4891		-52.734375
4892		-56.640625
4893		-52.734375
4894		-54.687500
4895		-52.734375
4896		-54.687500
4897		-50.781250
4898		-52.734375
4899		-50.781250
4900		-52.734375
4901		-48.828125
4902		-52.734375
4903		-48.828125
4904		-52.734375
4905		-46.875000
4906		-50.781250
4907		-46.875000
4908		-48.828125
4909		-44.921875
4910		-48.828125
4911		-44.921875
4912		-46.875000
4913		-42.968750
4914		-46.875000
4915		-42.968750
4916		-44.921875
4917		-41.015625
4918		-44.921875
4919		-41.015625
4920		-42.968750
4921		-39.062500
4922		-42.968750
4923		-39.062500
4924		-41.015625
4925		-37.109375
4926		-41.015625
4927		-37.109375
4928		-39.062500
4929		-35.156250
4930		-37.109375
4931		-33.203125
4932		-37.109375
4933		-31.250000
4934		-35.156250
4935		-31.250000
4936		-33.203125
4937		-29.296875
4938		-33.203125
4939		-29.296875
4940		-31.250000
4941		-27.343750
4942		-29.296875
4943		-25.390625
4944		-29.296875
4945		-25.390625
4946		-27.343750
4947		-23.437500
4948		-25.390625
4949		-21.484375
4950		-23.437500
4951		-19.531250
4952		-21.484375
4953		-17.578125
4954		-21.484375
4955		-17.578125
4956		-19.531250
4957		-15.625000
4958		-17.578125
4959		-13.671875
4960		-17.578125
4961		-11.718750
4962		-15.625000
4963		-9.765625
4964		-13.671875
4965		-9.765625
4966		-11.718750
4967		-7.812500
4968		-9.765625
4969		-5.859375
4970		-7.812500
4971		-3.906250
4972		-7.812500
4973		-1.953125
4974		-5.859375
4975		-1.953125
4976		-3.906250
4977		0.000000
4978		-1.953125
4979		1.953125
4980		-1.953125
4981		3.906250
4982		1.953125
4983		5.859375
4984		1.953125
4985		7.812500
4986		3.906250
4987		7.812500
4988		3.906250
4989		9.765625
4990		7.812500
4991		11.718750
4992		9.765625
4993		13.671875
4994		9.765625
4995		13.671875
4996		11.718750
4997		15.625000
4998		13.671875
4999		17.578125
5000		15.625000
5001		19.531250
5002		15.625000
5003		21.484375
5004		17.578125
5005		21.484375
5006		19.531250
5007		23.437500
5008		21.484375
5009		25.390625
5010		21.484375
5011		25.390625
5012		23.437500
5013		27.343750
5014		25.390625
5015		29.296875
5016		25.390625
5017		31.250000
5018		27.343750
5019		31.250000
5020		29.296875
5021		33.203125
5022		31.250000
5023		35.156250
5024		31.250000
5025		35.156250
5026		33.203125
5027		37.109375
5028		33.203125
5029		39.062500
5030		35.156250
5031		39.062500
5032		37.109375
5033		41.015625
5034		37.109375
5035		42.968750
5036		39.062500
5037		42.968750
5038		41.015625
5039		44.921875
5040		41.015625
5041		44.921875
5042		42.968750
5043		44.921875
5044		42.968750
5045		46.875000
5046		44.921875
5047		48.828125
5048		44.921875
5049		48.828125
5050		46.875000
5051		50.781250
5052		46.875000
5053		50.781250
5054		46.875000
5055		52.734375
5056		46.875000
5057		52.734375
5058		48.828125
5059		52.734375
5060		50.781250
5061		54.687500
5062		50.781250
5063		54.687500
5064		52.734375
5065		54.687500
5066		52.734375
5067		56.640625
5068		52.734375
5069		56.640625
5070		52.734375
5071		56.640625
5072		54.687500
5073		58.593750
5074		54.687500
5075		58.593750
5076		54.687500
5077		58.593750
5078		54.687500
5079		58.593750
5080		56.640625
5081		58.593750
5082		56.640625
5083		60.546875
5084		56.640625
5085		60.546875
5086		56.640625
5087		60.546875
5088		56.640625
5089		60.546875
5090		58.593750
5091		60.546875
5092		58.593750
5093		62.500000
5094		58.593750
5095		62.500000
5096		58.593750
5097		62.500000
5098		56.640625
5099		62.500000
5100		58.593750
5101		62.500000
5102		58.593750
5103		62.500000
5104		58.593750
5105		62.500000
5106		56.640625
5107		62.500000
5108		58.593750
5109		62.500000
5110		58.593750
5111		60.546875
5112		58.593750
5113		60.546875
5114		56.640625
5115		60.546875
5116		56.640625
5117		60.546875
5118		56.640625
5119		60.546875
5120		56.640625
5121		60.546875
5122		56.640625
5123		60.546875
5124		56.640625
5125		60.546875
5126		54.687500
5127		58.593750
5128		54.687500
5129		58.593750
5130		54.687500
5131		58.593750
5132		52.734375
5133		58.593750
5134		52.734375
5135		56.640625
5136		52.734375
5137		56.640625
5138		52.734375
5139		56.640625
5140		50.781250
5141		54.687500
5142		50.781250
5143		54.687500
5144		48.828125
5145		52.734375
5146		48.828125
5147		52.734375
5148		48.828125
5149		50.781250
5150		46.875000
5151		50.781250
5152		46.875000
5153		48.828125
5154		44.921875
5155		48.828125
5156		44.921875
5157		48.828125
5158		42.968750
5159		46.875000
5160		42.968750
5161		46.875000
5162		41.015625
5163		46.875000
5164		39.062500
5165		44.921875
5166		39.062500
5167		42.968750
5168		37.109375
5169		41.015625
5170		37.109375
5171		41.015625
5172		35.156250
5173		41.015625
5174		33.203125
5175		39.062500
5176		33.203125
5177		37.109375
5178		31.250000
5179		37.109375
5180		29.296875
5181		35.156250
5182		29.296875
5183		33.203125
5184		27.343750
5185		33.203125
5186		25.390625
5187		31.250000
5188		25.390625
5189		29.296875
5190		23.437500
5191		27.343750
5192		21.484375
5193		25.390625
5194		19.531250
5195		23.437500
5196		17.578125
5197		23.437500
5198		17.578125
5199		21.484375
5200		15.625000
5201		19.531250
5202		15.625000
5203		19.531250
5204		13.671875
5205		17.578125
5206		9.765625
5207		15.625000
5208		9.765625
5209		13.671875
5210		9.765625
5211		11.718750
5212		7.812500
5213		11.718750
5214		5.859375
5215		9.765625
5216		3.906250
5217		7.812500
5218		1.953125
5219		5.859375
5220		0.000000
5221		3.906250
5222		0.000000
5223		3.906250
5224		-1.953125
5225		1.953125
5226		-3.906250
5227		0.000000
5228		-5.859375
5229		-1.953125
5230		-7.812500
5231		-3.906250
5232		-7.812500
5233		-3.906250
5234		-9.765625
5235		-5.859375
5236		-11.718750
5237		-7.812500
5238		-13.671875
5239		-9.765625
5240		-15.625000
5241		-9.765625
5242		-15.625000
5243		-13.671875
5244		-17.578125
5245		-13.671875
5246		-19.531250
5247		-15.625000
5248		-21.484375
5249		-17.578125
5250		-23.437500
5251		-17.578125
5252		-23.437500
5253		-19.531250
5254		-25.390625
5255		-21.484375
5256		-27.343750
5257		-23.437500
5258		-27.343750
5259		-23.437500
5260		-29.296875
5261		-25.390625
5262		-31.250000
5263		-27.343750
5264		-31.250000
5265		-27.343750
5266		-35.156250
5267		-29.296875
5268		-35.156250
5269		-31.250000
5270		-37.109375
5271		-33.203125
5272		-37.109375
5273		-33.203125
5274		-39.062500
5275		-35.156250
5276		-41.015625
5277		-37.109375
5278		-41.015625
5279		-37.109375
5280		-42.968750
5281		-39.062500
5282		-42.968750
5283		-39.062500
5284		-44.921875
5285		-41.015625
5286		-44.921875
5287		-42.968750
5288		-46.875000
5289		-42.968750
5290		-48.828125
5291		-44.921875
5292		-48.828125
5293		-44.921875
5294		-48.828125
5295		-44.921875
5296		-50.781250
5297		-46.875000
5298		-50.781250
5299		-46.875000
5300		-52.734375
5301		-46.875000
5302		-52.734375
5303		-48.828125
5304		-52.734375
5305		-48.828125
5306		-54.687500
5307		-50.781250
5308		-54.687500
5309		-50.781250
5310		-54.687500
5311		-52.734375
5312		-56.640625
5313		-52.734375
5314		-56.640625
5315		-52.734375
5316		-56.640625
5317		-52.734375
5318		-58.593750
5319		-54.687500
5320		-58.593750
5321		-54.687500
5322		-58.593750
5323		-54.687500
5324		-58.593750
5325		-54.687500
5326		-58.593750
5327		-54.687500
5328		-58.593750
5329		-54.687500
5330		-58.593750
5331		-54.687500
5332		-58.593750
5333		-54.687500
5334		-58.593750
5335		-56.640625
5336		-58.593750
5337		-54.687500
5338		-58.593750
5339		-54.687500
5340		-58.593750
5341		-54.687500
5342		-58.593750
5343		-54.687500
5344		-58.593750
5345		-54.687500
5346		-58.593750
5347		-54.687500
5348		-58.593750
5349		-54.687500
5350		-58.593750
5351		-54.687500
5352		-58.593750
5353		-54.687500
5354		-56.640625
5355		-52.734375
5356		-56.640625
5357		-52.734375
5358		-56.640625
5359		-50.781250
5360		-54.687500
5361		-52.734375
5362		-54.687500
5363		-50.781250
5364		-54.687500
5365		-50.781250
5366		-52.734375
5367		-50.781250
5368		-52.734375
5369		-48.828125
5370		-52.734375
5371		-48.828125
5372		-50.781250
5373		-48.828125
5374		-50.781250
5375		-46.875000
5376		-50.781250
5377		-46.875000
5378		-48.828125
5379		-44.921875
5380		-48.828125
5381		-44.921875
5382		-46.875000
5383		-42.968750
5384		-46.875000
5385		-42.968750
5386		-44.921875
5387		-41.015625
5388		-44.921875
5389		-41.015625
5390		-42.968750
5391		-39.062500
5392		-42.968750
5393		-39.062500
5394		-41.015625
5395		-37.109375
5396		-39.062500
5397		-35.156250
5398		-39.062500
5399		-35.156250
5400		-37.109375
5401		-33.203125
5402		-37.109375
5403		-33.203125
5404		-35.156250
5405		-31.250000
5406		-33.203125
5407		-29.296875
5408		-33.203125
5409		-27.343750
5410		-31.250000
5411		-27.343750
5412		-29.296875
5413		-25.390625
5414		-27.343750
5415		-23.437500
5416		-27.343750
5417		-23.437500
5418		-25.390625
5419		-21.484375
5420		-23.437500
5421		-19.531250
5422		-21.484375
5423		-17.578125
5424		-21.484375
5425		-17.578125
5426		-19.531250
5427		-15.625000
5428		-17.578125
5429		-13.671875
5430		-17.578125
5431		-11.718750
5432		-15.625000
5433		-9.765625
5434		-13.671875
5435		-9.765625
5436		-11.718750
5437		-5.859375
5438		-9.765625
5439		-5.859375
5440		-7.812500
5441		-3.906250
5442		-7.812500
5443		-3.906250
5444		-5.859375
5445		-1.953125
5446		-3.906250
5447		1.953125
5448		-1.953125
5449		1.953125
5450		0.000000
5451		3.906250
5452		0.000000
5453		5.859375
5454		1.953125
5455		5.859375
5456		3.906250
5457		7.812500
5458		5.859375
5459		9.765625
5460		7.812500
5461		11.718750
5462		7.812500
5463		11.718750
5464		9.765625
5465		13.671875
5466		11.718750
5467		15.625000
5468		13.671875
5469		17.578125
5470		15.625000
5471		19.531250
5472		15.625000
5473		21.484375
5474		17.578125
5475		21.484375
5476		19.531250
5477		23.437500
5478		21.484375
5479		25.390625
5480		21.484375
5481		27.343750
5482		23.437500
5483		27.343750
5484		25.390625
5485		29.296875
5486		25.390625
5487		31.250000
5488		27.343750
5489		31.250000
5490		29.296875
5491		33.203125
5492		29.296875
5493		35.156250
5494		31.250000
5495		35.156250
5496		33.203125
5497		37.109375
5498		33.203125
5499		37.109375
5500		35.156250
5501		39.062500
5502		37.109375
5503		41.015625
5504		37.109375
5505		42.968750
5506		39.062500
5507		42.968750
5508		41.015625
5509		42.968750
5510		41.015625
5511		44.921875
5512		42.968750
5513		46.875000
5514		42.968750
5515		46.875000
5516		44.921875
5517		48.828125
5518		44.921875
5519		48.828125
5520		46.875000
5521		50.781250
5522		46.875000
5523		50.781250
5524		46.875000
5525		52.734375
5526		48.828125
5527		52.734375
5528		50.781250
5529		52.734375
5530		50.781250
5531		54.687500
5532		50.781250
5533		54.687500
5534		52.734375
5535		54.687500
5536		52.734375
5537		56.640625
5538		54.687500
5539		56.640625
5540		54.687500
5541		58.593750
5542		54.687500
5543		58.593750
5544		54.687500
5545		58.593750
5546		56.640625
5547		58.593750
5548		56.640625
5549		60.546875
5550		56.640625
5551		60.546875
5552		56.640625
5553		60.546875
5554		58.593750
5555		60.546875
5556		58.593750
5557		62.500000
5558		58.593750
5559		62.500000
5560		58.593750
5561		62.500000
5562		58.593750
5563		62.500000
5564		58.593750
5565		62.500000
5566		58.593750
5567		62.500000
5568		58.593750
5569		62.500000
5570		58.593750
5571		62.500000
5572		58.593750
5573		62.500000
5574		58.593750
5575		62.500000
5576		60.546875
5577		62.500000
5578		58.593750
5579		62.500000
5580		58.593750
5581		62.500000
5582		58.593750
5583		62.500000
5584		58.593750
5585		62.500000
5586		58.593750
5587		62.500000
5588		58.593750
5589		62.500000
5590		58.593750
5591		60.546875
5592		56.640625
5593		60.546875
5594		56.640625
5595		60.546875
5596		56.640625
5597		60.546875
5598		56.640625
5599		60.546875
5600		54.687500
5601		58.593750
5602		54.687500
5603		58.593750
5604		54.687500
5605		58.593750
5606		54.687500
5607		56.640625
5608		52.734375
5609		56.640625
5610		52.734375
5611		56.640625
5612		52.734375
5613		54.687500
5614		50.781250
5615		54.687500
5616		50.781250
5617		54.687500
5618		48.828125
5619		54.687500
5620		48.828125
5621		52.734375
5622		46.875000
5623		52.734375
5624		46.875000
5625		50.781250
5626		44.921875
5627		48.828125
5628		44.921875
5629		48.828125
5630		44.921875
5631		48.828125
5632		42.968750
5633		46.875000
5634		42.968750
5635		46.875000
5636		41.015625
5637		44.921875
5638		39.062500
5639		42.968750
5640		39.062500
5641		42.968750
5642		37.109375
5643		41.015625
5644		37.109375
5645		41.015625
5646		35.156250
5647		39.062500
5648		33.203125
5649		37.109375
5650		33.203125
5651		37.109375
5652		31.250000
5653		35.156250
5654		29.296875
5655		33.203125
5656		29.296875
5657		33.203125
5658		27.343750
5659		31.250000
5660		25.390625
5661		29.296875
5662		23.437500
5663		27.343750
5664		23.437500
5665		27.343750
5666		21.484375
5667		27.343750
5668		19.531250
5669		23.437500
5670		17.578125
5671		23.437500
5672		17.578125
5673		21.484375
5674		15.625000
5675		19.531250
5676		13.671875
5677		17.578125
5678		11.718750
5679		17.578125
5680		11.718750
5681		15.625000
5682		9.765625
5683		13.671875
5684		7.812500
5685		11.718750
5686		5.859375
5687		9.765625
5688		5.859375
5689		7.812500
5690		3.906250
5691		7.812500
5692		1.953125
5693		5.859375
5694		0.000000
5695		3.906250
5696		-1.953125
5697		1.953125
5698		-1.953125
5699		0.000000
5700		-5.859375
5701		0.000000
5702		-7.812500
5703		-1.953125
5704		-7.812500
5705		-3.906250
5706		-9.765625
5707		-5.859375
5708		-11.718750
5709		-5.859375
5710		-11.718750
5711		-7.812500
5712		-13.671875
5713		-9.765625
5714		-15.625000
5715		-11.718750
5716		-17.578125
5717		-13.671875
5718		-19.531250
5719		-13.671875
5720		-19.531250
5721		-15.625000
5722		-21.484375
5723		-17.578125
5724		-23.437500
5725		-17.578125
5726		-25.390625
5727		-21.484375
5728		-27.343750
5729		-21.484375
5730		-27.343750
5731		-23.437500
5732		-29.296875
5733		-25.390625
5734		-29.296875
5735		-25.390625
5736		-31.250000
5737		-27.343750
5738		-33.203125
5739		-29.296875
5740		-33.203125
5741		-29.296875
5742		-35.156250
5743		-31.250000
5744		-37.109375
5745		-33.203125
5746		-37.109375
5747		-35.156250
5748		-39.062500
5749		-35.156250
5750		-41.015625
5751		-35.156250
5752		-41.015625
5753		-37.109375
5754		-42.968750
5755		-39.062500
5756		-44.921875
5757		-39.062500
5758		-44.921875
5759		-41.015625
5760		-46.875000
5761		-42.968750
5762		-46.875000
5763		-42.968750
5764		-46.875000
5765		-44.921875
5766		-48.828125
5767		-44.921875
5768		-48.828125
5769		-46.875000
5770		-50.781250
5771		-46.875000
5772		-50.781250
5773		-46.875000
5774		-52.734375
5775		-48.828125
5776		-52.734375
5777		-48.828125
5778		-52.734375
5779		-48.828125
5780		-52.734375
5781		-50.781250
5782		-54.687500
5783		-50.781250
5784		-54.687500
5785		-50.781250
5786		-54.687500
5787		-52.734375
5788		-56.640625
5789		-52.734375
5790		-56.640625
5791		-52.734375
5792		-56.640625
5793		-52.734375
5794		-56.640625
5795		-52.734375
5796		-56.640625
5797		-52.734375
5798		-56.640625
5799		-54.687500
5800		-58.593750
5801		-54.687500
5802		-58.593750
5803		-54.687500
5804		-58.593750
5805		-54.687500
5806		-56.640625
5807		-54.687500
5808		-58.593750
5809		-54.687500
5810		-58.593750
5811		-54.687500
5812		-58.593750
5813		-54.687500
5814		-56.640625
5815		-54.687500
5816		-56.640625
5817		-52.734375
5818		-56.640625
5819		-52.734375
5820		-56.640625
5821		-52.734375
5822		-56.640625
5823		-52.734375
5824		-56.640625
5825		-52.734375
5826		-54.687500
5827		-52.734375
5828		-54.687500
5829		-52.734375
5830		-54.687500
5831		-50.781250
5832		-54.687500
5833		-50.781250
5834		-54.687500
5835		-50.781250
5836		-52.734375
5837		-50.781250
5838		-52.734375
5839		-48.828125
5840		-50.781250
5841		-48.828125
5842		-50.781250
5843		-46.875000
5844		-50.781250
5845		-46.875000
5846		-48.828125
5847		-44.921875
5848		-48.828125
5849		-44.921875
5850		-48.828125
5851		-42.968750
5852		-46.875000
5853		-42.968750
5854		-46.875000
5855		-41.015625
5856		-44.921875
5857		-41.015625
5858		-42.968750
5859		-39.062500
5860		-42.968750
5861		-39.062500
5862		-42.968750
5863		-37.109375
5864		-41.015625
5865		-37.109375
5866		-39.062500
5867		-35.156250
5868		-39.062500
5869		-33.203125
5870		-37.109375
5871		-33.203125
5872		-35.156250
5873		-31.250000
5874		-35.156250
5875		-31.250000
5876		-33.203125
5877		-29.296875
5878		-31.250000
5879		-27.343750
5880		-31.250000
5881		-27.343750
5882		-29.296875
5883		-25.390625
5884		-29.296875
5885		-23.437500
5886		-27.343750
5887		-21.484375
5888		-25.390625
5889		-21.484375
5890		-23.437500
5891		-19.531250
5892		-21.484375
5893		-17.578125
5894		-21.484375
5895		-15.625000
5896		-19.531250
5897		-15.625000
5898		-17.578125
5899		-13.671875
5900		-15.625000
5901		-11.718750
5902		-13.671875
5903		-9.765625
5904		-13.671875
5905		-9.765625
5906		-11.718750
5907		-7.812500
5908		-9.765625
5909		-5.859375
5910		-7.812500
5911		-3.906250
5912		-7.812500
5913		-1.953125
5914		-5.859375
5915		0.000000
5916		-3.906250
5917		0.000000
5918		-3.906250
5919		1.953125
5920		-1.953125
5921		3.906250
5922		0.000000
5923		5.859375
5924		1.953125
5925		7.812500
5926		3.906250
5927		7.812500
5928		5.859375
5929		11.718750
5930		5.859375
5931		11.718750
5932		7.812500
5933		13.671875
5934		9.765625
5935		15.625000
5936		11.718750
5937		17.578125
5938		11.718750
5939		17.578125
5940		13.671875
5941		19.531250
5942		15.625000
5943		21.484375
5944		15.625000
5945		21.484375
5946		17.578125
5947		23.437500
5948		21.484375
5949		25.390625
5950		21.484375
5951		25.390625
5952		21.484375
5953		29.296875
5954		23.437500
5955		29.296875
5956		25.390625
5957		31.250000
5958		27.343750
5959		33.203125
5960		29.296875
5961		35.156250
5962		29.296875
5963		35.156250
5964		31.250000
5965		35.156250
5966		33.203125
5967		37.109375
5968		35.156250
5969		39.062500
5970		33.203125
5971		41.015625
5972		37.109375
5973		41.015625
5974		37.109375
5975		42.968750
5976		39.062500
5977		44.921875
5978		39.062500
5979		44.921875
5980		41.015625
5981		44.921875
5982		42.968750
5983		46.875000
5984		44.921875
5985		46.875000
5986		44.921875
5987		48.828125
5988		44.921875
5989		48.828125
5990		46.875000
5991		50.781250
5992		48.828125
5993		50.781250
5994		48.828125
5995		52.734375
5996		48.828125
5997		52.734375
5998		50.781250
5999		54.687500
6000		50.781250
6001		54.687500
6002		52.734375
6003		54.687500
6004		52.734375
6005		56.640625
6006		52.734375
6007		56.640625
6008		54.687500
6009		56.640625
6010		54.687500
6011		58.593750
6012		54.687500
6013		58.593750
6014		54.687500
6015		60.546875
6016		56.640625
6017		58.593750
6018		56.640625
6019		60.546875
6020		56.640625
6021		60.546875
6022		58.593750
6023		60.546875
6024		58.593750
6025		60.546875
6026		58.593750
6027		62.500000
6028		58.593750
6029		62.500000
6030		58.593750
6031		62.500000
6032		58.593750
6033		64.453125
6034		60.546875
6035		62.500000
6036		60.546875
6037		62.500000
6038		60.546875
6039		62.500000
6040		60.546875
6041		62.500000
6042		60.546875
6043		64.453125
6044		60.546875
6045		64.453125
6046		60.546875
6047		64.453125
6048		60.546875
6049		62.500000
6050		60.546875
6051		62.500000
6052		60.546875
6053		62.500000
6054		60.546875
6055		62.500000
6056		58.593750
6057		62.500000
6058		58.593750
6059		62.500000
6060		58.593750
6061		62.500000
6062		58.593750
6063		62.500000
6064		58.593750
6065		60.546875
6066		56.640625
6067		60.546875
6068		56.640625
6069		60.546875
6070		56.640625
6071		60.546875
6072		56.640625
6073		58.593750
6074		56.640625
6075		58.593750
6076		54.687500
6077		58.593750
6078		54.687500
6079		58.593750
6080		54.687500
6081		56.640625
6082		52.734375
6083		56.640625
6084		52.734375
6085		56.640625
6086		50.781250
6087		56.640625
6088		48.828125
6089		56.640625
6090		46.875000
6091		54.687500
6092		48.828125
6093		52.734375
6094		48.828125
6095		50.781250
6096		46.875000
6097		50.781250
6098		46.875000
6099		50.781250
6100		44.921875
6101		48.828125
6102		42.968750
6103		48.828125
6104		39.062500
6105		48.828125
6106		39.062500
6107		48.828125
6108		39.062500
6109		46.875000
6110		39.062500
6111		42.968750
6112		39.062500
6113		42.968750
6114		37.109375
6115		41.015625
6116		37.109375
6117		39.062500
6118		35.156250
6119		39.062500
6120		31.250000
6121		41.015625
6122		29.296875
6123		39.062500
6124		29.296875
6125		37.109375
6126		29.296875
6127		33.203125
6128		29.296875
6129		31.250000
6130		27.343750
6131		31.250000
6132		25.390625
6133		29.296875
6134		23.437500
6135		27.343750
6136		19.531250
6137		29.296875
6138		17.578125
6139		27.343750
6140		17.578125
6141		27.343750
6142		17.578125
6143		23.437500
6144		17.578125
6145		21.484375
6146		13.671875
6147		19.531250
6148		13.671875
6149		17.578125
6150		11.718750
6151		15.625000
6152		9.765625
6153		13.671875
6154		5.859375
6155		15.625000
6156		3.906250
6157		13.671875
6158		3.906250
6159		13.671875
6160		3.906250
6161		7.812500
6162		3.906250
6163		7.812500
6164		1.953125
6165		5.859375
6166		0.000000
6167		3.906250
6168		-1.953125
6169		1.953125
6170		-5.859375
6171		3.906250
6172		-7.812500
6173		0.000000
6174		-9.765625
6175		0.000000
6176		-7.812500
6177		-3.906250
6178		-9.765625
6179		-5.859375
6180		-11.718750
6181		-7.812500
6182		-11.718750
6183		-7.812500
6184		-13.671875
6185		-9.765625
6186		-17.578125
6187		-9.765625
6188		-19.531250
6189		-9.765625
6190		-21.484375
6191		-11.718750
6192		-21.484375
6193		-13.671875
6194		-21.484375
6195		-17.578125
6196		-23.437500
6197		-19.531250
6198		-25.390625
6199		-21.484375
6200		-25.390625
6201		-21.484375
6202		-27.343750
6203		-23.437500
6204		-31.250000
6205		-21.484375
6206		-33.203125
6207		-23.437500
6208		-33.203125
6209		-25.390625
6210		-33.203125
6211		-29.296875
6212		-33.203125
6213		-31.250000
6214		-35.156250
6215		-31.250000
6216		-37.109375
6217		-33.203125
6218		-37.109375
6219		-33.203125
6220		-41.015625
6221		-33.203125
6222		-42.968750
6223		-33.203125
6224		-44.921875
6225		-35.156250
6226		-44.921875
6227		-37.109375
6228		-42.968750
6229		-39.062500
6230		-44.921875
6231		-41.015625
6232		-44.921875
6233		-42.968750
6234		-46.875000
6235		-42.968750
6236		-46.875000
6237		-42.968750
6238		-50.781250
6239		-42.968750
6240		-52.734375
6241		-42.968750
6242		-52.734375
6243		-42.968750
6244		-50.781250
6245		-46.875000
6246		-50.781250
6247		-46.875000
6248		-52.734375
6249		-48.828125
6250		-52.734375
6251		-48.828125
6252		-52.734375
6253		-48.828125
6254		-56.640625
6255		-46.875000
6256		-58.593750
6257		-48.828125
6258		-56.640625
6259		-48.828125
6260		-54.687500
6261		-50.781250
6262		-54.687500
6263		-50.781250
6264		-54.687500
6265		-52.734375
6266		-56.640625
6267		-52.734375
6268		-56.640625
6269		-52.734375
6270		-56.640625
6271		-52.734375
6272		-58.593750
6273		-50.781250
6274		-58.593750
6275		-50.781250
6276		-56.640625
6277		-54.687500
6278		-56.640625
6279		-54.687500
6280		-56.640625
6281		-54.687500
6282		-56.640625
6283		-52.734375
6284		-56.640625
6285		-52.734375
6286		-56.640625
6287		-52.734375
6288		-56.640625
6289		-52.734375
6290		-56.640625
6291		-50.781250
6292		-56.640625
6293		-50.781250
6294		-54.687500
6295		-52.734375
6296		-54.687500
6297		-50.781250
6298		-54.687500
6299		-50.781250
6300		-54.687500
6301		-50.781250
6302		-52.734375
6303		-50.781250
6304		-52.734375
6305		-48.828125
6306		-54.687500
6307		-48.828125
6308		-54.687500
6309		-46.875000
6310		-50.781250
6311		-46.875000
6312		-50.781250
6313		-46.875000
6314		-50.781250
6315		-46.875000
6316		-48.828125
6317		-44.921875
6318		-48.828125
6319		-44.921875
6320		-48.828125
6321		-44.921875
6322		-46.875000
6323		-42.968750
6324		-44.921875
6325		-42.968750
6326		-44.921875
6327		-41.015625
6328		-42.968750
6329		-41.015625
6330		-42.968750
6331		-39.062500
6332		-41.015625
6333		-37.109375
6334		-41.015625
6335		-37.109375
6336		-39.062500
6337		-35.156250
6338		-37.109375
6339		-35.156250
6340		-37.109375
6341		-33.203125
6342		-35.156250
6343		-31.250000
6344		-35.156250
6345		-31.250000
6346		-33.203125
6347		-29.296875
6348		-31.250000
6349		-29.296875
6350		-31.250000
6351		-27.343750
6352		-29.296875
6353		-25.390625
6354		-27.343750
6355		-23.437500
6356		-27.343750
6357		-23.437500
6358		-25.390625
6359		-21.484375
6360		-23.437500
6361		-19.531250
6362		-21.484375
6363		-17.578125
6364		-21.484375
6365		-15.625000
6366		-19.531250
6367		-15.625000
6368		-19.531250
6369		-13.671875
6370		-15.625000
6371		-11.718750
6372		-15.625000
6373		-11.718750
6374		-13.671875
6375		-9.765625
6376		-11.718750
6377		-7.812500
6378		-9.765625
6379		-5.859375
6380		-9.765625
6381		-5.859375
6382		-7.812500
6383		-3.906250
6384		-5.859375
6385		-1.953125
6386		-3.906250
6387		0.000000
6388		-1.953125
6389		1.953125
6390		-1.953125
6391		3.906250
6392		0.000000
6393		3.906250
6394		1.953125
6395		5.859375
6396		1.953125
6397		7.812500
6398		5.859375
6399		9.765625
6400		5.859375
6401		11.718750
6402		7.812500
6403		11.718750
6404		9.765625
6405		15.625000
6406		9.765625
6407		15.625000
6408		11.718750
6409		17.578125
6410		13.671875
6411		17.578125
6412		15.625000
6413		19.531250
6414		15.625000
6415		21.484375
6416		19.531250
6417		21.484375
6418		19.531250
6419		23.437500
6420		21.484375
6421		25.390625
6422		23.437500
6423		27.343750
6424		25.390625
6425		29.296875
6426		25.390625
6427		29.296875
6428		27.343750
6429		31.250000
6430		27.343750
6431		33.203125
6432		29.296875
6433		35.156250
6434		31.250000
6435		35.156250
6436		33.203125
6437		37.109375
6438		33.203125
6439		39.062500
6440		35.156250
6441		39.062500
6442		37.109375
6443		41.015625
6444		37.109375
6445		41.015625
6446		39.062500
6447		42.968750
6448		39.062500
6449		44.921875
6450		41.015625
6451		44.921875
6452		42.968750
6453		44.921875
6454		42.968750
6455		46.875000
6456		42.968750
6457		48.828125
6458		44.921875
6459		48.828125
6460		46.875000
6461		50.781250
6462		46.875000
6463		50.781250
6464		46.875000
6465		52.734375
6466		48.828125
6467		52.734375
6468		50.781250
6469		54.687500
6470		50.781250
6471		54.687500
6472		50.781250
6473		56.640625
6474		52.734375
6475		56.640625
6476		52.734375
6477		56.640625
6478		54.687500
6479		58.593750
6480		52.734375
6481		58.593750
6482		54.687500
6483		60.546875
6484		56.640625
6485		60.546875
6486		56.640625
6487		60.546875
6488		56.640625
6489		60.546875
6490		56.640625
6491		62.500000
6492		56.640625
6493		62.500000
6494		58.593750
6495		62.500000
6496		58.593750
6497		62.500000
6498		58.593750
6499		62.500000
6500		60.546875
6501		62.500000
6502		60.546875
6503		62.500000
6504		60.546875
6505		64.453125
6506		58.593750
6507		64.453125
6508		60.546875
6509		64.453125
6510		60.546875
6511		64.453125
6512		60.546875
6513		64.453125
6514		60.546875
6515		64.453125
6516		60.546875
6517		64.453125
6518		60.546875
6519		64.453125
6520		60.546875
6521		64.453125
6522		60.546875
6523		64.453125
6524		58.593750
6525		64.453125
6526		60.546875
6527		64.453125
6528		60.546875
6529		62.500000
6530		58.593750
6531		62.500000
6532		58.593750
6533		62.500000
6534		58.593750
6535		62.500000
6536		58.593750
6537		62.500000
6538		58.593750
6539		60.546875
6540		58.593750
6541		60.546875
6542		56.640625
6543		62.500000
6544		56.640625
6545		60.546875
6546		56.640625
6547		60.546875
6548		54.687500
6549		58.593750
6550		54.687500
6551		58.593750
6552		54.687500
6553		58.593750
6554		52.734375
6555		58.593750
6556		52.734375
6557		56.640625
6558		52.734375
6559		54.687500
6560		50.781250
6561		54.687500
6562		50.781250
6563		54.687500
6564		48.828125
6565		52.734375
6566		48.828125
6567		52.734375
6568		48.828125
6569		50.781250
6570		46.875000
6571		50.781250
6572		46.875000
6573		48.828125
6574		44.921875
6575		48.828125
6576		42.968750
6577		46.875000
6578		42.968750
6579		46.875000
6580		41.015625
6581		44.921875
6582		41.015625
6583		42.968750
6584		39.062500
6585		42.968750
6586		37.109375
6587		41.015625
6588		37.109375
6589		41.015625
6590		35.156250
6591		39.062500
6592		35.156250
6593		37.109375
6594		33.203125
6595		37.109375
6596		31.250000
6597		35.156250
6598		29.296875
6599		33.203125
6600		29.296875
6601		33.203125
6602		27.343750
6603		31.250000
6604		25.390625
6605		29.296875
6606		25.390625
6607		29.296875
6608		23.437500
6609		27.343750
6610		21.484375
6611		25.390625
6612		19.531250
6613		23.437500
6614		17.578125
6615		21.484375
6616		17.578125
6617		21.484375
6618		15.625000
6619		19.531250
6620		13.671875
6621		17.578125
6622		11.718750
6623		15.625000
6624		11.718750
6625		15.625000
6626		9.765625
6627		13.671875
6628		7.812500
6629		11.718750
6630		5.859375
6631		9.765625
6632		3.906250
6633		7.812500
6634		1.953125
6635		5.859375
6636		1.953125
6637		5.859375
6638		0.000000
6639		3.906250
6640		-1.953125
6641		1.953125
6642		-3.906250
6643		0.000000
6644		-3.906250
6645		0.000000
6646		-5.859375
6647		-1.953125
6648		-7.812500
6649		-3.906250
6650		-9.765625
6651		-5.859375
6652		-11.718750
6653		-7.812500
6654		-13.671875
6655		-9.765625
6656		-13.671875
6657		-9.765625
6658		-15.625000
6659		-11.718750
6660		-17.578125
6661		-13.671875
6662		-19.531250
6663		-15.625000
6664		-19.531250
6665		-15.625000
6666		-21.484375
6667		-17.578125
6668		-23.437500
6669		-19.531250
6670		-25.390625
6671		-19.531250
6672		-25.390625
6673		-21.484375
6674		-27.343750
6675		-23.437500
6676		-29.296875
6677		-25.390625
6678		-29.296875
6679		-27.343750
6680		-31.250000
6681		-27.343750
6682		-33.203125
6683		-29.296875
6684		-33.203125
6685		-31.250000
6686		-35.156250
6687		-31.250000
6688		-37.109375
6689		-33.203125
6690		-37.109375
6691		-33.203125
6692		-39.062500
6693		-35.156250
6694		-39.062500
6695		-37.109375
6696		-41.015625
6697		-37.109375
6698		-42.968750
6699		-39.062500
6700		-42.968750
6701		-39.062500
6702		-44.921875
6703		-41.015625
6704		-44.921875
6705		-41.015625
6706		-46.875000
6707		-42.968750
6708		-46.875000
6709		-42.968750
6710		-48.828125
6711		-42.968750
6712		-48.828125
6713		-44.921875
6714		-48.828125
6715		-46.875000
6716		-50.781250
6717		-46.875000
6718		-50.781250
6719		-46.875000
6720		-50.781250
6721		-46.875000
6722		-52.734375
6723		-48.828125
6724		-54.687500
6725		-48.828125
6726		-54.687500
6727		-48.828125
6728		-52.734375
6729		-50.781250
6730		-54.687500
6731		-50.781250
6732		-54.687500
6733		-50.781250
6734		-54.687500
6735		-52.734375
6736		-54.687500
6737		-52.734375
6738		-54.687500
6739		-52.734375
6740		-56.640625
6741		-52.734375
6742		-58.593750
6743		-50.781250
6744		-56.640625
6745		-52.734375
6746		-56.640625
6747		-52.734375
6748		-56.640625
6749		-52.734375
6750		-56.640625
6751		-52.734375
6752		-56.640625
6753		-52.734375
6754		-56.640625
6755		-52.734375
6756		-56.640625
6757		-52.734375
6758		-58.593750
6759		-50.781250
6760		-56.640625
6761		-50.781250
6762		-56.640625
6763		-52.734375
6764		-54.687500
6765		-52.734375
6766		-54.687500
6767		-50.781250
6768		-54.687500
6769		-50.781250
6770		-54.687500
6771		-50.781250
6772		-54.687500
6773		-50.781250
6774		-54.687500
6775		-48.828125
6776		-54.687500
6777		-46.875000
6778		-52.734375
6779		-46.875000
6780		-50.781250
6781		-46.875000
6782		-50.781250
6783		-46.875000
6784		-50.781250
6785		-46.875000
6786		-48.828125
6787		-44.921875
6788		-48.828125
6789		-44.921875
6790		-46.875000
6791		-44.921875
6792		-48.828125
6793		-41.015625
6794		-46.875000
6795		-41.015625
6796		-44.921875
6797		-41.015625
6798		-42.968750
6799		-41.015625
6800		-42.968750
6801		-39.062500
6802		-41.015625
6803		-37.109375
6804		-41.015625
6805		-37.109375
6806		-39.062500
6807		-35.156250
6808		-39.062500
6809		-33.203125
6810		-39.062500
6811		-33.203125
6812		-35.156250
6813		-33.203125
6814		-35.156250
6815		-31.250000
6816		-33.203125
6817		-29.296875
6818		-31.250000
6819		-29.296875
6820		-31.250000
6821		-27.343750
6822		-29.296875
6823		-25.390625
6824		-27.343750
6825		-23.437500
6826		-27.343750
6827		-21.484375
6828		-27.343750
6829		-21.484375
6830		-25.390625
6831		-19.531250
6832		-23.437500
6833		-19.531250
6834		-21.484375
6835		-17.578125
6836		-19.531250
6837		-15.625000
6838		-17.578125
6839		-13.671875
6840		-17.578125
6841		-11.718750
6842		-15.625000
6843		-9.765625
6844		-15.625000
6845		-7.812500
6846		-11.718750
6847		-7.812500
6848		-9.765625
6849		-5.859375
6850		-9.765625
6851		-5.859375
6852		-7.812500
6853		-3.906250
6854		-5.859375
6855		-1.953125
6856		-3.906250
6857		0.000000
6858		-3.906250
6859		1.953125
6860		-1.953125
6861		3.906250
6862		-1.953125
6863		3.906250
6864		1.953125
6865		5.859375
6866		3.906250
6867		7.812500
6868		3.906250
6869		9.765625
6870		5.859375
6871		9.765625
6872		7.812500
6873		11.718750
6874		9.765625
6875		13.671875
6876		9.765625
6877		15.625000
6878		11.718750
6879		17.578125
6880		13.671875
6881		17.578125
6882		15.625000
6883		19.531250
6884		17.578125
6885		21.484375
6886		19.531250
6887		23.437500
6888		19.531250
6889		23.437500
6890		21.484375
6891		25.390625
6892		23.437500
6893		27.343750
6894		23.437500
6895		29.296875
6896		25.390625
6897		29.296875
6898		27.343750
6899		31.250000
6900		29.296875
6901		33.203125
6902		29.296875
6903		33.203125
6904		31.250000
6905		35.156250
6906		33.203125
6907		37.109375
6908		33.203125
6909		39.062500
6910		35.156250
6911		39.062500
6912		37.109375
6913		39.062500
6914		39.062500
6915		41.015625
6916		39.062500
6917		42.968750
6918		41.015625
6919		42.968750
6920		41.015625
6921		44.921875
6922		42.968750
6923		44.921875
6924		42.968750
6925		46.875000
6926		44.921875
6927		48.828125
6928		44.921875
6929		48.828125
6930		46.875000
6931		50.781250
6932		46.875000
6933		50.781250
6934		48.828125
6935		52.734375
6936		48.828125
6937		52.734375
6938		50.781250
6939		52.734375
6940		50.781250
6941		54.687500
6942		50.781250
6943		56.640625
6944		52.734375
6945		56.640625
6946		54.687500
6947		56.640625
6948		54.687500
6949		58.593750
6950		54.687500
6951		58.593750
6952		54.687500
6953		58.593750
6954		56.640625
6955		58.593750
6956		56.640625
6957		60.546875
6958		56.640625
6959		60.546875
6960		58.593750
6961		60.546875
6962		58.593750
6963		60.546875
6964		58.593750
6965		62.500000
6966		58.593750
6967		62.500000
6968		60.546875
6969		62.500000
6970		60.546875
6971		62.500000
6972		60.546875
6973		62.500000
6974		60.546875
6975		64.453125
6976		60.546875
6977		64.453125
6978		60.546875
6979		64.453125
6980		60.546875
6981		64.453125
6982		60.546875
6983		64.453125
6984		60.546875
6985		64.453125
6986		62.500000
6987		64.453125
6988		60.546875
6989		64.453125
6990		60.546875
6991		64.453125
6992		60.546875
6993		64.453125
6994		60.546875
6995		64.453125
6996		60.546875
6997		64.453125
6998		60.546875
6999		64.453125
7000		60.546875
7001		62.500000
7002		60.546875
7003		62.500000
7004		60.546875
7005		62.500000
7006		60.546875
7007		62.500000
7008		58.593750
7009		62.500000
7010		58.593750
7011		62.500000
7012		58.593750
7013		60.546875
7014		58.593750
7015		60.546875
7016		56.640625
7017		60.546875
7018		56.640625
7019		60.546875
7020		56.640625
7021		58.593750
7022		54.687500
7023		58.593750
7024		54.687500
7025		58.593750
7026		54.687500
7027		56.640625
7028		52.734375
7029		56.640625
7030		52.734375
7031		54.687500
7032		50.781250
7033		54.687500
7034		50.781250
7035		54.687500
7036		50.781250
7037		52.734375
7038		48.828125
7039		52.734375
7040		46.875000
7041		50.781250
7042		46.875000
7043		50.781250
7044		44.921875
7045		48.828125
7046		44.921875
7047		48.828125
7048		42.968750
7049		46.875000
7050		42.968750
7051		46.875000
7052		41.015625
7053		44.921875
7054		41.015625
7055		42.968750
7056		39.062500
7057		42.968750
7058		39.062500
7059		41.015625
7060		37.109375
7061		41.015625
7062		35.156250
7063		39.062500
7064		33.203125
7065		37.109375
7066		33.203125
7067		37.109375
7068		31.250000
7069		35.156250
7070		29.296875
7071		33.203125
7072		29.296875
7073		33.203125
7074		27.343750
7075		31.250000
7076		25.390625
7077		29.296875
7078		23.437500
7079		29.296875
7080		23.437500
7081		27.343750
7082		21.484375
7083		25.390625
7084		19.531250
7085		23.437500
7086		19.531250
7087		21.484375
7088		15.625000
7089		21.484375
7090		15.625000
7091		19.531250
7092		13.671875
7093		17.578125
7094		11.718750
7095		15.625000
7096		11.718750
7097		15.625000
7098		9.765625
7099		13.671875
7100		7.812500
7101		11.718750
7102		5.859375
7103		9.765625
7104		3.906250
7105		7.812500
7106		3.906250
7107		7.812500
7108		1.953125
7109		5.859375
7110		-1.953125
7111		3.906250
7112		-1.953125
7113		1.953125
7114		-3.906250
7115		0.000000
7116		-5.859375
7117		-1.953125
7118		-5.859375
7119		-1.953125
7120		-7.812500
7121		-3.906250
7122		-9.765625
7123		-5.859375
7124		-11.718750
7125		-7.812500
7126		-11.718750
7127		-7.812500
7128		-13.671875
7129		-9.765625
7130		-15.625000
7131		-11.718750
7132		-17.578125
7133		-13.671875
7134		-17.578125
7135		-13.671875
7136		-19.531250
7137		-15.625000
7138		-21.484375
7139		-17.578125
7140		-23.437500
7141		-19.531250
7142		-23.437500
7143		-19.531250
7144		-25.390625
7145		-21.484375
7146		-27.343750
7147		-23.437500
7148		-29.296875
7149		-25.390625
7150		-29.296875
7151		-25.390625
7152		-31.250000
7153		-27.343750
7154		-33.203125
7155		-29.296875
7156		-33.203125
7157		-29.296875
7158		-35.156250
7159		-31.250000
7160		-35.156250
7161		-33.203125
7162		-37.109375
7163		-33.203125
7164		-39.062500
7165		-35.156250
7166		-39.062500
7167		-37.109375
7168		-41.015625
7169		-37.109375
7170		-41.015625
7171		-39.062500
7172		-42.968750
7173		-39.062500
7174		-42.968750
7175		-41.015625
7176		-44.921875
7177		-41.015625
7178		-44.921875
7179		-42.968750
7180		-46.875000
7181		-42.968750
7182		-46.875000
7183		-44.921875
7184		-48.828125
7185		-44.921875
7186		-48.828125
7187		-44.921875
7188		-48.828125
7189		-46.875000
7190		-50.781250
7191		-46.875000
7192		-50.781250
7193		-46.875000
7194		-50.781250
7195		-48.828125
7196		-52.734375
7197		-48.828125
7198		-52.734375
7199		-48.828125
7200		-52.734375
7201		-48.828125
7202		-52.734375
7203		-50.781250
7204		-52.734375
7205		-50.781250
7206		-54.687500
7207		-50.781250
7208		-54.687500
7209		-50.781250
7210		-54.687500
7211		-50.781250
7212		-54.687500
7213		-52.734375
7214		-54.687500
7215		-52.734375
7216		-54.687500
7217		-52.734375
7218		-54.687500
7219		-52.734375
7220		-54.687500
7221		-52.734375
7222		-54.687500
7223		-50.781250
7224		-54.687500
7225		-52.734375
7226		-54.687500
7227		-52.734375
7228		-54.687500
7229		-52.734375
7230		-54.687500
7231		-52.734375
7232		-54.687500
7233		-50.781250
7234		-54.687500
7235		-50.781250
7236		-54.687500
7237		-50.781250
7238		-54.687500
7239		-50.781250
7240		-52.734375
7241		-50.781250
7242		-52.734375
7243		-48.828125
7244		-52.734375
7245		-48.828125
7246		-52.734375
7247		-48.828125
7248		-50.781250
7249		-46.875000
7250		-50.781250
7251		-46.875000
7252		-50.781250
7253		-46.875000
7254		-48.828125
7255		-46.875000
7256		-48.828125
7257		-44.921875
7258		-46.875000
7259		-44.921875
7260		-46.875000
7261		-42.968750
7262		-46.875000
7263		-42.968750
7264		-44.921875
7265		-42.968750
7266		-44.921875
7267		-41.015625
7268		-42.968750
7269		-39.062500
7270		-42.968750
7271		-39.062500
7272		-41.015625
7273		-39.062500
7274		-41.015625
7275		-37.109375
7276		-39.062500
7277		-35.156250
7278		-39.062500
7279		-35.156250
7280		-37.109375
7281		-33.203125
7282		-35.156250
7283		-33.203125
7284		-35.156250
7285		-31.250000
7286		-33.203125
7287		-29.296875
7288		-31.250000
7289		-29.296875
7290		-31.250000
7291		-27.343750
7292		-29.296875
7293		-25.390625
7294		-27.343750
7295		-25.390625
7296		-27.343750
7297		-23.437500
7298		-25.390625
7299		-21.484375
7300		-23.437500
7301		-19.531250
7302		-23.437500
7303		-19.531250
7304		-21.484375
7305		-17.578125
7306		-19.531250
7307		-15.625000
7308		-17.578125
7309		-15.625000
7310		-15.625000
7311		-13.671875
7312		-15.625000
7313		-11.718750
7314		-13.671875
7315		-9.765625
7316		-11.718750
7317		-7.812500
7318		-9.765625
7319		-7.812500
7320		-9.765625
7321		-5.859375
7322		-7.812500
7323		-1.953125
7324		-5.859375
7325		-1.953125
7326		-3.906250
7327		0.000000
7328		-1.953125
7329		0.000000
7330		-1.953125
7331		1.953125
7332		0.000000
7333		3.906250
7334		1.953125
7335		5.859375
7336		3.906250
7337		7.812500
7338		3.906250
7339		7.812500
7340		5.859375
7341		9.765625
7342		7.812500
7343		11.718750
7344		9.765625
7345		13.671875
7346		11.718750
7347		15.625000
7348		11.718750
7349		17.578125
7350		13.671875
7351		17.578125
7352		15.625000
7353		19.531250
7354		17.578125
7355		21.484375
7356		19.531250
7357		21.484375
7358		19.531250
7359		23.437500
7360		21.484375
7361		25.390625
7362		23.437500
7363		27.343750
7364		25.390625
7365		27.343750
7366		25.390625
7367		31.250000
7368		27.343750
7369		31.250000
7370		29.296875
7371		33.203125
7372		31.250000
7373		33.203125
7374		31.250000
7375		35.156250
7376		33.203125
7377		37.109375
7378		35.156250
7379		37.109375
7380		35.156250
7381		39.062500
7382		35.156250
7383		41.015625
7384		37.109375
7385		41.015625
7386		39.062500
7387		42.968750
7388		41.015625
7389		44.921875
7390		41.015625
7391		44.921875
7392		42.968750
7393		46.875000
7394		44.921875
7395		46.875000
7396		44.921875
7397		48.828125
7398		46.875000
7399		48.828125
7400		46.875000
7401		50.781250
7402		48.828125
7403		52.734375
7404		48.828125
7405		52.734375
7406		50.781250
7407		52.734375
7408		50.781250
7409		54.687500
7410		50.781250
7411		54.687500
7412		52.734375
7413		56.640625
7414		52.734375
7415		56.640625
7416		54.687500
7417		56.640625
7418		54.687500
7419		58.593750
7420		56.640625
7421		58.593750
7422		56.640625
7423		60.546875
7424		56.640625
7425		60.546875
7426		58.593750
7427		60.546875
7428		58.593750
7429		60.546875
7430		58.593750
7431		62.500000
7432		58.593750
7433		62.500000
7434		60.546875
7435		62.500000
7436		60.546875
7437		62.500000
7438		60.546875
7439		62.500000
7440		60.546875
7441		64.453125
7442		60.546875
7443		64.453125
7444		60.546875
7445		64.453125
7446		60.546875
7447		64.453125
7448		62.500000
7449		64.453125
7450		62.500000
7451		64.453125
7452		62.500000
7453		64.453125
7454		62.500000
7455		64.453125
7456		62.500000
7457		64.453125
7458		62.500000
7459		64.453125
7460		62.500000
7461		64.453125
7462		62.500000
7463		64.453125
7464		62.500000
7465		64.453125
7466		62.500000
7467		64.453125
7468		62.500000
7469		64.453125
7470		60.546875
7471		64.453125
7472		60.546875
7473		64.453125
7474		60.546875
7475		64.453125
7476		60.546875
7477		64.453125
7478		60.546875
7479		62.500000
7480		60.546875
7481		62.500000
7482		58.593750
7483		62.500000
7484		58.593750
7485		62.500000
7486		58.593750
7487		60.546875
7488		58.593750
7489		60.546875
7490		56.640625
7491		60.546875
7492		56.640625
7493		60.546875
7494		56.640625
7495		58.593750
7496		54.687500
7497		58.593750
7498		54.687500
7499		58.593750
7500		54.687500
7501		56.640625
7502		52.734375
7503		56.640625
7504		52.734375
7505		54.687500
7506		50.781250
7507		54.687500
7508		50.781250
7509		54.687500
7510		48.828125
7511		52.734375
7512		48.828125
7513		50.781250
7514		46.875000
7515		50.781250
7516		46.875000
7517		48.828125
7518		44.921875
7519		48.828125
7520		44.921875
7521		48.828125
7522		42.968750
7523		46.875000
7524		42.968750
7525		44.921875
7526		41.015625
7527		44.921875
7528		39.062500
7529		42.968750
7530		39.062500
7531		41.015625
7532		37.109375
7533		41.015625
7534		35.156250
7535		39.062500
7536		35.156250
7537		39.062500
7538		33.203125
7539		37.109375
7540		31.250000
7541		35.156250
7542		31.250000
7543		33.203125
7544		29.296875
7545		33.203125
7546		27.343750
7547		31.250000
7548		25.390625
7549		29.296875
7550		25.390625
7551		29.296875
7552		23.437500
7553		27.343750
7554		21.484375
7555		25.390625
7556		19.531250
7557		23.437500
7558		19.531250
7559		23.437500
7560		17.578125
7561		21.484375
7562		15.625000
7563		19.531250
7564		13.671875
7565		17.578125
7566		11.718750
7567		17.578125
7568		11.718750
7569		15.625000
7570		9.765625
7571		13.671875
7572		7.812500
7573		11.718750
7574		5.859375
7575		9.765625
7576		3.906250
7577		9.765625
7578		3.906250
7579		7.812500
7580		1.953125
7581		5.859375
7582		0.000000
7583		3.906250
7584		-1.953125
7585		1.953125
7586		-3.906250
7587		0.000000
7588		-3.906250
7589		0.000000
7590		-5.859375
7591		-1.953125
7592		-7.812500
7593		-3.906250
7594		-9.765625
7595		-5.859375
7596		-11.718750
7597		-7.812500
7598		-11.718750
7599		-7.812500
7600		-13.671875
7601		-9.765625
7602		-15.625000
7603		-11.718750
7604		-17.578125
7605		-13.671875
7606		-17.578125
7607		-13.671875
7608		-19.531250
7609		-15.625000
7610		-21.484375
7611		-17.578125
7612		-23.437500
7613		-19.531250
7614		-23.437500
7615		-19.531250
7616		-25.390625
7617		-21.484375
7618		-27.343750
7619		-23.437500
7620		-27.343750
7621		-25.390625
7622		-29.296875
7623		-25.390625
7624		-31.250000
7625		-27.343750
7626		-31.250000
7627		-27.343750
7628		-33.203125
7629		-29.296875
7630		-35.156250
7631		-31.250000
7632		-35.156250
7633		-31.250000
7634		-37.109375
7635		-33.203125
7636		-37.109375
7637		-35.156250
7638		-39.062500
7639		-35.156250
7640		-41.015625
7641		-35.156250
7642		-41.015625
7643		-37.109375
7644		-42.968750
7645		-39.062500
7646		-42.968750
7647		-39.062500
7648		-44.921875
7649		-41.015625
7650		-44.921875
7651		-41.015625
7652		-46.875000
7653		-42.968750
7654		-46.875000
7655		-42.968750
7656		-46.875000
7657		-44.921875
7658		-48.828125
7659		-44.921875
7660		-48.828125
7661		-44.921875
7662		-48.828125
7663		-46.875000
7664		-50.781250
7665		-46.875000
7666		-50.781250
7667		-46.875000
7668		-50.781250
7669		-48.828125
7670		-52.734375
7671		-48.828125
7672		-52.734375
7673		-48.828125
7674		-52.734375
7675		-50.781250
7676		-52.734375
7677		-50.781250
7678		-52.734375
7679		-50.781250
7680		-54.687500
7681		-50.781250
7682		-54.687500
7683		-50.781250
7684		-54.687500
7685		-50.781250
7686		-54.687500
7687		-50.781250
7688		-54.687500
7689		-50.781250
7690		-54.687500
7691		-50.781250
7692		-54.687500
7693		-50.781250
7694		-54.687500
7695		-50.781250
7696		-54.687500
7697		-50.781250
7698		-54.687500
7699		-50.781250
7700		-54.687500
7701		-50.781250
7702		-54.687500
7703		-50.781250
7704		-54.687500
7705		-50.781250
7706		-52.734375
7707		-50.781250
7708		-52.734375
7709		-48.828125
7710		-52.734375
7711		-48.828125
7712		-52.734375
7713		-48.828125
7714		-52.734375
7715		-48.828125
7716		-50.781250
7717		-48.828125
7718		-50.781250
7719		-48.828125
7720		-50.781250
7721		-46.875000
7722		-48.828125
7723		-46.875000
7724		-48.828125
7725		-44.921875
7726		-48.828125
7727		-44.921875
7728		-48.828125
7729		-44.921875
7730		-46.875000
7731		-42.968750
7732		-46.875000
7733		-41.015625
7734		-44.921875
7735		-41.015625
7736		-44.921875
7737		-39.062500
7738		-44.921875
7739		-39.062500
7740		-42.968750
7741		-39.062500
7742		-42.968750
7743		-37.109375
7744		-41.015625
7745		-37.109375
7746		-39.062500
7747		-35.156250
7748		-37.109375
7749		-35.156250
7750		-37.109375
7751		-33.203125
7752		-35.156250
7753		-33.203125
7754		-37.109375
7755		-29.296875
7756		-33.203125
7757		-29.296875
7758		-33.203125
7759		-27.343750
7760		-31.250000
7761		-27.343750
7762		-33.203125
7763		-23.437500
7764		-29.296875
7765		-25.390625
7766		-27.343750
7767		-23.437500
7768		-27.343750
7769		-21.484375
7770		-25.390625
7771		-19.531250
7772		-23.437500
7773		-17.578125
7774		-21.484375
7775		-17.578125
7776		-21.484375
7777		-15.625000
7778		-19.531250
7779		-11.718750
7780		-17.578125
7781		-13.671875
7782		-15.625000
7783		-11.718750
7784		-15.625000
7785		-9.765625
7786		-15.625000
7787		-7.812500
7788		-11.718750
7789		-7.812500
7790		-9.765625
7791		-5.859375
7792		-9.765625
7793		-1.953125
7794		-5.859375
7795		-1.953125
7796		-7.812500
7797		0.000000
7798		-3.906250
7799		0.000000
7800		-1.953125
7801		1.953125
7802		-1.953125
7803		5.859375
7804		0.000000
7805		5.859375
7806		1.953125
7807		7.812500
7808		3.906250
7809		9.765625
7810		5.859375
7811		9.765625
7812		5.859375
7813		11.718750
7814		9.765625
7815		11.718750
7816		9.765625
7817		13.671875
7818		11.718750
7819		17.578125
7820		11.718750
7821		19.531250
7822		13.671875
7823		19.531250
7824		15.625000
7825		21.484375
7826		15.625000
7827		25.390625
7828		17.578125
7829		25.390625
7830		21.484375
7831		25.390625
7832		21.484375
7833		25.390625
7834		23.437500
7835		29.296875
7836		23.437500
7837		31.250000
7838		25.390625
7839		31.250000
7840		29.296875
7841		33.203125
7842		27.343750
7843		35.156250
7844		27.343750
7845		37.109375
7846		29.296875
7847		39.062500
7848		33.203125
7849		37.109375
7850		35.156250
7851		39.062500
7852		35.156250
7853		41.015625
7854		35.156250
7855		42.968750
7856		37.109375
7857		42.968750
7858		39.062500
7859		42.968750
7860		39.062500
7861		46.875000
7862		39.062500
7863		48.828125
7864		42.968750
7865		46.875000
7866		44.921875
7867		48.828125
7868		44.921875
7869		48.828125
7870		44.921875
7871		52.734375
7872		46.875000
7873		50.781250
7874		48.828125
7875		52.734375
7876		46.875000
7877		56.640625
7878		46.875000
7879		54.687500
7880		48.828125
7881		56.640625
7882		52.734375
7883		54.687500
7884		52.734375
7885		58.593750
7886		52.734375
7887		60.546875
7888		52.734375
7889		58.593750
7890		54.687500
7891		58.593750
7892		54.687500
7893		60.546875
7894		52.734375
7895		62.500000
7896		54.687500
7897		64.453125
7898		58.593750
7899		60.546875
7900		58.593750
7901		62.500000
7902		58.593750
7903		62.500000
7904		56.640625
7905		64.453125
7906		58.593750
7907		62.500000
7908		60.546875
7909		62.500000
7910		58.593750
7911		66.406250
7912		58.593750
7913		66.406250
7914		60.546875
7915		64.453125
7916		60.546875
7917		64.453125
7918		60.546875
7919		66.406250
7920		58.593750
7921		68.359375
7922		60.546875
7923		66.406250
7924		62.500000
7925		64.453125
7926		60.546875
7927		68.359375
7928		58.593750
7929		68.359375
7930		60.546875
7931		68.359375
7932		62.500000
7933		64.453125
7934		62.500000
7935		64.453125
7936		60.546875
7937		66.406250
7938		58.593750
7939		68.359375
7940		62.500000
7941		64.453125
7942		60.546875
7943		64.453125
7944		58.593750
7945		66.406250
7946		58.593750
7947		64.453125
7948		60.546875
7949		64.453125
7950		60.546875
7951		62.500000
7952		58.593750
7953		64.453125
7954		54.687500
7955		64.453125
7956		56.640625
7957		62.500000
7958		58.593750
7959		60.546875
7960		54.687500
7961		62.500000
7962		54.687500
7963		62.500000
7964		52.734375
7965		60.546875
7966		54.687500
7967		58.593750
7968		52.734375
7969		58.593750
7970		50.781250
7971		60.546875
7972		50.781250
7973		56.640625
7974		52.734375
7975		54.687500
7976		48.828125
7977		56.640625
7978		48.828125
7979		56.640625
7980		46.875000
7981		54.687500
7982		48.828125
7983		52.734375
7984		46.875000
7985		50.781250
7986		44.921875
7987		50.781250
7988		44.921875
7989		48.828125
7990		42.968750
7991		48.828125
7992		42.968750
7993		46.875000
7994		39.062500
7995		48.828125
7996		41.015625
7997		44.921875
7998		39.062500
7999		44.921875
8000		39.062500
8001		42.968750
8002		37.109375
8003		41.015625
8004		33.203125
8005		41.015625
8006		35.156250
8007		39.062500
8008		33.203125
8009		37.109375
8010		31.250000
8011		35.156250
8012		29.296875
8013		35.156250
8014		27.343750
8015		35.156250
8016		27.343750
8017		31.250000
8018		25.390625
8019		29.296875
8020		25.390625
8021		29.296875
8022		21.484375
8023		29.296875
8024		21.484375
8025		27.343750
8026		19.531250
8027		25.390625
8028		17.578125
8029		25.390625
8030		17.578125
8031		21.484375
8032		15.625000
8033		19.531250
8034		15.625000
8035		19.531250
8036		13.671875
8037		17.578125
8038		11.718750
8039		15.625000
8040		7.812500
8041		15.625000
8042		7.812500
8043		11.718750
8044		5.859375
8045		11.718750
8046		5.859375
8047		9.765625
8048		3.906250
8049		7.812500
8050		1.953125
8051		5.859375
8052		0.000000
8053		3.906250
8054		-1.953125
8055		1.953125
8056		-1.953125
8057		0.000000
8058		-3.906250
8059		0.000000
8060		-5.859375
8061		-1.953125
8062		-7.812500
8063		-3.906250
8064		-9.765625
8065		-5.859375
8066		-11.718750
8067		-5.859375
8068		-11.718750
8069		-7.812500
8070		-13.671875
8071		-9.765625
8072		-15.625000
8073		-11.718750
8074		-17.578125
8075		-11.718750
8076		-17.578125
8077		-13.671875
8078		-19.531250
8079		-15.625000
8080		-21.484375
8081		-17.578125
8082		-23.437500
8083		-19.531250
8084		-23.437500
8085		-21.484375
8086		-27.343750
8087		-21.484375
8088		-27.343750
8089		-23.437500
8090		-29.296875
8091		-23.437500
8092		-31.250000
8093		-23.437500
8094		-31.250000
8095		-27.343750
8096		-33.203125
8097		-27.343750
8098		-33.203125
8099		-29.296875
8100		-35.156250
8101		-31.250000
8102		-37.109375
8103		-33.203125
8104		-39.062500
8105		-31.250000
8106		-39.062500
8107		-33.203125
8108		-41.015625
8109		-35.156250
8110		-41.015625
8111		-35.156250
8112		-41.015625
8113		-37.109375
8114		-42.968750
8115		-39.062500
8116		-42.968750
8117		-39.062500
8118		-44.921875
8119		-41.015625
8120		-46.875000
8121		-41.015625
8122		-46.875000
8123		-41.015625
8124		-46.875000
8125		-42.968750
8126		-48.828125
8127		-42.968750
8128		-48.828125
8129		-44.921875
8130		-50.781250
8131		-44.921875
8132		-50.781250
8133		-44.921875
8134		-50.781250
8135		-46.875000
8136		-52.734375
8137		-48.828125
8138		-52.734375
8139		-46.875000
8140		-52.734375
8141		-48.828125
8142		-56.640625
8143		-48.828125
8144		-54.687500
8145		-48.828125
8146		-54.687500
8147		-48.828125
8148		-54.687500
8149		-48.828125
8150		-54.687500
8151		-50.781250
8152		-54.687500
8153		-50.781250
8154		-54.687500
8155		-50.781250
8156		-56.640625
8157		-50.781250
8158		-56.640625
8159		-50.781250
8160		-56.640625
8161		-50.781250
8162		-56.640625
8163		-50.781250
8164		-56.640625
8165		-50.781250
8166		-54.687500
8167		-52.734375
8168		-54.687500
8169		-52.734375
8170		-56.640625
8171		-50.781250
8172		-56.640625
8173		-50.781250
8174		-54.687500
8175		-50.781250
8176		-56.640625
8177		-50.781250
8178		-54.687500
8179		-50.781250
8180		-54.687500
8181		-48.828125
8182		-54.687500
8183		-50.781250
8184		-52.734375
8185		-50.781250
8186		-52.734375
8187		-48.828125
8188		-52.734375
8189		-48.828125
8190		-52.734375
8191		-46.875000
8192		-50.781250
8193		-46.875000
8194		-52.734375
8195		-44.921875
8196		-48.828125
8197		-44.921875
8198		-48.828125
8199		-44.921875
8200		-48.828125
8201		-44.921875
8202		-46.875000
8203		-42.968750
8204		-46.875000
8205		-42.968750
8206		-44.921875
8207		-42.968750
8208		-44.921875
8209		-41.015625
8210		-44.921875
8211		-39.062500
8212		-42.968750
8213		-39.062500
8214		-41.015625
8215		-39.062500
8216		-41.015625
8217		-37.109375
8218		-39.062500
8219		-35.156250
8220		-39.062500
8221		-35.156250
8222		-39.062500
8223		-33.203125
8224		-37.109375
8225		-33.203125
8226		-37.109375
8227		-29.296875
8228		-33.203125
8229		-29.296875
8230		-33.203125
8231		-29.296875
8232		-31.250000
8233		-27.343750
8234		-29.296875
8235		-27.343750
8236		-29.296875
8237		-25.390625
8238		-29.296875
8239		-23.437500
8240		-25.390625
8241		-21.484375
8242		-25.390625
8243		-19.531250
8244		-25.390625
8245		-17.578125
8246		-21.484375
8247		-17.578125
8248		-19.531250
8249		-17.578125
8250		-19.531250
8251		-15.625000
8252		-17.578125
8253		-13.671875
8254		-15.625000
8255		-11.718750
8256		-13.671875
8257		-9.765625
8258		-13.671875
8259		-7.812500
8260		-11.718750
8261		-5.859375
8262		-9.765625
8263		-5.859375
8264		-7.812500
8265		-3.906250
8266		-7.812500
8267		-1.953125
8268		-5.859375
8269		-1.953125
8270		-3.906250
8271		0.000000
8272		-1.953125
8273		1.953125
8274		0.000000
8275		3.906250
8276		0.000000
8277		5.859375
8278		1.953125
8279		5.859375
8280		3.906250
8281		7.812500
8282		5.859375
8283		9.765625
8284		7.812500
8285		11.718750
8286		9.765625
8287		13.671875
8288		9.765625
8289		13.671875
8290		11.718750
8291		15.625000
8292		13.671875
8293		17.578125
8294		13.671875
8295		19.531250
8296		17.578125
8297		21.484375
8298		17.578125
8299		21.484375
8300		19.531250
8301		23.437500
8302		21.484375
8303		25.390625
8304		23.437500
8305		27.343750
8306		23.437500
8307		27.343750
8308		25.390625
8309		29.296875
8310		27.343750
8311		31.250000
8312		27.343750
8313		31.250000
8314		29.296875
8315		33.203125
8316		31.250000
8317		35.156250
8318		33.203125
8319		35.156250
8320		33.203125
8321		37.109375
8322		35.156250
8323		39.062500
8324		37.109375
8325		39.062500
8326		37.109375
8327		41.015625
8328		37.109375
8329		42.968750
8330		39.062500
8331		42.968750
8332		39.062500
8333		44.921875
8334		41.015625
8335		44.921875
8336		42.968750
8337		46.875000
8338		44.921875
8339		48.828125
8340		44.921875
8341		48.828125
8342		46.875000
8343		50.781250
8344		46.875000
8345		50.781250
8346		46.875000
8347		52.734375
8348		48.828125
8349		52.734375
8350		50.781250
8351		54.687500
8352		50.781250
8353		54.687500
8354		52.734375
8355		54.687500
8356		50.781250
8357		56.640625
8358		52.734375
8359		56.640625
8360		54.687500
8361		58.593750
8362		54.687500
8363		58.593750
8364		54.687500
8365		58.593750
8366		56.640625
8367		60.546875
8368		56.640625
8369		60.546875
8370		56.640625
8371		60.546875
8372		56.640625
8373		62.500000
8374		58.593750
8375		62.500000
8376		58.593750
8377		62.500000
8378		58.593750
8379		62.500000
8380		58.593750
8381		64.453125
8382		60.546875
8383		64.453125
8384		60.546875
8385		64.453125
8386		60.546875
8387		64.453125
8388		60.546875
8389		64.453125
8390		60.546875
8391		64.453125
8392		60.546875
8393		64.453125
8394		62.500000
8395		64.453125
8396		62.500000
8397		64.453125
8398		62.500000
8399		64.453125
8400		60.546875
8401		64.453125
8402		62.500000
8403		64.453125
8404		62.500000
8405		64.453125
8406		62.500000
8407		64.453125
8408		60.546875
8409		64.453125
8410		60.546875
8411		64.453125
8412		60.546875
8413		64.453125
8414		60.546875
8415		64.453125
8416		60.546875
8417		64.453125
8418		60.546875
8419		62.500000
8420		60.546875
8421		62.500000
8422		58.593750
8423		62.500000
8424		58.593750
8425		62.500000
8426		58.593750
8427		62.500000
8428		58.593750
8429		60.546875
8430		56.640625
8431		60.546875
8432		56.640625
8433		60.546875
8434		56.640625
8435		60.546875
8436		54.687500
8437		58.593750
8438		54.687500
8439		58.593750
8440		52.734375
8441		58.593750
8442		52.734375
8443		56.640625
8444		52.734375
8445		56.640625
8446		50.781250
8447		54.687500
8448		48.828125
8449		54.687500
8450		48.828125
8451		52.734375
8452		48.828125
8453		52.734375
8454		48.828125
8455		50.781250
8456		46.875000
8457		50.781250
8458		44.921875
8459		50.781250
8460		44.921875
8461		48.828125
8462		42.968750
8463		46.875000
8464		42.968750
8465		46.875000
8466		41.015625
8467		44.921875
8468		39.062500
8469		44.921875
8470		39.062500
8471		42.968750
8472		37.109375
8473		41.015625
8474		37.109375
8475		41.015625
8476		35.156250
8477		39.062500
8478		33.203125
8479		39.062500
8480		33.203125
8481		37.109375
8482		31.250000
8483		35.156250
8484		29.296875
8485		35.156250
8486		29.296875
8487		31.250000
8488		27.343750
8489		31.250000
8490		25.390625
8491		29.296875
8492		23.437500
8493		27.343750
8494		23.437500
8495		27.343750
8496		21.484375
8497		25.390625
8498		19.531250
8499		23.437500
8500		17.578125
8501		21.484375
8502		17.578125
8503		21.484375
8504		15.625000
8505		19.531250
8506		13.671875
8507		17.578125
8508		11.718750
8509		15.625000
8510		9.765625
8511		15.625000
8512		9.765625
8513		13.671875
8514		7.812500
8515		11.718750
8516		5.859375
8517		9.765625
8518		3.906250
8519		9.765625
8520		1.953125
8521		7.812500
8522		1.953125
8523		5.859375
8524		0.000000
8525		3.906250
8526		-1.953125
8527		1.953125
8528		-3.906250
8529		0.000000
8530		-5.859375
8531		-1.953125
8532		-5.859375
8533		-1.953125
8534		-9.765625
8535		-3.906250
8536		-9.765625
8537		-5.859375
8538		-11.718750
8539		-7.812500
8540		-13.671875
8541		-7.812500
8542		-13.671875
8543		-9.765625
8544		-15.625000
8545		-11.718750
8546		-17.578125
8547		-13.671875
8548		-19.531250
8549		-15.625000
8550		-21.484375
8551		-15.625000
8552		-21.484375
8553		-17.578125
8554		-23.437500
8555		-19.531250
8556		-25.390625
8557		-21.484375
8558		-25.390625
8559		-21.484375
8560		-27.343750
8561		-23.437500
8562		-29.296875
8563		-25.390625
8564		-29.296875
8565		-27.343750
8566		-33.203125
8567		-27.343750
8568		-33.203125
8569		-29.296875
8570		-33.203125
8571		-29.296875
8572		-35.156250
8573		-31.250000
8574		-37.109375
8575		-33.203125
8576		-37.109375
8577		-33.203125
8578		-39.062500
8579		-35.156250
8580		-39.062500
8581		-35.156250
8582		-41.015625
8583		-37.109375
8584		-41.015625
8585		-39.062500
8586		-42.968750
8587		-39.062500
8588		-42.968750
8589		-41.015625
8590		-46.875000
8591		-41.015625
8592		-46.875000
8593		-42.968750
8594		-46.875000
8595		-42.968750
8596		-48.828125
8597		-42.968750
8598		-48.828125
8599		-44.921875
8600		-48.828125
8601		-44.921875
8602		-50.781250
8603		-46.875000
8604		-50.781250
8605		-46.875000
8606		-50.781250
8607		-46.875000
8608		-52.734375
8609		-48.828125
8610		-52.734375
8611		-48.828125
8612		-52.734375
8613		-48.828125
8614		-54.687500
8615		-48.828125
8616		-54.687500
8617		-50.781250
8618		-54.687500
8619		-50.781250
8620		-54.687500
8621		-50.781250
8622		-54.687500
8623		-52.734375
8624		-54.687500
8625		-50.781250
8626		-54.687500
8627		-52.734375
8628		-56.640625
8629		-52.734375
8630		-56.640625
8631		-52.734375
8632		-54.687500
8633		-52.734375
8634		-56.640625
8635		-52.734375
8636		-56.640625
8637		-52.734375
8638		-56.640625
8639		-50.781250
8640		-54.687500
8641		-52.734375
8642		-56.640625
8643		-52.734375
8644		-54.687500
8645		-52.734375
8646		-54.687500
8647		-50.781250
8648		-54.687500
8649		-50.781250
8650		-54.687500
8651		-50.781250
8652		-54.687500
8653		-50.781250
8654		-54.687500
8655		-50.781250
8656		-52.734375
8657		-50.781250
8658		-52.734375
8659		-48.828125
8660		-52.734375
8661		-48.828125
8662		-52.734375
8663		-48.828125
8664		-50.781250
8665		-48.828125
8666		-50.781250
8667		-46.875000
8668		-48.828125
8669		-46.875000
8670		-48.828125
8671		-44.921875
8672		-48.828125
8673		-44.921875
8674		-46.875000
8675		-42.968750
8676		-46.875000
8677		-42.968750
8678		-44.921875
8679		-42.968750
8680		-44.921875
8681		-41.015625
8682		-44.921875
8683		-39.062500
8684		-42.968750
8685		-39.062500
8686		-42.968750
8687		-37.109375
8688		-41.015625
8689		-37.109375
8690		-39.062500
8691		-37.109375
8692		-39.062500
8693		-35.156250
8694		-37.109375
8695		-33.203125
8696		-37.109375
8697		-31.250000
8698		-35.156250
8699		-31.250000
8700		-33.203125
8701		-29.296875
8702		-33.203125
8703		-29.296875
8704		-31.250000
8705		-27.343750
8706		-29.296875
8707		-25.390625
8708		-29.296875
8709		-23.437500
8710		-27.343750
8711		-23.437500
8712		-25.390625
8713		-21.484375
8714		-23.437500
8715		-21.484375
8716		-23.437500
8717		-19.531250
8718		-21.484375
8719		-17.578125
8720		-19.531250
8721		-15.625000
8722		-19.531250
8723		-15.625000
8724		-17.578125
8725		-13.671875
8726		-17.578125
8727		-11.718750
8728		-13.671875
8729		-9.765625
8730		-11.718750
8731		-7.812500
8732		-11.718750
8733		-7.812500
8734		-9.765625
8735		-5.859375
8736		-7.812500
8737		-3.906250
8738		-7.812500
8739		-1.953125
8740		-5.859375
8741		-1.953125
8742		-3.906250
8743		0.000000
8744		-1.953125
8745		1.953125
8746		0.000000
8747		3.906250
8748		0.000000
8749		5.859375
8750		1.953125
8751		5.859375
8752		3.906250
8753		7.812500
8754		5.859375
8755		9.765625
8756		7.812500
8757		11.718750
8758		9.765625
8759		13.671875
8760		9.765625
8761		15.625000
8762		11.718750
8763		15.625000
8764		13.671875
8765		19.531250
8766		15.625000
8767		19.531250
8768		15.625000
8769		19.531250
8770		17.578125
8771		21.484375
8772		19.531250
8773		23.437500
8774		21.484375
8775		25.390625
8776		21.484375
8777		25.390625
8778		23.437500
8779		27.343750
8780		25.390625
8781		29.296875
8782		27.343750
8783		31.250000
8784		27.343750
8785		33.203125
8786		29.296875
8787		33.203125
8788		31.250000
8789		35.156250
8790		33.203125
8791		37.109375
8792		33.203125
8793		39.062500
8794		35.156250
8795		39.062500
8796		35.156250
8797		41.015625
8798		37.109375
8799		41.015625
8800		39.062500
8801		42.968750
8802		39.062500
8803		44.921875
8804		41.015625
8805		44.921875
8806		42.968750
8807		44.921875
8808		42.968750
8809		46.875000
8810		42.968750
8811		48.828125
8812		44.921875
8813		48.828125
8814		46.875000
8815		50.781250
8816		46.875000
8817		50.781250
8818		48.828125
8819		52.734375
8820		48.828125
8821		52.734375
8822		48.828125
8823		54.687500
8824		50.781250
8825		54.687500
8826		52.734375
8827		54.687500
8828		52.734375
8829		56.640625
8830		52.734375
8831		56.640625
8832		54.687500
8833		58.593750
8834		54.687500
8835		58.593750
8836		54.687500
8837		58.593750
8838		56.640625
8839		60.546875
8840		56.640625
8841		60.546875
8842		56.640625
8843		60.546875
8844		58.593750
8845		60.546875
8846		58.593750
8847		62.500000
8848		58.593750
8849		62.500000
8850		58.593750
8851		62.500000
8852		58.593750
8853		62.500000
8854		60.546875
8855		62.500000
8856		60.546875
8857		62.500000
8858		60.546875
8859		64.453125
8860		60.546875
8861		64.453125
8862		60.546875
8863		64.453125
8864		60.546875
8865		64.453125
8866		60.546875
8867		64.453125
8868		60.546875
8869		64.453125
8870		60.546875
8871		64.453125
8872		60.546875
8873		64.453125
8874		60.546875
8875		64.453125
8876		60.546875
8877		64.453125
8878		60.546875
8879		64.453125
8880		60.546875
8881		64.453125
8882		60.546875
8883		64.453125
8884		60.546875
8885		64.453125
8886		60.546875
8887		64.453125
8888		58.593750
8889		64.453125
8890		60.546875
8891		62.500000
8892		60.546875
8893		62.500000
8894		58.593750
8895		62.500000
8896		58.593750
8897		62.500000
8898		58.593750
8899		62.500000
8900		56.640625
8901		60.546875
8902		56.640625
8903		60.546875
8904		56.640625
8905		60.546875
8906		54.687500
8907		60.546875
8908		54.687500
8909		58.593750
8910		54.687500
8911		58.593750
8912		54.687500
8913		56.640625
8914		52.734375
8915		56.640625
8916		52.734375
8917		54.687500
8918		50.781250
8919		54.687500
8920		50.781250
8921		54.687500
8922		48.828125
8923		52.734375
8924		48.828125
8925		52.734375
8926		46.875000
8927		50.781250
8928		46.875000
8929		50.781250
8930		44.921875
8931		48.828125
8932		44.921875
8933		48.828125
8934		42.968750
8935		46.875000
8936		42.968750
8937		44.921875
8938		41.015625
8939		44.921875
8940		39.062500
8941		42.968750
8942		39.062500
8943		41.015625
8944		37.109375
8945		41.015625
8946		35.156250
8947		39.062500
8948		33.203125
8949		39.062500
8950		33.203125
8951		37.109375
8952		31.250000
8953		37.109375
8954		29.296875
8955		35.156250
8956		29.296875
8957		33.203125
8958		27.343750
8959		31.250000
8960		25.390625
8961		29.296875
8962		25.390625
8963		29.296875
8964		23.437500
8965		27.343750
8966		21.484375
8967		27.343750
8968		21.484375
8969		25.390625
8970		19.531250
8971		23.437500
8972		17.578125
8973		21.484375
8974		15.625000
8975		19.531250
8976		13.671875
8977		17.578125
8978		13.671875
8979		17.578125
8980		11.718750
8981		15.625000
8982		9.765625
8983		13.671875
8984		7.812500
8985		11.718750
8986		7.812500
8987		11.718750
8988		5.859375
8989		9.765625
8990		3.906250
8991		7.812500
8992		1.953125
8993		5.859375
8994		0.000000
8995		3.906250
8996		-1.953125
8997		1.953125
8998		-1.953125
8999		1.953125
9000		-3.906250
9001		0.000000
9002		-5.859375
9003		-1.953125
9004		-7.812500
9005		-3.906250
9006		-9.765625
9007		-3.906250
9008		-9.765625
9009		-5.859375
9010		-13.671875
9011		-7.812500
9012		-13.671875
9013		-9.765625
9014		-15.625000
9015		-11.718750
9016		-15.625000
9017		-13.671875
9018		-17.578125
9019		-13.671875
9020		-19.531250
9021		-15.625000
9022		-21.484375
9023		-17.578125
9024		-21.484375
9025		-19.531250
9026		-23.437500
9027		-19.531250
9028		-25.390625
9029		-21.484375
9030		-27.343750
9031		-23.437500
9032		-29.296875
9033		-23.437500
9034		-29.296875
9035		-25.390625
9036		-31.250000
9037		-27.343750
9038		-31.250000
9039		-27.343750
9040		-33.203125
9041		-29.296875
9042		-35.156250
9043		-31.250000
9044		-35.156250
9045		-31.250000
9046		-37.109375
9047		-33.203125
9048		-39.062500
9049		-35.156250
9050		-39.062500
9051		-35.156250
9052		-41.015625
9053		-37.109375
9054		-41.015625
9055		-39.062500
9056		-42.968750
9057		-39.062500
9058		-42.968750
9059		-39.062500
9060		-44.921875
9061		-41.015625
9062		-44.921875
9063		-41.015625
9064		-46.875000
9065		-42.968750
9066		-46.875000
9067		-42.968750
9068		-48.828125
9069		-44.921875
9070		-48.828125
9071		-44.921875
9072		-48.828125
9073		-46.875000
9074		-50.781250
9075		-46.875000
9076		-50.781250
9077		-46.875000
9078		-52.734375
9079		-48.828125
9080		-52.734375
9081		-48.828125
9082		-52.734375
9083		-48.828125
9084		-54.687500
9085		-50.781250
9086		-52.734375
9087		-50.781250
9088		-54.687500
9089		-50.781250
9090		-54.687500
9091		-50.781250
9092		-54.687500
9093		-50.781250
9094		-54.687500
9095		-52.734375
9096		-54.687500
9097		-50.781250
9098		-54.687500
9099		-52.734375
9100		-56.640625
9101		-50.781250
9102		-56.640625
9103		-52.734375
9104		-56.640625
9105		-52.734375
9106		-56.640625
9107		-52.734375
9108		-54.687500
9109		-52.734375
9110		-54.687500
9111		-52.734375
9112		-54.687500
9113		-50.781250
9114		-56.640625
9115		-52.734375
9116		-54.687500
9117		-50.781250
9118		-54.687500
9119		-50.781250
9120		-54.687500
9121		-50.781250
9122		-54.687500
9123		-50.781250
9124		-54.687500
9125		-50.781250
9126		-54.687500
9127		-50.781250
9128		-54.687500
9129		-48.828125
9130		-52.734375
9131		-48.828125
9132		-52.734375
9133		-48.828125
9134		-50.781250
9135		-48.828125
9136		-50.781250
9137		-46.875000
9138		-50.781250
9139		-46.875000
9140		-48.828125
9141		-46.875000
9142		-48.828125
9143		-44.921875
9144		-48.828125
9145		-44.921875
9146		-46.875000
9147		-42.968750
9148		-46.875000
9149		-42.968750
9150		-44.921875
9151		-42.968750
9152		-44.921875
9153		-41.015625
9154		-42.968750
9155		-41.015625
9156		-42.968750
9157		-39.062500
9158		-41.015625
9159		-37.109375
9160		-41.015625
9161		-37.109375
9162		-39.062500
9163		-35.156250
9164		-39.062500
9165		-35.156250
9166		-37.109375
9167		-33.203125
9168		-37.109375
9169		-33.203125
9170		-35.156250
9171		-31.250000
9172		-33.203125
9173		-29.296875
9174		-33.203125
9175		-27.343750
9176		-31.250000
9177		-27.343750
9178		-29.296875
9179		-25.390625
9180		-29.296875
9181		-23.437500
9182		-27.343750
9183		-23.437500
9184		-25.390625
9185		-21.484375
9186		-25.390625
9187		-19.531250
9188		-23.437500
9189		-17.578125
9190		-21.484375
9191		-17.578125
9192		-19.531250
9193		-15.625000
9194		-19.531250
9195		-15.625000
9196		-17.578125
9197		-13.671875
9198		-15.625000
9199		-11.718750
9200		-13.671875
9201		-9.765625
9202		-11.718750
9203		-7.812500
9204		-11.718750
9205		-7.812500
9206		-9.765625
9207		-5.859375
9208		-7.812500
9209		-3.906250
9210		-5.859375
9211		-1.953125
9212		-3.906250
9213		0.000000
9214		-3.906250
9215		1.953125
9216		-1.953125
9217		1.953125
9218		0.000000
9219		3.906250
9220		1.953125
9221		5.859375
9222		3.906250
9223		7.812500
9224		3.906250
9225		9.765625
9226		5.859375
9227		9.765625
9228		7.812500
9229		11.718750
9230		9.765625
9231		13.671875
9232		11.718750
9233		13.671875
9234		11.718750
9235		17.578125
9236		13.671875
9237		17.578125
9238		15.625000
9239		19.531250
9240		17.578125
9241		21.484375
9242		17.578125
9243		21.484375
9244		19.531250
9245		23.437500
9246		21.484375
9247		25.390625
9248		23.437500
9249		27.343750
9250		23.437500
9251		29.296875
9252		25.390625
9253		29.296875
9254		27.343750
9255		31.250000
9256		29.296875
9257		33.203125
9258		29.296875
9259		33.203125
9260		31.250000
9261		35.156250
9262		33.203125
9263		35.156250
9264		33.203125
9265		37.109375
9266		35.156250
9267		39.062500
9268		37.109375
9269		41.015625
9270		37.109375
9271		41.015625
9272		39.062500
9273		42.968750
9274		39.062500
9275		44.921875
9276		41.015625
9277		44.921875
9278		42.968750
9279		44.921875
9280		42.968750
9281		46.875000
9282		44.921875
9283		48.828125
9284		44.921875
9285		48.828125
9286		46.875000
9287		50.781250
9288		46.875000
9289		50.781250
9290		48.828125
9291		52.734375
9292		48.828125
9293		52.734375
9294		50.781250
9295		54.687500
9296		50.781250
9297		54.687500
9298		52.734375
9299		54.687500
9300		52.734375
9301		56.640625
9302		52.734375
9303		56.640625
9304		54.687500
9305		56.640625
9306		54.687500
9307		58.593750
9308		54.687500
9309		60.546875
9310		56.640625
9311		60.546875
9312		56.640625
9313		60.546875
9314		56.640625
9315		60.546875
9316		58.593750
9317		62.500000
9318		58.593750
9319		62.500000
9320		58.593750
9321		62.500000
9322		58.593750
9323		62.500000
9324		58.593750
9325		62.500000
9326		58.593750
9327		62.500000
9328		60.546875
9329		64.453125
9330		60.546875
9331		64.453125
9332		60.546875
9333		64.453125
9334		60.546875
9335		64.453125
9336		60.546875
9337		64.453125
9338		60.546875
9339		64.453125
9340		60.546875
9341		64.453125
9342		60.546875
9343		64.453125
9344		60.546875
9345		64.453125
9346		60.546875
9347		64.453125
9348		60.546875
9349		64.453125
9350		60.546875
9351		64.453125
9352		60.546875
9353		64.453125
9354		60.546875
9355		64.453125
9356		60.546875
9357		64.453125
9358		60.546875
9359		62.500000
9360		58.593750
9361		62.500000
9362		60.546875
9363		62.500000
9364		58.593750
9365		62.500000
9366		58.593750
9367		62.500000
9368		58.593750
9369		62.500000
9370		56.640625
9371		60.546875
9372		56.640625
9373		60.546875
9374		56.640625
9375		60.546875
9376		54.687500
9377		58.593750
9378		54.687500
9379		58.593750
9380		54.687500
9381		58.593750
9382		52.734375
9383		56.640625
9384		52.734375
9385		56.640625
9386		50.781250
9387		56.640625
9388		50.781250
9389		54.687500
9390		50.781250
9391		54.687500
9392		48.828125
9393		52.734375
9394		48.828125
9395		52.734375
9396		48.828125
9397		50.781250
9398		46.875000
9399		50.781250
9400		44.921875
9401		48.828125
9402		44.921875
9403		48.828125
9404		42.968750
9405		46.875000
9406		42.968750
9407		46.875000
9408		41.015625
9409		44.921875
9410		41.015625
9411		44.921875
9412		39.062500
9413		42.968750
9414		37.109375
9415		41.015625
9416		37.109375
9417		41.015625
9418		35.156250
9419		39.062500
9420		35.156250
9421		37.109375
9422		31.250000
9423		37.109375
9424		31.250000
9425		35.156250
9426		29.296875
9427		33.203125
9428		29.296875
9429		33.203125
9430		27.343750
9431		31.250000
9432		25.390625
9433		31.250000
9434		23.437500
9435		29.296875
9436		23.437500
9437		27.343750
9438		21.484375
9439		25.390625
9440		19.531250
9441		23.437500
9442		17.578125
9443		23.437500
9444		17.578125
9445		21.484375
9446		15.625000
9447		19.531250
9448		13.671875
9449		17.578125
9450		11.718750
9451		15.625000
9452		9.765625
9453		15.625000
9454		7.812500
9455		13.671875
9456		7.812500
9457		11.718750
9458		5.859375
9459		9.765625
9460		3.906250
9461		7.812500
9462		1.953125
9463		5.859375
9464		1.953125
9465		5.859375
9466		0.000000
9467		3.906250
9468		-1.953125
9469		1.953125
9470		-3.906250
9471		0.000000
9472		-5.859375
9473		-1.953125
9474		-7.812500
9475		-1.953125
9476		-9.765625
9477		-3.906250
9478		-9.765625
9479		-5.859375
9480		-11.718750
9481		-7.812500
9482		-13.671875
9483		-7.812500
9484		-15.625000
9485		-9.765625
9486		-15.625000
9487		-11.718750
9488		-17.578125
9489		-13.671875
9490		-19.531250
9491		-13.671875
9492		-21.484375
9493		-17.578125
9494		-21.484375
9495		-17.578125
9496		-23.437500
9497		-19.531250
9498		-25.390625
9499		-21.484375
9500		-27.343750
9501		-21.484375
9502		-27.343750
9503		-23.437500
9504		-29.296875
9505		-25.390625
9506		-31.250000
9507		-27.343750
9508		-31.250000
9509		-27.343750
9510		-33.203125
9511		-27.343750
9512		-35.156250
9513		-31.250000
9514		-35.156250
9515		-31.250000
9516		-37.109375
9517		-33.203125
9518		-37.109375
9519		-35.156250
9520		-39.062500
9521		-35.156250
9522		-41.015625
9523		-37.109375
9524		-41.015625
9525		-37.109375
9526		-42.968750
9527		-39.062500
9528		-42.968750
9529		-39.062500
9530		-44.921875
9531		-41.015625
9532		-44.921875
9533		-41.015625
9534		-46.875000
9535		-42.968750
9536		-46.875000
9537		-42.968750
9538		-46.875000
9539		-44.921875
9540		-48.828125
9541		-44.921875
9542		-48.828125
9543		-46.875000
9544		-50.781250
9545		-46.875000
9546		-50.781250
9547		-46.875000
9548		-52.734375
9549		-46.875000
9550		-52.734375
9551		-48.828125
9552		-52.734375
9553		-48.828125
9554		-52.734375
9555		-50.781250
9556		-54.687500
9557		-50.781250
9558		-54.687500
9559		-50.781250
9560		-54.687500
9561		-50.781250
9562		-54.687500
9563		-52.734375
9564		-54.687500
9565		-52.734375
9566		-56.640625
9567		-50.781250
9568		-56.640625
9569		-52.734375
9570		-56.640625
9571		-52.734375
9572		-56.640625
9573		-52.734375
9574		-56.640625
9575		-52.734375
9576		-56.640625
9577		-52.734375
9578		-56.640625
9579		-52.734375
9580		-56.640625
9581		-52.734375
9582		-56.640625
9583		-52.734375
9584		-56.640625
9585		-52.734375
9586		-56.640625
9587		-52.734375
9588		-56.640625
9589		-52.734375
9590		-56.640625
9591		-52.734375
9592		-54.687500
9593		-52.734375
9594		-54.687500
9595		-50.781250
9596		-54.687500
9597		-50.781250
9598		-54.687500
9599		-50.781250
9600		-54.687500
9601		-48.828125
9602		-52.734375
9603		-48.828125
9604		-52.734375
9605		-48.828125
9606		-52.734375
9607		-48.828125
9608		-50.781250
9609		-46.875000
9610		-50.781250
9611		-46.875000
9612		-50.781250
9613		-44.921875
9614		-48.828125
9615		-44.921875
9616		-48.828125
9617		-44.921875
9618		-46.875000
9619		-42.968750
9620		-46.875000
9621		-42.968750
9622		-44.921875
9623		-41.015625
9624		-44.921875
9625		-41.015625
9626		-42.968750
9627		-39.062500
9628		-42.968750
9629		-39.062500
9630		-41.015625
9631		-39.062500
9632		-41.015625
9633		-37.109375
9634		-39.062500
9635		-35.156250
9636		-39.062500
9637		-35.156250
9638		-37.109375
9639		-33.203125
9640		-35.156250
9641		-31.250000
9642		-35.156250
9643		-31.250000
9644		-33.203125
9645		-29.296875
9646		-33.203125
9647		-29.296875
9648		-31.250000
9649		-27.343750
9650		-31.250000
9651		-25.390625
9652		-27.343750
9653		-23.437500
9654		-27.343750
9655		-23.437500
9656		-25.390625
9657		-21.484375
9658		-25.390625
9659		-19.531250
9660		-23.437500
9661		-17.578125
9662		-21.484375
9663		-17.578125
9664		-19.531250
9665		-15.625000
9666		-17.578125
9667		-13.671875
9668		-15.625000
9669		-11.718750
9670		-15.625000
9671		-9.765625
9672		-13.671875
9673		-9.765625
9674		-13.671875
9675		-7.812500
9676		-9.765625
9677		-5.859375
9678		-9.765625
9679		-3.906250
9680		-7.812500
9681		-3.906250
9682		-5.859375
9683		-1.953125
9684		-5.859375
9685		0.000000
9686		-3.906250
9687		1.953125
9688		-1.953125
9689		3.906250
9690		0.000000
9691		3.906250
9692		1.953125
9693		5.859375
9694		1.953125
9695		7.812500
9696		5.859375
9697		9.765625
9698		5.859375
9699		9.765625
9700		7.812500
9701		11.718750
9702		9.765625
9703		13.671875
9704		11.718750
9705		15.625000
9706		11.718750
9707		15.625000
9708		13.671875
9709		17.578125
9710		15.625000
9711		19.531250
9712		17.578125
9713		21.484375
9714		19.531250
9715		23.437500
9716		19.531250
9717		25.390625
9718		21.484375
9719		25.390625
9720		23.437500
9721		27.343750
9722		25.390625
9723		29.296875
9724		25.390625
9725		29.296875
9726		27.343750
9727		31.250000
9728		29.296875
9729		33.203125
9730		29.296875
9731		33.203125
9732		31.250000
9733		35.156250
9734		33.203125
9735		37.109375
9736		33.203125
9737		39.062500
9738		35.156250
9739		41.015625
9740		37.109375
9741		41.015625
9742		37.109375
9743		41.015625
9744		39.062500
9745		42.968750
9746		39.062500
9747		42.968750
9748		41.015625
9749		44.921875
9750		41.015625
9751		46.875000
9752		42.968750
9753		46.875000
9754		44.921875
9755		48.828125
9756		44.921875
9757		48.828125
9758		46.875000
9759		50.781250
9760		46.875000
9761		50.781250
9762		48.828125
9763		52.734375
9764		48.828125
9765		52.734375
9766		50.781250
9767		54.687500
9768		50.781250
9769		54.687500
9770		50.781250
9771		54.687500
9772		52.734375
9773		56.640625
9774		52.734375
9775		56.640625
9776		54.687500
9777		56.640625
9778		54.687500
9779		58.593750
9780		52.734375
9781		60.546875
9782		56.640625
9783		58.593750
9784		56.640625
9785		62.500000
9786		56.640625
9787		60.546875
9788		56.640625
9789		60.546875
9790		58.593750
9791		60.546875
9792		58.593750
9793		62.500000
9794		58.593750
9795		62.500000
9796		58.593750
9797		62.500000
9798		60.546875
9799		62.500000
9800		60.546875
9801		62.500000
9802		60.546875
9803		64.453125
9804		60.546875
9805		64.453125
9806		60.546875
9807		64.453125
9808		60.546875
9809		64.453125
9810		60.546875
9811		64.453125
9812		60.546875
9813		64.453125
9814		60.546875
9815		62.500000
9816		60.546875
9817		64.453125
9818		58.593750
9819		64.453125
9820		60.546875
9821		64.453125
9822		60.546875
9823		64.453125
9824		60.546875
9825		62.500000
9826		60.546875
9827		62.500000
9828		58.593750
9829		64.453125
9830		58.593750
9831		62.500000
9832		58.593750
9833		62.500000
9834		58.593750
9835		62.500000
9836		56.640625
9837		60.546875
9838		58.593750
9839		60.546875
9840		56.640625
9841		60.546875
9842		56.640625
9843		60.546875
9844		56.640625
9845		58.593750
9846		54.687500
9847		58.593750
9848		54.687500
9849		58.593750
9850		52.734375
9851		58.593750
9852		52.734375
9853		56.640625
9854		52.734375
9855		56.640625
9856		52.734375
9857		54.687500
9858		50.781250
9859		54.687500
9860		48.828125
9861		54.687500
9862		48.828125
9863		52.734375
9864		48.828125
9865		52.734375
9866		46.875000
9867		50.781250
9868		46.875000
9869		50.781250
9870		44.921875
9871		48.828125
9872		44.921875
9873		48.828125
9874		42.968750
9875		46.875000
9876		42.968750
9877		46.875000
9878		41.015625
9879		44.921875
9880		41.015625
9881		44.921875
9882		39.062500
9883		42.968750
9884		37.109375
9885		41.015625
9886		35.156250
9887		41.015625
9888		35.156250
9889		39.062500
9890		33.203125
9891		37.109375
9892		33.203125
9893		37.109375
9894		31.250000
9895		35.156250
9896		29.296875
9897		33.203125
9898		29.296875
9899		33.203125
9900		27.343750
9901		31.250000
9902		25.390625
9903		31.250000
9904		25.390625
9905		29.296875
9906		23.437500
9907		27.343750
9908		21.484375
9909		25.390625
9910		19.531250
9911		25.390625
9912		17.578125
9913		21.484375
9914		17.578125
9915		21.484375
9916		15.625000
9917		19.531250
9918		13.671875
9919		17.578125
9920		11.718750
9921		17.578125
9922		11.718750
9923		15.625000
9924		9.765625
9925		13.671875
9926		5.859375
9927		11.718750
9928		5.859375
9929		9.765625
9930		3.906250
9931		7.812500
9932		1.953125
9933		7.812500
9934		1.953125
9935		5.859375
9936		0.000000
9937		3.906250
9938		-1.953125
9939		3.906250
9940		-3.906250
9941		0.000000
9942		-5.859375
9943		0.000000
9944		-7.812500
9945		-1.953125
9946		-9.765625
9947		-3.906250
9948		-9.765625
9949		-3.906250
9950		-11.718750
9951		-7.812500
9952		-13.671875
9953		-9.765625
9954		-13.671875
9955		-9.765625
9956		-17.578125
9957		-11.718750
9958		-17.578125
9959		-13.671875
9960		-19.531250
9961		-13.671875
9962		-21.484375
9963		-15.625000
9964		-21.484375
9965		-17.578125
9966		-23.437500
9967		-19.531250
9968		-25.390625
9969		-21.484375
9970		-25.390625
9971		-21.484375
9972		-27.343750
9973		-23.437500
9974		-29.296875
9975		-25.390625
9976		-29.296875
9977		-27.343750
9978		-31.250000
9979		-27.343750
9980		-33.203125
9981		-29.296875
9982		-33.203125
9983		-31.250000
9984		-35.156250
9985		-31.250000
9986		-37.109375
9987		-33.203125
9988		-39.062500
9989		-35.156250
9990		-39.062500
9991		-35.156250
9992		-41.015625
9993		-37.109375
9994		-41.015625
9995		-37.109375
9996		-42.968750
9997		-39.062500
9998		-42.968750
9999		-39.062500
10000		-44.921875
