Channel              :		CH1
Frequency            :		1.050kHz
Period               :		0.952ms
PK-PK                :		146.5mV
Probe attenuation    :		1X
Voltage per ADC value:		0.122070mV
Time interval        :		2.00000us

index		CH1_Voltage(mV)
1		-27.343750
2		-27.343750
3		-23.437500
4		-29.296875
5		-25.390625
6		-31.250000
7		-27.343750
8		-33.203125
9		-29.296875
10		-35.156250
11		-31.250000
12		-35.156250
13		-31.250000
14		-39.062500
15		-33.203125
16		-39.062500
17		-35.156250
18		-41.015625
19		-37.109375
20		-42.968750
21		-39.062500
22		-44.921875
23		-41.015625
24		-46.875000
25		-42.968750
26		-46.875000
27		-44.921875
28		-50.781250
29		-44.921875
30		-50.781250
31		-46.875000
32		-52.734375
33		-48.828125
34		-52.734375
35		-48.828125
36		-54.687500
37		-50.781250
38		-56.640625
39		-52.734375
40		-58.593750
41		-52.734375
42		-58.593750
43		-54.687500
44		-60.546875
45		-56.640625
46		-60.546875
47		-56.640625
48		-62.500000
49		-58.593750
50		-64.453125
51		-60.546875
52		-64.453125
53		-60.546875
54		-66.406250
55		-62.500000
56		-66.406250
57		-62.500000
58		-68.359375
59		-64.453125
60		-68.359375
61		-66.406250
62		-70.312500
63		-64.453125
64		-70.312500
65		-68.359375
66		-72.265625
67		-68.359375
68		-72.265625
69		-70.312500
70		-74.218750
71		-70.312500
72		-74.218750
73		-70.312500
74		-74.218750
75		-70.312500
76		-74.218750
77		-72.265625
78		-76.171875
79		-72.265625
80		-76.171875
81		-72.265625
82		-76.171875
83		-72.265625
84		-76.171875
85		-74.218750
86		-78.125000
87		-74.218750
88		-78.125000
89		-74.218750
90		-78.125000
91		-74.218750
92		-78.125000
93		-76.171875
94		-78.125000
95		-76.171875
96		-78.125000
97		-76.171875
98		-78.125000
99		-76.171875
100		-78.125000
101		-74.218750
102		-78.125000
103		-74.218750
104		-78.125000
105		-74.218750
106		-78.125000
107		-74.218750
108		-78.125000
109		-74.218750
110		-78.125000
111		-76.171875
112		-78.125000
113		-72.265625
114		-76.171875
115		-74.218750
116		-76.171875
117		-72.265625
118		-76.171875
119		-72.265625
120		-76.171875
121		-72.265625
122		-74.218750
123		-72.265625
124		-74.218750
125		-72.265625
126		-74.218750
127		-70.312500
128		-72.265625
129		-68.359375
130		-72.265625
131		-70.312500
132		-72.265625
133		-68.359375
134		-72.265625
135		-66.406250
136		-70.312500
137		-66.406250
138		-70.312500
139		-64.453125
140		-68.359375
141		-64.453125
142		-66.406250
143		-64.453125
144		-66.406250
145		-62.500000
146		-64.453125
147		-62.500000
148		-64.453125
149		-60.546875
150		-62.500000
151		-60.546875
152		-64.453125
153		-56.640625
154		-60.546875
155		-56.640625
156		-58.593750
157		-54.687500
158		-58.593750
159		-52.734375
160		-56.640625
161		-52.734375
162		-54.687500
163		-50.781250
164		-54.687500
165		-50.781250
166		-52.734375
167		-48.828125
168		-52.734375
169		-44.921875
170		-50.781250
171		-46.875000
172		-48.828125
173		-44.921875
174		-46.875000
175		-41.015625
176		-44.921875
177		-41.015625
178		-42.968750
179		-41.015625
180		-42.968750
181		-37.109375
182		-41.015625
183		-37.109375
184		-39.062500
185		-33.203125
186		-37.109375
187		-33.203125
188		-35.156250
189		-31.250000
190		-33.203125
191		-29.296875
192		-31.250000
193		-29.296875
194		-29.296875
195		-27.343750
196		-29.296875
197		-23.437500
198		-27.343750
199		-21.484375
200		-25.390625
201		-21.484375
202		-25.390625
203		-19.531250
204		-21.484375
205		-17.578125
206		-21.484375
207		-15.625000
208		-19.531250
209		-15.625000
210		-15.625000
211		-13.671875
212		-13.671875
213		-9.765625
214		-13.671875
215		-9.765625
216		-11.718750
217		-7.812500
218		-9.765625
219		-3.906250
220		-7.812500
221		-3.906250
222		-5.859375
223		-1.953125
224		-3.906250
225		1.953125
226		-1.953125
227		1.953125
228		0.000000
229		1.953125
230		0.000000
231		5.859375
232		1.953125
233		5.859375
234		3.906250
235		7.812500
236		3.906250
237		9.765625
238		7.812500
239		11.718750
240		9.765625
241		13.671875
242		9.765625
243		15.625000
244		13.671875
245		15.625000
246		13.671875
247		17.578125
248		15.625000
249		19.531250
250		17.578125
251		21.484375
252		19.531250
253		23.437500
254		19.531250
255		25.390625
256		21.484375
257		25.390625
258		23.437500
259		27.343750
260		25.390625
261		27.343750
262		27.343750
263		29.296875
264		25.390625
265		31.250000
266		29.296875
267		33.203125
268		29.296875
269		35.156250
270		31.250000
271		35.156250
272		33.203125
273		37.109375
274		35.156250
275		39.062500
276		33.203125
277		39.062500
278		37.109375
279		39.062500
280		37.109375
281		41.015625
282		39.062500
283		42.968750
284		39.062500
285		44.921875
286		39.062500
287		46.875000
288		41.015625
289		44.921875
290		42.968750
291		46.875000
292		42.968750
293		48.828125
294		44.921875
295		48.828125
296		44.921875
297		48.828125
298		46.875000
299		50.781250
300		46.875000
301		50.781250
302		46.875000
303		52.734375
304		48.828125
305		52.734375
306		48.828125
307		52.734375
308		50.781250
309		54.687500
310		52.734375
311		54.687500
312		52.734375
313		54.687500
314		50.781250
315		56.640625
316		52.734375
317		56.640625
318		52.734375
319		56.640625
320		52.734375
321		58.593750
322		54.687500
323		58.593750
324		54.687500
325		58.593750
326		54.687500
327		58.593750
328		54.687500
329		56.640625
330		54.687500
331		60.546875
332		54.687500
333		58.593750
334		56.640625
335		58.593750
336		54.687500
337		58.593750
338		56.640625
339		60.546875
340		56.640625
341		58.593750
342		56.640625
343		60.546875
344		56.640625
345		58.593750
346		56.640625
347		58.593750
348		54.687500
349		60.546875
350		54.687500
351		58.593750
352		54.687500
353		58.593750
354		52.734375
355		60.546875
356		54.687500
357		58.593750
358		54.687500
359		56.640625
360		52.734375
361		58.593750
362		54.687500
363		56.640625
364		52.734375
365		56.640625
366		52.734375
367		56.640625
368		50.781250
369		54.687500
370		48.828125
371		56.640625
372		50.781250
373		52.734375
374		50.781250
375		52.734375
376		48.828125
377		52.734375
378		48.828125
379		50.781250
380		46.875000
381		50.781250
382		46.875000
383		48.828125
384		46.875000
385		48.828125
386		44.921875
387		48.828125
388		42.968750
389		46.875000
390		42.968750
391		46.875000
392		41.015625
393		44.921875
394		41.015625
395		42.968750
396		41.015625
397		42.968750
398		37.109375
399		42.968750
400		37.109375
401		41.015625
402		35.156250
403		39.062500
404		33.203125
405		39.062500
406		33.203125
407		37.109375
408		31.250000
409		37.109375
410		31.250000
411		35.156250
412		29.296875
413		33.203125
414		27.343750
415		31.250000
416		27.343750
417		31.250000
418		25.390625
419		29.296875
420		19.531250
421		29.296875
422		21.484375
423		25.390625
424		21.484375
425		23.437500
426		17.578125
427		23.437500
428		17.578125
429		21.484375
430		15.625000
431		19.531250
432		13.671875
433		17.578125
434		11.718750
435		15.625000
436		9.765625
437		13.671875
438		7.812500
439		15.625000
440		7.812500
441		11.718750
442		5.859375
443		9.765625
444		3.906250
445		7.812500
446		1.953125
447		5.859375
448		0.000000
449		3.906250
450		-1.953125
451		1.953125
452		-3.906250
453		0.000000
454		-5.859375
455		0.000000
456		-5.859375
457		-3.906250
458		-9.765625
459		-3.906250
460		-9.765625
461		-5.859375
462		-11.718750
463		-9.765625
464		-15.625000
465		-9.765625
466		-15.625000
467		-11.718750
468		-17.578125
469		-13.671875
470		-21.484375
471		-15.625000
472		-21.484375
473		-17.578125
474		-23.437500
475		-19.531250
476		-25.390625
477		-21.484375
478		-27.343750
479		-23.437500
480		-27.343750
481		-25.390625
482		-31.250000
483		-25.390625
484		-33.203125
485		-27.343750
486		-33.203125
487		-29.296875
488		-37.109375
489		-31.250000
490		-37.109375
491		-33.203125
492		-39.062500
493		-35.156250
494		-41.015625
495		-37.109375
496		-41.015625
497		-39.062500
498		-42.968750
499		-41.015625
500		-44.921875
501		-41.015625
502		-46.875000
503		-42.968750
504		-50.781250
505		-42.968750
506		-50.781250
507		-46.875000
508		-50.781250
509		-46.875000
510		-54.687500
511		-48.828125
512		-54.687500
513		-50.781250
514		-54.687500
515		-52.734375
516		-56.640625
517		-52.734375
518		-58.593750
519		-54.687500
520		-60.546875
521		-54.687500
522		-62.500000
523		-54.687500
524		-62.500000
525		-58.593750
526		-62.500000
527		-58.593750
528		-64.453125
529		-60.546875
530		-66.406250
531		-62.500000
532		-66.406250
533		-62.500000
534		-66.406250
535		-64.453125
536		-68.359375
537		-64.453125
538		-70.312500
539		-64.453125
540		-70.312500
541		-66.406250
542		-70.312500
543		-68.359375
544		-72.265625
545		-68.359375
546		-72.265625
547		-70.312500
548		-74.218750
549		-68.359375
550		-74.218750
551		-70.312500
552		-74.218750
553		-70.312500
554		-78.125000
555		-70.312500
556		-74.218750
557		-72.265625
558		-76.171875
559		-72.265625
560		-76.171875
561		-72.265625
562		-76.171875
563		-74.218750
564		-76.171875
565		-74.218750
566		-76.171875
567		-74.218750
568		-78.125000
569		-74.218750
570		-78.125000
571		-74.218750
572		-80.078125
573		-72.265625
574		-78.125000
575		-74.218750
576		-78.125000
577		-74.218750
578		-78.125000
579		-74.218750
580		-78.125000
581		-74.218750
582		-78.125000
583		-74.218750
584		-78.125000
585		-74.218750
586		-78.125000
587		-74.218750
588		-78.125000
589		-70.312500
590		-76.171875
591		-72.265625
592		-76.171875
593		-72.265625
594		-76.171875
595		-72.265625
596		-74.218750
597		-72.265625
598		-74.218750
599		-72.265625
600		-74.218750
601		-70.312500
602		-72.265625
603		-70.312500
604		-72.265625
605		-68.359375
606		-74.218750
607		-66.406250
608		-70.312500
609		-68.359375
610		-70.312500
611		-66.406250
612		-68.359375
613		-66.406250
614		-68.359375
615		-64.453125
616		-68.359375
617		-62.500000
618		-66.406250
619		-64.453125
620		-66.406250
621		-62.500000
622		-66.406250
623		-58.593750
624		-62.500000
625		-58.593750
626		-62.500000
627		-58.593750
628		-62.500000
629		-56.640625
630		-58.593750
631		-56.640625
632		-58.593750
633		-54.687500
634		-56.640625
635		-54.687500
636		-56.640625
637		-52.734375
638		-54.687500
639		-48.828125
640		-52.734375
641		-50.781250
642		-50.781250
643		-48.828125
644		-50.781250
645		-46.875000
646		-48.828125
647		-44.921875
648		-46.875000
649		-44.921875
650		-44.921875
651		-42.968750
652		-44.921875
653		-41.015625
654		-42.968750
655		-39.062500
656		-42.968750
657		-35.156250
658		-41.015625
659		-35.156250
660		-39.062500
661		-35.156250
662		-37.109375
663		-31.250000
664		-35.156250
665		-31.250000
666		-33.203125
667		-27.343750
668		-31.250000
669		-27.343750
670		-29.296875
671		-25.390625
672		-29.296875
673		-21.484375
674		-25.390625
675		-21.484375
676		-23.437500
677		-21.484375
678		-23.437500
679		-19.531250
680		-21.484375
681		-17.578125
682		-19.531250
683		-15.625000
684		-19.531250
685		-13.671875
686		-15.625000
687		-11.718750
688		-13.671875
689		-9.765625
690		-15.625000
691		-7.812500
692		-9.765625
693		-5.859375
694		-7.812500
695		-3.906250
696		-7.812500
697		-3.906250
698		-5.859375
699		-1.953125
700		-3.906250
701		1.953125
702		-1.953125
703		1.953125
704		0.000000
705		3.906250
706		0.000000
707		7.812500
708		3.906250
709		7.812500
710		5.859375
711		9.765625
712		7.812500
713		9.765625
714		7.812500
715		11.718750
716		9.765625
717		13.671875
718		11.718750
719		15.625000
720		13.671875
721		17.578125
722		13.671875
723		21.484375
724		13.671875
725		21.484375
726		17.578125
727		23.437500
728		19.531250
729		23.437500
730		19.531250
731		23.437500
732		23.437500
733		25.390625
734		23.437500
735		27.343750
736		25.390625
737		29.296875
738		27.343750
739		31.250000
740		25.390625
741		33.203125
742		29.296875
743		33.203125
744		31.250000
745		35.156250
746		33.203125
747		37.109375
748		33.203125
749		37.109375
750		35.156250
751		39.062500
752		35.156250
753		41.015625
754		37.109375
755		41.015625
756		37.109375
757		44.921875
758		41.015625
759		42.968750
760		39.062500
761		44.921875
762		41.015625
763		44.921875
764		42.968750
765		46.875000
766		44.921875
767		46.875000
768		42.968750
769		48.828125
770		46.875000
771		48.828125
772		46.875000
773		50.781250
774		44.921875
775		52.734375
776		48.828125
777		52.734375
778		48.828125
779		52.734375
780		48.828125
781		54.687500
782		50.781250
783		54.687500
784		50.781250
785		54.687500
786		52.734375
787		54.687500
788		52.734375
789		56.640625
790		50.781250
791		56.640625
792		52.734375
793		56.640625
794		54.687500
795		58.593750
796		52.734375
797		58.593750
798		54.687500
799		58.593750
800		56.640625
801		58.593750
802		54.687500
803		58.593750
804		56.640625
805		58.593750
806		54.687500
807		60.546875
808		54.687500
809		60.546875
810		56.640625
811		58.593750
812		54.687500
813		60.546875
814		56.640625
815		60.546875
816		56.640625
817		58.593750
818		54.687500
819		60.546875
820		56.640625
821		60.546875
822		56.640625
823		58.593750
824		54.687500
825		62.500000
826		56.640625
827		60.546875
828		56.640625
829		58.593750
830		54.687500
831		60.546875
832		56.640625
833		58.593750
834		54.687500
835		58.593750
836		54.687500
837		58.593750
838		54.687500
839		58.593750
840		52.734375
841		58.593750
842		52.734375
843		56.640625
844		52.734375
845		56.640625
846		50.781250
847		56.640625
848		52.734375
849		54.687500
850		50.781250
851		52.734375
852		48.828125
853		54.687500
854		48.828125
855		52.734375
856		48.828125
857		52.734375
858		46.875000
859		52.734375
860		46.875000
861		50.781250
862		44.921875
863		48.828125
864		44.921875
865		50.781250
866		42.968750
867		46.875000
868		41.015625
869		44.921875
870		41.015625
871		44.921875
872		41.015625
873		42.968750
874		37.109375
875		42.968750
876		37.109375
877		41.015625
878		35.156250
879		42.968750
880		33.203125
881		41.015625
882		33.203125
883		37.109375
884		33.203125
885		37.109375
886		31.250000
887		37.109375
888		29.296875
889		33.203125
890		25.390625
891		33.203125
892		27.343750
893		31.250000
894		23.437500
895		31.250000
896		23.437500
897		27.343750
898		21.484375
899		29.296875
900		21.484375
901		25.390625
902		19.531250
903		23.437500
904		17.578125
905		23.437500
906		15.625000
907		19.531250
908		11.718750
909		19.531250
910		13.671875
911		17.578125
912		11.718750
913		17.578125
914		7.812500
915		15.625000
916		7.812500
917		11.718750
918		5.859375
919		9.765625
920		1.953125
921		9.765625
922		1.953125
923		5.859375
924		-1.953125
925		5.859375
926		-1.953125
927		3.906250
928		-3.906250
929		1.953125
930		-5.859375
931		0.000000
932		-5.859375
933		-1.953125
934		-7.812500
935		-3.906250
936		-9.765625
937		-5.859375
938		-11.718750
939		-5.859375
940		-13.671875
941		-9.765625
942		-17.578125
943		-9.765625
944		-17.578125
945		-11.718750
946		-19.531250
947		-13.671875
948		-21.484375
949		-15.625000
950		-23.437500
951		-19.531250
952		-25.390625
953		-19.531250
954		-25.390625
955		-21.484375
956		-27.343750
957		-23.437500
958		-31.250000
959		-23.437500
960		-31.250000
961		-27.343750
962		-35.156250
963		-27.343750
964		-37.109375
965		-29.296875
966		-35.156250
967		-33.203125
968		-37.109375
969		-35.156250
970		-39.062500
971		-35.156250
972		-42.968750
973		-35.156250
974		-44.921875
975		-37.109375
976		-44.921875
977		-39.062500
978		-48.828125
979		-41.015625
980		-46.875000
981		-42.968750
982		-48.828125
983		-42.968750
984		-50.781250
985		-46.875000
986		-52.734375
987		-46.875000
988		-54.687500
989		-46.875000
990		-54.687500
991		-50.781250
992		-58.593750
993		-50.781250
994		-56.640625
995		-54.687500
996		-58.593750
997		-54.687500
998		-60.546875
999		-54.687500
1000		-60.546875
1001		-58.593750
1002		-62.500000
1003		-58.593750
1004		-64.453125
1005		-60.546875
1006		-64.453125
1007		-58.593750
1008		-68.359375
1009		-60.546875
1010		-66.406250
1011		-62.500000
1012		-68.359375
1013		-64.453125
1014		-70.312500
1015		-64.453125
1016		-68.359375
1017		-66.406250
1018		-70.312500
1019		-66.406250
1020		-72.265625
1021		-66.406250
1022		-72.265625
1023		-68.359375
1024		-72.265625
1025		-68.359375
1026		-74.218750
1027		-66.406250
1028		-72.265625
1029		-70.312500
1030		-76.171875
1031		-68.359375
1032		-76.171875
1033		-68.359375
1034		-74.218750
1035		-72.265625
1036		-76.171875
1037		-70.312500
1038		-78.125000
1039		-70.312500
1040		-76.171875
1041		-72.265625
1042		-78.125000
1043		-70.312500
1044		-76.171875
1045		-72.265625
1046		-78.125000
1047		-70.312500
1048		-80.078125
1049		-70.312500
1050		-76.171875
1051		-74.218750
1052		-76.171875
1053		-74.218750
1054		-78.125000
1055		-72.265625
1056		-78.125000
1057		-72.265625
1058		-78.125000
1059		-70.312500
1060		-78.125000
1061		-70.312500
1062		-76.171875
1063		-72.265625
1064		-78.125000
1065		-70.312500
1066		-76.171875
1067		-70.312500
1068		-74.218750
1069		-72.265625
1070		-74.218750
1071		-72.265625
1072		-74.218750
1073		-68.359375
1074		-72.265625
1075		-70.312500
1076		-74.218750
1077		-68.359375
1078		-72.265625
1079		-68.359375
1080		-72.265625
1081		-66.406250
1082		-72.265625
1083		-64.453125
1084		-70.312500
1085		-66.406250
1086		-68.359375
1087		-66.406250
1088		-68.359375
1089		-64.453125
1090		-68.359375
1091		-62.500000
1092		-68.359375
1093		-60.546875
1094		-66.406250
1095		-62.500000
1096		-66.406250
1097		-58.593750
1098		-64.453125
1099		-58.593750
1100		-62.500000
1101		-58.593750
1102		-60.546875
1103		-58.593750
1104		-60.546875
1105		-54.687500
1106		-60.546875
1107		-54.687500
1108		-56.640625
1109		-52.734375
1110		-58.593750
1111		-50.781250
1112		-54.687500
1113		-50.781250
1114		-54.687500
1115		-46.875000
1116		-54.687500
1117		-46.875000
1118		-50.781250
1119		-46.875000
1120		-48.828125
1121		-44.921875
1122		-48.828125
1123		-42.968750
1124		-46.875000
1125		-42.968750
1126		-44.921875
1127		-39.062500
1128		-44.921875
1129		-37.109375
1130		-42.968750
1131		-35.156250
1132		-42.968750
1133		-35.156250
1134		-37.109375
1135		-35.156250
1136		-37.109375
1137		-33.203125
1138		-37.109375
1139		-31.250000
1140		-35.156250
1141		-29.296875
1142		-31.250000
1143		-25.390625
1144		-33.203125
1145		-23.437500
1146		-29.296875
1147		-23.437500
1148		-29.296875
1149		-21.484375
1150		-25.390625
1151		-21.484375
1152		-23.437500
1153		-19.531250
1154		-23.437500
1155		-17.578125
1156		-19.531250
1157		-13.671875
1158		-19.531250
1159		-13.671875
1160		-17.578125
1161		-9.765625
1162		-15.625000
1163		-9.765625
1164		-13.671875
1165		-7.812500
1166		-13.671875
1167		-5.859375
1168		-9.765625
1169		-5.859375
1170		-7.812500
1171		-1.953125
1172		-7.812500
1173		-1.953125
1174		-5.859375
1175		0.000000
1176		-3.906250
1177		3.906250
1178		-1.953125
1179		3.906250
1180		0.000000
1181		7.812500
1182		0.000000
1183		9.765625
1184		5.859375
1185		7.812500
1186		5.859375
1187		9.765625
1188		7.812500
1189		11.718750
1190		7.812500
1191		13.671875
1192		11.718750
1193		15.625000
1194		11.718750
1195		17.578125
1196		11.718750
1197		19.531250
1198		13.671875
1199		23.437500
1200		15.625000
1201		21.484375
1202		19.531250
1203		23.437500
1204		21.484375
1205		25.390625
1206		21.484375
1207		27.343750
1208		23.437500
1209		27.343750
1210		23.437500
1211		31.250000
1212		23.437500
1213		33.203125
1214		27.343750
1215		31.250000
1216		27.343750
1217		35.156250
1218		31.250000
1219		33.203125
1220		33.203125
1221		35.156250
1222		33.203125
1223		39.062500
1224		33.203125
1225		39.062500
1226		35.156250
1227		39.062500
1228		35.156250
1229		42.968750
1230		37.109375
1231		44.921875
1232		37.109375
1233		44.921875
1234		39.062500
1235		44.921875
1236		42.968750
1237		44.921875
1238		42.968750
1239		46.875000
1240		41.015625
1241		48.828125
1242		42.968750
1243		48.828125
1244		42.968750
1245		52.734375
1246		44.921875
1247		50.781250
1248		44.921875
1249		52.734375
1250		46.875000
1251		52.734375
1252		50.781250
1253		52.734375
1254		50.781250
1255		52.734375
1256		48.828125
1257		56.640625
1258		48.828125
1259		56.640625
1260		50.781250
1261		58.593750
1262		50.781250
1263		58.593750
1264		50.781250
1265		58.593750
1266		52.734375
1267		58.593750
1268		54.687500
1269		56.640625
1270		54.687500
1271		58.593750
1272		54.687500
1273		60.546875
1274		52.734375
1275		62.500000
1276		54.687500
1277		62.500000
1278		52.734375
1279		62.500000
1280		54.687500
1281		62.500000
1282		54.687500
1283		62.500000
1284		56.640625
1285		62.500000
1286		58.593750
1287		60.546875
1288		56.640625
1289		60.546875
1290		56.640625
1291		62.500000
1292		54.687500
1293		62.500000
1294		54.687500
1295		62.500000
1296		54.687500
1297		62.500000
1298		54.687500
1299		62.500000
1300		54.687500
1301		62.500000
1302		56.640625
1303		58.593750
1304		56.640625
1305		58.593750
1306		54.687500
1307		60.546875
1308		54.687500
1309		60.546875
1310		54.687500
1311		60.546875
1312		52.734375
1313		60.546875
1314		52.734375
1315		60.546875
1316		52.734375
1317		60.546875
1318		52.734375
1319		58.593750
1320		52.734375
1321		56.640625
1322		50.781250
1323		56.640625
1324		48.828125
1325		56.640625
1326		48.828125
1327		56.640625
1328		46.875000
1329		56.640625
1330		46.875000
1331		54.687500
1332		46.875000
1333		54.687500
1334		46.875000
1335		52.734375
1336		46.875000
1337		50.781250
1338		46.875000
1339		48.828125
1340		42.968750
1341		50.781250
1342		41.015625
1343		48.828125
1344		41.015625
1345		48.828125
1346		39.062500
1347		48.828125
1348		39.062500
1349		46.875000
1350		37.109375
1351		44.921875
1352		39.062500
1353		42.968750
1354		37.109375
1355		41.015625
1356		35.156250
1357		41.015625
1358		31.250000
1359		39.062500
1360		31.250000
1361		39.062500
1362		29.296875
1363		37.109375
1364		29.296875
1365		37.109375
1366		27.343750
1367		35.156250
1368		27.343750
1369		33.203125
1370		27.343750
1371		29.296875
1372		23.437500
1373		29.296875
1374		21.484375
1375		29.296875
1376		19.531250
1377		27.343750
1378		17.578125
1379		25.390625
1380		15.625000
1381		25.390625
1382		15.625000
1383		21.484375
1384		13.671875
1385		21.484375
1386		13.671875
1387		17.578125
1388		11.718750
1389		15.625000
1390		7.812500
1391		15.625000
1392		5.859375
1393		13.671875
1394		3.906250
1395		13.671875
1396		1.953125
1397		11.718750
1398		1.953125
1399		9.765625
1400		-1.953125
1401		7.812500
1402		-1.953125
1403		5.859375
1404		-1.953125
1405		1.953125
1406		-3.906250
1407		0.000000
1408		-7.812500
1409		0.000000
1410		-9.765625
1411		0.000000
1412		-11.718750
1413		-3.906250
1414		-13.671875
1415		-5.859375
1416		-13.671875
1417		-5.859375
1418		-15.625000
1419		-7.812500
1420		-15.625000
1421		-13.671875
1422		-17.578125
1423		-15.625000
1424		-21.484375
1425		-13.671875
1426		-23.437500
1427		-15.625000
1428		-25.390625
1429		-17.578125
1430		-27.343750
1431		-17.578125
1432		-29.296875
1433		-21.484375
1434		-31.250000
1435		-23.437500
1436		-33.203125
1437		-25.390625
1438		-31.250000
1439		-29.296875
1440		-35.156250
1441		-29.296875
1442		-37.109375
1443		-29.296875
1444		-41.015625
1445		-31.250000
1446		-41.015625
1447		-33.203125
1448		-42.968750
1449		-35.156250
1450		-44.921875
1451		-37.109375
1452		-46.875000
1453		-37.109375
1454		-44.921875
1455		-42.968750
1456		-48.828125
1457		-42.968750
1458		-50.781250
1459		-42.968750
1460		-52.734375
1461		-44.921875
1462		-54.687500
1463		-44.921875
1464		-54.687500
1465		-46.875000
1466		-56.640625
1467		-48.828125
1468		-58.593750
1469		-48.828125
1470		-56.640625
1471		-54.687500
1472		-58.593750
1473		-54.687500
1474		-60.546875
1475		-54.687500
1476		-60.546875
1477		-56.640625
1478		-64.453125
1479		-56.640625
1480		-64.453125
1481		-58.593750
1482		-64.453125
1483		-58.593750
1484		-66.406250
1485		-60.546875
1486		-66.406250
1487		-62.500000
1488		-66.406250
1489		-64.453125
1490		-70.312500
1491		-64.453125
1492		-70.312500
1493		-62.500000
1494		-72.265625
1495		-62.500000
1496		-72.265625
1497		-64.453125
1498		-72.265625
1499		-64.453125
1500		-74.218750
1501		-66.406250
1502		-74.218750
1503		-66.406250
1504		-72.265625
1505		-70.312500
1506		-72.265625
1507		-70.312500
1508		-76.171875
1509		-68.359375
1510		-76.171875
1511		-68.359375
1512		-76.171875
1513		-68.359375
1514		-78.125000
1515		-68.359375
1516		-78.125000
1517		-70.312500
1518		-78.125000
1519		-70.312500
1520		-78.125000
1521		-70.312500
1522		-74.218750
1523		-72.265625
1524		-78.125000
1525		-70.312500
1526		-78.125000
1527		-70.312500
1528		-78.125000
1529		-70.312500
1530		-78.125000
1531		-70.312500
1532		-78.125000
1533		-70.312500
1534		-78.125000
1535		-70.312500
1536		-78.125000
1537		-70.312500
1538		-74.218750
1539		-72.265625
1540		-74.218750
1541		-70.312500
1542		-76.171875
1543		-68.359375
1544		-76.171875
1545		-68.359375
1546		-76.171875
1547		-68.359375
1548		-76.171875
1549		-68.359375
1550		-74.218750
1551		-66.406250
1552		-74.218750
1553		-66.406250
1554		-70.312500
1555		-68.359375
1556		-70.312500
1557		-68.359375
1558		-72.265625
1559		-64.453125
1560		-72.265625
1561		-62.500000
1562		-70.312500
1563		-62.500000
1564		-70.312500
1565		-60.546875
1566		-68.359375
1567		-60.546875
1568		-68.359375
1569		-58.593750
1570		-66.406250
1571		-58.593750
1572		-62.500000
1573		-60.546875
1574		-62.500000
1575		-56.640625
1576		-64.453125
1577		-54.687500
1578		-62.500000
1579		-54.687500
1580		-60.546875
1581		-52.734375
1582		-60.546875
1583		-52.734375
1584		-58.593750
1585		-50.781250
1586		-56.640625
1587		-48.828125
1588		-52.734375
1589		-50.781250
1590		-52.734375
1591		-48.828125
1592		-52.734375
1593		-44.921875
1594		-52.734375
1595		-42.968750
1596		-50.781250
1597		-42.968750
1598		-48.828125
1599		-41.015625
1600		-48.828125
1601		-39.062500
1602		-44.921875
1603		-37.109375
1604		-44.921875
1605		-37.109375
1606		-41.015625
1607		-37.109375
1608		-39.062500
1609		-33.203125
1610		-41.015625
1611		-31.250000
1612		-39.062500
1613		-29.296875
1614		-37.109375
1615		-27.343750
1616		-35.156250
1617		-27.343750
1618		-33.203125
1619		-25.390625
1620		-31.250000
1621		-23.437500
1622		-27.343750
1623		-23.437500
1624		-25.390625
1625		-21.484375
1626		-27.343750
1627		-17.578125
1628		-25.390625
1629		-15.625000
1630		-23.437500
1631		-13.671875
1632		-19.531250
1633		-13.671875
1634		-19.531250
1635		-11.718750
1636		-17.578125
1637		-9.765625
1638		-13.671875
1639		-9.765625
1640		-11.718750
1641		-7.812500
1642		-11.718750
1643		-3.906250
1644		-9.765625
1645		-1.953125
1646		-9.765625
1647		-1.953125
1648		-7.812500
1649		1.953125
1650		-5.859375
1651		3.906250
1652		-3.906250
1653		3.906250
1654		-1.953125
1655		5.859375
1656		1.953125
1657		5.859375
1658		3.906250
1659		7.812500
1660		1.953125
1661		11.718750
1662		5.859375
1663		13.671875
1664		5.859375
1665		13.671875
1666		7.812500
1667		15.625000
1668		9.765625
1669		17.578125
1670		11.718750
1671		19.531250
1672		15.625000
1673		17.578125
1674		15.625000
1675		19.531250
1676		15.625000
1677		25.390625
1678		17.578125
1679		27.343750
1680		19.531250
1681		27.343750
1682		21.484375
1683		29.296875
1684		21.484375
1685		31.250000
1686		23.437500
1687		31.250000
1688		25.390625
1689		31.250000
1690		29.296875
1691		31.250000
1692		29.296875
1693		35.156250
1694		29.296875
1695		37.109375
1696		31.250000
1697		39.062500
1698		31.250000
1699		41.015625
1700		33.203125
1701		41.015625
1702		33.203125
1703		42.968750
1704		35.156250
1705		42.968750
1706		39.062500
1707		42.968750
1708		39.062500
1709		44.921875
1710		39.062500
1711		46.875000
1712		39.062500
1713		48.828125
1714		41.015625
1715		50.781250
1716		42.968750
1717		50.781250
1718		42.968750
1719		50.781250
1720		44.921875
1721		52.734375
1722		46.875000
1723		50.781250
1724		48.828125
1725		50.781250
1726		46.875000
1727		54.687500
1728		46.875000
1729		54.687500
1730		48.828125
1731		56.640625
1732		48.828125
1733		56.640625
1734		48.828125
1735		58.593750
1736		50.781250
1737		58.593750
1738		52.734375
1739		58.593750
1740		54.687500
1741		56.640625
1742		54.687500
1743		58.593750
1744		52.734375
1745		60.546875
1746		52.734375
1747		60.546875
1748		52.734375
1749		62.500000
1750		52.734375
1751		62.500000
1752		54.687500
1753		62.500000
1754		54.687500
1755		62.500000
1756		56.640625
1757		60.546875
1758		56.640625
1759		60.546875
1760		54.687500
1761		64.453125
1762		54.687500
1763		62.500000
1764		54.687500
1765		64.453125
1766		54.687500
1767		64.453125
1768		54.687500
1769		62.500000
1770		56.640625
1771		62.500000
1772		54.687500
1773		62.500000
1774		58.593750
1775		60.546875
1776		54.687500
1777		62.500000
1778		54.687500
1779		62.500000
1780		54.687500
1781		62.500000
1782		52.734375
1783		62.500000
1784		54.687500
1785		62.500000
1786		52.734375
1787		62.500000
1788		54.687500
1789		60.546875
1790		54.687500
1791		58.593750
1792		54.687500
1793		56.640625
1794		50.781250
1795		60.546875
1796		50.781250
1797		58.593750
1798		50.781250
1799		58.593750
1800		50.781250
1801		58.593750
1802		48.828125
1803		58.593750
1804		48.828125
1805		56.640625
1806		50.781250
1807		54.687500
1808		48.828125
1809		52.734375
1810		46.875000
1811		52.734375
1812		44.921875
1813		52.734375
1814		42.968750
1815		52.734375
1816		42.968750
1817		50.781250
1818		41.015625
1819		50.781250
1820		41.015625
1821		48.828125
1822		41.015625
1823		48.828125
1824		41.015625
1825		44.921875
1826		37.109375
1827		42.968750
1828		35.156250
1829		44.921875
1830		35.156250
1831		42.968750
1832		35.156250
1833		41.015625
1834		33.203125
1835		41.015625
1836		31.250000
1837		39.062500
1838		31.250000
1839		37.109375
1840		31.250000
1841		33.203125
1842		29.296875
1843		33.203125
1844		25.390625
1845		33.203125
1846		23.437500
1847		31.250000
1848		21.484375
1849		31.250000
1850		19.531250
1851		29.296875
1852		19.531250
1853		27.343750
1854		17.578125
1855		25.390625
1856		17.578125
1857		23.437500
1858		15.625000
1859		19.531250
1860		11.718750
1861		19.531250
1862		9.765625
1863		19.531250
1864		9.765625
1865		17.578125
1866		7.812500
1867		15.625000
1868		5.859375
1869		15.625000
1870		3.906250
1871		11.718750
1872		3.906250
1873		11.718750
1874		3.906250
1875		5.859375
1876		1.953125
1877		5.859375
1878		-1.953125
1879		5.859375
1880		-5.859375
1881		3.906250
1882		-5.859375
1883		1.953125
1884		-7.812500
1885		0.000000
1886		-9.765625
1887		0.000000
1888		-11.718750
1889		-3.906250
1890		-11.718750
1891		-7.812500
1892		-11.718750
1893		-9.765625
1894		-17.578125
1895		-9.765625
1896		-19.531250
1897		-9.765625
1898		-21.484375
1899		-11.718750
1900		-23.437500
1901		-13.671875
1902		-25.390625
1903		-15.625000
1904		-27.343750
1905		-17.578125
1906		-27.343750
1907		-19.531250
1908		-27.343750
1909		-23.437500
1910		-29.296875
1911		-25.390625
1912		-33.203125
1913		-25.390625
1914		-35.156250
1915		-27.343750
1916		-37.109375
1917		-27.343750
1918		-39.062500
1919		-27.343750
1920		-39.062500
1921		-31.250000
1922		-41.015625
1923		-33.203125
1924		-41.015625
1925		-37.109375
1926		-42.968750
1927		-39.062500
1928		-46.875000
1929		-39.062500
1930		-48.828125
1931		-39.062500
1932		-48.828125
1933		-41.015625
1934		-50.781250
1935		-42.968750
1936		-52.734375
1937		-42.968750
1938		-54.687500
1939		-44.921875
1940		-54.687500
1941		-46.875000
1942		-54.687500
1943		-50.781250
1944		-58.593750
1945		-50.781250
1946		-58.593750
1947		-50.781250
1948		-60.546875
1949		-50.781250
1950		-62.500000
1951		-54.687500
1952		-62.500000
1953		-54.687500
1954		-64.453125
1955		-56.640625
1956		-64.453125
1957		-56.640625
1958		-62.500000
1959		-60.546875
1960		-64.453125
1961		-62.500000
1962		-68.359375
1963		-60.546875
1964		-68.359375
1965		-60.546875
1966		-70.312500
1967		-62.500000
1968		-70.312500
1969		-62.500000
1970		-72.265625
1971		-62.500000
1972		-72.265625
1973		-64.453125
1974		-72.265625
1975		-66.406250
1976		-70.312500
1977		-68.359375
1978		-74.218750
1979		-66.406250
1980		-74.218750
1981		-66.406250
1982		-76.171875
1983		-66.406250
1984		-76.171875
1985		-68.359375
1986		-76.171875
1987		-68.359375
1988		-76.171875
1989		-68.359375
1990		-76.171875
1991		-70.312500
1992		-74.218750
1993		-72.265625
1994		-78.125000
1995		-70.312500
1996		-78.125000
1997		-70.312500
1998		-78.125000
1999		-70.312500
2000		-78.125000
2001		-70.312500
2002		-78.125000
2003		-68.359375
2004		-78.125000
2005		-70.312500
2006		-78.125000
2007		-70.312500
2008		-76.171875
2009		-72.265625
2010		-76.171875
2011		-72.265625
2012		-78.125000
2013		-70.312500
2014		-78.125000
2015		-68.359375
2016		-76.171875
2017		-68.359375
2018		-76.171875
2019		-68.359375
2020		-76.171875
2021		-68.359375
2022		-76.171875
2023		-68.359375
2024		-76.171875
2025		-66.406250
2026		-72.265625
2027		-70.312500
2028		-74.218750
2029		-66.406250
2030		-74.218750
2031		-64.453125
2032		-72.265625
2033		-64.453125
2034		-72.265625
2035		-64.453125
2036		-70.312500
2037		-62.500000
2038		-70.312500
2039		-62.500000
2040		-68.359375
2041		-62.500000
2042		-66.406250
2043		-62.500000
2044		-64.453125
2045		-62.500000
2046		-66.406250
2047		-58.593750
2048		-66.406250
2049		-56.640625
2050		-64.453125
2051		-56.640625
2052		-64.453125
2053		-54.687500
2054		-62.500000
2055		-54.687500
2056		-60.546875
2057		-52.734375
2058		-60.546875
2059		-52.734375
2060		-56.640625
2061		-52.734375
2062		-56.640625
2063		-48.828125
2064		-56.640625
2065		-48.828125
2066		-54.687500
2067		-46.875000
2068		-54.687500
2069		-44.921875
2070		-52.734375
2071		-42.968750
2072		-50.781250
2073		-41.015625
2074		-48.828125
2075		-41.015625
2076		-44.921875
2077		-41.015625
2078		-44.921875
2079		-39.062500
2080		-44.921875
2081		-35.156250
2082		-42.968750
2083		-33.203125
2084		-41.015625
2085		-33.203125
2086		-39.062500
2087		-31.250000
2088		-39.062500
2089		-29.296875
2090		-37.109375
2091		-27.343750
2092		-31.250000
2093		-29.296875
2094		-31.250000
2095		-27.343750
2096		-31.250000
2097		-23.437500
2098		-29.296875
2099		-21.484375
2100		-29.296875
2101		-19.531250
2102		-27.343750
2103		-17.578125
2104		-25.390625
2105		-15.625000
2106		-23.437500
2107		-13.671875
2108		-21.484375
2109		-13.671875
2110		-17.578125
2111		-13.671875
2112		-15.625000
2113		-7.812500
2114		-15.625000
2115		-7.812500
2116		-13.671875
2117		-5.859375
2118		-11.718750
2119		-3.906250
2120		-9.765625
2121		-1.953125
2122		-7.812500
2123		0.000000
2124		-7.812500
2125		1.953125
2126		-1.953125
2127		0.000000
2128		-1.953125
2129		3.906250
2130		-1.953125
2131		7.812500
2132		0.000000
2133		9.765625
2134		1.953125
2135		11.718750
2136		3.906250
2137		11.718750
2138		3.906250
2139		13.671875
2140		5.859375
2141		15.625000
2142		9.765625
2143		15.625000
2144		11.718750
2145		15.625000
2146		13.671875
2147		19.531250
2148		11.718750
2149		21.484375
2150		13.671875
2151		23.437500
2152		15.625000
2153		25.390625
2154		17.578125
2155		25.390625
2156		19.531250
2157		29.296875
2158		21.484375
2159		27.343750
2160		25.390625
2161		27.343750
2162		25.390625
2163		31.250000
2164		25.390625
2165		33.203125
2166		25.390625
2167		35.156250
2168		27.343750
2169		37.109375
2170		29.296875
2171		37.109375
2172		31.250000
2173		39.062500
2174		31.250000
2175		39.062500
2176		35.156250
2177		39.062500
2178		37.109375
2179		41.015625
2180		37.109375
2181		44.921875
2182		37.109375
2183		44.921875
2184		37.109375
2185		46.875000
2186		39.062500
2187		48.828125
2188		41.015625
2189		48.828125
2190		41.015625
2191		48.828125
2192		42.968750
2193		50.781250
2194		46.875000
2195		48.828125
2196		44.921875
2197		52.734375
2198		44.921875
2199		52.734375
2200		46.875000
2201		54.687500
2202		46.875000
2203		54.687500
2204		48.828125
2205		56.640625
2206		48.828125
2207		56.640625
2208		48.828125
2209		58.593750
2210		52.734375
2211		56.640625
2212		52.734375
2213		56.640625
2214		50.781250
2215		60.546875
2216		52.734375
2217		60.546875
2218		52.734375
2219		60.546875
2220		52.734375
2221		62.500000
2222		54.687500
2223		62.500000
2224		54.687500
2225		62.500000
2226		56.640625
2227		62.500000
2228		56.640625
2229		60.546875
2230		56.640625
2231		62.500000
2232		54.687500
2233		62.500000
2234		54.687500
2235		62.500000
2236		54.687500
2237		64.453125
2238		54.687500
2239		64.453125
2240		56.640625
2241		62.500000
2242		56.640625
2243		64.453125
2244		58.593750
2245		60.546875
2246		58.593750
2247		62.500000
2248		54.687500
2249		64.453125
2250		54.687500
2251		64.453125
2252		54.687500
2253		64.453125
2254		54.687500
2255		62.500000
2256		54.687500
2257		64.453125
2258		54.687500
2259		62.500000
2260		56.640625
2261		60.546875
2262		56.640625
2263		58.593750
2264		52.734375
2265		62.500000
2266		52.734375
2267		60.546875
2268		52.734375
2269		60.546875
2270		52.734375
2271		60.546875
2272		50.781250
2273		60.546875
2274		50.781250
2275		58.593750
2276		52.734375
2277		58.593750
2278		52.734375
2279		54.687500
2280		48.828125
2281		56.640625
2282		48.828125
2283		56.640625
2284		46.875000
2285		54.687500
2286		44.921875
2287		54.687500
2288		44.921875
2289		52.734375
2290		42.968750
2291		52.734375
2292		44.921875
2293		50.781250
2294		44.921875
2295		46.875000
2296		44.921875
2297		46.875000
2298		41.015625
2299		48.828125
2300		39.062500
2301		46.875000
2302		37.109375
2303		46.875000
2304		37.109375
2305		44.921875
2306		35.156250
2307		42.968750
2308		33.203125
2309		42.968750
2310		35.156250
2311		39.062500
2312		35.156250
2313		37.109375
2314		29.296875
2315		37.109375
2316		29.296875
2317		37.109375
2318		27.343750
2319		35.156250
2320		25.390625
2321		33.203125
2322		23.437500
2323		33.203125
2324		23.437500
2325		31.250000
2326		21.484375
2327		29.296875
2328		23.437500
2329		25.390625
2330		21.484375
2331		23.437500
2332		15.625000
2333		25.390625
2334		15.625000
2335		23.437500
2336		11.718750
2337		21.484375
2338		11.718750
2339		21.484375
2340		9.765625
2341		19.531250
2342		7.812500
2343		17.578125
2344		9.765625
2345		11.718750
2346		7.812500
2347		11.718750
2348		3.906250
2349		11.718750
2350		0.000000
2351		9.765625
2352		0.000000
2353		7.812500
2354		-1.953125
2355		7.812500
2356		-1.953125
2357		3.906250
2358		-5.859375
2359		1.953125
2360		-5.859375
2361		0.000000
2362		-5.859375
2363		-1.953125
2364		-11.718750
2365		-3.906250
2366		-13.671875
2367		-3.906250
2368		-15.625000
2369		-5.859375
2370		-17.578125
2371		-7.812500
2372		-17.578125
2373		-9.765625
2374		-19.531250
2375		-11.718750
2376		-21.484375
2377		-13.671875
2378		-21.484375
2379		-17.578125
2380		-23.437500
2381		-19.531250
2382		-27.343750
2383		-17.578125
2384		-29.296875
2385		-19.531250
2386		-31.250000
2387		-21.484375
2388		-31.250000
2389		-23.437500
2390		-33.203125
2391		-25.390625
2392		-35.156250
2393		-27.343750
2394		-37.109375
2395		-29.296875
2396		-37.109375
2397		-33.203125
2398		-41.015625
2399		-33.203125
2400		-42.968750
2401		-33.203125
2402		-42.968750
2403		-35.156250
2404		-46.875000
2405		-37.109375
2406		-46.875000
2407		-39.062500
2408		-48.828125
2409		-39.062500
2410		-48.828125
2411		-41.015625
2412		-48.828125
2413		-46.875000
2414		-50.781250
2415		-46.875000
2416		-54.687500
2417		-44.921875
2418		-54.687500
2419		-46.875000
2420		-56.640625
2421		-48.828125
2422		-58.593750
2423		-48.828125
2424		-60.546875
2425		-50.781250
2426		-60.546875
2427		-52.734375
2428		-58.593750
2429		-56.640625
2430		-60.546875
2431		-56.640625
2432		-64.453125
2433		-54.687500
2434		-66.406250
2435		-56.640625
2436		-66.406250
2437		-58.593750
2438		-68.359375
2439		-58.593750
2440		-68.359375
2441		-58.593750
2442		-68.359375
2443		-60.546875
2444		-68.359375
2445		-62.500000
2446		-68.359375
2447		-64.453125
2448		-70.312500
2449		-64.453125
2450		-72.265625
2451		-64.453125
2452		-72.265625
2453		-64.453125
2454		-74.218750
2455		-64.453125
2456		-74.218750
2457		-66.406250
2458		-74.218750
2459		-66.406250
2460		-74.218750
2461		-66.406250
2462		-72.265625
2463		-70.312500
2464		-74.218750
2465		-70.312500
2466		-76.171875
2467		-66.406250
2468		-76.171875
2469		-68.359375
2470		-76.171875
2471		-68.359375
2472		-76.171875
2473		-68.359375
2474		-76.171875
2475		-68.359375
2476		-76.171875
2477		-68.359375
2478		-76.171875
2479		-68.359375
2480		-74.218750
2481		-72.265625
2482		-76.171875
2483		-68.359375
2484		-76.171875
2485		-68.359375
2486		-76.171875
2487		-68.359375
2488		-76.171875
2489		-68.359375
2490		-76.171875
2491		-68.359375
2492		-76.171875
2493		-66.406250
2494		-76.171875
2495		-66.406250
2496		-72.265625
2497		-70.312500
2498		-72.265625
2499		-68.359375
2500		-74.218750
2501		-66.406250
2502		-74.218750
2503		-64.453125
2504		-72.265625
2505		-64.453125
2506		-72.265625
2507		-64.453125
2508		-70.312500
2509		-62.500000
2510		-70.312500
2511		-62.500000
2512		-68.359375
2513		-64.453125
2514		-66.406250
2515		-64.453125
2516		-66.406250
2517		-60.546875
2518		-68.359375
2519		-58.593750
2520		-66.406250
2521		-58.593750
2522		-66.406250
2523		-56.640625
2524		-64.453125
2525		-54.687500
2526		-62.500000
2527		-54.687500
2528		-62.500000
2529		-54.687500
2530		-58.593750
2531		-54.687500
2532		-58.593750
2533		-52.734375
2534		-58.593750
2535		-48.828125
2536		-58.593750
2537		-48.828125
2538		-54.687500
2539		-46.875000
2540		-54.687500
2541		-46.875000
2542		-52.734375
2543		-44.921875
2544		-50.781250
2545		-42.968750
2546		-46.875000
2547		-44.921875
2548		-46.875000
2549		-42.968750
2550		-46.875000
2551		-39.062500
2552		-44.921875
2553		-37.109375
2554		-42.968750
2555		-35.156250
2556		-42.968750
2557		-33.203125
2558		-41.015625
2559		-33.203125
2560		-39.062500
2561		-29.296875
2562		-37.109375
2563		-31.250000
2564		-33.203125
2565		-31.250000
2566		-33.203125
2567		-25.390625
2568		-33.203125
2569		-25.390625
2570		-31.250000
2571		-21.484375
2572		-29.296875
2573		-21.484375
2574		-27.343750
2575		-19.531250
2576		-27.343750
2577		-17.578125
2578		-25.390625
2579		-17.578125
2580		-19.531250
2581		-17.578125
2582		-19.531250
2583		-15.625000
2584		-19.531250
2585		-9.765625
2586		-17.578125
2587		-9.765625
2588		-15.625000
2589		-7.812500
2590		-13.671875
2591		-5.859375
2592		-13.671875
2593		-3.906250
2594		-11.718750
2595		-1.953125
2596		-7.812500
2597		-1.953125
2598		-3.906250
2599		-1.953125
2600		-5.859375
2601		3.906250
2602		-3.906250
2603		3.906250
2604		-1.953125
2605		5.859375
2606		0.000000
2607		7.812500
2608		1.953125
2609		9.765625
2610		1.953125
2611		11.718750
2612		3.906250
2613		13.671875
2614		9.765625
2615		11.718750
2616		9.765625
2617		17.578125
2618		7.812500
2619		17.578125
2620		11.718750
2621		19.531250
2622		13.671875
2623		21.484375
2624		15.625000
2625		23.437500
2626		15.625000
2627		25.390625
2628		17.578125
2629		25.390625
2630		21.484375
2631		25.390625
2632		23.437500
2633		27.343750
2634		23.437500
2635		31.250000
2636		23.437500
2637		33.203125
2638		25.390625
2639		35.156250
2640		27.343750
2641		35.156250
2642		29.296875
2643		37.109375
2644		29.296875
2645		37.109375
2646		33.203125
2647		37.109375
2648		35.156250
2649		37.109375
2650		37.109375
2651		41.015625
2652		33.203125
2653		42.968750
2654		35.156250
2655		44.921875
2656		37.109375
2657		44.921875
2658		39.062500
2659		46.875000
2660		39.062500
2661		46.875000
2662		41.015625
2663		48.828125
2664		44.921875
2665		46.875000
2666		44.921875
2667		48.828125
2668		42.968750
2669		50.781250
2670		44.921875
2671		52.734375
2672		44.921875
2673		54.687500
2674		46.875000
2675		54.687500
2676		46.875000
2677		56.640625
2678		48.828125
2679		56.640625
2680		50.781250
2681		54.687500
2682		52.734375
2683		54.687500
2684		50.781250
2685		58.593750
2686		50.781250
2687		58.593750
2688		52.734375
2689		60.546875
2690		52.734375
2691		60.546875
2692		52.734375
2693		60.546875
2694		52.734375
2695		60.546875
2696		54.687500
2697		62.500000
2698		56.640625
2699		60.546875
2700		56.640625
2701		62.500000
2702		54.687500
2703		62.500000
2704		54.687500
2705		64.453125
2706		54.687500
2707		64.453125
2708		56.640625
2709		64.453125
2710		56.640625
2711		64.453125
2712		56.640625
2713		64.453125
2714		58.593750
2715		62.500000
2716		60.546875
2717		62.500000
2718		56.640625
2719		64.453125
2720		56.640625
2721		64.453125
2722		56.640625
2723		64.453125
2724		56.640625
2725		64.453125
2726		56.640625
2727		64.453125
2728		56.640625
2729		64.453125
2730		58.593750
2731		64.453125
2732		58.593750
2733		60.546875
2734		56.640625
2735		62.500000
2736		54.687500
2737		64.453125
2738		54.687500
2739		62.500000
2740		54.687500
2741		62.500000
2742		54.687500
2743		62.500000
2744		52.734375
2745		60.546875
2746		52.734375
2747		60.546875
2748		54.687500
2749		56.640625
2750		54.687500
2751		56.640625
2752		50.781250
2753		58.593750
2754		50.781250
2755		58.593750
2756		48.828125
2757		56.640625
2758		48.828125
2759		56.640625
2760		46.875000
2761		56.640625
2762		46.875000
2763		54.687500
2764		48.828125
2765		52.734375
2766		48.828125
2767		50.781250
2768		42.968750
2769		52.734375
2770		42.968750
2771		50.781250
2772		42.968750
2773		50.781250
2774		41.015625
2775		48.828125
2776		39.062500
2777		48.828125
2778		39.062500
2779		46.875000
2780		37.109375
2781		44.921875
2782		39.062500
2783		42.968750
2784		35.156250
2785		41.015625
2786		35.156250
2787		42.968750
2788		33.203125
2789		41.015625
2790		31.250000
2791		39.062500
2792		31.250000
2793		39.062500
2794		27.343750
2795		37.109375
2796		27.343750
2797		35.156250
2798		27.343750
2799		31.250000
2800		27.343750
2801		29.296875
2802		21.484375
2803		29.296875
2804		19.531250
2805		29.296875
2806		17.578125
2807		27.343750
2808		17.578125
2809		25.390625
2810		15.625000
2811		25.390625
2812		13.671875
2813		21.484375
2814		13.671875
2815		19.531250
2816		13.671875
2817		17.578125
2818		9.765625
2819		17.578125
2820		7.812500
2821		15.625000
2822		5.859375
2823		15.625000
2824		3.906250
2825		11.718750
2826		1.953125
2827		11.718750
2828		0.000000
2829		9.765625
2830		0.000000
2831		7.812500
2832		0.000000
2833		1.953125
2834		-1.953125
2835		1.953125
2836		-7.812500
2837		1.953125
2838		-7.812500
2839		0.000000
2840		-9.765625
2841		-1.953125
2842		-11.718750
2843		-3.906250
2844		-13.671875
2845		-5.859375
2846		-15.625000
2847		-5.859375
2848		-13.671875
2849		-11.718750
2850		-15.625000
2851		-13.671875
2852		-21.484375
2853		-13.671875
2854		-23.437500
2855		-13.671875
2856		-23.437500
2857		-15.625000
2858		-27.343750
2859		-17.578125
2860		-27.343750
2861		-19.531250
2862		-29.296875
2863		-21.484375
2864		-31.250000
2865		-23.437500
2866		-31.250000
2867		-27.343750
2868		-33.203125
2869		-29.296875
2870		-37.109375
2871		-27.343750
2872		-39.062500
2873		-29.296875
2874		-41.015625
2875		-31.250000
2876		-41.015625
2877		-33.203125
2878		-42.968750
2879		-35.156250
2880		-44.921875
2881		-35.156250
2882		-42.968750
2883		-41.015625
2884		-44.921875
2885		-42.968750
2886		-48.828125
2887		-41.015625
2888		-50.781250
2889		-42.968750
2890		-52.734375
2891		-42.968750
2892		-54.687500
2893		-42.968750
2894		-54.687500
2895		-46.875000
2896		-56.640625
2897		-46.875000
2898		-56.640625
2899		-50.781250
2900		-56.640625
2901		-52.734375
2902		-60.546875
2903		-52.734375
2904		-60.546875
2905		-52.734375
2906		-62.500000
2907		-54.687500
2908		-64.453125
2909		-54.687500
2910		-64.453125
2911		-56.640625
2912		-66.406250
2913		-56.640625
2914		-66.406250
2915		-58.593750
2916		-64.453125
2917		-62.500000
2918		-66.406250
2919		-62.500000
2920		-68.359375
2921		-60.546875
2922		-70.312500
2923		-62.500000
2924		-70.312500
2925		-62.500000
2926		-72.265625
2927		-62.500000
2928		-72.265625
2929		-62.500000
2930		-72.265625
2931		-64.453125
2932		-70.312500
2933		-68.359375
2934		-70.312500
2935		-68.359375
2936		-74.218750
2937		-66.406250
2938		-74.218750
2939		-66.406250
2940		-76.171875
2941		-66.406250
2942		-76.171875
2943		-68.359375
2944		-76.171875
2945		-68.359375
2946		-76.171875
2947		-68.359375
2948		-76.171875
2949		-68.359375
2950		-74.218750
2951		-72.265625
2952		-76.171875
2953		-70.312500
2954		-76.171875
2955		-68.359375
2956		-76.171875
2957		-68.359375
2958		-76.171875
2959		-68.359375
2960		-76.171875
2961		-68.359375
2962		-76.171875
2963		-68.359375
2964		-76.171875
2965		-68.359375
2966		-72.265625
2967		-70.312500
2968		-72.265625
2969		-68.359375
2970		-74.218750
2971		-66.406250
2972		-74.218750
2973		-66.406250
2974		-74.218750
2975		-66.406250
2976		-74.218750
2977		-64.453125
2978		-74.218750
2979		-64.453125
2980		-72.265625
2981		-64.453125
2982		-72.265625
2983		-64.453125
2984		-68.359375
2985		-66.406250
2986		-68.359375
2987		-60.546875
2988		-70.312500
2989		-60.546875
2990		-68.359375
2991		-60.546875
2992		-68.359375
2993		-58.593750
2994		-66.406250
2995		-58.593750
2996		-66.406250
2997		-58.593750
2998		-64.453125
2999		-56.640625
3000		-62.500000
3001		-56.640625
3002		-60.546875
3003		-56.640625
3004		-62.500000
3005		-52.734375
3006		-60.546875
3007		-52.734375
3008		-58.593750
3009		-50.781250
3010		-58.593750
3011		-50.781250
3012		-56.640625
3013		-48.828125
3014		-54.687500
3015		-46.875000
3016		-52.734375
3017		-48.828125
3018		-50.781250
3019		-46.875000
3020		-50.781250
3021		-42.968750
3022		-50.781250
3023		-41.015625
3024		-48.828125
3025		-41.015625
3026		-46.875000
3027		-39.062500
3028		-46.875000
3029		-37.109375
3030		-44.921875
3031		-35.156250
3032		-42.968750
3033		-35.156250
3034		-39.062500
3035		-35.156250
3036		-37.109375
3037		-33.203125
3038		-39.062500
3039		-29.296875
3040		-37.109375
3041		-29.296875
3042		-35.156250
3043		-27.343750
3044		-33.203125
3045		-25.390625
3046		-31.250000
3047		-21.484375
3048		-29.296875
3049		-21.484375
3050		-25.390625
3051		-21.484375
3052		-23.437500
3053		-21.484375
3054		-23.437500
3055		-15.625000
3056		-23.437500
3057		-13.671875
3058		-21.484375
3059		-11.718750
3060		-19.531250
3061		-11.718750
3062		-17.578125
3063		-9.765625
3064		-15.625000
3065		-7.812500
3066		-13.671875
3067		-7.812500
3068		-9.765625
3069		-5.859375
3070		-9.765625
3071		-3.906250
3072		-9.765625
3073		0.000000
3074		-7.812500
3075		1.953125
3076		-5.859375
3077		3.906250
3078		-3.906250
3079		5.859375
3080		-1.953125
3081		5.859375
3082		0.000000
3083		7.812500
3084		3.906250
3085		7.812500
3086		5.859375
3087		9.765625
3088		3.906250
3089		13.671875
3090		5.859375
3091		15.625000
3092		7.812500
3093		17.578125
3094		9.765625
3095		17.578125
3096		9.765625
3097		19.531250
3098		13.671875
3099		21.484375
3100		13.671875
3101		21.484375
3102		19.531250
3103		21.484375
3104		19.531250
3105		25.390625
3106		19.531250
3107		27.343750
3108		21.484375
3109		29.296875
3110		23.437500
3111		29.296875
3112		23.437500
3113		33.203125
3114		25.390625
3115		33.203125
3116		27.343750
3117		35.156250
3118		31.250000
3119		33.203125
3120		31.250000
3121		37.109375
3122		31.250000
3123		39.062500
3124		31.250000
3125		41.015625
3126		33.203125
3127		41.015625
3128		35.156250
3129		42.968750
3130		35.156250
3131		44.921875
3132		37.109375
3133		44.921875
3134		41.015625
3135		42.968750
3136		42.968750
3137		44.921875
3138		41.015625
3139		48.828125
3140		41.015625
3141		48.828125
3142		42.968750
3143		50.781250
3144		42.968750
3145		50.781250
3146		44.921875
3147		52.734375
3148		44.921875
3149		54.687500
3150		46.875000
3151		54.687500
3152		50.781250
3153		52.734375
3154		48.828125
3155		54.687500
3156		50.781250
3157		54.687500
3158		50.781250
3159		56.640625
3160		50.781250
3161		56.640625
3162		52.734375
3163		58.593750
3164		52.734375
3165		58.593750
3166		52.734375
3167		58.593750
3168		54.687500
3169		58.593750
3170		56.640625
3171		58.593750
3172		54.687500
3173		62.500000
3174		54.687500
3175		62.500000
3176		54.687500
3177		62.500000
3178		54.687500
3179		62.500000
3180		54.687500
3181		62.500000
3182		54.687500
3183		64.453125
3184		54.687500
3185		62.500000
3186		58.593750
3187		62.500000
3188		56.640625
3189		62.500000
3190		56.640625
3191		64.453125
3192		56.640625
3193		64.453125
3194		56.640625
3195		64.453125
3196		54.687500
3197		64.453125
3198		56.640625
3199		64.453125
3200		56.640625
3201		64.453125
3202		58.593750
3203		60.546875
3204		58.593750
3205		60.546875
3206		54.687500
3207		64.453125
3208		56.640625
3209		64.453125
3210		54.687500
3211		62.500000
3212		54.687500
3213		62.500000
3214		54.687500
3215		62.500000
3216		54.687500
3217		62.500000
3218		54.687500
3219		60.546875
3220		56.640625
3221		58.593750
3222		52.734375
3223		60.546875
3224		52.734375
3225		60.546875
3226		50.781250
3227		60.546875
3228		50.781250
3229		58.593750
3230		50.781250
3231		58.593750
3232		48.828125
3233		58.593750
3234		50.781250
3235		56.640625
3236		50.781250
3237		52.734375
3238		48.828125
3239		54.687500
3240		44.921875
3241		54.687500
3242		44.921875
3243		52.734375
3244		44.921875
3245		52.734375
3246		42.968750
3247		50.781250
3248		41.015625
3249		50.781250
3250		41.015625
3251		48.828125
3252		42.968750
3253		44.921875
3254		41.015625
3255		44.921875
3256		37.109375
3257		44.921875
3258		35.156250
3259		44.921875
3260		35.156250
3261		42.968750
3262		33.203125
3263		41.015625
3264		31.250000
3265		41.015625
3266		31.250000
3267		39.062500
3268		31.250000
3269		37.109375
3270		29.296875
3271		33.203125
3272		27.343750
3273		35.156250
3274		25.390625
3275		33.203125
3276		23.437500
3277		31.250000
3278		21.484375
3279		31.250000
3280		19.531250
3281		29.296875
3282		19.531250
3283		27.343750
3284		17.578125
3285		25.390625
3286		19.531250
3287		21.484375
3288		17.578125
3289		19.531250
3290		11.718750
3291		21.484375
3292		9.765625
3293		19.531250
3294		9.765625
3295		17.578125
3296		5.859375
3297		15.625000
3298		5.859375
3299		13.671875
3300		3.906250
3301		11.718750
3302		3.906250
3303		9.765625
3304		1.953125
3305		5.859375
3306		-1.953125
3307		7.812500
3308		-3.906250
3309		5.859375
3310		-5.859375
3311		3.906250
3312		-7.812500
3313		1.953125
3314		-7.812500
3315		0.000000
3316		-11.718750
3317		-1.953125
3318		-9.765625
3319		-3.906250
3320		-11.718750
3321		-7.812500
3322		-15.625000
3323		-7.812500
3324		-17.578125
3325		-7.812500
3326		-19.531250
3327		-11.718750
3328		-21.484375
3329		-11.718750
3330		-23.437500
3331		-13.671875
3332		-25.390625
3333		-15.625000
3334		-25.390625
3335		-17.578125
3336		-25.390625
3337		-21.484375
3338		-27.343750
3339		-23.437500
3340		-31.250000
3341		-23.437500
3342		-35.156250
3343		-25.390625
3344		-35.156250
3345		-27.343750
3346		-37.109375
3347		-27.343750
3348		-39.062500
3349		-31.250000
3350		-41.015625
3351		-31.250000
3352		-41.015625
3353		-35.156250
3354		-41.015625
3355		-37.109375
3356		-44.921875
3357		-37.109375
3358		-46.875000
3359		-37.109375
3360		-46.875000
3361		-39.062500
3362		-48.828125
3363		-41.015625
3364		-50.781250
3365		-42.968750
3366		-52.734375
3367		-44.921875
3368		-52.734375
3369		-44.921875
3370		-52.734375
3371		-48.828125
3372		-52.734375
3373		-50.781250
3374		-58.593750
3375		-48.828125
3376		-58.593750
3377		-50.781250
3378		-62.500000
3379		-52.734375
3380		-60.546875
3381		-52.734375
3382		-62.500000
3383		-54.687500
3384		-64.453125
3385		-54.687500
3386		-62.500000
3387		-56.640625
3388		-62.500000
3389		-60.546875
3390		-66.406250
3391		-58.593750
3392		-68.359375
3393		-58.593750
3394		-68.359375
3395		-60.546875
3396		-70.312500
3397		-60.546875
3398		-70.312500
3399		-62.500000
3400		-70.312500
3401		-62.500000
3402		-70.312500
3403		-64.453125
3404		-68.359375
3405		-66.406250
3406		-70.312500
3407		-66.406250
3408		-74.218750
3409		-64.453125
3410		-74.218750
3411		-66.406250
3412		-74.218750
3413		-66.406250
3414		-74.218750
3415		-66.406250
3416		-76.171875
3417		-66.406250
3418		-74.218750
3419		-66.406250
3420		-72.265625
3421		-70.312500
3422		-74.218750
3423		-70.312500
3424		-76.171875
3425		-68.359375
3426		-76.171875
3427		-68.359375
3428		-76.171875
3429		-68.359375
3430		-76.171875
3431		-68.359375
3432		-76.171875
3433		-68.359375
3434		-76.171875
3435		-68.359375
3436		-76.171875
3437		-68.359375
3438		-72.265625
3439		-70.312500
3440		-76.171875
3441		-68.359375
3442		-76.171875
3443		-66.406250
3444		-76.171875
3445		-68.359375
3446		-74.218750
3447		-66.406250
3448		-74.218750
3449		-66.406250
3450		-74.218750
3451		-66.406250
3452		-74.218750
3453		-66.406250
3454		-70.312500
3455		-68.359375
3456		-70.312500
3457		-66.406250
3458		-70.312500
3459		-64.453125
3460		-70.312500
3461		-62.500000
3462		-70.312500
3463		-62.500000
3464		-70.312500
3465		-60.546875
3466		-68.359375
3467		-60.546875
3468		-68.359375
3469		-60.546875
3470		-64.453125
3471		-60.546875
3472		-62.500000
3473		-60.546875
3474		-64.453125
3475		-56.640625
3476		-64.453125
3477		-54.687500
3478		-62.500000
3479		-54.687500
3480		-60.546875
3481		-52.734375
3482		-60.546875
3483		-52.734375
3484		-58.593750
3485		-50.781250
3486		-58.593750
3487		-50.781250
3488		-54.687500
3489		-50.781250
3490		-52.734375
3491		-46.875000
3492		-54.687500
3493		-44.921875
3494		-52.734375
3495		-44.921875
3496		-50.781250
3497		-42.968750
3498		-50.781250
3499		-41.015625
3500		-48.828125
3501		-39.062500
3502		-46.875000
3503		-39.062500
3504		-42.968750
3505		-39.062500
3506		-41.015625
3507		-39.062500
3508		-42.968750
3509		-33.203125
3510		-41.015625
3511		-31.250000
3512		-39.062500
3513		-31.250000
3514		-37.109375
3515		-29.296875
3516		-35.156250
3517		-27.343750
3518		-33.203125
3519		-25.390625
3520		-33.203125
3521		-27.343750
3522		-29.296875
3523		-25.390625
3524		-27.343750
3525		-21.484375
3526		-27.343750
3527		-19.531250
3528		-25.390625
3529		-17.578125
3530		-25.390625
3531		-15.625000
3532		-21.484375
3533		-13.671875
3534		-19.531250
3535		-13.671875
3536		-19.531250
3537		-11.718750
3538		-15.625000
3539		-11.718750
3540		-13.671875
3541		-9.765625
3542		-13.671875
3543		-5.859375
3544		-11.718750
3545		-3.906250
3546		-9.765625
3547		-1.953125
3548		-9.765625
3549		0.000000
3550		-7.812500
3551		1.953125
3552		-5.859375
3553		3.906250
3554		-1.953125
3555		1.953125
3556		0.000000
3557		3.906250
3558		0.000000
3559		7.812500
3560		1.953125
3561		9.765625
3562		3.906250
3563		11.718750
3564		5.859375
3565		13.671875
3566		5.859375
3567		15.625000
3568		9.765625
3569		17.578125
3570		9.765625
3571		17.578125
3572		13.671875
3573		17.578125
3574		15.625000
3575		21.484375
3576		15.625000
3577		23.437500
3578		17.578125
3579		25.390625
3580		17.578125
3581		25.390625
3582		19.531250
3583		27.343750
3584		21.484375
3585		29.296875
3586		23.437500
3587		29.296875
3588		27.343750
3589		29.296875
3590		27.343750
3591		31.250000
3592		27.343750
3593		35.156250
3594		29.296875
3595		37.109375
3596		29.296875
3597		37.109375
3598		31.250000
3599		39.062500
3600		31.250000
3601		41.015625
3602		33.203125
3603		41.015625
3604		35.156250
3605		42.968750
3606		39.062500
3607		41.015625
3608		39.062500
3609		44.921875
3610		39.062500
3611		46.875000
3612		39.062500
3613		48.828125
3614		41.015625
3615		48.828125
3616		42.968750
3617		48.828125
3618		42.968750
3619		50.781250
3620		42.968750
3621		50.781250
3622		46.875000
3623		50.781250
3624		48.828125
3625		50.781250
3626		46.875000
3627		54.687500
3628		48.828125
3629		56.640625
3630		48.828125
3631		56.640625
3632		48.828125
3633		56.640625
3634		50.781250
3635		58.593750
3636		50.781250
3637		58.593750
3638		52.734375
3639		56.640625
3640		54.687500
3641		56.640625
3642		54.687500
3643		58.593750
3644		52.734375
3645		60.546875
3646		52.734375
3647		60.546875
3648		54.687500
3649		62.500000
3650		54.687500
3651		62.500000
3652		54.687500
3653		62.500000
3654		56.640625
3655		62.500000
3656		58.593750
3657		60.546875
3658		58.593750
3659		60.546875
3660		56.640625
3661		64.453125
3662		56.640625
3663		64.453125
3664		56.640625
3665		64.453125
3666		56.640625
3667		64.453125
3668		56.640625
3669		64.453125
3670		56.640625
3671		64.453125
3672		60.546875
3673		62.500000
3674		58.593750
3675		62.500000
3676		58.593750
3677		62.500000
3678		56.640625
3679		62.500000
3680		54.687500
3681		64.453125
3682		56.640625
3683		64.453125
3684		56.640625
3685		62.500000
3686		54.687500
3687		62.500000
3688		58.593750
3689		60.546875
3690		58.593750
3691		60.546875
3692		54.687500
3693		60.546875
3694		56.640625
3695		60.546875
3696		52.734375
3697		60.546875
3698		52.734375
3699		60.546875
3700		52.734375
3701		60.546875
3702		50.781250
3703		58.593750
3704		52.734375
3705		58.593750
3706		52.734375
3707		54.687500
3708		52.734375
3709		54.687500
3710		50.781250
3711		54.687500
3712		50.781250
3713		52.734375
3714		46.875000
3715		54.687500
3716		44.921875
3717		52.734375
3718		46.875000
3719		54.687500
3720		44.921875
3721		52.734375
3722		44.921875
3723		48.828125
3724		44.921875
3725		46.875000
3726		42.968750
3727		46.875000
3728		41.015625
3729		44.921875
3730		39.062500
3731		44.921875
3732		39.062500
3733		44.921875
3734		37.109375
3735		44.921875
3736		35.156250
3737		42.968750
3738		35.156250
3739		41.015625
3740		33.203125
3741		37.109375
3742		33.203125
3743		37.109375
3744		31.250000
3745		35.156250
3746		29.296875
3747		35.156250
3748		27.343750
3749		35.156250
3750		25.390625
3751		33.203125
3752		23.437500
3753		29.296875
3754		21.484375
3755		29.296875
3756		21.484375
3757		27.343750
3758		21.484375
3759		23.437500
3760		17.578125
3761		23.437500
3762		17.578125
3763		21.484375
3764		15.625000
3765		19.531250
3766		13.671875
3767		19.531250
3768		11.718750
3769		19.531250
3770		9.765625
3771		17.578125
3772		9.765625
3773		13.671875
3774		7.812500
3775		11.718750
3776		5.859375
3777		9.765625
3778		3.906250
3779		7.812500
3780		1.953125
3781		5.859375
3782		0.000000
3783		3.906250
3784		-1.953125
3785		3.906250
3786		-5.859375
3787		3.906250
3788		-5.859375
3789		1.953125
3790		-5.859375
3791		-3.906250
3792		-7.812500
3793		-5.859375
3794		-9.765625
3795		-5.859375
3796		-11.718750
3797		-7.812500
3798		-13.671875
3799		-9.765625
3800		-15.625000
3801		-11.718750
3802		-17.578125
3803		-11.718750
3804		-21.484375
3805		-13.671875
3806		-21.484375
3807		-17.578125
3808		-23.437500
3809		-17.578125
3810		-25.390625
3811		-21.484375
3812		-27.343750
3813		-21.484375
3814		-29.296875
3815		-23.437500
3816		-29.296875
3817		-25.390625
3818		-33.203125
3819		-27.343750
3820		-35.156250
3821		-27.343750
3822		-35.156250
3823		-29.296875
3824		-37.109375
3825		-33.203125
3826		-37.109375
3827		-35.156250
3828		-41.015625
3829		-35.156250
3830		-41.015625
3831		-37.109375
3832		-42.968750
3833		-39.062500
3834		-44.921875
3835		-41.015625
3836		-48.828125
3837		-41.015625
3838		-48.828125
3839		-42.968750
3840		-48.828125
3841		-44.921875
3842		-50.781250
3843		-46.875000
3844		-52.734375
3845		-46.875000
3846		-52.734375
3847		-48.828125
3848		-54.687500
3849		-50.781250
3850		-56.640625
3851		-52.734375
3852		-56.640625
3853		-52.734375
3854		-60.546875
3855		-50.781250
3856		-60.546875
3857		-54.687500
3858		-60.546875
3859		-56.640625
3860		-62.500000
3861		-58.593750
3862		-62.500000
3863		-58.593750
3864		-64.453125
3865		-60.546875
3866		-64.453125
3867		-60.546875
3868		-64.453125
3869		-62.500000
3870		-66.406250
3871		-62.500000
3872		-68.359375
3873		-60.546875
3874		-66.406250
3875		-64.453125
3876		-68.359375
3877		-66.406250
3878		-70.312500
3879		-66.406250
3880		-70.312500
3881		-66.406250
3882		-70.312500
3883		-66.406250
3884		-70.312500
3885		-68.359375
3886		-74.218750
3887		-68.359375
3888		-74.218750
3889		-68.359375
3890		-72.265625
3891		-68.359375
3892		-72.265625
3893		-70.312500
3894		-74.218750
3895		-68.359375
3896		-72.265625
3897		-70.312500
3898		-74.218750
3899		-70.312500
3900		-74.218750
3901		-70.312500
3902		-74.218750
3903		-70.312500
3904		-76.171875
3905		-68.359375
3906		-76.171875
3907		-70.312500
3908		-72.265625
3909		-70.312500
3910		-72.265625
3911		-70.312500
3912		-74.218750
3913		-68.359375
3914		-72.265625
3915		-70.312500
3916		-72.265625
3917		-70.312500
3918		-72.265625
3919		-68.359375
3920		-74.218750
3921		-66.406250
3922		-72.265625
3923		-66.406250
3924		-72.265625
3925		-68.359375
3926		-70.312500
3927		-68.359375
3928		-72.265625
3929		-66.406250
3930		-70.312500
3931		-66.406250
3932		-68.359375
3933		-64.453125
3934		-68.359375
3935		-64.453125
3936		-68.359375
3937		-64.453125
3938		-68.359375
3939		-60.546875
3940		-66.406250
3941		-62.500000
3942		-64.453125
3943		-62.500000
3944		-64.453125
3945		-60.546875
3946		-64.453125
3947		-60.546875
3948		-62.500000
3949		-60.546875
3950		-62.500000
3951		-58.593750
3952		-60.546875
3953		-56.640625
3954		-60.546875
3955		-54.687500
3956		-60.546875
3957		-54.687500
3958		-56.640625
3959		-54.687500
3960		-56.640625
3961		-52.734375
3962		-54.687500
3963		-50.781250
3964		-52.734375
3965		-50.781250
3966		-52.734375
3967		-48.828125
3968		-50.781250
3969		-48.828125
3970		-50.781250
3971		-46.875000
3972		-50.781250
3973		-42.968750
3974		-46.875000
3975		-42.968750
3976		-44.921875
3977		-42.968750
3978		-44.921875
3979		-39.062500
3980		-42.968750
3981		-39.062500
3982		-41.015625
3983		-37.109375
3984		-39.062500
3985		-37.109375
3986		-37.109375
3987		-33.203125
3988		-37.109375
3989		-33.203125
3990		-37.109375
3991		-29.296875
3992		-33.203125
3993		-29.296875
3994		-31.250000
3995		-27.343750
3996		-29.296875
3997		-25.390625
3998		-27.343750
3999		-25.390625
4000		-25.390625
4001		-23.437500
4002		-25.390625
4003		-21.484375
4004		-23.437500
4005		-19.531250
4006		-21.484375
4007		-17.578125
4008		-21.484375
4009		-15.625000
4010		-17.578125
4011		-13.671875
4012		-15.625000
4013		-11.718750
4014		-15.625000
4015		-9.765625
4016		-13.671875
4017		-7.812500
4018		-11.718750
4019		-5.859375
4020		-9.765625
4021		-5.859375
4022		-7.812500
4023		-1.953125
4024		-5.859375
4025		-1.953125
4026		-3.906250
4027		0.000000
4028		-1.953125
4029		1.953125
4030		0.000000
4031		3.906250
4032		1.953125
4033		3.906250
4034		1.953125
4035		5.859375
4036		3.906250
4037		7.812500
4038		5.859375
4039		11.718750
4040		5.859375
4041		11.718750
4042		9.765625
4043		13.671875
4044		11.718750
4045		15.625000
4046		11.718750
4047		17.578125
4048		13.671875
4049		19.531250
4050		15.625000
4051		19.531250
4052		17.578125
4053		21.484375
4054		19.531250
4055		23.437500
4056		19.531250
4057		27.343750
4058		21.484375
4059		25.390625
4060		23.437500
4061		27.343750
4062		25.390625
4063		29.296875
4064		25.390625
4065		31.250000
4066		29.296875
4067		31.250000
4068		29.296875
4069		33.203125
4070		29.296875
4071		35.156250
4072		33.203125
4073		35.156250
4074		31.250000
4075		39.062500
4076		35.156250
4077		39.062500
4078		37.109375
4079		39.062500
4080		37.109375
4081		41.015625
4082		39.062500
4083		42.968750
4084		39.062500
4085		42.968750
4086		41.015625
4087		44.921875
4088		42.968750
4089		46.875000
4090		42.968750
4091		48.828125
4092		42.968750
4093		48.828125
4094		44.921875
4095		48.828125
4096		44.921875
4097		48.828125
4098		46.875000
4099		50.781250
4100		48.828125
4101		52.734375
4102		48.828125
4103		52.734375
4104		48.828125
4105		54.687500
4106		50.781250
4107		54.687500
4108		52.734375
4109		54.687500
4110		52.734375
4111		54.687500
4112		52.734375
4113		56.640625
4114		52.734375
4115		56.640625
4116		52.734375
4117		58.593750
4118		54.687500
4119		58.593750
4120		56.640625
4121		58.593750
4122		56.640625
4123		58.593750
4124		54.687500
4125		60.546875
4126		56.640625
4127		60.546875
4128		56.640625
4129		60.546875
4130		56.640625
4131		62.500000
4132		58.593750
4133		60.546875
4134		58.593750
4135		62.500000
4136		58.593750
4137		60.546875
4138		58.593750
4139		62.500000
4140		58.593750
4141		64.453125
4142		58.593750
4143		62.500000
4144		58.593750
4145		62.500000
4146		58.593750
4147		62.500000
4148		58.593750
4149		62.500000
4150		58.593750
4151		62.500000
4152		58.593750
4153		62.500000
4154		58.593750
4155		62.500000
4156		58.593750
4157		62.500000
4158		56.640625
4159		64.453125
4160		58.593750
4161		60.546875
4162		58.593750
4163		60.546875
4164		56.640625
4165		60.546875
4166		56.640625
4167		60.546875
4168		56.640625
4169		60.546875
4170		54.687500
4171		60.546875
4172		56.640625
4173		58.593750
4174		54.687500
4175		58.593750
4176		54.687500
4177		58.593750
4178		54.687500
4179		56.640625
4180		52.734375
4181		56.640625
4182		52.734375
4183		56.640625
4184		50.781250
4185		54.687500
4186		50.781250
4187		54.687500
4188		48.828125
4189		52.734375
4190		48.828125
4191		52.734375
4192		46.875000
4193		50.781250
4194		46.875000
4195		50.781250
4196		44.921875
4197		50.781250
4198		44.921875
4199		48.828125
4200		42.968750
4201		46.875000
4202		42.968750
4203		46.875000
4204		41.015625
4205		44.921875
4206		41.015625
4207		44.921875
4208		37.109375
4209		42.968750
4210		39.062500
4211		41.015625
4212		37.109375
4213		39.062500
4214		35.156250
4215		41.015625
4216		35.156250
4217		39.062500
4218		33.203125
4219		37.109375
4220		31.250000
4221		35.156250
4222		29.296875
4223		33.203125
4224		29.296875
4225		31.250000
4226		25.390625
4227		31.250000
4228		25.390625
4229		29.296875
4230		23.437500
4231		27.343750
4232		21.484375
4233		25.390625
4234		21.484375
4235		23.437500
4236		19.531250
4237		23.437500
4238		17.578125
4239		21.484375
4240		15.625000
4241		19.531250
4242		13.671875
4243		17.578125
4244		11.718750
4245		15.625000
4246		11.718750
4247		13.671875
4248		7.812500
4249		13.671875
4250		7.812500
4251		11.718750
4252		3.906250
4253		9.765625
4254		3.906250
4255		7.812500
4256		1.953125
4257		5.859375
4258		0.000000
4259		3.906250
4260		-1.953125
4261		1.953125
4262		-3.906250
4263		0.000000
4264		-5.859375
4265		0.000000
4266		-5.859375
4267		-3.906250
4268		-9.765625
4269		-3.906250
4270		-11.718750
4271		-7.812500
4272		-11.718750
4273		-7.812500
4274		-13.671875
4275		-9.765625
4276		-17.578125
4277		-11.718750
4278		-17.578125
4279		-13.671875
4280		-19.531250
4281		-15.625000
4282		-21.484375
4283		-15.625000
4284		-23.437500
4285		-19.531250
4286		-25.390625
4287		-19.531250
4288		-27.343750
4289		-23.437500
4290		-29.296875
4291		-25.390625
4292		-31.250000
4293		-27.343750
4294		-31.250000
4295		-27.343750
4296		-33.203125
4297		-29.296875
4298		-35.156250
4299		-31.250000
4300		-37.109375
4301		-31.250000
4302		-39.062500
4303		-35.156250
4304		-39.062500
4305		-35.156250
4306		-41.015625
4307		-37.109375
4308		-42.968750
4309		-39.062500
4310		-44.921875
4311		-41.015625
4312		-44.921875
4313		-42.968750
4314		-48.828125
4315		-42.968750
4316		-48.828125
4317		-44.921875
4318		-50.781250
4319		-46.875000
4320		-50.781250
4321		-46.875000
4322		-52.734375
4323		-48.828125
4324		-54.687500
4325		-50.781250
4326		-54.687500
4327		-50.781250
4328		-56.640625
4329		-52.734375
4330		-58.593750
4331		-54.687500
4332		-58.593750
4333		-54.687500
4334		-60.546875
4335		-56.640625
4336		-62.500000
4337		-58.593750
4338		-62.500000
4339		-58.593750
4340		-64.453125
4341		-60.546875
4342		-64.453125
4343		-60.546875
4344		-66.406250
4345		-60.546875
4346		-66.406250
4347		-62.500000
4348		-66.406250
4349		-62.500000
4350		-68.359375
4351		-64.453125
4352		-68.359375
4353		-64.453125
4354		-68.359375
4355		-66.406250
4356		-70.312500
4357		-66.406250
4358		-70.312500
4359		-66.406250
4360		-72.265625
4361		-66.406250
4362		-72.265625
4363		-68.359375
4364		-72.265625
4365		-68.359375
4366		-72.265625
4367		-68.359375
4368		-72.265625
4369		-68.359375
4370		-74.218750
4371		-70.312500
4372		-74.218750
4373		-70.312500
4374		-74.218750
4375		-70.312500
4376		-74.218750
4377		-70.312500
4378		-74.218750
4379		-70.312500
4380		-74.218750
4381		-70.312500
4382		-74.218750
4383		-70.312500
4384		-74.218750
4385		-70.312500
4386		-74.218750
4387		-70.312500
4388		-74.218750
4389		-70.312500
4390		-74.218750
4391		-70.312500
4392		-72.265625
4393		-70.312500
4394		-72.265625
4395		-68.359375
4396		-72.265625
4397		-70.312500
4398		-72.265625
4399		-68.359375
4400		-72.265625
4401		-68.359375
4402		-70.312500
4403		-68.359375
4404		-70.312500
4405		-68.359375
4406		-70.312500
4407		-66.406250
4408		-70.312500
4409		-66.406250
4410		-70.312500
4411		-64.453125
4412		-68.359375
4413		-64.453125
4414		-66.406250
4415		-64.453125
4416		-66.406250
4417		-62.500000
4418		-66.406250
4419		-62.500000
4420		-64.453125
4421		-60.546875
4422		-64.453125
4423		-60.546875
4424		-62.500000
4425		-58.593750
4426		-62.500000
4427		-58.593750
4428		-62.500000
4429		-56.640625
4430		-60.546875
4431		-56.640625
4432		-58.593750
4433		-54.687500
4434		-56.640625
4435		-54.687500
4436		-56.640625
4437		-52.734375
4438		-54.687500
4439		-52.734375
4440		-54.687500
4441		-50.781250
4442		-52.734375
4443		-48.828125
4444		-50.781250
4445		-46.875000
4446		-48.828125
4447		-46.875000
4448		-48.828125
4449		-44.921875
4450		-46.875000
4451		-42.968750
4452		-46.875000
4453		-41.015625
4454		-42.968750
4455		-39.062500
4456		-42.968750
4457		-39.062500
4458		-41.015625
4459		-37.109375
4460		-39.062500
4461		-35.156250
4462		-39.062500
4463		-35.156250
4464		-35.156250
4465		-33.203125
4466		-35.156250
4467		-31.250000
4468		-33.203125
4469		-29.296875
4470		-31.250000
4471		-27.343750
4472		-29.296875
4473		-25.390625
4474		-27.343750
4475		-23.437500
4476		-27.343750
4477		-21.484375
4478		-25.390625
4479		-21.484375
4480		-23.437500
4481		-19.531250
4482		-21.484375
4483		-17.578125
4484		-19.531250
4485		-15.625000
4486		-17.578125
4487		-13.671875
4488		-17.578125
4489		-13.671875
4490		-13.671875
4491		-11.718750
4492		-11.718750
4493		-9.765625
4494		-11.718750
4495		-5.859375
4496		-9.765625
4497		-5.859375
4498		-7.812500
4499		-3.906250
4500		-7.812500
4501		0.000000
4502		-3.906250
4503		0.000000
4504		-1.953125
4505		1.953125
4506		0.000000
4507		3.906250
4508		0.000000
4509		5.859375
4510		1.953125
4511		5.859375
4512		3.906250
4513		7.812500
4514		5.859375
4515		9.765625
4516		7.812500
4517		11.718750
4518		9.765625
4519		13.671875
4520		11.718750
4521		15.625000
4522		11.718750
4523		15.625000
4524		15.625000
4525		17.578125
4526		15.625000
4527		19.531250
4528		17.578125
4529		21.484375
4530		19.531250
4531		23.437500
4532		21.484375
4533		23.437500
4534		21.484375
4535		25.390625
4536		23.437500
4537		27.343750
4538		25.390625
4539		29.296875
4540		27.343750
4541		31.250000
4542		29.296875
4543		31.250000
4544		29.296875
4545		33.203125
4546		29.296875
4547		33.203125
4548		33.203125
4549		35.156250
4550		33.203125
4551		39.062500
4552		35.156250
4553		39.062500
4554		37.109375
4555		39.062500
4556		37.109375
4557		41.015625
4558		39.062500
4559		42.968750
4560		39.062500
4561		42.968750
4562		41.015625
4563		44.921875
4564		42.968750
4565		44.921875
4566		42.968750
4567		46.875000
4568		44.921875
4569		46.875000
4570		44.921875
4571		48.828125
4572		44.921875
4573		48.828125
4574		46.875000
4575		50.781250
4576		48.828125
4577		50.781250
4578		48.828125
4579		52.734375
4580		50.781250
4581		52.734375
4582		50.781250
4583		54.687500
4584		50.781250
4585		54.687500
4586		52.734375
4587		54.687500
4588		52.734375
4589		56.640625
4590		54.687500
4591		56.640625
4592		54.687500
4593		56.640625
4594		54.687500
4595		58.593750
4596		56.640625
4597		58.593750
4598		56.640625
4599		58.593750
4600		54.687500
4601		60.546875
4602		56.640625
4603		60.546875
4604		56.640625
4605		60.546875
4606		58.593750
4607		60.546875
4608		58.593750
4609		62.500000
4610		58.593750
4611		60.546875
4612		56.640625
4613		62.500000
4614		58.593750
4615		62.500000
4616		58.593750
4617		62.500000
4618		58.593750
4619		62.500000
4620		58.593750
4621		62.500000
4622		58.593750
4623		62.500000
4624		58.593750
4625		62.500000
4626		58.593750
4627		62.500000
4628		58.593750
4629		62.500000
4630		58.593750
4631		62.500000
4632		58.593750
4633		60.546875
4634		58.593750
4635		62.500000
4636		58.593750
4637		60.546875
4638		58.593750
4639		62.500000
4640		56.640625
4641		60.546875
4642		56.640625
4643		60.546875
4644		56.640625
4645		60.546875
4646		54.687500
4647		60.546875
4648		56.640625
4649		58.593750
4650		52.734375
4651		58.593750
4652		54.687500
4653		58.593750
4654		54.687500
4655		56.640625
4656		52.734375
4657		56.640625
4658		52.734375
4659		56.640625
4660		50.781250
4661		54.687500
4662		50.781250
4663		54.687500
4664		50.781250
4665		52.734375
4666		48.828125
4667		52.734375
4668		46.875000
4669		50.781250
4670		46.875000
4671		50.781250
4672		44.921875
4673		48.828125
4674		42.968750
4675		48.828125
4676		44.921875
4677		48.828125
4678		42.968750
4679		46.875000
4680		41.015625
4681		44.921875
4682		41.015625
4683		42.968750
4684		39.062500
4685		42.968750
4686		39.062500
4687		42.968750
4688		37.109375
4689		41.015625
4690		35.156250
4691		39.062500
4692		33.203125
4693		37.109375
4694		33.203125
4695		37.109375
4696		29.296875
4697		35.156250
4698		29.296875
4699		33.203125
4700		29.296875
4701		31.250000
4702		27.343750
4703		31.250000
4704		25.390625
4705		29.296875
4706		23.437500
4707		27.343750
4708		21.484375
4709		25.390625
4710		19.531250
4711		25.390625
4712		19.531250
4713		23.437500
4714		17.578125
4715		23.437500
4716		15.625000
4717		19.531250
4718		13.671875
4719		17.578125
4720		11.718750
4721		17.578125
4722		9.765625
4723		13.671875
4724		7.812500
4725		13.671875
4726		7.812500
4727		11.718750
4728		5.859375
4729		9.765625
4730		3.906250
4731		7.812500
4732		1.953125
4733		5.859375
4734		-1.953125
4735		3.906250
4736		-1.953125
4737		1.953125
4738		-3.906250
4739		0.000000
4740		-5.859375
4741		-1.953125
4742		-7.812500
4743		-3.906250
4744		-9.765625
4745		-5.859375
4746		-11.718750
4747		-7.812500
4748		-11.718750
4749		-9.765625
4750		-13.671875
4751		-9.765625
4752		-17.578125
4753		-11.718750
4754		-17.578125
4755		-13.671875
4756		-19.531250
4757		-15.625000
4758		-21.484375
4759		-17.578125
4760		-23.437500
4761		-19.531250
4762		-25.390625
4763		-21.484375
4764		-27.343750
4765		-23.437500
4766		-29.296875
4767		-25.390625
4768		-31.250000
4769		-25.390625
4770		-31.250000
4771		-27.343750
4772		-35.156250
4773		-29.296875
4774		-35.156250
4775		-31.250000
4776		-37.109375
4777		-33.203125
4778		-39.062500
4779		-35.156250
4780		-41.015625
4781		-35.156250
4782		-41.015625
4783		-39.062500
4784		-42.968750
4785		-41.015625
4786		-44.921875
4787		-41.015625
4788		-46.875000
4789		-42.968750
4790		-46.875000
4791		-42.968750
4792		-48.828125
4793		-44.921875
4794		-50.781250
4795		-46.875000
4796		-50.781250
4797		-46.875000
4798		-52.734375
4799		-48.828125
4800		-54.687500
4801		-50.781250
4802		-56.640625
4803		-52.734375
4804		-56.640625
4805		-54.687500
4806		-58.593750
4807		-54.687500
4808		-58.593750
4809		-56.640625
4810		-60.546875
4811		-56.640625
4812		-62.500000
4813		-58.593750
4814		-62.500000
4815		-58.593750
4816		-62.500000
4817		-60.546875
4818		-64.453125
4819		-60.546875
4820		-66.406250
4821		-60.546875
4822		-66.406250
4823		-62.500000
4824		-66.406250
4825		-64.453125
4826		-68.359375
4827		-64.453125
4828		-68.359375
4829		-64.453125
4830		-70.312500
4831		-66.406250
4832		-70.312500
4833		-66.406250
4834		-70.312500
4835		-68.359375
4836		-70.312500
4837		-66.406250
4838		-72.265625
4839		-68.359375
4840		-72.265625
4841		-68.359375
4842		-72.265625
4843		-70.312500
4844		-72.265625
4845		-70.312500
4846		-72.265625
4847		-70.312500
4848		-74.218750
4849		-70.312500
4850		-74.218750
4851		-70.312500
4852		-74.218750
4853		-70.312500
4854		-74.218750
4855		-70.312500
4856		-74.218750
4857		-70.312500
4858		-74.218750
4859		-70.312500
4860		-74.218750
4861		-70.312500
4862		-74.218750
4863		-70.312500
4864		-74.218750
4865		-68.359375
4866		-72.265625
4867		-70.312500
4868		-72.265625
4869		-70.312500
4870		-74.218750
4871		-68.359375
4872		-72.265625
4873		-68.359375
4874		-72.265625
4875		-68.359375
4876		-72.265625
4877		-68.359375
4878		-70.312500
4879		-68.359375
4880		-70.312500
4881		-66.406250
4882		-70.312500
4883		-66.406250
4884		-68.359375
4885		-66.406250
4886		-68.359375
4887		-64.453125
4888		-68.359375
4889		-64.453125
4890		-68.359375
4891		-64.453125
4892		-66.406250
4893		-62.500000
4894		-66.406250
4895		-62.500000
4896		-64.453125
4897		-60.546875
4898		-64.453125
4899		-60.546875
4900		-62.500000
4901		-60.546875
4902		-62.500000
4903		-58.593750
4904		-62.500000
4905		-56.640625
4906		-60.546875
4907		-56.640625
4908		-58.593750
4909		-54.687500
4910		-56.640625
4911		-54.687500
4912		-56.640625
4913		-52.734375
4914		-54.687500
4915		-50.781250
4916		-54.687500
4917		-50.781250
4918		-52.734375
4919		-48.828125
4920		-50.781250
4921		-46.875000
4922		-50.781250
4923		-46.875000
4924		-48.828125
4925		-44.921875
4926		-46.875000
4927		-42.968750
4928		-44.921875
4929		-41.015625
4930		-44.921875
4931		-41.015625
4932		-42.968750
4933		-39.062500
4934		-41.015625
4935		-37.109375
4936		-39.062500
4937		-35.156250
4938		-39.062500
4939		-33.203125
4940		-37.109375
4941		-33.203125
4942		-35.156250
4943		-31.250000
4944		-33.203125
4945		-29.296875
4946		-31.250000
4947		-27.343750
4948		-31.250000
4949		-25.390625
4950		-27.343750
4951		-25.390625
4952		-27.343750
4953		-23.437500
4954		-25.390625
4955		-21.484375
4956		-23.437500
4957		-19.531250
4958		-21.484375
4959		-17.578125
4960		-19.531250
4961		-15.625000
4962		-17.578125
4963		-13.671875
4964		-15.625000
4965		-11.718750
4966		-15.625000
4967		-11.718750
4968		-11.718750
4969		-9.765625
4970		-11.718750
4971		-5.859375
4972		-9.765625
4973		-5.859375
4974		-7.812500
4975		-3.906250
4976		-5.859375
4977		-1.953125
4978		-3.906250
4979		0.000000
4980		-1.953125
4981		1.953125
4982		0.000000
4983		3.906250
4984		1.953125
4985		3.906250
4986		3.906250
4987		5.859375
4988		3.906250
4989		9.765625
4990		5.859375
4991		9.765625
4992		7.812500
4993		11.718750
4994		9.765625
4995		13.671875
4996		11.718750
4997		15.625000
4998		13.671875
4999		17.578125
5000		13.671875
5001		17.578125
5002		15.625000
5003		19.531250
5004		17.578125
5005		21.484375
5006		19.531250
5007		23.437500
5008		21.484375
5009		25.390625
5010		21.484375
5011		25.390625
5012		23.437500
5013		27.343750
5014		25.390625
5015		29.296875
5016		25.390625
5017		31.250000
5018		27.343750
5019		31.250000
5020		29.296875
5021		33.203125
5022		31.250000
5023		35.156250
5024		33.203125
5025		35.156250
5026		33.203125
5027		37.109375
5028		35.156250
5029		39.062500
5030		37.109375
5031		39.062500
5032		37.109375
5033		41.015625
5034		39.062500
5035		41.015625
5036		41.015625
5037		42.968750
5038		41.015625
5039		44.921875
5040		42.968750
5041		44.921875
5042		42.968750
5043		46.875000
5044		44.921875
5045		48.828125
5046		44.921875
5047		48.828125
5048		46.875000
5049		50.781250
5050		46.875000
5051		50.781250
5052		48.828125
5053		50.781250
5054		48.828125
5055		52.734375
5056		50.781250
5057		52.734375
5058		50.781250
5059		54.687500
5060		50.781250
5061		54.687500
5062		52.734375
5063		56.640625
5064		52.734375
5065		56.640625
5066		52.734375
5067		56.640625
5068		54.687500
5069		56.640625
5070		54.687500
5071		56.640625
5072		54.687500
5073		58.593750
5074		56.640625
5075		58.593750
5076		56.640625
5077		60.546875
5078		56.640625
5079		60.546875
5080		56.640625
5081		60.546875
5082		56.640625
5083		60.546875
5084		56.640625
5085		62.500000
5086		56.640625
5087		60.546875
5088		56.640625
5089		60.546875
5090		58.593750
5091		60.546875
5092		58.593750
5093		60.546875
5094		58.593750
5095		62.500000
5096		58.593750
5097		62.500000
5098		58.593750
5099		60.546875
5100		58.593750
5101		60.546875
5102		58.593750
5103		60.546875
5104		56.640625
5105		62.500000
5106		58.593750
5107		62.500000
5108		58.593750
5109		60.546875
5110		58.593750
5111		60.546875
5112		58.593750
5113		60.546875
5114		56.640625
5115		60.546875
5116		56.640625
5117		60.546875
5118		56.640625
5119		58.593750
5120		56.640625
5121		58.593750
5122		54.687500
5123		58.593750
5124		54.687500
5125		58.593750
5126		54.687500
5127		58.593750
5128		52.734375
5129		56.640625
5130		52.734375
5131		56.640625
5132		52.734375
5133		54.687500
5134		50.781250
5135		54.687500
5136		50.781250
5137		52.734375
5138		48.828125
5139		52.734375
5140		48.828125
5141		52.734375
5142		48.828125
5143		50.781250
5144		46.875000
5145		50.781250
5146		46.875000
5147		50.781250
5148		44.921875
5149		48.828125
5150		44.921875
5151		48.828125
5152		42.968750
5153		46.875000
5154		42.968750
5155		44.921875
5156		41.015625
5157		46.875000
5158		39.062500
5159		42.968750
5160		39.062500
5161		41.015625
5162		37.109375
5163		41.015625
5164		37.109375
5165		39.062500
5166		33.203125
5167		39.062500
5168		33.203125
5169		37.109375
5170		31.250000
5171		35.156250
5172		29.296875
5173		35.156250
5174		29.296875
5175		31.250000
5176		27.343750
5177		31.250000
5178		25.390625
5179		29.296875
5180		23.437500
5181		27.343750
5182		23.437500
5183		25.390625
5184		19.531250
5185		25.390625
5186		19.531250
5187		23.437500
5188		17.578125
5189		21.484375
5190		15.625000
5191		19.531250
5192		13.671875
5193		17.578125
5194		13.671875
5195		17.578125
5196		11.718750
5197		15.625000
5198		9.765625
5199		13.671875
5200		5.859375
5201		11.718750
5202		5.859375
5203		9.765625
5204		3.906250
5205		7.812500
5206		1.953125
5207		5.859375
5208		0.000000
5209		3.906250
5210		-1.953125
5211		1.953125
5212		-3.906250
5213		0.000000
5214		-3.906250
5215		0.000000
5216		-5.859375
5217		-1.953125
5218		-7.812500
5219		-3.906250
5220		-9.765625
5221		-5.859375
5222		-13.671875
5223		-7.812500
5224		-13.671875
5225		-9.765625
5226		-15.625000
5227		-11.718750
5228		-17.578125
5229		-13.671875
5230		-19.531250
5231		-15.625000
5232		-21.484375
5233		-17.578125
5234		-23.437500
5235		-17.578125
5236		-23.437500
5237		-21.484375
5238		-25.390625
5239		-23.437500
5240		-27.343750
5241		-23.437500
5242		-29.296875
5243		-25.390625
5244		-31.250000
5245		-27.343750
5246		-33.203125
5247		-29.296875
5248		-35.156250
5249		-31.250000
5250		-37.109375
5251		-33.203125
5252		-37.109375
5253		-35.156250
5254		-39.062500
5255		-37.109375
5256		-41.015625
5257		-37.109375
5258		-42.968750
5259		-39.062500
5260		-44.921875
5261		-41.015625
5262		-46.875000
5263		-42.968750
5264		-46.875000
5265		-42.968750
5266		-48.828125
5267		-44.921875
5268		-50.781250
5269		-46.875000
5270		-50.781250
5271		-48.828125
5272		-52.734375
5273		-50.781250
5274		-54.687500
5275		-50.781250
5276		-54.687500
5277		-52.734375
5278		-56.640625
5279		-52.734375
5280		-58.593750
5281		-54.687500
5282		-58.593750
5283		-54.687500
5284		-60.546875
5285		-56.640625
5286		-60.546875
5287		-58.593750
5288		-62.500000
5289		-58.593750
5290		-64.453125
5291		-60.546875
5292		-64.453125
5293		-60.546875
5294		-66.406250
5295		-62.500000
5296		-66.406250
5297		-62.500000
5298		-68.359375
5299		-64.453125
5300		-68.359375
5301		-64.453125
5302		-68.359375
5303		-64.453125
5304		-70.312500
5305		-66.406250
5306		-70.312500
5307		-66.406250
5308		-70.312500
5309		-68.359375
5310		-72.265625
5311		-68.359375
5312		-72.265625
5313		-68.359375
5314		-72.265625
5315		-70.312500
5316		-72.265625
5317		-70.312500
5318		-74.218750
5319		-70.312500
5320		-74.218750
5321		-72.265625
5322		-74.218750
5323		-72.265625
5324		-74.218750
5325		-70.312500
5326		-74.218750
5327		-72.265625
5328		-74.218750
5329		-72.265625
5330		-74.218750
5331		-72.265625
5332		-76.171875
5333		-72.265625
5334		-74.218750
5335		-72.265625
5336		-76.171875
5337		-72.265625
5338		-74.218750
5339		-72.265625
5340		-76.171875
5341		-72.265625
5342		-76.171875
5343		-72.265625
5344		-74.218750
5345		-70.312500
5346		-74.218750
5347		-70.312500
5348		-74.218750
5349		-70.312500
5350		-74.218750
5351		-70.312500
5352		-74.218750
5353		-70.312500
5354		-72.265625
5355		-70.312500
5356		-72.265625
5357		-68.359375
5358		-72.265625
5359		-68.359375
5360		-72.265625
5361		-68.359375
5362		-70.312500
5363		-66.406250
5364		-70.312500
5365		-66.406250
5366		-68.359375
5367		-64.453125
5368		-68.359375
5369		-64.453125
5370		-66.406250
5371		-64.453125
5372		-66.406250
5373		-62.500000
5374		-66.406250
5375		-60.546875
5376		-64.453125
5377		-60.546875
5378		-64.453125
5379		-60.546875
5380		-62.500000
5381		-60.546875
5382		-62.500000
5383		-58.593750
5384		-60.546875
5385		-56.640625
5386		-60.546875
5387		-56.640625
5388		-58.593750
5389		-54.687500
5390		-56.640625
5391		-52.734375
5392		-56.640625
5393		-52.734375
5394		-54.687500
5395		-50.781250
5396		-52.734375
5397		-50.781250
5398		-52.734375
5399		-48.828125
5400		-50.781250
5401		-46.875000
5402		-48.828125
5403		-44.921875
5404		-46.875000
5405		-44.921875
5406		-46.875000
5407		-42.968750
5408		-44.921875
5409		-41.015625
5410		-42.968750
5411		-39.062500
5412		-41.015625
5413		-37.109375
5414		-39.062500
5415		-35.156250
5416		-37.109375
5417		-35.156250
5418		-37.109375
5419		-33.203125
5420		-37.109375
5421		-31.250000
5422		-33.203125
5423		-31.250000
5424		-31.250000
5425		-27.343750
5426		-29.296875
5427		-27.343750
5428		-29.296875
5429		-25.390625
5430		-27.343750
5431		-23.437500
5432		-25.390625
5433		-21.484375
5434		-23.437500
5435		-19.531250
5436		-21.484375
5437		-17.578125
5438		-19.531250
5439		-15.625000
5440		-17.578125
5441		-11.718750
5442		-17.578125
5443		-13.671875
5444		-15.625000
5445		-11.718750
5446		-13.671875
5447		-9.765625
5448		-11.718750
5449		-7.812500
5450		-9.765625
5451		-5.859375
5452		-7.812500
5453		-3.906250
5454		-5.859375
5455		-1.953125
5456		-3.906250
5457		0.000000
5458		-3.906250
5459		1.953125
5460		-1.953125
5461		3.906250
5462		0.000000
5463		3.906250
5464		1.953125
5465		5.859375
5466		3.906250
5467		9.765625
5468		5.859375
5469		9.765625
5470		7.812500
5471		11.718750
5472		9.765625
5473		13.671875
5474		11.718750
5475		15.625000
5476		13.671875
5477		17.578125
5478		13.671875
5479		17.578125
5480		15.625000
5481		19.531250
5482		17.578125
5483		21.484375
5484		19.531250
5485		23.437500
5486		19.531250
5487		25.390625
5488		23.437500
5489		25.390625
5490		23.437500
5491		27.343750
5492		25.390625
5493		29.296875
5494		25.390625
5495		29.296875
5496		27.343750
5497		31.250000
5498		29.296875
5499		33.203125
5500		31.250000
5501		35.156250
5502		31.250000
5503		35.156250
5504		33.203125
5505		37.109375
5506		35.156250
5507		37.109375
5508		35.156250
5509		41.015625
5510		37.109375
5511		41.015625
5512		37.109375
5513		41.015625
5514		39.062500
5515		42.968750
5516		41.015625
5517		44.921875
5518		41.015625
5519		44.921875
5520		42.968750
5521		46.875000
5522		44.921875
5523		46.875000
5524		44.921875
5525		46.875000
5526		44.921875
5527		48.828125
5528		46.875000
5529		50.781250
5530		46.875000
5531		50.781250
5532		48.828125
5533		52.734375
5534		48.828125
5535		52.734375
5536		48.828125
5537		54.687500
5538		50.781250
5539		52.734375
5540		50.781250
5541		54.687500
5542		52.734375
5543		56.640625
5544		52.734375
5545		56.640625
5546		52.734375
5547		56.640625
5548		54.687500
5549		56.640625
5550		54.687500
5551		56.640625
5552		54.687500
5553		58.593750
5554		54.687500
5555		58.593750
5556		56.640625
5557		58.593750
5558		54.687500
5559		58.593750
5560		54.687500
5561		60.546875
5562		56.640625
5563		60.546875
5564		56.640625
5565		60.546875
5566		56.640625
5567		60.546875
5568		56.640625
5569		60.546875
5570		56.640625
5571		62.500000
5572		56.640625
5573		60.546875
5574		56.640625
5575		60.546875
5576		56.640625
5577		62.500000
5578		56.640625
5579		62.500000
5580		56.640625
5581		60.546875
5582		56.640625
5583		60.546875
5584		56.640625
5585		60.546875
5586		56.640625
5587		60.546875
5588		54.687500
5589		58.593750
5590		56.640625
5591		58.593750
5592		54.687500
5593		60.546875
5594		54.687500
5595		60.546875
5596		54.687500
5597		58.593750
5598		54.687500
5599		58.593750
5600		52.734375
5601		56.640625
5602		52.734375
5603		56.640625
5604		50.781250
5605		56.640625
5606		52.734375
5607		54.687500
5608		50.781250
5609		54.687500
5610		48.828125
5611		54.687500
5612		48.828125
5613		54.687500
5614		46.875000
5615		52.734375
5616		46.875000
5617		52.734375
5618		46.875000
5619		52.734375
5620		44.921875
5621		50.781250
5622		44.921875
5623		50.781250
5624		44.921875
5625		46.875000
5626		42.968750
5627		46.875000
5628		41.015625
5629		46.875000
5630		39.062500
5631		46.875000
5632		39.062500
5633		44.921875
5634		37.109375
5635		42.968750
5636		37.109375
5637		42.968750
5638		35.156250
5639		41.015625
5640		35.156250
5641		39.062500
5642		31.250000
5643		37.109375
5644		31.250000
5645		37.109375
5646		31.250000
5647		35.156250
5648		27.343750
5649		35.156250
5650		27.343750
5651		33.203125
5652		25.390625
5653		31.250000
5654		23.437500
5655		31.250000
5656		23.437500
5657		27.343750
5658		21.484375
5659		25.390625
5660		19.531250
5661		25.390625
5662		17.578125
5663		23.437500
5664		15.625000
5665		21.484375
5666		13.671875
5667		21.484375
5668		13.671875
5669		19.531250
5670		11.718750
5671		17.578125
5672		9.765625
5673		15.625000
5674		9.765625
5675		11.718750
5676		7.812500
5677		11.718750
5678		5.859375
5679		9.765625
5680		3.906250
5681		5.859375
5682		1.953125
5683		5.859375
5684		0.000000
5685		3.906250
5686		-1.953125
5687		1.953125
5688		-3.906250
5689		0.000000
5690		-5.859375
5691		-1.953125
5692		-7.812500
5693		-3.906250
5694		-9.765625
5695		-3.906250
5696		-9.765625
5697		-7.812500
5698		-11.718750
5699		-9.765625
5700		-13.671875
5701		-11.718750
5702		-15.625000
5703		-13.671875
5704		-17.578125
5705		-13.671875
5706		-19.531250
5707		-15.625000
5708		-21.484375
5709		-17.578125
5710		-23.437500
5711		-19.531250
5712		-25.390625
5713		-21.484375
5714		-27.343750
5715		-23.437500
5716		-29.296875
5717		-25.390625
5718		-31.250000
5719		-27.343750
5720		-31.250000
5721		-29.296875
5722		-33.203125
5723		-31.250000
5724		-35.156250
5725		-31.250000
5726		-37.109375
5727		-33.203125
5728		-39.062500
5729		-35.156250
5730		-41.015625
5731		-37.109375
5732		-42.968750
5733		-39.062500
5734		-42.968750
5735		-41.015625
5736		-44.921875
5737		-42.968750
5738		-46.875000
5739		-42.968750
5740		-48.828125
5741		-44.921875
5742		-50.781250
5743		-46.875000
5744		-50.781250
5745		-48.828125
5746		-52.734375
5747		-48.828125
5748		-54.687500
5749		-50.781250
5750		-56.640625
5751		-52.734375
5752		-56.640625
5753		-52.734375
5754		-58.593750
5755		-54.687500
5756		-58.593750
5757		-56.640625
5758		-60.546875
5759		-58.593750
5760		-62.500000
5761		-58.593750
5762		-62.500000
5763		-60.546875
5764		-64.453125
5765		-60.546875
5766		-64.453125
5767		-62.500000
5768		-66.406250
5769		-62.500000
5770		-66.406250
5771		-64.453125
5772		-68.359375
5773		-64.453125
5774		-68.359375
5775		-64.453125
5776		-70.312500
5777		-66.406250
5778		-74.218750
5779		-64.453125
5780		-74.218750
5781		-64.453125
5782		-74.218750
5783		-66.406250
5784		-72.265625
5785		-70.312500
5786		-72.265625
5787		-70.312500
5788		-74.218750
5789		-72.265625
5790		-74.218750
5791		-72.265625
5792		-74.218750
5793		-72.265625
5794		-78.125000
5795		-68.359375
5796		-78.125000
5797		-70.312500
5798		-78.125000
5799		-70.312500
5800		-76.171875
5801		-74.218750
5802		-76.171875
5803		-74.218750
5804		-76.171875
5805		-74.218750
5806		-76.171875
5807		-74.218750
5808		-76.171875
5809		-74.218750
5810		-78.125000
5811		-70.312500
5812		-80.078125
5813		-70.312500
5814		-80.078125
5815		-70.312500
5816		-80.078125
5817		-70.312500
5818		-76.171875
5819		-74.218750
5820		-76.171875
5821		-74.218750
5822		-76.171875
5823		-74.218750
5824		-74.218750
5825		-72.265625
5826		-76.171875
5827		-72.265625
5828		-78.125000
5829		-68.359375
5830		-78.125000
5831		-68.359375
5832		-78.125000
5833		-66.406250
5834		-72.265625
5835		-70.312500
5836		-72.265625
5837		-70.312500
5838		-72.265625
5839		-68.359375
5840		-70.312500
5841		-68.359375
5842		-70.312500
5843		-68.359375
5844		-72.265625
5845		-62.500000
5846		-72.265625
5847		-62.500000
5848		-70.312500
5849		-60.546875
5850		-70.312500
5851		-60.546875
5852		-66.406250
5853		-64.453125
5854		-64.453125
5855		-62.500000
5856		-64.453125
5857		-60.546875
5858		-62.500000
5859		-60.546875
5860		-62.500000
5861		-58.593750
5862		-64.453125
5863		-54.687500
5864		-62.500000
5865		-52.734375
5866		-62.500000
5867		-52.734375
5868		-56.640625
5869		-54.687500
5870		-56.640625
5871		-52.734375
5872		-54.687500
5873		-50.781250
5874		-52.734375
5875		-50.781250
5876		-50.781250
5877		-48.828125
5878		-52.734375
5879		-42.968750
5880		-50.781250
5881		-42.968750
5882		-50.781250
5883		-41.015625
5884		-44.921875
5885		-42.968750
5886		-44.921875
5887		-41.015625
5888		-42.968750
5889		-39.062500
5890		-41.015625
5891		-39.062500
5892		-39.062500
5893		-37.109375
5894		-39.062500
5895		-31.250000
5896		-39.062500
5897		-29.296875
5898		-39.062500
5899		-27.343750
5900		-37.109375
5901		-27.343750
5902		-31.250000
5903		-29.296875
5904		-29.296875
5905		-27.343750
5906		-27.343750
5907		-25.390625
5908		-25.390625
5909		-23.437500
5910		-25.390625
5911		-21.484375
5912		-25.390625
5913		-15.625000
5914		-23.437500
5915		-13.671875
5916		-23.437500
5917		-11.718750
5918		-17.578125
5919		-13.671875
5920		-15.625000
5921		-13.671875
5922		-13.671875
5923		-11.718750
5924		-11.718750
5925		-9.765625
5926		-11.718750
5927		-7.812500
5928		-11.718750
5929		-1.953125
5930		-9.765625
5931		0.000000
5932		-9.765625
5933		1.953125
5934		-7.812500
5935		1.953125
5936		-1.953125
5937		1.953125
5938		0.000000
5939		3.906250
5940		1.953125
5941		3.906250
5942		1.953125
5943		5.859375
5944		5.859375
5945		7.812500
5946		3.906250
5947		11.718750
5948		3.906250
5949		15.625000
5950		5.859375
5951		15.625000
5952		11.718750
5953		13.671875
5954		13.671875
5955		15.625000
5956		15.625000
5957		17.578125
5958		15.625000
5959		19.531250
5960		17.578125
5961		21.484375
5962		19.531250
5963		23.437500
5964		19.531250
5965		27.343750
5966		19.531250
5967		29.296875
5968		23.437500
5969		27.343750
5970		25.390625
5971		27.343750
5972		27.343750
5973		29.296875
5974		27.343750
5975		31.250000
5976		29.296875
5977		33.203125
5978		31.250000
5979		33.203125
5980		31.250000
5981		39.062500
5982		33.203125
5983		39.062500
5984		31.250000
5985		41.015625
5986		37.109375
5987		39.062500
5988		37.109375
5989		41.015625
5990		39.062500
5991		41.015625
5992		39.062500
5993		42.968750
5994		41.015625
5995		42.968750
5996		41.015625
5997		44.921875
5998		42.968750
5999		46.875000
6000		42.968750
6001		48.828125
6002		44.921875
6003		46.875000
6004		44.921875
6005		48.828125
6006		46.875000
6007		48.828125
6008		46.875000
6009		50.781250
6010		48.828125
6011		50.781250
6012		48.828125
6013		50.781250
6014		50.781250
6015		52.734375
6016		50.781250
6017		52.734375
6018		50.781250
6019		52.734375
6020		52.734375
6021		54.687500
6022		52.734375
6023		54.687500
6024		52.734375
6025		54.687500
6026		52.734375
6027		56.640625
6028		54.687500
6029		56.640625
6030		54.687500
6031		56.640625
6032		54.687500
6033		56.640625
6034		54.687500
6035		58.593750
6036		56.640625
6037		58.593750
6038		56.640625
6039		58.593750
6040		56.640625
6041		58.593750
6042		56.640625
6043		58.593750
6044		56.640625
6045		58.593750
6046		54.687500
6047		58.593750
6048		56.640625
6049		58.593750
6050		56.640625
6051		58.593750
6052		56.640625
6053		58.593750
6054		54.687500
6055		58.593750
6056		56.640625
6057		58.593750
6058		56.640625
6059		58.593750
6060		56.640625
6061		58.593750
6062		54.687500
6063		58.593750
6064		54.687500
6065		58.593750
6066		54.687500
6067		58.593750
6068		54.687500
6069		56.640625
6070		54.687500
6071		56.640625
6072		54.687500
6073		56.640625
6074		52.734375
6075		56.640625
6076		52.734375
6077		54.687500
6078		52.734375
6079		54.687500
6080		50.781250
6081		56.640625
6082		50.781250
6083		54.687500
6084		50.781250
6085		52.734375
6086		48.828125
6087		52.734375
6088		48.828125
6089		52.734375
6090		48.828125
6091		50.781250
6092		46.875000
6093		50.781250
6094		46.875000
6095		48.828125
6096		42.968750
6097		48.828125
6098		42.968750
6099		48.828125
6100		42.968750
6101		46.875000
6102		42.968750
6103		44.921875
6104		41.015625
6105		44.921875
6106		39.062500
6107		42.968750
6108		39.062500
6109		42.968750
6110		37.109375
6111		41.015625
6112		37.109375
6113		39.062500
6114		35.156250
6115		41.015625
6116		33.203125
6117		39.062500
6118		33.203125
6119		35.156250
6120		31.250000
6121		35.156250
6122		29.296875
6123		33.203125
6124		29.296875
6125		31.250000
6126		27.343750
6127		29.296875
6128		25.390625
6129		29.296875
6130		23.437500
6131		27.343750
6132		21.484375
6133		27.343750
6134		21.484375
6135		23.437500
6136		19.531250
6137		23.437500
6138		17.578125
6139		21.484375
6140		15.625000
6141		19.531250
6142		13.671875
6143		17.578125
6144		13.671875
6145		15.625000
6146		7.812500
6147		15.625000
6148		7.812500
6149		13.671875
6150		7.812500
6151		11.718750
6152		5.859375
6153		9.765625
6154		3.906250
6155		7.812500
6156		1.953125
6157		5.859375
6158		0.000000
6159		3.906250
6160		0.000000
6161		1.953125
6162		-3.906250
6163		0.000000
6164		-5.859375
6165		0.000000
6166		-5.859375
6167		-1.953125
6168		-7.812500
6169		-5.859375
6170		-9.765625
6171		-5.859375
6172		-11.718750
6173		-7.812500
6174		-13.671875
6175		-9.765625
6176		-15.625000
6177		-11.718750
6178		-17.578125
6179		-13.671875
6180		-21.484375
6181		-15.625000
6182		-21.484375
6183		-15.625000
6184		-23.437500
6185		-19.531250
6186		-25.390625
6187		-21.484375
6188		-27.343750
6189		-21.484375
6190		-27.343750
6191		-23.437500
6192		-29.296875
6193		-25.390625
6194		-31.250000
6195		-27.343750
6196		-33.203125
6197		-29.296875
6198		-35.156250
6199		-31.250000
6200		-37.109375
6201		-31.250000
6202		-39.062500
6203		-35.156250
6204		-41.015625
6205		-37.109375
6206		-41.015625
6207		-37.109375
6208		-42.968750
6209		-39.062500
6210		-44.921875
6211		-41.015625
6212		-46.875000
6213		-42.968750
6214		-48.828125
6215		-42.968750
6216		-50.781250
6217		-44.921875
6218		-50.781250
6219		-46.875000
6220		-52.734375
6221		-48.828125
6222		-54.687500
6223		-48.828125
6224		-56.640625
6225		-52.734375
6226		-56.640625
6227		-52.734375
6228		-58.593750
6229		-54.687500
6230		-60.546875
6231		-56.640625
6232		-60.546875
6233		-56.640625
6234		-62.500000
6235		-58.593750
6236		-62.500000
6237		-58.593750
6238		-64.453125
6239		-60.546875
6240		-64.453125
6241		-60.546875
6242		-66.406250
6243		-62.500000
6244		-66.406250
6245		-64.453125
6246		-68.359375
6247		-64.453125
6248		-70.312500
6249		-66.406250
6250		-70.312500
6251		-66.406250
6252		-70.312500
6253		-68.359375
6254		-70.312500
6255		-68.359375
6256		-72.265625
6257		-68.359375
6258		-72.265625
6259		-70.312500
6260		-74.218750
6261		-70.312500
6262		-74.218750
6263		-72.265625
6264		-74.218750
6265		-72.265625
6266		-74.218750
6267		-72.265625
6268		-76.171875
6269		-72.265625
6270		-76.171875
6271		-74.218750
6272		-76.171875
6273		-72.265625
6274		-76.171875
6275		-74.218750
6276		-76.171875
6277		-74.218750
6278		-78.125000
6279		-74.218750
6280		-76.171875
6281		-74.218750
6282		-78.125000
6283		-74.218750
6284		-76.171875
6285		-74.218750
6286		-76.171875
6287		-74.218750
6288		-78.125000
6289		-74.218750
6290		-76.171875
6291		-74.218750
6292		-76.171875
6293		-74.218750
6294		-76.171875
6295		-74.218750
6296		-76.171875
6297		-74.218750
6298		-76.171875
6299		-74.218750
6300		-76.171875
6301		-74.218750
6302		-76.171875
6303		-74.218750
6304		-74.218750
6305		-72.265625
6306		-74.218750
6307		-72.265625
6308		-74.218750
6309		-72.265625
6310		-74.218750
6311		-72.265625
6312		-72.265625
6313		-70.312500
6314		-72.265625
6315		-70.312500
6316		-72.265625
6317		-70.312500
6318		-70.312500
6319		-68.359375
6320		-70.312500
6321		-68.359375
6322		-68.359375
6323		-66.406250
6324		-68.359375
6325		-66.406250
6326		-68.359375
6327		-64.453125
6328		-66.406250
6329		-64.453125
6330		-66.406250
6331		-62.500000
6332		-64.453125
6333		-60.546875
6334		-62.500000
6335		-60.546875
6336		-62.500000
6337		-60.546875
6338		-60.546875
6339		-58.593750
6340		-60.546875
6341		-56.640625
6342		-58.593750
6343		-56.640625
6344		-56.640625
6345		-54.687500
6346		-56.640625
6347		-52.734375
6348		-54.687500
6349		-52.734375
6350		-52.734375
6351		-50.781250
6352		-52.734375
6353		-48.828125
6354		-50.781250
6355		-46.875000
6356		-48.828125
6357		-46.875000
6358		-48.828125
6359		-44.921875
6360		-46.875000
6361		-42.968750
6362		-44.921875
6363		-41.015625
6364		-42.968750
6365		-41.015625
6366		-42.968750
6367		-39.062500
6368		-39.062500
6369		-37.109375
6370		-39.062500
6371		-35.156250
6372		-37.109375
6373		-33.203125
6374		-35.156250
6375		-31.250000
6376		-33.203125
6377		-29.296875
6378		-31.250000
6379		-29.296875
6380		-29.296875
6381		-27.343750
6382		-29.296875
6383		-25.390625
6384		-27.343750
6385		-23.437500
6386		-25.390625
6387		-21.484375
6388		-23.437500
6389		-19.531250
6390		-21.484375
6391		-17.578125
6392		-19.531250
6393		-17.578125
6394		-17.578125
6395		-15.625000
6396		-15.625000
6397		-13.671875
6398		-13.671875
6399		-9.765625
6400		-15.625000
6401		-7.812500
6402		-13.671875
6403		-7.812500
6404		-9.765625
6405		-5.859375
6406		-7.812500
6407		-3.906250
6408		-5.859375
6409		-1.953125
6410		-3.906250
6411		0.000000
6412		-1.953125
6413		0.000000
6414		0.000000
6415		3.906250
6416		0.000000
6417		5.859375
6418		1.953125
6419		7.812500
6420		3.906250
6421		7.812500
6422		5.859375
6423		9.765625
6424		7.812500
6425		11.718750
6426		9.765625
6427		11.718750
6428		11.718750
6429		13.671875
6430		13.671875
6431		15.625000
6432		13.671875
6433		19.531250
6434		15.625000
6435		21.484375
6436		17.578125
6437		21.484375
6438		19.531250
6439		21.484375
6440		21.484375
6441		23.437500
6442		21.484375
6443		25.390625
6444		23.437500
6445		27.343750
6446		25.390625
6447		29.296875
6448		25.390625
6449		29.296875
6450		25.390625
6451		33.203125
6452		27.343750
6453		33.203125
6454		31.250000
6455		33.203125
6456		31.250000
6457		35.156250
6458		33.203125
6459		37.109375
6460		35.156250
6461		37.109375
6462		35.156250
6463		39.062500
6464		37.109375
6465		39.062500
6466		37.109375
6467		42.968750
6468		37.109375
6469		44.921875
6470		41.015625
6471		42.968750
6472		41.015625
6473		44.921875
6474		42.968750
6475		44.921875
6476		42.968750
6477		46.875000
6478		44.921875
6479		46.875000
6480		44.921875
6481		48.828125
6482		46.875000
6483		48.828125
6484		44.921875
6485		52.734375
6486		46.875000
6487		52.734375
6488		48.828125
6489		50.781250
6490		48.828125
6491		52.734375
6492		50.781250
6493		52.734375
6494		50.781250
6495		54.687500
6496		52.734375
6497		54.687500
6498		52.734375
6499		54.687500
6500		50.781250
6501		58.593750
6502		52.734375
6503		58.593750
6504		54.687500
6505		56.640625
6506		54.687500
6507		56.640625
6508		54.687500
6509		56.640625
6510		54.687500
6511		58.593750
6512		56.640625
6513		58.593750
6514		56.640625
6515		58.593750
6516		52.734375
6517		60.546875
6518		54.687500
6519		60.546875
6520		54.687500
6521		60.546875
6522		56.640625
6523		58.593750
6524		56.640625
6525		58.593750
6526		56.640625
6527		58.593750
6528		56.640625
6529		58.593750
6530		56.640625
6531		58.593750
6532		56.640625
6533		58.593750
6534		54.687500
6535		60.546875
6536		54.687500
6537		60.546875
6538		56.640625
6539		58.593750
6540		56.640625
6541		58.593750
6542		54.687500
6543		58.593750
6544		54.687500
6545		56.640625
6546		54.687500
6547		56.640625
6548		54.687500
6549		56.640625
6550		52.734375
6551		58.593750
6552		50.781250
6553		56.640625
6554		52.734375
6555		54.687500
6556		52.734375
6557		54.687500
6558		50.781250
6559		52.734375
6560		50.781250
6561		52.734375
6562		48.828125
6563		52.734375
6564		48.828125
6565		50.781250
6566		48.828125
6567		50.781250
6568		44.921875
6569		50.781250
6570		44.921875
6571		50.781250
6572		44.921875
6573		48.828125
6574		42.968750
6575		46.875000
6576		42.968750
6577		46.875000
6578		42.968750
6579		44.921875
6580		41.015625
6581		42.968750
6582		39.062500
6583		42.968750
6584		37.109375
6585		42.968750
6586		37.109375
6587		41.015625
6588		37.109375
6589		39.062500
6590		35.156250
6591		39.062500
6592		33.203125
6593		37.109375
6594		33.203125
6595		35.156250
6596		31.250000
6597		35.156250
6598		29.296875
6599		33.203125
6600		27.343750
6601		31.250000
6602		27.343750
6603		29.296875
6604		25.390625
6605		27.343750
6606		23.437500
6607		27.343750
6608		21.484375
6609		25.390625
6610		21.484375
6611		23.437500
6612		19.531250
6613		21.484375
6614		17.578125
6615		21.484375
6616		15.625000
6617		19.531250
6618		13.671875
6619		19.531250
6620		11.718750
6621		15.625000
6622		11.718750
6623		13.671875
6624		9.765625
6625		11.718750
6626		7.812500
6627		9.765625
6628		5.859375
6629		9.765625
6630		3.906250
6631		7.812500
6632		1.953125
6633		5.859375
6634		0.000000
6635		3.906250
6636		-1.953125
6637		1.953125
6638		-3.906250
6639		0.000000
6640		-3.906250
6641		-1.953125
6642		-5.859375
6643		-3.906250
6644		-7.812500
6645		-5.859375
6646		-9.765625
6647		-7.812500
6648		-11.718750
6649		-9.765625
6650		-13.671875
6651		-9.765625
6652		-15.625000
6653		-11.718750
6654		-17.578125
6655		-13.671875
6656		-19.531250
6657		-15.625000
6658		-21.484375
6659		-17.578125
6660		-23.437500
6661		-19.531250
6662		-25.390625
6663		-21.484375
6664		-27.343750
6665		-23.437500
6666		-29.296875
6667		-25.390625
6668		-29.296875
6669		-27.343750
6670		-31.250000
6671		-29.296875
6672		-33.203125
6673		-31.250000
6674		-35.156250
6675		-31.250000
6676		-37.109375
6677		-33.203125
6678		-39.062500
6679		-35.156250
6680		-41.015625
6681		-37.109375
6682		-42.968750
6683		-39.062500
6684		-42.968750
6685		-41.015625
6686		-44.921875
6687		-42.968750
6688		-46.875000
6689		-42.968750
6690		-48.828125
6691		-44.921875
6692		-48.828125
6693		-46.875000
6694		-50.781250
6695		-46.875000
6696		-52.734375
6697		-48.828125
6698		-54.687500
6699		-50.781250
6700		-54.687500
6701		-52.734375
6702		-56.640625
6703		-54.687500
6704		-58.593750
6705		-54.687500
6706		-58.593750
6707		-56.640625
6708		-60.546875
6709		-58.593750
6710		-60.546875
6711		-58.593750
6712		-62.500000
6713		-60.546875
6714		-64.453125
6715		-60.546875
6716		-64.453125
6717		-60.546875
6718		-66.406250
6719		-62.500000
6720		-66.406250
6721		-64.453125
6722		-68.359375
6723		-66.406250
6724		-68.359375
6725		-66.406250
6726		-70.312500
6727		-66.406250
6728		-70.312500
6729		-68.359375
6730		-72.265625
6731		-68.359375
6732		-72.265625
6733		-70.312500
6734		-72.265625
6735		-70.312500
6736		-74.218750
6737		-70.312500
6738		-74.218750
6739		-72.265625
6740		-74.218750
6741		-72.265625
6742		-74.218750
6743		-72.265625
6744		-76.171875
6745		-74.218750
6746		-76.171875
6747		-74.218750
6748		-76.171875
6749		-74.218750
6750		-76.171875
6751		-74.218750
6752		-76.171875
6753		-74.218750
6754		-76.171875
6755		-74.218750
6756		-76.171875
6757		-74.218750
6758		-78.125000
6759		-74.218750
6760		-76.171875
6761		-74.218750
6762		-78.125000
6763		-76.171875
6764		-78.125000
6765		-76.171875
6766		-76.171875
6767		-74.218750
6768		-76.171875
6769		-74.218750
6770		-78.125000
6771		-74.218750
6772		-76.171875
6773		-74.218750
6774		-76.171875
6775		-74.218750
6776		-76.171875
6777		-74.218750
6778		-76.171875
6779		-74.218750
6780		-76.171875
6781		-72.265625
6782		-74.218750
6783		-72.265625
6784		-74.218750
6785		-72.265625
6786		-74.218750
6787		-70.312500
6788		-72.265625
6789		-70.312500
6790		-72.265625
6791		-70.312500
6792		-72.265625
6793		-68.359375
6794		-70.312500
6795		-68.359375
6796		-70.312500
6797		-68.359375
6798		-68.359375
6799		-66.406250
6800		-68.359375
6801		-66.406250
6802		-66.406250
6803		-64.453125
6804		-66.406250
6805		-64.453125
6806		-64.453125
6807		-62.500000
6808		-64.453125
6809		-62.500000
6810		-62.500000
6811		-60.546875
6812		-62.500000
6813		-58.593750
6814		-60.546875
6815		-58.593750
6816		-58.593750
6817		-56.640625
6818		-58.593750
6819		-54.687500
6820		-56.640625
6821		-54.687500
6822		-54.687500
6823		-52.734375
6824		-54.687500
6825		-50.781250
6826		-52.734375
6827		-50.781250
6828		-50.781250
6829		-48.828125
6830		-50.781250
6831		-46.875000
6832		-48.828125
6833		-44.921875
6834		-46.875000
6835		-44.921875
6836		-44.921875
6837		-42.968750
6838		-44.921875
6839		-41.015625
6840		-42.968750
6841		-39.062500
6842		-41.015625
6843		-37.109375
6844		-39.062500
6845		-35.156250
6846		-37.109375
6847		-35.156250
6848		-35.156250
6849		-33.203125
6850		-35.156250
6851		-31.250000
6852		-33.203125
6853		-29.296875
6854		-31.250000
6855		-27.343750
6856		-29.296875
6857		-25.390625
6858		-27.343750
6859		-25.390625
6860		-25.390625
6861		-23.437500
6862		-23.437500
6863		-21.484375
6864		-21.484375
6865		-19.531250
6866		-21.484375
6867		-17.578125
6868		-19.531250
6869		-15.625000
6870		-17.578125
6871		-13.671875
6872		-15.625000
6873		-11.718750
6874		-13.671875
6875		-9.765625
6876		-11.718750
6877		-9.765625
6878		-9.765625
6879		-7.812500
6880		-7.812500
6881		-5.859375
6882		-7.812500
6883		-3.906250
6884		-5.859375
6885		-1.953125
6886		-3.906250
6887		0.000000
6888		-1.953125
6889		1.953125
6890		0.000000
6891		3.906250
6892		1.953125
6893		5.859375
6894		3.906250
6895		5.859375
6896		5.859375
6897		7.812500
6898		5.859375
6899		9.765625
6900		7.812500
6901		11.718750
6902		9.765625
6903		13.671875
6904		11.718750
6905		15.625000
6906		13.671875
6907		15.625000
6908		15.625000
6909		17.578125
6910		15.625000
6911		19.531250
6912		17.578125
6913		21.484375
6914		19.531250
6915		23.437500
6916		21.484375
6917		23.437500
6918		23.437500
6919		25.390625
6920		23.437500
6921		27.343750
6922		25.390625
6923		27.343750
6924		27.343750
6925		29.296875
6926		29.296875
6927		31.250000
6928		29.296875
6929		33.203125
6930		31.250000
6931		35.156250
6932		33.203125
6933		35.156250
6934		33.203125
6935		37.109375
6936		35.156250
6937		37.109375
6938		35.156250
6939		39.062500
6940		37.109375
6941		41.015625
6942		39.062500
6943		41.015625
6944		39.062500
6945		42.968750
6946		41.015625
6947		42.968750
6948		41.015625
6949		44.921875
6950		42.968750
6951		44.921875
6952		44.921875
6953		46.875000
6954		44.921875
6955		46.875000
6956		44.921875
6957		48.828125
6958		44.921875
6959		48.828125
6960		46.875000
6961		50.781250
6962		48.828125
6963		50.781250
6964		48.828125
6965		50.781250
6966		48.828125
6967		52.734375
6968		50.781250
6969		52.734375
6970		50.781250
6971		52.734375
6972		52.734375
6973		54.687500
6974		52.734375
6975		54.687500
6976		52.734375
6977		54.687500
6978		52.734375
6979		56.640625
6980		52.734375
6981		56.640625
6982		54.687500
6983		56.640625
6984		54.687500
6985		56.640625
6986		54.687500
6987		56.640625
6988		54.687500
6989		56.640625
6990		54.687500
6991		58.593750
6992		56.640625
6993		58.593750
6994		56.640625
6995		58.593750
6996		56.640625
6997		58.593750
6998		56.640625
6999		58.593750
7000		56.640625
7001		58.593750
7002		56.640625
7003		58.593750
7004		56.640625
7005		58.593750
7006		56.640625
7007		58.593750
7008		56.640625
7009		58.593750
7010		56.640625
7011		58.593750
7012		54.687500
7013		58.593750
7014		54.687500
7015		56.640625
7016		54.687500
7017		56.640625
7018		54.687500
7019		56.640625
7020		54.687500
7021		56.640625
7022		52.734375
7023		56.640625
7024		52.734375
7025		56.640625
7026		52.734375
7027		54.687500
7028		52.734375
7029		54.687500
7030		50.781250
7031		54.687500
7032		50.781250
7033		52.734375
7034		48.828125
7035		52.734375
7036		48.828125
7037		50.781250
7038		48.828125
7039		50.781250
7040		46.875000
7041		50.781250
7042		46.875000
7043		48.828125
7044		46.875000
7045		48.828125
7046		44.921875
7047		48.828125
7048		44.921875
7049		46.875000
7050		42.968750
7051		44.921875
7052		42.968750
7053		44.921875
7054		41.015625
7055		42.968750
7056		39.062500
7057		42.968750
7058		39.062500
7059		42.968750
7060		37.109375
7061		41.015625
7062		37.109375
7063		39.062500
7064		35.156250
7065		37.109375
7066		33.203125
7067		37.109375
7068		31.250000
7069		35.156250
7070		31.250000
7071		33.203125
7072		29.296875
7073		33.203125
7074		29.296875
7075		31.250000
7076		27.343750
7077		29.296875
7078		25.390625
7079		29.296875
7080		23.437500
7081		27.343750
7082		21.484375
7083		25.390625
7084		21.484375
7085		23.437500
7086		19.531250
7087		23.437500
7088		17.578125
7089		21.484375
7090		15.625000
7091		19.531250
7092		13.671875
7093		17.578125
7094		13.671875
7095		15.625000
7096		11.718750
7097		13.671875
7098		9.765625
7099		13.671875
7100		7.812500
7101		11.718750
7102		5.859375
7103		9.765625
7104		3.906250
7105		7.812500
7106		1.953125
7107		5.859375
7108		0.000000
7109		3.906250
7110		0.000000
7111		1.953125
7112		-1.953125
7113		0.000000
7114		-3.906250
7115		0.000000
7116		-5.859375
7117		-3.906250
7118		-7.812500
7119		-3.906250
7120		-9.765625
7121		-5.859375
7122		-11.718750
7123		-7.812500
7124		-13.671875
7125		-9.765625
7126		-15.625000
7127		-11.718750
7128		-17.578125
7129		-13.671875
7130		-19.531250
7131		-15.625000
7132		-21.484375
7133		-17.578125
7134		-23.437500
7135		-19.531250
7136		-23.437500
7137		-19.531250
7138		-25.390625
7139		-23.437500
7140		-27.343750
7141		-25.390625
7142		-29.296875
7143		-25.390625
7144		-31.250000
7145		-27.343750
7146		-33.203125
7147		-29.296875
7148		-35.156250
7149		-31.250000
7150		-37.109375
7151		-33.203125
7152		-39.062500
7153		-35.156250
7154		-39.062500
7155		-37.109375
7156		-41.015625
7157		-39.062500
7158		-42.968750
7159		-41.015625
7160		-44.921875
7161		-41.015625
7162		-46.875000
7163		-42.968750
7164		-46.875000
7165		-44.921875
7166		-48.828125
7167		-46.875000
7168		-50.781250
7169		-46.875000
7170		-52.734375
7171		-48.828125
7172		-52.734375
7173		-50.781250
7174		-54.687500
7175		-52.734375
7176		-56.640625
7177		-52.734375
7178		-58.593750
7179		-54.687500
7180		-60.546875
7181		-56.640625
7182		-60.546875
7183		-56.640625
7184		-60.546875
7185		-58.593750
7186		-62.500000
7187		-60.546875
7188		-64.453125
7189		-60.546875
7190		-64.453125
7191		-62.500000
7192		-66.406250
7193		-62.500000
7194		-66.406250
7195		-62.500000
7196		-68.359375
7197		-66.406250
7198		-68.359375
7199		-66.406250
7200		-70.312500
7201		-66.406250
7202		-70.312500
7203		-68.359375
7204		-72.265625
7205		-68.359375
7206		-72.265625
7207		-70.312500
7208		-72.265625
7209		-70.312500
7210		-74.218750
7211		-72.265625
7212		-74.218750
7213		-72.265625
7214		-74.218750
7215		-72.265625
7216		-76.171875
7217		-72.265625
7218		-76.171875
7219		-74.218750
7220		-76.171875
7221		-74.218750
7222		-76.171875
7223		-74.218750
7224		-76.171875
7225		-74.218750
7226		-78.125000
7227		-74.218750
7228		-78.125000
7229		-76.171875
7230		-78.125000
7231		-76.171875
7232		-78.125000
7233		-76.171875
7234		-78.125000
7235		-76.171875
7236		-78.125000
7237		-76.171875
7238		-78.125000
7239		-76.171875
7240		-78.125000
7241		-76.171875
7242		-78.125000
7243		-76.171875
7244		-78.125000
7245		-76.171875
7246		-78.125000
7247		-76.171875
7248		-78.125000
7249		-74.218750
7250		-76.171875
7251		-74.218750
7252		-76.171875
7253		-74.218750
7254		-76.171875
7255		-74.218750
7256		-76.171875
7257		-74.218750
7258		-74.218750
7259		-72.265625
7260		-74.218750
7261		-72.265625
7262		-74.218750
7263		-72.265625
7264		-74.218750
7265		-70.312500
7266		-72.265625
7267		-70.312500
7268		-72.265625
7269		-70.312500
7270		-70.312500
7271		-68.359375
7272		-70.312500
7273		-68.359375
7274		-70.312500
7275		-66.406250
7276		-68.359375
7277		-66.406250
7278		-68.359375
7279		-64.453125
7280		-66.406250
7281		-64.453125
7282		-66.406250
7283		-62.500000
7284		-64.453125
7285		-62.500000
7286		-64.453125
7287		-60.546875
7288		-62.500000
7289		-58.593750
7290		-60.546875
7291		-58.593750
7292		-60.546875
7293		-56.640625
7294		-58.593750
7295		-56.640625
7296		-56.640625
7297		-54.687500
7298		-56.640625
7299		-52.734375
7300		-54.687500
7301		-52.734375
7302		-52.734375
7303		-50.781250
7304		-52.734375
7305		-48.828125
7306		-50.781250
7307		-46.875000
7308		-48.828125
7309		-46.875000
7310		-46.875000
7311		-44.921875
7312		-46.875000
7313		-42.968750
7314		-44.921875
7315		-41.015625
7316		-42.968750
7317		-39.062500
7318		-41.015625
7319		-39.062500
7320		-39.062500
7321		-37.109375
7322		-37.109375
7323		-35.156250
7324		-37.109375
7325		-33.203125
7326		-35.156250
7327		-31.250000
7328		-33.203125
7329		-29.296875
7330		-31.250000
7331		-29.296875
7332		-29.296875
7333		-27.343750
7334		-27.343750
7335		-25.390625
7336		-25.390625
7337		-23.437500
7338		-25.390625
7339		-21.484375
7340		-23.437500
7341		-19.531250
7342		-21.484375
7343		-17.578125
7344		-19.531250
7345		-15.625000
7346		-17.578125
7347		-13.671875
7348		-15.625000
7349		-13.671875
7350		-13.671875
7351		-11.718750
7352		-13.671875
7353		-9.765625
7354		-9.765625
7355		-7.812500
7356		-7.812500
7357		-5.859375
7358		-7.812500
7359		-3.906250
7360		-5.859375
7361		-1.953125
7362		-3.906250
7363		0.000000
7364		-3.906250
7365		1.953125
7366		0.000000
7367		3.906250
7368		1.953125
7369		3.906250
7370		3.906250
7371		5.859375
7372		5.859375
7373		7.812500
7374		5.859375
7375		9.765625
7376		7.812500
7377		11.718750
7378		9.765625
7379		13.671875
7380		11.718750
7381		13.671875
7382		13.671875
7383		15.625000
7384		15.625000
7385		17.578125
7386		15.625000
7387		19.531250
7388		17.578125
7389		21.484375
7390		19.531250
7391		23.437500
7392		21.484375
7393		23.437500
7394		23.437500
7395		25.390625
7396		23.437500
7397		27.343750
7398		25.390625
7399		29.296875
7400		27.343750
7401		29.296875
7402		27.343750
7403		31.250000
7404		29.296875
7405		31.250000
7406		31.250000
7407		33.203125
7408		31.250000
7409		35.156250
7410		33.203125
7411		37.109375
7412		35.156250
7413		37.109375
7414		35.156250
7415		39.062500
7416		37.109375
7417		39.062500
7418		39.062500
7419		41.015625
7420		39.062500
7421		41.015625
7422		39.062500
7423		42.968750
7424		41.015625
7425		44.921875
7426		42.968750
7427		44.921875
7428		42.968750
7429		48.828125
7430		42.968750
7431		46.875000
7432		44.921875
7433		50.781250
7434		42.968750
7435		48.828125
7436		46.875000
7437		48.828125
7438		48.828125
7439		50.781250
7440		48.828125
7441		50.781250
7442		48.828125
7443		50.781250
7444		48.828125
7445		52.734375
7446		48.828125
7447		54.687500
7448		50.781250
7449		52.734375
7450		50.781250
7451		56.640625
7452		52.734375
7453		54.687500
7454		50.781250
7455		58.593750
7456		52.734375
7457		56.640625
7458		52.734375
7459		56.640625
7460		54.687500
7461		56.640625
7462		52.734375
7463		58.593750
7464		54.687500
7465		58.593750
7466		52.734375
7467		58.593750
7468		54.687500
7469		58.593750
7470		52.734375
7471		60.546875
7472		54.687500
7473		56.640625
7474		56.640625
7475		58.593750
7476		54.687500
7477		58.593750
7478		52.734375
7479		58.593750
7480		54.687500
7481		58.593750
7482		52.734375
7483		58.593750
7484		52.734375
7485		58.593750
7486		52.734375
7487		58.593750
7488		54.687500
7489		56.640625
7490		54.687500
7491		56.640625
7492		52.734375
7493		58.593750
7494		50.781250
7495		60.546875
7496		50.781250
7497		58.593750
7498		50.781250
7499		56.640625
7500		50.781250
7501		56.640625
7502		52.734375
7503		54.687500
7504		48.828125
7505		58.593750
7506		50.781250
7507		52.734375
7508		48.828125
7509		52.734375
7510		46.875000
7511		54.687500
7512		46.875000
7513		54.687500
7514		46.875000
7515		52.734375
7516		46.875000
7517		50.781250
7518		42.968750
7519		52.734375
7520		42.968750
7521		50.781250
7522		44.921875
7523		46.875000
7524		42.968750
7525		46.875000
7526		41.015625
7527		46.875000
7528		39.062500
7529		46.875000
7530		41.015625
7531		44.921875
7532		39.062500
7533		42.968750
7534		35.156250
7535		44.921875
7536		37.109375
7537		39.062500
7538		35.156250
7539		41.015625
7540		35.156250
7541		37.109375
7542		31.250000
7543		37.109375
7544		27.343750
7545		37.109375
7546		29.296875
7547		35.156250
7548		29.296875
7549		31.250000
7550		25.390625
7551		33.203125
7552		23.437500
7553		33.203125
7554		21.484375
7555		31.250000
7556		23.437500
7557		25.390625
7558		21.484375
7559		25.390625
7560		19.531250
7561		25.390625
7562		15.625000
7563		25.390625
7564		17.578125
7565		21.484375
7566		15.625000
7567		19.531250
7568		9.765625
7569		21.484375
7570		7.812500
7571		17.578125
7572		9.765625
7573		13.671875
7574		9.765625
7575		11.718750
7576		5.859375
7577		11.718750
7578		1.953125
7579		11.718750
7580		1.953125
7581		9.765625
7582		1.953125
7583		5.859375
7584		-3.906250
7585		5.859375
7586		-5.859375
7587		5.859375
7588		-5.859375
7589		3.906250
7590		-5.859375
7591		-1.953125
7592		-9.765625
7593		-3.906250
7594		-11.718750
7595		-3.906250
7596		-11.718750
7597		-3.906250
7598		-11.718750
7599		-7.812500
7600		-15.625000
7601		-11.718750
7602		-19.531250
7603		-9.765625
7604		-19.531250
7605		-11.718750
7606		-19.531250
7607		-17.578125
7608		-23.437500
7609		-17.578125
7610		-25.390625
7611		-19.531250
7612		-27.343750
7613		-17.578125
7614		-29.296875
7615		-21.484375
7616		-29.296875
7617		-25.390625
7618		-33.203125
7619		-25.390625
7620		-33.203125
7621		-27.343750
7622		-37.109375
7623		-27.343750
7624		-35.156250
7625		-33.203125
7626		-39.062500
7627		-33.203125
7628		-42.968750
7629		-33.203125
7630		-42.968750
7631		-35.156250
7632		-42.968750
7633		-39.062500
7634		-46.875000
7635		-39.062500
7636		-48.828125
7637		-39.062500
7638		-50.781250
7639		-41.015625
7640		-48.828125
7641		-46.875000
7642		-50.781250
7643		-46.875000
7644		-54.687500
7645		-46.875000
7646		-54.687500
7647		-46.875000
7648		-54.687500
7649		-50.781250
7650		-58.593750
7651		-52.734375
7652		-60.546875
7653		-50.781250
7654		-60.546875
7655		-52.734375
7656		-60.546875
7657		-56.640625
7658		-62.500000
7659		-58.593750
7660		-64.453125
7661		-58.593750
7662		-66.406250
7663		-58.593750
7664		-66.406250
7665		-60.546875
7666		-66.406250
7667		-64.453125
7668		-70.312500
7669		-60.546875
7670		-70.312500
7671		-60.546875
7672		-70.312500
7673		-64.453125
7674		-70.312500
7675		-68.359375
7676		-70.312500
7677		-68.359375
7678		-72.265625
7679		-68.359375
7680		-76.171875
7681		-66.406250
7682		-74.218750
7683		-70.312500
7684		-76.171875
7685		-70.312500
7686		-78.125000
7687		-68.359375
7688		-80.078125
7689		-72.265625
7690		-76.171875
7691		-74.218750
7692		-78.125000
7693		-74.218750
7694		-78.125000
7695		-74.218750
7696		-80.078125
7697		-72.265625
7698		-80.078125
7699		-72.265625
7700		-78.125000
7701		-76.171875
7702		-82.031250
7703		-74.218750
7704		-80.078125
7705		-76.171875
7706		-82.031250
7707		-74.218750
7708		-78.125000
7709		-76.171875
7710		-78.125000
7711		-76.171875
7712		-82.031250
7713		-74.218750
7714		-80.078125
7715		-74.218750
7716		-80.078125
7717		-76.171875
7718		-82.031250
7719		-74.218750
7720		-78.125000
7721		-76.171875
7722		-78.125000
7723		-76.171875
7724		-78.125000
7725		-76.171875
7726		-78.125000
7727		-76.171875
7728		-78.125000
7729		-74.218750
7730		-78.125000
7731		-72.265625
7732		-80.078125
7733		-74.218750
7734		-76.171875
7735		-72.265625
7736		-78.125000
7737		-70.312500
7738		-74.218750
7739		-72.265625
7740		-74.218750
7741		-72.265625
7742		-74.218750
7743		-70.312500
7744		-74.218750
7745		-68.359375
7746		-72.265625
7747		-70.312500
7748		-70.312500
7749		-68.359375
7750		-70.312500
7751		-68.359375
7752		-70.312500
7753		-66.406250
7754		-68.359375
7755		-66.406250
7756		-68.359375
7757		-64.453125
7758		-66.406250
7759		-64.453125
7760		-66.406250
7761		-60.546875
7762		-64.453125
7763		-60.546875
7764		-64.453125
7765		-60.546875
7766		-62.500000
7767		-58.593750
7768		-60.546875
7769		-58.593750
7770		-58.593750
7771		-56.640625
7772		-58.593750
7773		-54.687500
7774		-56.640625
7775		-54.687500
7776		-56.640625
7777		-52.734375
7778		-54.687500
7779		-48.828125
7780		-54.687500
7781		-48.828125
7782		-52.734375
7783		-46.875000
7784		-50.781250
7785		-44.921875
7786		-48.828125
7787		-42.968750
7788		-48.828125
7789		-42.968750
7790		-46.875000
7791		-41.015625
7792		-42.968750
7793		-41.015625
7794		-42.968750
7795		-39.062500
7796		-41.015625
7797		-35.156250
7798		-41.015625
7799		-33.203125
7800		-39.062500
7801		-31.250000
7802		-37.109375
7803		-31.250000
7804		-35.156250
7805		-29.296875
7806		-33.203125
7807		-27.343750
7808		-31.250000
7809		-27.343750
7810		-29.296875
7811		-25.390625
7812		-27.343750
7813		-21.484375
7814		-27.343750
7815		-21.484375
7816		-23.437500
7817		-17.578125
7818		-23.437500
7819		-17.578125
7820		-21.484375
7821		-15.625000
7822		-19.531250
7823		-13.671875
7824		-17.578125
7825		-13.671875
7826		-13.671875
7827		-11.718750
7828		-13.671875
7829		-7.812500
7830		-11.718750
7831		-5.859375
7832		-11.718750
7833		-3.906250
7834		-9.765625
7835		-1.953125
7836		-7.812500
7837		0.000000
7838		-5.859375
7839		1.953125
7840		-3.906250
7841		1.953125
7842		0.000000
7843		1.953125
7844		1.953125
7845		5.859375
7846		1.953125
7847		7.812500
7848		3.906250
7849		9.765625
7850		3.906250
7851		11.718750
7852		5.859375
7853		11.718750
7854		7.812500
7855		13.671875
7856		9.765625
7857		15.625000
7858		11.718750
7859		15.625000
7860		13.671875
7861		17.578125
7862		15.625000
7863		19.531250
7864		15.625000
7865		21.484375
7866		17.578125
7867		23.437500
7868		19.531250
7869		25.390625
7870		21.484375
7871		25.390625
7872		23.437500
7873		27.343750
7874		23.437500
7875		29.296875
7876		25.390625
7877		29.296875
7878		27.343750
7879		31.250000
7880		27.343750
7881		33.203125
7882		29.296875
7883		33.203125
7884		29.296875
7885		37.109375
7886		33.203125
7887		37.109375
7888		33.203125
7889		39.062500
7890		33.203125
7891		39.062500
7892		37.109375
7893		39.062500
7894		37.109375
7895		41.015625
7896		37.109375
7897		42.968750
7898		39.062500
7899		42.968750
7900		41.015625
7901		44.921875
7902		41.015625
7903		46.875000
7904		42.968750
7905		46.875000
7906		42.968750
7907		48.828125
7908		42.968750
7909		46.875000
7910		44.921875
7911		48.828125
7912		46.875000
7913		50.781250
7914		46.875000
7915		50.781250
7916		48.828125
7917		50.781250
7918		46.875000
7919		54.687500
7920		50.781250
7921		52.734375
7922		50.781250
7923		52.734375
7924		48.828125
7925		54.687500
7926		52.734375
7927		54.687500
7928		52.734375
7929		54.687500
7930		52.734375
7931		56.640625
7932		52.734375
7933		56.640625
7934		50.781250
7935		58.593750
7936		50.781250
7937		56.640625
7938		52.734375
7939		56.640625
7940		52.734375
7941		58.593750
7942		54.687500
7943		56.640625
7944		54.687500
7945		56.640625
7946		52.734375
7947		58.593750
7948		54.687500
7949		58.593750
7950		54.687500
7951		58.593750
7952		52.734375
7953		60.546875
7954		54.687500
7955		58.593750
7956		54.687500
7957		58.593750
7958		54.687500
7959		58.593750
7960		54.687500
7961		56.640625
7962		52.734375
7963		58.593750
7964		52.734375
7965		58.593750
7966		54.687500
7967		56.640625
7968		52.734375
7969		56.640625
7970		52.734375
7971		56.640625
7972		52.734375
7973		56.640625
7974		52.734375
7975		56.640625
7976		52.734375
7977		54.687500
7978		52.734375
7979		54.687500
7980		50.781250
7981		54.687500
7982		50.781250
7983		54.687500
7984		50.781250
7985		52.734375
7986		46.875000
7987		54.687500
7988		48.828125
7989		52.734375
7990		46.875000
7991		50.781250
7992		46.875000
7993		50.781250
7994		46.875000
7995		48.828125
7996		44.921875
7997		48.828125
7998		44.921875
7999		48.828125
8000		42.968750
8001		46.875000
8002		42.968750
8003		46.875000
8004		41.015625
8005		44.921875
8006		39.062500
8007		44.921875
8008		39.062500
8009		42.968750
8010		37.109375
8011		41.015625
8012		37.109375
8013		39.062500
8014		35.156250
8015		39.062500
8016		33.203125
8017		39.062500
8018		33.203125
8019		37.109375
8020		31.250000
8021		37.109375
8022		29.296875
8023		33.203125
8024		29.296875
8025		33.203125
8026		27.343750
8027		31.250000
8028		25.390625
8029		29.296875
8030		23.437500
8031		29.296875
8032		21.484375
8033		27.343750
8034		21.484375
8035		25.390625
8036		19.531250
8037		23.437500
8038		17.578125
8039		21.484375
8040		17.578125
8041		19.531250
8042		15.625000
8043		19.531250
8044		13.671875
8045		17.578125
8046		9.765625
8047		15.625000
8048		9.765625
8049		13.671875
8050		7.812500
8051		11.718750
8052		7.812500
8053		9.765625
8054		5.859375
8055		9.765625
8056		3.906250
8057		7.812500
8058		0.000000
8059		5.859375
8060		0.000000
8061		3.906250
8062		-1.953125
8063		1.953125
8064		-3.906250
8065		0.000000
8066		-5.859375
8067		-1.953125
8068		-7.812500
8069		-3.906250
8070		-9.765625
8071		-5.859375
8072		-11.718750
8073		-7.812500
8074		-13.671875
8075		-9.765625
8076		-15.625000
8077		-9.765625
8078		-15.625000
8079		-13.671875
8080		-19.531250
8081		-15.625000
8082		-19.531250
8083		-15.625000
8084		-21.484375
8085		-17.578125
8086		-23.437500
8087		-19.531250
8088		-25.390625
8089		-21.484375
8090		-27.343750
8091		-23.437500
8092		-29.296875
8093		-23.437500
8094		-31.250000
8095		-27.343750
8096		-33.203125
8097		-29.296875
8098		-35.156250
8099		-29.296875
8100		-35.156250
8101		-31.250000
8102		-37.109375
8103		-33.203125
8104		-39.062500
8105		-35.156250
8106		-41.015625
8107		-37.109375
8108		-42.968750
8109		-39.062500
8110		-44.921875
8111		-41.015625
8112		-46.875000
8113		-42.968750
8114		-48.828125
8115		-42.968750
8116		-48.828125
8117		-44.921875
8118		-50.781250
8119		-46.875000
8120		-52.734375
8121		-46.875000
8122		-52.734375
8123		-50.781250
8124		-54.687500
8125		-50.781250
8126		-56.640625
8127		-52.734375
8128		-56.640625
8129		-54.687500
8130		-58.593750
8131		-54.687500
8132		-60.546875
8133		-56.640625
8134		-60.546875
8135		-58.593750
8136		-62.500000
8137		-58.593750
8138		-64.453125
8139		-60.546875
8140		-66.406250
8141		-62.500000
8142		-68.359375
8143		-62.500000
8144		-66.406250
8145		-64.453125
8146		-68.359375
8147		-66.406250
8148		-70.312500
8149		-66.406250
8150		-70.312500
8151		-66.406250
8152		-70.312500
8153		-68.359375
8154		-72.265625
8155		-68.359375
8156		-72.265625
8157		-70.312500
8158		-74.218750
8159		-70.312500
8160		-74.218750
8161		-70.312500
8162		-74.218750
8163		-72.265625
8164		-76.171875
8165		-70.312500
8166		-76.171875
8167		-72.265625
8168		-76.171875
8169		-74.218750
8170		-76.171875
8171		-74.218750
8172		-78.125000
8173		-74.218750
8174		-78.125000
8175		-74.218750
8176		-78.125000
8177		-74.218750
8178		-78.125000
8179		-76.171875
8180		-78.125000
8181		-76.171875
8182		-80.078125
8183		-74.218750
8184		-78.125000
8185		-76.171875
8186		-78.125000
8187		-76.171875
8188		-78.125000
8189		-76.171875
8190		-78.125000
8191		-76.171875
8192		-80.078125
8193		-76.171875
8194		-80.078125
8195		-76.171875
8196		-78.125000
8197		-76.171875
8198		-80.078125
8199		-74.218750
8200		-78.125000
8201		-74.218750
8202		-78.125000
8203		-74.218750
8204		-76.171875
8205		-74.218750
8206		-76.171875
8207		-74.218750
8208		-76.171875
8209		-74.218750
8210		-76.171875
8211		-72.265625
8212		-74.218750
8213		-72.265625
8214		-74.218750
8215		-72.265625
8216		-74.218750
8217		-70.312500
8218		-74.218750
8219		-70.312500
8220		-72.265625
8221		-70.312500
8222		-72.265625
8223		-68.359375
8224		-70.312500
8225		-66.406250
8226		-70.312500
8227		-66.406250
8228		-70.312500
8229		-66.406250
8230		-68.359375
8231		-64.453125
8232		-68.359375
8233		-64.453125
8234		-66.406250
8235		-62.500000
8236		-64.453125
8237		-60.546875
8238		-64.453125
8239		-60.546875
8240		-64.453125
8241		-58.593750
8242		-60.546875
8243		-56.640625
8244		-60.546875
8245		-56.640625
8246		-58.593750
8247		-56.640625
8248		-58.593750
8249		-52.734375
8250		-56.640625
8251		-52.734375
8252		-54.687500
8253		-50.781250
8254		-52.734375
8255		-50.781250
8256		-52.734375
8257		-48.828125
8258		-50.781250
8259		-46.875000
8260		-50.781250
8261		-44.921875
8262		-46.875000
8263		-44.921875
8264		-46.875000
8265		-42.968750
8266		-44.921875
8267		-41.015625
8268		-42.968750
8269		-39.062500
8270		-41.015625
8271		-39.062500
8272		-41.015625
8273		-37.109375
8274		-39.062500
8275		-33.203125
8276		-37.109375
8277		-33.203125
8278		-37.109375
8279		-31.250000
8280		-33.203125
8281		-29.296875
8282		-31.250000
8283		-27.343750
8284		-29.296875
8285		-25.390625
8286		-27.343750
8287		-23.437500
8288		-27.343750
8289		-21.484375
8290		-25.390625
8291		-21.484375
8292		-23.437500
8293		-19.531250
8294		-21.484375
8295		-17.578125
8296		-19.531250
8297		-15.625000
8298		-19.531250
8299		-13.671875
8300		-15.625000
8301		-11.718750
8302		-13.671875
8303		-9.765625
8304		-11.718750
8305		-9.765625
8306		-9.765625
8307		-5.859375
8308		-9.765625
8309		-3.906250
8310		-7.812500
8311		-3.906250
8312		-5.859375
8313		-1.953125
8314		-3.906250
8315		0.000000
8316		-1.953125
8317		1.953125
8318		0.000000
8319		3.906250
8320		1.953125
8321		5.859375
8322		3.906250
8323		5.859375
8324		3.906250
8325		9.765625
8326		5.859375
8327		9.765625
8328		7.812500
8329		11.718750
8330		9.765625
8331		13.671875
8332		11.718750
8333		15.625000
8334		13.671875
8335		15.625000
8336		13.671875
8337		17.578125
8338		15.625000
8339		19.531250
8340		17.578125
8341		21.484375
8342		19.531250
8343		23.437500
8344		19.531250
8345		25.390625
8346		21.484375
8347		25.390625
8348		23.437500
8349		27.343750
8350		25.390625
8351		29.296875
8352		27.343750
8353		31.250000
8354		27.343750
8355		31.250000
8356		29.296875
8357		33.203125
8358		31.250000
8359		35.156250
8360		31.250000
8361		37.109375
8362		31.250000
8363		37.109375
8364		35.156250
8365		37.109375
8366		35.156250
8367		39.062500
8368		37.109375
8369		41.015625
8370		39.062500
8371		41.015625
8372		39.062500
8373		42.968750
8374		39.062500
8375		42.968750
8376		41.015625
8377		44.921875
8378		42.968750
8379		46.875000
8380		42.968750
8381		46.875000
8382		42.968750
8383		48.828125
8384		44.921875
8385		48.828125
8386		44.921875
8387		48.828125
8388		46.875000
8389		50.781250
8390		48.828125
8391		50.781250
8392		48.828125
8393		52.734375
8394		48.828125
8395		52.734375
8396		50.781250
8397		52.734375
8398		50.781250
8399		54.687500
8400		50.781250
8401		54.687500
8402		50.781250
8403		54.687500
8404		52.734375
8405		54.687500
8406		52.734375
8407		54.687500
8408		52.734375
8409		56.640625
8410		52.734375
8411		56.640625
8412		52.734375
8413		58.593750
8414		54.687500
8415		56.640625
8416		54.687500
8417		58.593750
8418		54.687500
8419		58.593750
8420		54.687500
8421		58.593750
8422		54.687500
8423		58.593750
8424		54.687500
8425		58.593750
8426		54.687500
8427		58.593750
8428		54.687500
8429		58.593750
8430		56.640625
8431		58.593750
8432		54.687500
8433		58.593750
8434		54.687500
8435		58.593750
8436		54.687500
8437		58.593750
8438		54.687500
8439		58.593750
8440		54.687500
8441		58.593750
8442		54.687500
8443		56.640625
8444		54.687500
8445		58.593750
8446		54.687500
8447		56.640625
8448		54.687500
8449		56.640625
8450		52.734375
8451		56.640625
8452		52.734375
8453		56.640625
8454		50.781250
8455		54.687500
8456		50.781250
8457		54.687500
8458		50.781250
8459		54.687500
8460		50.781250
8461		52.734375
8462		48.828125
8463		54.687500
8464		48.828125
8465		50.781250
8466		46.875000
8467		52.734375
8468		46.875000
8469		50.781250
8470		44.921875
8471		50.781250
8472		44.921875
8473		48.828125
8474		44.921875
8475		46.875000
8476		42.968750
8477		46.875000
8478		41.015625
8479		46.875000
8480		42.968750
8481		44.921875
8482		41.015625
8483		42.968750
8484		39.062500
8485		42.968750
8486		37.109375
8487		41.015625
8488		37.109375
8489		41.015625
8490		35.156250
8491		39.062500
8492		35.156250
8493		37.109375
8494		33.203125
8495		37.109375
8496		31.250000
8497		37.109375
8498		31.250000
8499		33.203125
8500		29.296875
8501		33.203125
8502		27.343750
8503		31.250000
8504		27.343750
8505		29.296875
8506		25.390625
8507		29.296875
8508		23.437500
8509		27.343750
8510		21.484375
8511		25.390625
8512		19.531250
8513		23.437500
8514		19.531250
8515		21.484375
8516		17.578125
8517		19.531250
8518		13.671875
8519		19.531250
8520		13.671875
8521		17.578125
8522		11.718750
8523		15.625000
8524		9.765625
8525		13.671875
8526		7.812500
8527		11.718750
8528		5.859375
8529		9.765625
8530		5.859375
8531		7.812500
8532		1.953125
8533		7.812500
8534		0.000000
8535		5.859375
8536		0.000000
8537		3.906250
8538		-1.953125
8539		1.953125
8540		-3.906250
8541		0.000000
8542		-5.859375
8543		-1.953125
8544		-7.812500
8545		-1.953125
8546		-9.765625
8547		-5.859375
8548		-9.765625
8549		-7.812500
8550		-11.718750
8551		-9.765625
8552		-15.625000
8553		-9.765625
8554		-15.625000
8555		-11.718750
8556		-17.578125
8557		-13.671875
8558		-19.531250
8559		-15.625000
8560		-21.484375
8561		-17.578125
8562		-25.390625
8563		-19.531250
8564		-25.390625
8565		-21.484375
8566		-27.343750
8567		-23.437500
8568		-29.296875
8569		-25.390625
8570		-31.250000
8571		-25.390625
8572		-33.203125
8573		-29.296875
8574		-33.203125
8575		-29.296875
8576		-35.156250
8577		-31.250000
8578		-37.109375
8579		-33.203125
8580		-39.062500
8581		-35.156250
8582		-41.015625
8583		-37.109375
8584		-42.968750
8585		-39.062500
8586		-44.921875
8587		-41.015625
8588		-44.921875
8589		-41.015625
8590		-46.875000
8591		-42.968750
8592		-48.828125
8593		-44.921875
8594		-50.781250
8595		-46.875000
8596		-52.734375
8597		-46.875000
8598		-52.734375
8599		-50.781250
8600		-54.687500
8601		-50.781250
8602		-56.640625
8603		-50.781250
8604		-56.640625
8605		-54.687500
8606		-58.593750
8607		-54.687500
8608		-60.546875
8609		-56.640625
8610		-62.500000
8611		-56.640625
8612		-62.500000
8613		-58.593750
8614		-62.500000
8615		-60.546875
8616		-64.453125
8617		-62.500000
8618		-66.406250
8619		-62.500000
8620		-66.406250
8621		-64.453125
8622		-68.359375
8623		-64.453125
8624		-68.359375
8625		-66.406250
8626		-70.312500
8627		-66.406250
8628		-70.312500
8629		-68.359375
8630		-72.265625
8631		-68.359375
8632		-72.265625
8633		-68.359375
8634		-72.265625
8635		-70.312500
8636		-74.218750
8637		-70.312500
8638		-74.218750
8639		-70.312500
8640		-74.218750
8641		-72.265625
8642		-76.171875
8643		-72.265625
8644		-76.171875
8645		-72.265625
8646		-76.171875
8647		-74.218750
8648		-76.171875
8649		-72.265625
8650		-76.171875
8651		-74.218750
8652		-78.125000
8653		-74.218750
8654		-78.125000
8655		-74.218750
8656		-78.125000
8657		-74.218750
8658		-78.125000
8659		-74.218750
8660		-78.125000
8661		-74.218750
8662		-78.125000
8663		-74.218750
8664		-78.125000
8665		-74.218750
8666		-78.125000
8667		-74.218750
8668		-80.078125
8669		-74.218750
8670		-78.125000
8671		-74.218750
8672		-78.125000
8673		-74.218750
8674		-78.125000
8675		-74.218750
8676		-78.125000
8677		-74.218750
8678		-78.125000
8679		-74.218750
8680		-78.125000
8681		-72.265625
8682		-76.171875
8683		-74.218750
8684		-74.218750
8685		-72.265625
8686		-76.171875
8687		-72.265625
8688		-74.218750
8689		-72.265625
8690		-74.218750
8691		-70.312500
8692		-74.218750
8693		-70.312500
8694		-72.265625
8695		-70.312500
8696		-72.265625
8697		-68.359375
8698		-72.265625
8699		-68.359375
8700		-70.312500
8701		-68.359375
8702		-68.359375
8703		-66.406250
8704		-68.359375
8705		-64.453125
8706		-68.359375
8707		-62.500000
8708		-66.406250
8709		-62.500000
8710		-66.406250
8711		-62.500000
8712		-64.453125
8713		-60.546875
8714		-64.453125
8715		-58.593750
8716		-62.500000
8717		-58.593750
8718		-60.546875
8719		-58.593750
8720		-60.546875
8721		-56.640625
8722		-58.593750
8723		-54.687500
8724		-56.640625
8725		-52.734375
8726		-54.687500
8727		-50.781250
8728		-54.687500
8729		-50.781250
8730		-52.734375
8731		-48.828125
8732		-50.781250
8733		-48.828125
8734		-48.828125
8735		-46.875000
8736		-48.828125
8737		-44.921875
8738		-46.875000
8739		-42.968750
8740		-44.921875
8741		-41.015625
8742		-44.921875
8743		-41.015625
8744		-42.968750
8745		-37.109375
8746		-41.015625
8747		-37.109375
8748		-41.015625
8749		-35.156250
8750		-37.109375
8751		-33.203125
8752		-35.156250
8753		-31.250000
8754		-35.156250
8755		-31.250000
8756		-31.250000
8757		-29.296875
8758		-31.250000
8759		-27.343750
8760		-29.296875
8761		-25.390625
8762		-27.343750
8763		-23.437500
8764		-25.390625
8765		-19.531250
8766		-23.437500
8767		-19.531250
8768		-21.484375
8769		-19.531250
8770		-19.531250
8771		-15.625000
8772		-17.578125
8773		-15.625000
8774		-17.578125
8775		-11.718750
8776		-15.625000
8777		-11.718750
8778		-13.671875
8779		-9.765625
8780		-11.718750
8781		-7.812500
8782		-9.765625
8783		-5.859375
8784		-7.812500
8785		-3.906250
8786		-5.859375
8787		-1.953125
8788		-3.906250
8789		0.000000
8790		-3.906250
8791		1.953125
8792		-1.953125
8793		3.906250
8794		0.000000
8795		3.906250
8796		1.953125
8797		5.859375
8798		3.906250
8799		7.812500
8800		5.859375
8801		9.765625
8802		7.812500
8803		9.765625
8804		7.812500
8805		13.671875
8806		9.765625
8807		15.625000
8808		11.718750
8809		15.625000
8810		13.671875
8811		17.578125
8812		15.625000
8813		19.531250
8814		17.578125
8815		21.484375
8816		17.578125
8817		21.484375
8818		19.531250
8819		23.437500
8820		21.484375
8821		27.343750
8822		23.437500
8823		27.343750
8824		25.390625
8825		27.343750
8826		25.390625
8827		29.296875
8828		27.343750
8829		31.250000
8830		29.296875
8831		33.203125
8832		29.296875
8833		35.156250
8834		31.250000
8835		35.156250
8836		33.203125
8837		37.109375
8838		35.156250
8839		37.109375
8840		35.156250
8841		39.062500
8842		37.109375
8843		39.062500
8844		37.109375
8845		41.015625
8846		39.062500
8847		42.968750
8848		39.062500
8849		44.921875
8850		41.015625
8851		44.921875
8852		42.968750
8853		44.921875
8854		42.968750
8855		46.875000
8856		44.921875
8857		46.875000
8858		44.921875
8859		48.828125
8860		46.875000
8861		48.828125
8862		46.875000
8863		50.781250
8864		46.875000
8865		50.781250
8866		48.828125
8867		50.781250
8868		48.828125
8869		52.734375
8870		48.828125
8871		54.687500
8872		50.781250
8873		54.687500
8874		50.781250
8875		54.687500
8876		52.734375
8877		54.687500
8878		52.734375
8879		56.640625
8880		52.734375
8881		56.640625
8882		52.734375
8883		56.640625
8884		54.687500
8885		56.640625
8886		54.687500
8887		56.640625
8888		54.687500
8889		58.593750
8890		54.687500
8891		58.593750
8892		54.687500
8893		58.593750
8894		54.687500
8895		58.593750
8896		56.640625
8897		58.593750
8898		56.640625
8899		58.593750
8900		54.687500
8901		60.546875
8902		56.640625
8903		58.593750
8904		56.640625
8905		60.546875
8906		56.640625
8907		58.593750
8908		56.640625
8909		58.593750
8910		56.640625
8911		58.593750
8912		54.687500
8913		58.593750
8914		56.640625
8915		58.593750
8916		54.687500
8917		60.546875
8918		54.687500
8919		58.593750
8920		54.687500
8921		56.640625
8922		54.687500
8923		58.593750
8924		54.687500
8925		56.640625
8926		52.734375
8927		56.640625
8928		52.734375
8929		56.640625
8930		52.734375
8931		56.640625
8932		50.781250
8933		56.640625
8934		52.734375
8935		54.687500
8936		50.781250
8937		52.734375
8938		48.828125
8939		54.687500
8940		48.828125
8941		52.734375
8942		48.828125
8943		52.734375
8944		48.828125
8945		50.781250
8946		46.875000
8947		50.781250
8948		44.921875
8949		48.828125
8950		44.921875
8951		48.828125
8952		44.921875
8953		46.875000
8954		42.968750
8955		46.875000
8956		41.015625
8957		46.875000
8958		41.015625
8959		44.921875
8960		39.062500
8961		42.968750
8962		39.062500
8963		42.968750
8964		37.109375
8965		41.015625
8966		35.156250
8967		39.062500
8968		35.156250
8969		39.062500
8970		33.203125
8971		37.109375
8972		33.203125
8973		37.109375
8974		31.250000
8975		35.156250
8976		29.296875
8977		33.203125
8978		27.343750
8979		35.156250
8980		25.390625
8981		29.296875
8982		25.390625
8983		29.296875
8984		23.437500
8985		29.296875
8986		23.437500
8987		25.390625
8988		19.531250
8989		23.437500
8990		19.531250
8991		23.437500
8992		17.578125
8993		21.484375
8994		15.625000
8995		21.484375
8996		15.625000
8997		17.578125
8998		11.718750
8999		17.578125
9000		11.718750
9001		15.625000
9002		9.765625
9003		13.671875
9004		5.859375
9005		11.718750
9006		5.859375
9007		9.765625
9008		3.906250
9009		9.765625
9010		1.953125
9011		5.859375
9012		0.000000
9013		3.906250
9014		-1.953125
9015		3.906250
9016		-3.906250
9017		1.953125
9018		-3.906250
9019		-1.953125
9020		-5.859375
9021		-3.906250
9022		-9.765625
9023		-3.906250
9024		-9.765625
9025		-5.859375
9026		-11.718750
9027		-7.812500
9028		-15.625000
9029		-7.812500
9030		-15.625000
9031		-11.718750
9032		-17.578125
9033		-13.671875
9034		-19.531250
9035		-15.625000
9036		-21.484375
9037		-17.578125
9038		-23.437500
9039		-19.531250
9040		-25.390625
9041		-19.531250
9042		-27.343750
9043		-23.437500
9044		-29.296875
9045		-23.437500
9046		-29.296875
9047		-25.390625
9048		-31.250000
9049		-27.343750
9050		-35.156250
9051		-29.296875
9052		-35.156250
9053		-31.250000
9054		-37.109375
9055		-33.203125
9056		-39.062500
9057		-35.156250
9058		-41.015625
9059		-35.156250
9060		-42.968750
9061		-37.109375
9062		-44.921875
9063		-37.109375
9064		-44.921875
9065		-41.015625
9066		-46.875000
9067		-41.015625
9068		-46.875000
9069		-42.968750
9070		-48.828125
9071		-46.875000
9072		-52.734375
9073		-48.828125
9074		-52.734375
9075		-48.828125
9076		-54.687500
9077		-48.828125
9078		-54.687500
9079		-50.781250
9080		-56.640625
9081		-52.734375
9082		-58.593750
9083		-54.687500
9084		-58.593750
9085		-54.687500
9086		-60.546875
9087		-56.640625
9088		-62.500000
9089		-58.593750
9090		-64.453125
9091		-58.593750
9092		-64.453125
9093		-60.546875
9094		-68.359375
9095		-60.546875
9096		-66.406250
9097		-62.500000
9098		-68.359375
9099		-64.453125
9100		-68.359375
9101		-64.453125
9102		-68.359375
9103		-66.406250
9104		-70.312500
9105		-68.359375
9106		-72.265625
9107		-66.406250
9108		-72.265625
9109		-68.359375
9110		-72.265625
9111		-68.359375
9112		-74.218750
9113		-68.359375
9114		-74.218750
9115		-70.312500
9116		-74.218750
9117		-72.265625
9118		-76.171875
9119		-70.312500
9120		-76.171875
9121		-72.265625
9122		-78.125000
9123		-72.265625
9124		-76.171875
9125		-72.265625
9126		-76.171875
9127		-74.218750
9128		-80.078125
9129		-72.265625
9130		-78.125000
9131		-74.218750
9132		-78.125000
9133		-74.218750
9134		-78.125000
9135		-74.218750
9136		-78.125000
9137		-76.171875
9138		-78.125000
9139		-76.171875
9140		-80.078125
9141		-74.218750
9142		-78.125000
9143		-74.218750
9144		-78.125000
9145		-74.218750
9146		-78.125000
9147		-72.265625
9148		-78.125000
9149		-74.218750
9150		-78.125000
9151		-74.218750
9152		-78.125000
9153		-74.218750
9154		-76.171875
9155		-74.218750
9156		-78.125000
9157		-72.265625
9158		-76.171875
9159		-72.265625
9160		-76.171875
9161		-72.265625
9162		-76.171875
9163		-70.312500
9164		-74.218750
9165		-70.312500
9166		-74.218750
9167		-70.312500
9168		-74.218750
9169		-70.312500
9170		-72.265625
9171		-70.312500
9172		-72.265625
9173		-68.359375
9174		-72.265625
9175		-66.406250
9176		-70.312500
9177		-66.406250
9178		-70.312500
9179		-64.453125
9180		-68.359375
9181		-64.453125
9182		-68.359375
9183		-64.453125
9184		-66.406250
9185		-62.500000
9186		-64.453125
9187		-62.500000
9188		-64.453125
9189		-60.546875
9190		-62.500000
9191		-60.546875
9192		-62.500000
9193		-58.593750
9194		-60.546875
9195		-56.640625
9196		-62.500000
9197		-52.734375
9198		-58.593750
9199		-54.687500
9200		-56.640625
9201		-52.734375
9202		-56.640625
9203		-50.781250
9204		-54.687500
9205		-50.781250
9206		-52.734375
9207		-48.828125
9208		-52.734375
9209		-46.875000
9210		-50.781250
9211		-46.875000
9212		-48.828125
9213		-42.968750
9214		-46.875000
9215		-42.968750
9216		-44.921875
9217		-41.015625
9218		-44.921875
9219		-39.062500
9220		-41.015625
9221		-39.062500
9222		-41.015625
9223		-37.109375
9224		-41.015625
9225		-35.156250
9226		-37.109375
9227		-33.203125
9228		-37.109375
9229		-31.250000
9230		-35.156250
9231		-29.296875
9232		-31.250000
9233		-29.296875
9234		-29.296875
9235		-25.390625
9236		-29.296875
9237		-25.390625
9238		-27.343750
9239		-23.437500
9240		-25.390625
9241		-19.531250
9242		-23.437500
9243		-19.531250
9244		-21.484375
9245		-17.578125
9246		-21.484375
9247		-15.625000
9248		-19.531250
9249		-13.671875
9250		-17.578125
9251		-11.718750
9252		-15.625000
9253		-9.765625
9254		-13.671875
9255		-9.765625
9256		-11.718750
9257		-7.812500
9258		-9.765625
9259		-5.859375
9260		-7.812500
9261		-3.906250
9262		-7.812500
9263		0.000000
9264		-3.906250
9265		0.000000
9266		-1.953125
9267		1.953125
9268		0.000000
9269		3.906250
9270		0.000000
9271		3.906250
9272		1.953125
9273		5.859375
9274		3.906250
9275		7.812500
9276		5.859375
9277		9.765625
9278		7.812500
9279		11.718750
9280		7.812500
9281		13.671875
9282		11.718750
9283		13.671875
9284		11.718750
9285		15.625000
9286		13.671875
9287		17.578125
9288		15.625000
9289		19.531250
9290		17.578125
9291		21.484375
9292		17.578125
9293		23.437500
9294		19.531250
9295		23.437500
9296		21.484375
9297		27.343750
9298		23.437500
9299		27.343750
9300		23.437500
9301		27.343750
9302		25.390625
9303		31.250000
9304		27.343750
9305		31.250000
9306		29.296875
9307		31.250000
9308		29.296875
9309		35.156250
9310		31.250000
9311		35.156250
9312		31.250000
9313		37.109375
9314		31.250000
9315		39.062500
9316		35.156250
9317		39.062500
9318		37.109375
9319		41.015625
9320		37.109375
9321		41.015625
9322		39.062500
9323		42.968750
9324		41.015625
9325		44.921875
9326		41.015625
9327		44.921875
9328		42.968750
9329		46.875000
9330		41.015625
9331		48.828125
9332		42.968750
9333		46.875000
9334		44.921875
9335		48.828125
9336		44.921875
9337		50.781250
9338		46.875000
9339		48.828125
9340		48.828125
9341		50.781250
9342		48.828125
9343		52.734375
9344		48.828125
9345		52.734375
9346		48.828125
9347		56.640625
9348		50.781250
9349		54.687500
9350		50.781250
9351		54.687500
9352		52.734375
9353		54.687500
9354		52.734375
9355		56.640625
9356		52.734375
9357		56.640625
9358		52.734375
9359		56.640625
9360		54.687500
9361		56.640625
9362		54.687500
9363		56.640625
9364		52.734375
9365		60.546875
9366		54.687500
9367		58.593750
9368		54.687500
9369		58.593750
9370		54.687500
9371		58.593750
9372		56.640625
9373		58.593750
9374		54.687500
9375		60.546875
9376		56.640625
9377		58.593750
9378		56.640625
9379		60.546875
9380		54.687500
9381		62.500000
9382		56.640625
9383		60.546875
9384		56.640625
9385		60.546875
9386		54.687500
9387		60.546875
9388		56.640625
9389		58.593750
9390		56.640625
9391		58.593750
9392		56.640625
9393		58.593750
9394		54.687500
9395		58.593750
9396		54.687500
9397		58.593750
9398		52.734375
9399		60.546875
9400		54.687500
9401		56.640625
9402		54.687500
9403		56.640625
9404		52.734375
9405		58.593750
9406		52.734375
9407		54.687500
9408		50.781250
9409		54.687500
9410		50.781250
9411		54.687500
9412		50.781250
9413		54.687500
9414		48.828125
9415		56.640625
9416		48.828125
9417		52.734375
9418		48.828125
9419		52.734375
9420		46.875000
9421		52.734375
9422		46.875000
9423		48.828125
9424		46.875000
9425		48.828125
9426		44.921875
9427		48.828125
9428		44.921875
9429		48.828125
9430		42.968750
9431		48.828125
9432		41.015625
9433		46.875000
9434		41.015625
9435		44.921875
9436		39.062500
9437		44.921875
9438		39.062500
9439		42.968750
9440		37.109375
9441		41.015625
9442		35.156250
9443		41.015625
9444		35.156250
9445		39.062500
9446		33.203125
9447		37.109375
9448		29.296875
9449		39.062500
9450		31.250000
9451		35.156250
9452		29.296875
9453		33.203125
9454		27.343750
9455		33.203125
9456		27.343750
9457		29.296875
9458		25.390625
9459		29.296875
9460		23.437500
9461		27.343750
9462		23.437500
9463		25.390625
9464		19.531250
9465		23.437500
9466		19.531250
9467		23.437500
9468		17.578125
9469		21.484375
9470		13.671875
9471		19.531250
9472		13.671875
9473		17.578125
9474		13.671875
9475		15.625000
9476		9.765625
9477		13.671875
9478		9.765625
9479		13.671875
9480		5.859375
9481		11.718750
9482		3.906250
9483		11.718750
9484		3.906250
9485		7.812500
9486		1.953125
9487		5.859375
9488		0.000000
9489		5.859375
9490		0.000000
9491		1.953125
9492		-3.906250
9493		0.000000
9494		-5.859375
9495		-1.953125
9496		-5.859375
9497		-1.953125
9498		-11.718750
9499		-3.906250
9500		-11.718750
9501		-5.859375
9502		-11.718750
9503		-7.812500
9504		-13.671875
9505		-9.765625
9506		-15.625000
9507		-11.718750
9508		-17.578125
9509		-13.671875
9510		-19.531250
9511		-13.671875
9512		-21.484375
9513		-17.578125
9514		-23.437500
9515		-17.578125
9516		-25.390625
9517		-19.531250
9518		-27.343750
9519		-21.484375
9520		-29.296875
9521		-23.437500
9522		-31.250000
9523		-25.390625
9524		-31.250000
9525		-29.296875
9526		-33.203125
9527		-29.296875
9528		-35.156250
9529		-31.250000
9530		-37.109375
9531		-33.203125
9532		-41.015625
9533		-33.203125
9534		-41.015625
9535		-37.109375
9536		-41.015625
9537		-39.062500
9538		-44.921875
9539		-39.062500
9540		-44.921875
9541		-41.015625
9542		-46.875000
9543		-42.968750
9544		-48.828125
9545		-44.921875
9546		-48.828125
9547		-46.875000
9548		-52.734375
9549		-46.875000
9550		-52.734375
9551		-48.828125
9552		-54.687500
9553		-50.781250
9554		-56.640625
9555		-52.734375
9556		-56.640625
9557		-52.734375
9558		-58.593750
9559		-54.687500
9560		-60.546875
9561		-54.687500
9562		-60.546875
9563		-56.640625
9564		-62.500000
9565		-58.593750
9566		-64.453125
9567		-56.640625
9568		-64.453125
9569		-60.546875
9570		-66.406250
9571		-62.500000
9572		-66.406250
9573		-62.500000
9574		-66.406250
9575		-64.453125
9576		-68.359375
9577		-64.453125
9578		-68.359375
9579		-64.453125
9580		-70.312500
9581		-66.406250
9582		-72.265625
9583		-66.406250
9584		-72.265625
9585		-68.359375
9586		-72.265625
9587		-70.312500
9588		-74.218750
9589		-70.312500
9590		-74.218750
9591		-70.312500
9592		-74.218750
9593		-72.265625
9594		-76.171875
9595		-70.312500
9596		-76.171875
9597		-72.265625
9598		-76.171875
9599		-72.265625
9600		-78.125000
9601		-70.312500
9602		-76.171875
9603		-72.265625
9604		-76.171875
9605		-74.218750
9606		-78.125000
9607		-72.265625
9608		-76.171875
9609		-74.218750
9610		-78.125000
9611		-74.218750
9612		-78.125000
9613		-74.218750
9614		-78.125000
9615		-74.218750
9616		-80.078125
9617		-74.218750
9618		-78.125000
9619		-74.218750
9620		-78.125000
9621		-74.218750
9622		-78.125000
9623		-74.218750
9624		-76.171875
9625		-74.218750
9626		-76.171875
9627		-74.218750
9628		-78.125000
9629		-74.218750
9630		-76.171875
9631		-72.265625
9632		-78.125000
9633		-70.312500
9634		-76.171875
9635		-72.265625
9636		-76.171875
9637		-72.265625
9638		-76.171875
9639		-70.312500
9640		-74.218750
9641		-70.312500
9642		-72.265625
9643		-70.312500
9644		-74.218750
9645		-68.359375
9646		-72.265625
9647		-68.359375
9648		-72.265625
9649		-68.359375
9650		-72.265625
9651		-64.453125
9652		-70.312500
9653		-66.406250
9654		-68.359375
9655		-64.453125
9656		-70.312500
9657		-62.500000
9658		-66.406250
9659		-64.453125
9660		-66.406250
9661		-60.546875
9662		-64.453125
9663		-60.546875
9664		-64.453125
9665		-60.546875
9666		-64.453125
9667		-56.640625
9668		-62.500000
9669		-56.640625
9670		-60.546875
9671		-54.687500
9672		-60.546875
9673		-52.734375
9674		-56.640625
9675		-54.687500
9676		-56.640625
9677		-52.734375
9678		-54.687500
9679		-50.781250
9680		-54.687500
9681		-50.781250
9682		-52.734375
9683		-48.828125
9684		-54.687500
9685		-44.921875
9686		-50.781250
9687		-44.921875
9688		-48.828125
9689		-42.968750
9690		-46.875000
9691		-42.968750
9692		-44.921875
9693		-41.015625
9694		-42.968750
9695		-39.062500
9696		-41.015625
9697		-37.109375
9698		-41.015625
9699		-35.156250
9700		-41.015625
9701		-33.203125
9702		-37.109375
9703		-33.203125
9704		-37.109375
9705		-29.296875
9706		-35.156250
9707		-27.343750
9708		-31.250000
9709		-29.296875
9710		-29.296875
9711		-27.343750
9712		-29.296875
9713		-25.390625
9714		-27.343750
9715		-23.437500
9716		-25.390625
9717		-19.531250
9718		-23.437500
9719		-19.531250
9720		-23.437500
9721		-15.625000
9722		-19.531250
9723		-13.671875
9724		-17.578125
9725		-13.671875
9726		-15.625000
9727		-11.718750
9728		-15.625000
9729		-9.765625
9730		-13.671875
9731		-7.812500
9732		-11.718750
9733		-7.812500
9734		-11.718750
9735		-3.906250
9736		-7.812500
9737		-3.906250
9738		-7.812500
9739		0.000000
9740		-5.859375
9741		1.953125
9742		-1.953125
9743		1.953125
9744		0.000000
9745		3.906250
9746		0.000000
9747		7.812500
9748		3.906250
9749		5.859375
9750		3.906250
9751		9.765625
9752		5.859375
9753		9.765625
9754		7.812500
9755		11.718750
9756		9.765625
9757		13.671875
9758		11.718750
9759		13.671875
9760		13.671875
9761		15.625000
9762		13.671875
9763		17.578125
9764		15.625000
9765		21.484375
9766		17.578125
9767		21.484375
9768		15.625000
9769		23.437500
9770		19.531250
9771		25.390625
9772		21.484375
9773		25.390625
9774		21.484375
9775		27.343750
9776		25.390625
9777		29.296875
9778		25.390625
9779		31.250000
9780		27.343750
9781		33.203125
9782		29.296875
9783		33.203125
9784		29.296875
9785		35.156250
9786		31.250000
9787		35.156250
9788		31.250000
9789		39.062500
9790		33.203125
9791		39.062500
9792		37.109375
9793		39.062500
9794		37.109375
9795		41.015625
9796		37.109375
9797		42.968750
9798		37.109375
9799		42.968750
9800		39.062500
9801		46.875000
9802		39.062500
9803		44.921875
9804		41.015625
9805		48.828125
9806		42.968750
9807		48.828125
9808		44.921875
9809		46.875000
9810		46.875000
9811		48.828125
9812		46.875000
9813		50.781250
9814		46.875000
9815		52.734375
9816		48.828125
9817		50.781250
9818		46.875000
9819		54.687500
9820		48.828125
9821		52.734375
9822		48.828125
9823		54.687500
9824		50.781250
9825		56.640625
9826		52.734375
9827		54.687500
9828		52.734375
9829		54.687500
9830		52.734375
9831		56.640625
9832		52.734375
9833		56.640625
9834		50.781250
9835		58.593750
9836		54.687500
9837		58.593750
9838		52.734375
9839		58.593750
9840		52.734375
9841		60.546875
9842		56.640625
9843		58.593750
9844		56.640625
9845		58.593750
9846		54.687500
9847		58.593750
9848		54.687500
9849		60.546875
9850		56.640625
9851		58.593750
9852		54.687500
9853		62.500000
9854		54.687500
9855		60.546875
9856		52.734375
9857		62.500000
9858		54.687500
9859		62.500000
9860		56.640625
9861		58.593750
9862		54.687500
9863		60.546875
9864		54.687500
9865		60.546875
9866		54.687500
9867		58.593750
9868		52.734375
9869		60.546875
9870		54.687500
9871		58.593750
9872		52.734375
9873		60.546875
9874		52.734375
9875		60.546875
9876		54.687500
9877		56.640625
9878		54.687500
9879		56.640625
9880		52.734375
9881		56.640625
9882		50.781250
9883		58.593750
9884		48.828125
9885		56.640625
9886		50.781250
9887		56.640625
9888		50.781250
9889		54.687500
9890		48.828125
9891		56.640625
9892		48.828125
9893		54.687500
9894		48.828125
9895		50.781250
9896		48.828125
9897		50.781250
9898		44.921875
9899		52.734375
9900		44.921875
9901		48.828125
9902		42.968750
9903		50.781250
9904		44.921875
9905		46.875000
9906		41.015625
9907		46.875000
9908		41.015625
9909		46.875000
9910		41.015625
9911		42.968750
9912		37.109375
9913		42.968750
9914		37.109375
9915		42.968750
9916		37.109375
9917		41.015625
9918		33.203125
9919		41.015625
9920		35.156250
9921		39.062500
9922		31.250000
9923		39.062500
9924		29.296875
9925		39.062500
9926		31.250000
9927		33.203125
9928		29.296875
9929		33.203125
9930		27.343750
9931		33.203125
9932		25.390625
9933		31.250000
9934		25.390625
9935		29.296875
9936		23.437500
9937		29.296875
9938		21.484375
9939		25.390625
9940		17.578125
9941		27.343750
9942		17.578125
9943		25.390625
9944		17.578125
9945		21.484375
9946		15.625000
9947		19.531250
9948		11.718750
9949		19.531250
9950		11.718750
9951		15.625000
9952		9.765625
9953		15.625000
9954		7.812500
9955		15.625000
9956		5.859375
9957		11.718750
9958		3.906250
9959		11.718750
9960		3.906250
9961		7.812500
9962		1.953125
9963		5.859375
9964		0.000000
9965		3.906250
9966		-1.953125
9967		3.906250
9968		-5.859375
9969		1.953125
9970		-5.859375
9971		0.000000
9972		-9.765625
9973		-1.953125
9974		-9.765625
9975		-1.953125
9976		-9.765625
9977		-5.859375
9978		-11.718750
9979		-9.765625
9980		-15.625000
9981		-9.765625
9982		-15.625000
9983		-11.718750
9984		-17.578125
9985		-13.671875
9986		-21.484375
9987		-13.671875
9988		-21.484375
9989		-15.625000
9990		-25.390625
9991		-17.578125
9992		-27.343750
9993		-19.531250
9994		-27.343750
9995		-23.437500
9996		-29.296875
9997		-25.390625
9998		-31.250000
9999		-25.390625
10000		-33.203125
