Channel              :		CH1
Frequency            :		1.049kHz
Period               :		0.953ms
PK-PK                :		195.3mV
Probe attenuation    :		1X
Voltage per ADC value:		0.122070mV
Time interval        :		2.00000us

index		CH1_Voltage(mV)
1		-23.437500
2		-23.437500
3		-35.156250
4		-25.390625
5		-37.109375
6		-27.343750
7		-39.062500
8		-29.296875
9		-41.015625
10		-33.203125
11		-42.968750
12		-35.156250
13		-42.968750
14		-39.062500
15		-44.921875
16		-41.015625
17		-50.781250
18		-42.968750
19		-52.734375
20		-44.921875
21		-54.687500
22		-44.921875
23		-56.640625
24		-48.828125
25		-58.593750
26		-50.781250
27		-62.500000
28		-52.734375
29		-60.546875
30		-56.640625
31		-62.500000
32		-58.593750
33		-68.359375
34		-60.546875
35		-70.312500
36		-60.546875
37		-70.312500
38		-62.500000
39		-72.265625
40		-64.453125
41		-76.171875
42		-66.406250
43		-78.125000
44		-70.312500
45		-78.125000
46		-70.312500
47		-78.125000
48		-74.218750
49		-80.078125
50		-76.171875
51		-83.984375
52		-76.171875
53		-85.937500
54		-78.125000
55		-87.890625
56		-80.078125
57		-87.890625
58		-80.078125
59		-89.843750
60		-82.031250
61		-91.796875
62		-83.984375
63		-89.843750
64		-85.937500
65		-91.796875
66		-87.890625
67		-95.703125
68		-87.890625
69		-97.656250
70		-87.890625
71		-97.656250
72		-89.843750
73		-97.656250
74		-89.843750
75		-99.609375
76		-91.796875
77		-101.562500
78		-91.796875
79		-101.562500
80		-93.750000
81		-99.609375
82		-95.703125
83		-99.609375
84		-95.703125
85		-103.515625
86		-95.703125
87		-103.515625
88		-95.703125
89		-105.468750
90		-95.703125
91		-103.515625
92		-97.656250
93		-105.468750
94		-97.656250
95		-105.468750
96		-97.656250
97		-103.515625
98		-99.609375
99		-101.562500
100		-99.609375
101		-105.468750
102		-97.656250
103		-105.468750
104		-97.656250
105		-105.468750
106		-97.656250
107		-105.468750
108		-97.656250
109		-105.468750
110		-97.656250
111		-105.468750
112		-95.703125
113		-103.515625
114		-97.656250
115		-101.562500
116		-99.609375
117		-103.515625
118		-95.703125
119		-103.515625
120		-95.703125
121		-103.515625
122		-93.750000
123		-101.562500
124		-93.750000
125		-101.562500
126		-93.750000
127		-99.609375
128		-91.796875
129		-99.609375
130		-91.796875
131		-95.703125
132		-93.750000
133		-95.703125
134		-91.796875
135		-95.703125
136		-87.890625
137		-95.703125
138		-87.890625
139		-93.750000
140		-85.937500
141		-93.750000
142		-85.937500
143		-91.796875
144		-83.984375
145		-89.843750
146		-82.031250
147		-87.890625
148		-83.984375
149		-83.984375
150		-82.031250
151		-85.937500
152		-78.125000
153		-83.984375
154		-76.171875
155		-83.984375
156		-74.218750
157		-82.031250
158		-72.265625
159		-80.078125
160		-70.312500
161		-78.125000
162		-70.312500
163		-76.171875
164		-68.359375
165		-70.312500
166		-68.359375
167		-70.312500
168		-64.453125
169		-70.312500
170		-62.500000
171		-68.359375
172		-58.593750
173		-66.406250
174		-58.593750
175		-64.453125
176		-54.687500
177		-62.500000
178		-54.687500
179		-60.546875
180		-52.734375
181		-54.687500
182		-50.781250
183		-52.734375
184		-48.828125
185		-52.734375
186		-44.921875
187		-50.781250
188		-42.968750
189		-48.828125
190		-41.015625
191		-46.875000
192		-37.109375
193		-44.921875
194		-35.156250
195		-41.015625
196		-33.203125
197		-39.062500
198		-33.203125
199		-35.156250
200		-31.250000
201		-33.203125
202		-27.343750
203		-33.203125
204		-23.437500
205		-31.250000
206		-19.531250
207		-27.343750
208		-19.531250
209		-25.390625
210		-15.625000
211		-23.437500
212		-13.671875
213		-19.531250
214		-11.718750
215		-15.625000
216		-11.718750
217		-13.671875
218		-9.765625
219		-13.671875
220		-3.906250
221		-11.718750
222		-1.953125
223		-7.812500
224		0.000000
225		-5.859375
226		1.953125
227		-3.906250
228		3.906250
229		-1.953125
230		7.812500
231		1.953125
232		7.812500
233		5.859375
234		9.765625
235		5.859375
236		15.625000
237		7.812500
238		15.625000
239		9.765625
240		17.578125
241		11.718750
242		21.484375
243		13.671875
244		23.437500
245		15.625000
246		25.390625
247		19.531250
248		25.390625
249		23.437500
250		27.343750
251		25.390625
252		33.203125
253		25.390625
254		33.203125
255		27.343750
256		35.156250
257		29.296875
258		37.109375
259		31.250000
260		39.062500
261		33.203125
262		41.015625
263		35.156250
264		42.968750
265		37.109375
266		42.968750
267		41.015625
268		44.921875
269		41.015625
270		48.828125
271		41.015625
272		50.781250
273		44.921875
274		52.734375
275		44.921875
276		54.687500
277		46.875000
278		54.687500
279		48.828125
280		56.640625
281		50.781250
282		56.640625
283		54.687500
284		58.593750
285		54.687500
286		60.546875
287		54.687500
288		64.453125
289		56.640625
290		64.453125
291		58.593750
292		66.406250
293		58.593750
294		66.406250
295		60.546875
296		68.359375
297		62.500000
298		68.359375
299		64.453125
300		68.359375
301		66.406250
302		70.312500
303		64.453125
304		72.265625
305		66.406250
306		74.218750
307		66.406250
308		74.218750
309		68.359375
310		76.171875
311		68.359375
312		76.171875
313		68.359375
314		78.125000
315		70.312500
316		76.171875
317		74.218750
318		76.171875
319		72.265625
320		80.078125
321		72.265625
322		80.078125
323		72.265625
324		80.078125
325		74.218750
326		82.031250
327		74.218750
328		80.078125
329		74.218750
330		82.031250
331		74.218750
332		82.031250
333		76.171875
334		80.078125
335		74.218750
336		83.984375
337		74.218750
338		82.031250
339		74.218750
340		82.031250
341		76.171875
342		83.984375
343		76.171875
344		82.031250
345		74.218750
346		83.984375
347		76.171875
348		82.031250
349		76.171875
350		82.031250
351		78.125000
352		80.078125
353		74.218750
354		82.031250
355		74.218750
356		82.031250
357		74.218750
358		82.031250
359		72.265625
360		82.031250
361		72.265625
362		80.078125
363		72.265625
364		80.078125
365		72.265625
366		78.125000
367		74.218750
368		76.171875
369		70.312500
370		78.125000
371		68.359375
372		78.125000
373		68.359375
374		76.171875
375		66.406250
376		76.171875
377		66.406250
378		74.218750
379		64.453125
380		74.218750
381		66.406250
382		72.265625
383		66.406250
384		70.312500
385		64.453125
386		68.359375
387		60.546875
388		70.312500
389		60.546875
390		68.359375
391		58.593750
392		66.406250
393		56.640625
394		66.406250
395		56.640625
396		64.453125
397		54.687500
398		62.500000
399		54.687500
400		60.546875
401		54.687500
402		56.640625
403		50.781250
404		56.640625
405		46.875000
406		56.640625
407		46.875000
408		54.687500
409		44.921875
410		52.734375
411		42.968750
412		50.781250
413		41.015625
414		48.828125
415		39.062500
416		48.828125
417		41.015625
418		42.968750
419		37.109375
420		41.015625
421		33.203125
422		41.015625
423		31.250000
424		39.062500
425		29.296875
426		39.062500
427		27.343750
428		37.109375
429		25.390625
430		33.203125
431		23.437500
432		31.250000
433		23.437500
434		27.343750
435		21.484375
436		25.390625
437		15.625000
438		23.437500
439		13.671875
440		23.437500
441		11.718750
442		21.484375
443		9.765625
444		17.578125
445		7.812500
446		15.625000
447		3.906250
448		13.671875
449		3.906250
450		11.718750
451		1.953125
452		5.859375
453		0.000000
454		5.859375
455		-5.859375
456		3.906250
457		-7.812500
458		1.953125
459		-9.765625
460		0.000000
461		-11.718750
462		-3.906250
463		-13.671875
464		-5.859375
465		-15.625000
466		-7.812500
467		-17.578125
468		-13.671875
469		-19.531250
470		-15.625000
471		-23.437500
472		-13.671875
473		-25.390625
474		-17.578125
475		-29.296875
476		-19.531250
477		-31.250000
478		-23.437500
479		-33.203125
480		-25.390625
481		-37.109375
482		-27.343750
483		-37.109375
484		-31.250000
485		-39.062500
486		-35.156250
487		-42.968750
488		-37.109375
489		-44.921875
490		-37.109375
491		-48.828125
492		-39.062500
493		-50.781250
494		-41.015625
495		-52.734375
496		-42.968750
497		-54.687500
498		-44.921875
499		-54.687500
500		-46.875000
501		-56.640625
502		-52.734375
503		-58.593750
504		-54.687500
505		-62.500000
506		-54.687500
507		-66.406250
508		-56.640625
509		-66.406250
510		-58.593750
511		-70.312500
512		-60.546875
513		-72.265625
514		-62.500000
515		-72.265625
516		-64.453125
517		-72.265625
518		-68.359375
519		-74.218750
520		-70.312500
521		-78.125000
522		-70.312500
523		-80.078125
524		-72.265625
525		-82.031250
526		-74.218750
527		-83.984375
528		-76.171875
529		-85.937500
530		-78.125000
531		-87.890625
532		-78.125000
533		-85.937500
534		-80.078125
535		-87.890625
536		-83.984375
537		-91.796875
538		-83.984375
539		-91.796875
540		-83.984375
541		-93.750000
542		-85.937500
543		-95.703125
544		-87.890625
545		-95.703125
546		-87.890625
547		-97.656250
548		-89.843750
549		-97.656250
550		-89.843750
551		-95.703125
552		-93.750000
553		-97.656250
554		-93.750000
555		-101.562500
556		-93.750000
557		-101.562500
558		-93.750000
559		-101.562500
560		-93.750000
561		-103.515625
562		-95.703125
563		-103.515625
564		-95.703125
565		-103.515625
566		-95.703125
567		-101.562500
568		-99.609375
569		-101.562500
570		-99.609375
571		-105.468750
572		-97.656250
573		-105.468750
574		-97.656250
575		-105.468750
576		-97.656250
577		-105.468750
578		-97.656250
579		-105.468750
580		-97.656250
581		-105.468750
582		-97.656250
583		-105.468750
584		-97.656250
585		-101.562500
586		-99.609375
587		-101.562500
588		-99.609375
589		-105.468750
590		-95.703125
591		-103.515625
592		-95.703125
593		-103.515625
594		-95.703125
595		-103.515625
596		-95.703125
597		-101.562500
598		-93.750000
599		-101.562500
600		-93.750000
601		-99.609375
602		-95.703125
603		-97.656250
604		-95.703125
605		-99.609375
606		-91.796875
607		-97.656250
608		-89.843750
609		-97.656250
610		-89.843750
611		-97.656250
612		-87.890625
613		-95.703125
614		-87.890625
615		-93.750000
616		-85.937500
617		-93.750000
618		-85.937500
619		-87.890625
620		-85.937500
621		-87.890625
622		-82.031250
623		-89.843750
624		-80.078125
625		-87.890625
626		-78.125000
627		-85.937500
628		-78.125000
629		-83.984375
630		-76.171875
631		-82.031250
632		-74.218750
633		-80.078125
634		-72.265625
635		-76.171875
636		-74.218750
637		-74.218750
638		-72.265625
639		-76.171875
640		-66.406250
641		-74.218750
642		-64.453125
643		-72.265625
644		-62.500000
645		-70.312500
646		-62.500000
647		-68.359375
648		-60.546875
649		-66.406250
650		-56.640625
651		-64.453125
652		-58.593750
653		-60.546875
654		-54.687500
655		-58.593750
656		-50.781250
657		-58.593750
658		-48.828125
659		-54.687500
660		-46.875000
661		-54.687500
662		-44.921875
663		-50.781250
664		-42.968750
665		-48.828125
666		-41.015625
667		-46.875000
668		-39.062500
669		-41.015625
670		-37.109375
671		-39.062500
672		-35.156250
673		-39.062500
674		-31.250000
675		-39.062500
676		-27.343750
677		-35.156250
678		-25.390625
679		-33.203125
680		-23.437500
681		-31.250000
682		-21.484375
683		-27.343750
684		-19.531250
685		-25.390625
686		-19.531250
687		-19.531250
688		-15.625000
689		-19.531250
690		-11.718750
691		-17.578125
692		-9.765625
693		-15.625000
694		-7.812500
695		-13.671875
696		-3.906250
697		-11.718750
698		-1.953125
699		-7.812500
700		0.000000
701		-5.859375
702		1.953125
703		-1.953125
704		1.953125
705		1.953125
706		5.859375
707		0.000000
708		9.765625
709		3.906250
710		11.718750
711		5.859375
712		13.671875
713		7.812500
714		15.625000
715		9.765625
716		19.531250
717		11.718750
718		19.531250
719		15.625000
720		21.484375
721		19.531250
722		23.437500
723		19.531250
724		27.343750
725		19.531250
726		29.296875
727		23.437500
728		31.250000
729		25.390625
730		33.203125
731		27.343750
732		35.156250
733		29.296875
734		37.109375
735		33.203125
736		37.109375
737		35.156250
738		39.062500
739		37.109375
740		42.968750
741		37.109375
742		44.921875
743		39.062500
744		48.828125
745		41.015625
746		48.828125
747		41.015625
748		50.781250
749		44.921875
750		52.734375
751		44.921875
752		52.734375
753		48.828125
754		54.687500
755		50.781250
756		54.687500
757		50.781250
758		58.593750
759		50.781250
760		60.546875
761		54.687500
762		62.500000
763		54.687500
764		62.500000
765		56.640625
766		64.453125
767		58.593750
768		66.406250
769		60.546875
770		64.453125
771		62.500000
772		66.406250
773		62.500000
774		68.359375
775		62.500000
776		70.312500
777		62.500000
778		72.265625
779		64.453125
780		72.265625
781		66.406250
782		74.218750
783		66.406250
784		74.218750
785		68.359375
786		74.218750
787		72.265625
788		74.218750
789		72.265625
790		76.171875
791		70.312500
792		78.125000
793		70.312500
794		78.125000
795		72.265625
796		80.078125
797		72.265625
798		80.078125
799		72.265625
800		80.078125
801		72.265625
802		82.031250
803		76.171875
804		78.125000
805		76.171875
806		80.078125
807		74.218750
808		82.031250
809		74.218750
810		82.031250
811		74.218750
812		82.031250
813		74.218750
814		82.031250
815		76.171875
816		83.984375
817		76.171875
818		83.984375
819		76.171875
820		82.031250
821		78.125000
822		80.078125
823		76.171875
824		82.031250
825		74.218750
826		82.031250
827		74.218750
828		82.031250
829		74.218750
830		82.031250
831		74.218750
832		82.031250
833		74.218750
834		82.031250
835		74.218750
836		80.078125
837		76.171875
838		78.125000
839		74.218750
840		78.125000
841		72.265625
842		80.078125
843		70.312500
844		78.125000
845		70.312500
846		78.125000
847		70.312500
848		78.125000
849		68.359375
850		76.171875
851		68.359375
852		76.171875
853		68.359375
854		74.218750
855		68.359375
856		72.265625
857		64.453125
858		72.265625
859		64.453125
860		72.265625
861		62.500000
862		70.312500
863		62.500000
864		70.312500
865		60.546875
866		68.359375
867		58.593750
868		68.359375
869		58.593750
870		66.406250
871		58.593750
872		62.500000
873		56.640625
874		60.546875
875		52.734375
876		60.546875
877		50.781250
878		58.593750
879		50.781250
880		58.593750
881		48.828125
882		56.640625
883		46.875000
884		54.687500
885		44.921875
886		52.734375
887		46.875000
888		48.828125
889		44.921875
890		46.875000
891		41.015625
892		46.875000
893		39.062500
894		44.921875
895		35.156250
896		44.921875
897		33.203125
898		42.968750
899		33.203125
900		41.015625
901		29.296875
902		39.062500
903		29.296875
904		37.109375
905		27.343750
906		33.203125
907		23.437500
908		31.250000
909		21.484375
910		29.296875
911		19.531250
912		27.343750
913		15.625000
914		25.390625
915		13.671875
916		23.437500
917		13.671875
918		21.484375
919		9.765625
920		17.578125
921		9.765625
922		15.625000
923		7.812500
924		11.718750
925		1.953125
926		11.718750
927		0.000000
928		9.765625
929		-1.953125
930		5.859375
931		-5.859375
932		3.906250
933		-5.859375
934		1.953125
935		-7.812500
936		0.000000
937		-9.765625
938		-3.906250
939		-11.718750
940		-7.812500
941		-15.625000
942		-9.765625
943		-19.531250
944		-9.765625
945		-21.484375
946		-11.718750
947		-23.437500
948		-13.671875
949		-25.390625
950		-17.578125
951		-29.296875
952		-19.531250
953		-29.296875
954		-23.437500
955		-31.250000
956		-27.343750
957		-35.156250
958		-29.296875
959		-37.109375
960		-29.296875
961		-41.015625
962		-31.250000
963		-42.968750
964		-35.156250
965		-44.921875
966		-37.109375
967		-48.828125
968		-39.062500
969		-50.781250
970		-41.015625
971		-48.828125
972		-44.921875
973		-52.734375
974		-48.828125
975		-56.640625
976		-48.828125
977		-58.593750
978		-48.828125
979		-60.546875
980		-52.734375
981		-62.500000
982		-54.687500
983		-64.453125
984		-56.640625
985		-68.359375
986		-58.593750
987		-68.359375
988		-60.546875
989		-68.359375
990		-64.453125
991		-72.265625
992		-66.406250
993		-74.218750
994		-66.406250
995		-76.171875
996		-68.359375
997		-78.125000
998		-70.312500
999		-80.078125
1000		-72.265625
1001		-82.031250
1002		-74.218750
1003		-82.031250
1004		-74.218750
1005		-82.031250
1006		-80.078125
1007		-83.984375
1008		-80.078125
1009		-87.890625
1010		-80.078125
1011		-89.843750
1012		-82.031250
1013		-91.796875
1014		-82.031250
1015		-91.796875
1016		-83.984375
1017		-93.750000
1018		-85.937500
1019		-95.703125
1020		-85.937500
1021		-95.703125
1022		-87.890625
1023		-93.750000
1024		-91.796875
1025		-97.656250
1026		-89.843750
1027		-99.609375
1028		-89.843750
1029		-99.609375
1030		-91.796875
1031		-101.562500
1032		-91.796875
1033		-101.562500
1034		-93.750000
1035		-101.562500
1036		-93.750000
1037		-103.515625
1038		-95.703125
1039		-99.609375
1040		-97.656250
1041		-103.515625
1042		-97.656250
1043		-105.468750
1044		-95.703125
1045		-105.468750
1046		-95.703125
1047		-105.468750
1048		-97.656250
1049		-105.468750
1050		-95.703125
1051		-105.468750
1052		-97.656250
1053		-105.468750
1054		-97.656250
1055		-101.562500
1056		-99.609375
1057		-103.515625
1058		-99.609375
1059		-105.468750
1060		-97.656250
1061		-105.468750
1062		-97.656250
1063		-105.468750
1064		-97.656250
1065		-105.468750
1066		-95.703125
1067		-103.515625
1068		-95.703125
1069		-103.515625
1070		-95.703125
1071		-101.562500
1072		-95.703125
1073		-99.609375
1074		-97.656250
1075		-99.609375
1076		-95.703125
1077		-101.562500
1078		-93.750000
1079		-101.562500
1080		-91.796875
1081		-99.609375
1082		-91.796875
1083		-97.656250
1084		-91.796875
1085		-97.656250
1086		-89.843750
1087		-95.703125
1088		-89.843750
1089		-93.750000
1090		-89.843750
1091		-91.796875
1092		-89.843750
1093		-93.750000
1094		-83.984375
1095		-91.796875
1096		-83.984375
1097		-89.843750
1098		-82.031250
1099		-89.843750
1100		-80.078125
1101		-87.890625
1102		-80.078125
1103		-85.937500
1104		-78.125000
1105		-83.984375
1106		-78.125000
1107		-80.078125
1108		-78.125000
1109		-80.078125
1110		-72.265625
1111		-80.078125
1112		-70.312500
1113		-78.125000
1114		-70.312500
1115		-76.171875
1116		-68.359375
1117		-74.218750
1118		-66.406250
1119		-72.265625
1120		-64.453125
1121		-70.312500
1122		-62.500000
1123		-66.406250
1124		-62.500000
1125		-64.453125
1126		-60.546875
1127		-64.453125
1128		-54.687500
1129		-62.500000
1130		-54.687500
1131		-60.546875
1132		-52.734375
1133		-58.593750
1134		-48.828125
1135		-56.640625
1136		-46.875000
1137		-54.687500
1138		-44.921875
1139		-48.828125
1140		-44.921875
1141		-46.875000
1142		-42.968750
1143		-44.921875
1144		-39.062500
1145		-44.921875
1146		-35.156250
1147		-41.015625
1148		-33.203125
1149		-41.015625
1150		-31.250000
1151		-37.109375
1152		-29.296875
1153		-35.156250
1154		-25.390625
1155		-33.203125
1156		-25.390625
1157		-27.343750
1158		-23.437500
1159		-25.390625
1160		-21.484375
1161		-27.343750
1162		-17.578125
1163		-23.437500
1164		-13.671875
1165		-21.484375
1166		-13.671875
1167		-17.578125
1168		-9.765625
1169		-17.578125
1170		-7.812500
1171		-13.671875
1172		-5.859375
1173		-9.765625
1174		-3.906250
1175		-5.859375
1176		-1.953125
1177		-5.859375
1178		1.953125
1179		-3.906250
1180		3.906250
1181		-1.953125
1182		5.859375
1183		0.000000
1184		9.765625
1185		1.953125
1186		11.718750
1187		3.906250
1188		13.671875
1189		5.859375
1190		13.671875
1191		11.718750
1192		15.625000
1193		13.671875
1194		21.484375
1195		13.671875
1196		21.484375
1197		15.625000
1198		23.437500
1199		17.578125
1200		27.343750
1201		21.484375
1202		29.296875
1203		21.484375
1204		31.250000
1205		23.437500
1206		33.203125
1207		29.296875
1208		33.203125
1209		31.250000
1210		35.156250
1211		31.250000
1212		39.062500
1213		33.203125
1214		41.015625
1215		33.203125
1216		42.968750
1217		37.109375
1218		44.921875
1219		39.062500
1220		46.875000
1221		39.062500
1222		48.828125
1223		42.968750
1224		48.828125
1225		46.875000
1226		48.828125
1227		46.875000
1228		52.734375
1229		46.875000
1230		56.640625
1231		48.828125
1232		56.640625
1233		50.781250
1234		58.593750
1235		50.781250
1236		60.546875
1237		52.734375
1238		60.546875
1239		54.687500
1240		62.500000
1241		58.593750
1242		62.500000
1243		60.546875
1244		64.453125
1245		58.593750
1246		66.406250
1247		60.546875
1248		68.359375
1249		60.546875
1250		70.312500
1251		62.500000
1252		70.312500
1253		62.500000
1254		72.265625
1255		64.453125
1256		72.265625
1257		68.359375
1258		72.265625
1259		70.312500
1260		72.265625
1261		66.406250
1262		76.171875
1263		68.359375
1264		76.171875
1265		68.359375
1266		78.125000
1267		70.312500
1268		78.125000
1269		70.312500
1270		78.125000
1271		70.312500
1272		78.125000
1273		74.218750
1274		80.078125
1275		76.171875
1276		78.125000
1277		74.218750
1278		80.078125
1279		72.265625
1280		82.031250
1281		74.218750
1282		82.031250
1283		74.218750
1284		82.031250
1285		74.218750
1286		82.031250
1287		74.218750
1288		82.031250
1289		74.218750
1290		82.031250
1291		78.125000
1292		80.078125
1293		76.171875
1294		80.078125
1295		74.218750
1296		82.031250
1297		74.218750
1298		82.031250
1299		74.218750
1300		82.031250
1301		74.218750
1302		82.031250
1303		74.218750
1304		82.031250
1305		74.218750
1306		82.031250
1307		74.218750
1308		82.031250
1309		76.171875
1310		78.125000
1311		72.265625
1312		80.078125
1313		72.265625
1314		80.078125
1315		72.265625
1316		80.078125
1317		72.265625
1318		80.078125
1319		70.312500
1320		78.125000
1321		70.312500
1322		78.125000
1323		70.312500
1324		78.125000
1325		70.312500
1326		74.218750
1327		68.359375
1328		74.218750
1329		66.406250
1330		74.218750
1331		66.406250
1332		74.218750
1333		64.453125
1334		72.265625
1335		62.500000
1336		72.265625
1337		62.500000
1338		70.312500
1339		62.500000
1340		70.312500
1341		62.500000
1342		66.406250
1343		60.546875
1344		64.453125
1345		56.640625
1346		64.453125
1347		56.640625
1348		64.453125
1349		54.687500
1350		62.500000
1351		52.734375
1352		60.546875
1353		52.734375
1354		60.546875
1355		48.828125
1356		58.593750
1357		48.828125
1358		56.640625
1359		48.828125
1360		52.734375
1361		44.921875
1362		52.734375
1363		42.968750
1364		52.734375
1365		41.015625
1366		50.781250
1367		39.062500
1368		46.875000
1369		37.109375
1370		46.875000
1371		35.156250
1372		42.968750
1373		35.156250
1374		42.968750
1375		33.203125
1376		37.109375
1377		29.296875
1378		35.156250
1379		27.343750
1380		35.156250
1381		25.390625
1382		33.203125
1383		23.437500
1384		33.203125
1385		21.484375
1386		29.296875
1387		19.531250
1388		27.343750
1389		15.625000
1390		25.390625
1391		15.625000
1392		23.437500
1393		13.671875
1394		17.578125
1395		9.765625
1396		17.578125
1397		7.812500
1398		15.625000
1399		5.859375
1400		13.671875
1401		3.906250
1402		11.718750
1403		0.000000
1404		9.765625
1405		-3.906250
1406		5.859375
1407		-3.906250
1408		3.906250
1409		-3.906250
1410		0.000000
1411		-9.765625
1412		-1.953125
1413		-11.718750
1414		-3.906250
1415		-13.671875
1416		-5.859375
1417		-15.625000
1418		-7.812500
1419		-19.531250
1420		-9.765625
1421		-21.484375
1422		-13.671875
1423		-23.437500
1424		-15.625000
1425		-23.437500
1426		-19.531250
1427		-27.343750
1428		-21.484375
1429		-31.250000
1430		-23.437500
1431		-33.203125
1432		-23.437500
1433		-35.156250
1434		-27.343750
1435		-39.062500
1436		-29.296875
1437		-41.015625
1438		-31.250000
1439		-42.968750
1440		-35.156250
1441		-44.921875
1442		-37.109375
1443		-44.921875
1444		-41.015625
1445		-50.781250
1446		-42.968750
1447		-52.734375
1448		-42.968750
1449		-54.687500
1450		-44.921875
1451		-56.640625
1452		-48.828125
1453		-58.593750
1454		-50.781250
1455		-62.500000
1456		-52.734375
1457		-64.453125
1458		-54.687500
1459		-62.500000
1460		-58.593750
1461		-66.406250
1462		-60.546875
1463		-68.359375
1464		-62.500000
1465		-72.265625
1466		-62.500000
1467		-74.218750
1468		-64.453125
1469		-76.171875
1470		-66.406250
1471		-76.171875
1472		-68.359375
1473		-78.125000
1474		-70.312500
1475		-80.078125
1476		-72.265625
1477		-80.078125
1478		-76.171875
1479		-83.984375
1480		-76.171875
1481		-85.937500
1482		-78.125000
1483		-87.890625
1484		-78.125000
1485		-89.843750
1486		-80.078125
1487		-89.843750
1488		-82.031250
1489		-91.796875
1490		-83.984375
1491		-91.796875
1492		-85.937500
1493		-91.796875
1494		-87.890625
1495		-93.750000
1496		-89.843750
1497		-95.703125
1498		-87.890625
1499		-97.656250
1500		-89.843750
1501		-99.609375
1502		-89.843750
1503		-99.609375
1504		-91.796875
1505		-101.562500
1506		-91.796875
1507		-101.562500
1508		-93.750000
1509		-99.609375
1510		-97.656250
1511		-99.609375
1512		-97.656250
1513		-103.515625
1514		-95.703125
1515		-103.515625
1516		-95.703125
1517		-103.515625
1518		-97.656250
1519		-105.468750
1520		-97.656250
1521		-105.468750
1522		-97.656250
1523		-105.468750
1524		-97.656250
1525		-105.468750
1526		-97.656250
1527		-103.515625
1528		-101.562500
1529		-105.468750
1530		-99.609375
1531		-107.421875
1532		-97.656250
1533		-107.421875
1534		-97.656250
1535		-105.468750
1536		-97.656250
1537		-105.468750
1538		-97.656250
1539		-105.468750
1540		-97.656250
1541		-105.468750
1542		-97.656250
1543		-101.562500
1544		-99.609375
1545		-101.562500
1546		-99.609375
1547		-103.515625
1548		-95.703125
1549		-103.515625
1550		-95.703125
1551		-103.515625
1552		-95.703125
1553		-101.562500
1554		-93.750000
1555		-101.562500
1556		-93.750000
1557		-99.609375
1558		-93.750000
1559		-99.609375
1560		-91.796875
1561		-95.703125
1562		-93.750000
1563		-97.656250
1564		-89.843750
1565		-95.703125
1566		-87.890625
1567		-95.703125
1568		-87.890625
1569		-95.703125
1570		-85.937500
1571		-93.750000
1572		-85.937500
1573		-91.796875
1574		-82.031250
1575		-89.843750
1576		-82.031250
1577		-85.937500
1578		-83.984375
1579		-85.937500
1580		-80.078125
1581		-85.937500
1582		-78.125000
1583		-83.984375
1584		-76.171875
1585		-83.984375
1586		-74.218750
1587		-82.031250
1588		-72.265625
1589		-78.125000
1590		-70.312500
1591		-78.125000
1592		-68.359375
1593		-72.265625
1594		-68.359375
1595		-70.312500
1596		-68.359375
1597		-70.312500
1598		-62.500000
1599		-70.312500
1600		-62.500000
1601		-68.359375
1602		-58.593750
1603		-66.406250
1604		-56.640625
1605		-64.453125
1606		-54.687500
1607		-62.500000
1608		-52.734375
1609		-58.593750
1610		-52.734375
1611		-54.687500
1612		-50.781250
1613		-52.734375
1614		-46.875000
1615		-50.781250
1616		-44.921875
1617		-48.828125
1618		-42.968750
1619		-46.875000
1620		-41.015625
1621		-44.921875
1622		-37.109375
1623		-42.968750
1624		-35.156250
1625		-41.015625
1626		-33.203125
1627		-35.156250
1628		-33.203125
1629		-33.203125
1630		-29.296875
1631		-33.203125
1632		-25.390625
1633		-31.250000
1634		-23.437500
1635		-29.296875
1636		-19.531250
1637		-25.390625
1638		-17.578125
1639		-23.437500
1640		-15.625000
1641		-21.484375
1642		-13.671875
1643		-19.531250
1644		-11.718750
1645		-15.625000
1646		-11.718750
1647		-13.671875
1648		-5.859375
1649		-11.718750
1650		-3.906250
1651		-9.765625
1652		-1.953125
1653		-7.812500
1654		1.953125
1655		-5.859375
1656		3.906250
1657		-3.906250
1658		5.859375
1659		0.000000
1660		7.812500
1661		3.906250
1662		7.812500
1663		5.859375
1664		11.718750
1665		5.859375
1666		15.625000
1667		7.812500
1668		17.578125
1669		9.765625
1670		19.531250
1671		11.718750
1672		21.484375
1673		15.625000
1674		23.437500
1675		17.578125
1676		27.343750
1677		21.484375
1678		25.390625
1679		23.437500
1680		27.343750
1681		25.390625
1682		33.203125
1683		25.390625
1684		35.156250
1685		27.343750
1686		37.109375
1687		29.296875
1688		37.109375
1689		33.203125
1690		41.015625
1691		33.203125
1692		42.968750
1693		35.156250
1694		42.968750
1695		41.015625
1696		44.921875
1697		41.015625
1698		46.875000
1699		41.015625
1700		48.828125
1701		42.968750
1702		50.781250
1703		44.921875
1704		52.734375
1705		44.921875
1706		54.687500
1707		46.875000
1708		56.640625
1709		48.828125
1710		56.640625
1711		52.734375
1712		56.640625
1713		54.687500
1714		58.593750
1715		54.687500
1716		62.500000
1717		54.687500
1718		62.500000
1719		56.640625
1720		64.453125
1721		58.593750
1722		66.406250
1723		60.546875
1724		66.406250
1725		60.546875
1726		68.359375
1727		62.500000
1728		68.359375
1729		66.406250
1730		68.359375
1731		64.453125
1732		72.265625
1733		66.406250
1734		72.265625
1735		66.406250
1736		74.218750
1737		66.406250
1738		76.171875
1739		68.359375
1740		76.171875
1741		68.359375
1742		76.171875
1743		68.359375
1744		78.125000
1745		72.265625
1746		76.171875
1747		74.218750
1748		76.171875
1749		70.312500
1750		80.078125
1751		72.265625
1752		80.078125
1753		72.265625
1754		80.078125
1755		72.265625
1756		80.078125
1757		74.218750
1758		80.078125
1759		74.218750
1760		82.031250
1761		76.171875
1762		80.078125
1763		78.125000
1764		80.078125
1765		74.218750
1766		82.031250
1767		74.218750
1768		82.031250
1769		74.218750
1770		82.031250
1771		74.218750
1772		83.984375
1773		74.218750
1774		82.031250
1775		74.218750
1776		82.031250
1777		74.218750
1778		82.031250
1779		76.171875
1780		80.078125
1781		74.218750
1782		82.031250
1783		74.218750
1784		82.031250
1785		72.265625
1786		82.031250
1787		72.265625
1788		82.031250
1789		72.265625
1790		80.078125
1791		72.265625
1792		80.078125
1793		72.265625
1794		80.078125
1795		74.218750
1796		76.171875
1797		74.218750
1798		76.171875
1799		68.359375
1800		78.125000
1801		68.359375
1802		76.171875
1803		68.359375
1804		76.171875
1805		66.406250
1806		76.171875
1807		66.406250
1808		74.218750
1809		64.453125
1810		72.265625
1811		64.453125
1812		72.265625
1813		66.406250
1814		68.359375
1815		62.500000
1816		68.359375
1817		60.546875
1818		68.359375
1819		58.593750
1820		66.406250
1821		58.593750
1822		66.406250
1823		56.640625
1824		64.453125
1825		54.687500
1826		64.453125
1827		54.687500
1828		62.500000
1829		54.687500
1830		58.593750
1831		52.734375
1832		56.640625
1833		48.828125
1834		56.640625
1835		46.875000
1836		54.687500
1837		44.921875
1838		52.734375
1839		44.921875
1840		52.734375
1841		42.968750
1842		50.781250
1843		39.062500
1844		48.828125
1845		41.015625
1846		44.921875
1847		39.062500
1848		42.968750
1849		35.156250
1850		41.015625
1851		33.203125
1852		41.015625
1853		31.250000
1854		39.062500
1855		27.343750
1856		37.109375
1857		25.390625
1858		35.156250
1859		23.437500
1860		31.250000
1861		23.437500
1862		31.250000
1863		21.484375
1864		25.390625
1865		19.531250
1866		23.437500
1867		15.625000
1868		23.437500
1869		13.671875
1870		21.484375
1871		9.765625
1872		19.531250
1873		7.812500
1874		17.578125
1875		5.859375
1876		15.625000
1877		3.906250
1878		13.671875
1879		3.906250
1880		7.812500
1881		1.953125
1882		5.859375
1883		-3.906250
1884		3.906250
1885		-5.859375
1886		1.953125
1887		-7.812500
1888		0.000000
1889		-11.718750
1890		-1.953125
1891		-13.671875
1892		-3.906250
1893		-15.625000
1894		-7.812500
1895		-15.625000
1896		-9.765625
1897		-17.578125
1898		-13.671875
1899		-23.437500
1900		-15.625000
1901		-25.390625
1902		-15.625000
1903		-27.343750
1904		-19.531250
1905		-31.250000
1906		-21.484375
1907		-33.203125
1908		-23.437500
1909		-35.156250
1910		-25.390625
1911		-37.109375
1912		-27.343750
1913		-37.109375
1914		-33.203125
1915		-39.062500
1916		-35.156250
1917		-44.921875
1918		-35.156250
1919		-46.875000
1920		-39.062500
1921		-48.828125
1922		-41.015625
1923		-50.781250
1924		-42.968750
1925		-52.734375
1926		-44.921875
1927		-56.640625
1928		-46.875000
1929		-54.687500
1930		-48.828125
1931		-56.640625
1932		-54.687500
1933		-62.500000
1934		-54.687500
1935		-64.453125
1936		-54.687500
1937		-66.406250
1938		-58.593750
1939		-68.359375
1940		-60.546875
1941		-70.312500
1942		-60.546875
1943		-72.265625
1944		-64.453125
1945		-72.265625
1946		-66.406250
1947		-74.218750
1948		-70.312500
1949		-76.171875
1950		-72.265625
1951		-80.078125
1952		-70.312500
1953		-82.031250
1954		-74.218750
1955		-83.984375
1956		-74.218750
1957		-85.937500
1958		-76.171875
1959		-85.937500
1960		-78.125000
1961		-87.890625
1962		-80.078125
1963		-85.937500
1964		-83.984375
1965		-87.890625
1966		-85.937500
1967		-91.796875
1968		-83.984375
1969		-93.750000
1970		-85.937500
1971		-93.750000
1972		-85.937500
1973		-95.703125
1974		-87.890625
1975		-95.703125
1976		-89.843750
1977		-97.656250
1978		-89.843750
1979		-97.656250
1980		-91.796875
1981		-97.656250
1982		-93.750000
1983		-99.609375
1984		-93.750000
1985		-101.562500
1986		-93.750000
1987		-101.562500
1988		-93.750000
1989		-103.515625
1990		-95.703125
1991		-103.515625
1992		-95.703125
1993		-103.515625
1994		-95.703125
1995		-103.515625
1996		-95.703125
1997		-101.562500
1998		-99.609375
1999		-101.562500
2000		-99.609375
2001		-105.468750
2002		-97.656250
2003		-105.468750
2004		-97.656250
2005		-105.468750
2006		-97.656250
2007		-105.468750
2008		-97.656250
2009		-105.468750
2010		-97.656250
2011		-105.468750
2012		-97.656250
2013		-103.515625
2014		-97.656250
2015		-101.562500
2016		-99.609375
2017		-103.515625
2018		-97.656250
2019		-103.515625
2020		-95.703125
2021		-103.515625
2022		-95.703125
2023		-103.515625
2024		-95.703125
2025		-103.515625
2026		-95.703125
2027		-101.562500
2028		-93.750000
2029		-101.562500
2030		-93.750000
2031		-97.656250
2032		-95.703125
2033		-97.656250
2034		-91.796875
2035		-97.656250
2036		-89.843750
2037		-97.656250
2038		-89.843750
2039		-97.656250
2040		-87.890625
2041		-95.703125
2042		-87.890625
2043		-93.750000
2044		-85.937500
2045		-93.750000
2046		-85.937500
2047		-89.843750
2048		-85.937500
2049		-87.890625
2050		-83.984375
2051		-87.890625
2052		-80.078125
2053		-87.890625
2054		-80.078125
2055		-85.937500
2056		-78.125000
2057		-83.984375
2058		-76.171875
2059		-83.984375
2060		-76.171875
2061		-82.031250
2062		-74.218750
2063		-80.078125
2064		-72.265625
2065		-76.171875
2066		-72.265625
2067		-74.218750
2068		-68.359375
2069		-76.171875
2070		-66.406250
2071		-72.265625
2072		-64.453125
2073		-70.312500
2074		-62.500000
2075		-70.312500
2076		-60.546875
2077		-66.406250
2078		-58.593750
2079		-64.453125
2080		-56.640625
2081		-60.546875
2082		-56.640625
2083		-58.593750
2084		-54.687500
2085		-58.593750
2086		-48.828125
2087		-56.640625
2088		-46.875000
2089		-54.687500
2090		-44.921875
2091		-52.734375
2092		-44.921875
2093		-50.781250
2094		-41.015625
2095		-46.875000
2096		-39.062500
2097		-42.968750
2098		-39.062500
2099		-41.015625
2100		-37.109375
2101		-39.062500
2102		-33.203125
2103		-39.062500
2104		-29.296875
2105		-35.156250
2106		-27.343750
2107		-33.203125
2108		-23.437500
2109		-31.250000
2110		-21.484375
2111		-27.343750
2112		-19.531250
2113		-27.343750
2114		-19.531250
2115		-21.484375
2116		-17.578125
2117		-19.531250
2118		-13.671875
2119		-19.531250
2120		-11.718750
2121		-17.578125
2122		-7.812500
2123		-15.625000
2124		-5.859375
2125		-11.718750
2126		-3.906250
2127		-9.765625
2128		-1.953125
2129		-7.812500
2130		1.953125
2131		-1.953125
2132		1.953125
2133		0.000000
2134		3.906250
2135		0.000000
2136		7.812500
2137		1.953125
2138		13.671875
2139		3.906250
2140		13.671875
2141		7.812500
2142		15.625000
2143		9.765625
2144		17.578125
2145		9.765625
2146		19.531250
2147		13.671875
2148		21.484375
2149		17.578125
2150		21.484375
2151		19.531250
2152		27.343750
2153		19.531250
2154		29.296875
2155		21.484375
2156		31.250000
2157		23.437500
2158		33.203125
2159		25.390625
2160		35.156250
2161		27.343750
2162		37.109375
2163		29.296875
2164		37.109375
2165		35.156250
2166		39.062500
2167		37.109375
2168		41.015625
2169		37.109375
2170		44.921875
2171		39.062500
2172		46.875000
2173		39.062500
2174		48.828125
2175		41.015625
2176		50.781250
2177		42.968750
2178		52.734375
2179		44.921875
2180		52.734375
2181		46.875000
2182		54.687500
2183		50.781250
2184		54.687500
2185		50.781250
2186		58.593750
2187		50.781250
2188		60.546875
2189		52.734375
2190		60.546875
2191		54.687500
2192		62.500000
2193		56.640625
2194		64.453125
2195		58.593750
2196		64.453125
2197		58.593750
2198		66.406250
2199		62.500000
2200		64.453125
2201		64.453125
2202		68.359375
2203		62.500000
2204		70.312500
2205		62.500000
2206		72.265625
2207		64.453125
2208		72.265625
2209		64.453125
2210		74.218750
2211		66.406250
2212		74.218750
2213		66.406250
2214		76.171875
2215		70.312500
2216		74.218750
2217		72.265625
2218		74.218750
2219		70.312500
2220		78.125000
2221		70.312500
2222		78.125000
2223		70.312500
2224		80.078125
2225		72.265625
2226		80.078125
2227		72.265625
2228		80.078125
2229		72.265625
2230		82.031250
2231		74.218750
2232		80.078125
2233		76.171875
2234		80.078125
2235		76.171875
2236		80.078125
2237		74.218750
2238		82.031250
2239		74.218750
2240		82.031250
2241		76.171875
2242		83.984375
2243		74.218750
2244		83.984375
2245		74.218750
2246		83.984375
2247		74.218750
2248		82.031250
2249		78.125000
2250		80.078125
2251		78.125000
2252		80.078125
2253		74.218750
2254		82.031250
2255		74.218750
2256		82.031250
2257		74.218750
2258		82.031250
2259		74.218750
2260		82.031250
2261		74.218750
2262		82.031250
2263		74.218750
2264		82.031250
2265		74.218750
2266		80.078125
2267		76.171875
2268		78.125000
2269		72.265625
2270		80.078125
2271		72.265625
2272		80.078125
2273		70.312500
2274		78.125000
2275		70.312500
2276		78.125000
2277		68.359375
2278		78.125000
2279		68.359375
2280		76.171875
2281		68.359375
2282		76.171875
2283		68.359375
2284		72.265625
2285		68.359375
2286		70.312500
2287		64.453125
2288		72.265625
2289		62.500000
2290		70.312500
2291		62.500000
2292		70.312500
2293		60.546875
2294		68.359375
2295		58.593750
2296		66.406250
2297		58.593750
2298		66.406250
2299		58.593750
2300		62.500000
2301		56.640625
2302		60.546875
2303		54.687500
2304		60.546875
2305		52.734375
2306		60.546875
2307		50.781250
2308		58.593750
2309		48.828125
2310		56.640625
2311		46.875000
2312		56.640625
2313		44.921875
2314		54.687500
2315		44.921875
2316		52.734375
2317		44.921875
2318		48.828125
2319		41.015625
2320		46.875000
2321		39.062500
2322		46.875000
2323		35.156250
2324		44.921875
2325		35.156250
2326		42.968750
2327		33.203125
2328		41.015625
2329		29.296875
2330		41.015625
2331		29.296875
2332		37.109375
2333		29.296875
2334		33.203125
2335		27.343750
2336		31.250000
2337		21.484375
2338		31.250000
2339		19.531250
2340		29.296875
2341		17.578125
2342		27.343750
2343		15.625000
2344		23.437500
2345		11.718750
2346		23.437500
2347		11.718750
2348		19.531250
2349		9.765625
2350		17.578125
2351		9.765625
2352		11.718750
2353		3.906250
2354		11.718750
2355		1.953125
2356		9.765625
2357		-1.953125
2358		7.812500
2359		-3.906250
2360		5.859375
2361		-5.859375
2362		1.953125
2363		-7.812500
2364		0.000000
2365		-9.765625
2366		0.000000
2367		-9.765625
2368		-5.859375
2369		-13.671875
2370		-9.765625
2371		-17.578125
2372		-9.765625
2373		-19.531250
2374		-11.718750
2375		-23.437500
2376		-13.671875
2377		-25.390625
2378		-17.578125
2379		-27.343750
2380		-17.578125
2381		-31.250000
2382		-21.484375
2383		-29.296875
2384		-25.390625
2385		-33.203125
2386		-27.343750
2387		-37.109375
2388		-29.296875
2389		-39.062500
2390		-31.250000
2391		-42.968750
2392		-33.203125
2393		-44.921875
2394		-35.156250
2395		-46.875000
2396		-37.109375
2397		-50.781250
2398		-41.015625
2399		-50.781250
2400		-42.968750
2401		-50.781250
2402		-46.875000
2403		-54.687500
2404		-48.828125
2405		-58.593750
2406		-48.828125
2407		-60.546875
2408		-52.734375
2409		-62.500000
2410		-54.687500
2411		-64.453125
2412		-54.687500
2413		-66.406250
2414		-58.593750
2415		-68.359375
2416		-58.593750
2417		-68.359375
2418		-64.453125
2419		-70.312500
2420		-66.406250
2421		-74.218750
2422		-66.406250
2423		-76.171875
2424		-66.406250
2425		-76.171875
2426		-68.359375
2427		-80.078125
2428		-72.265625
2429		-80.078125
2430		-72.265625
2431		-82.031250
2432		-74.218750
2433		-83.984375
2434		-76.171875
2435		-83.984375
2436		-80.078125
2437		-85.937500
2438		-82.031250
2439		-87.890625
2440		-80.078125
2441		-89.843750
2442		-82.031250
2443		-91.796875
2444		-83.984375
2445		-93.750000
2446		-83.984375
2447		-93.750000
2448		-85.937500
2449		-93.750000
2450		-85.937500
2451		-93.750000
2452		-91.796875
2453		-93.750000
2454		-91.796875
2455		-97.656250
2456		-91.796875
2457		-97.656250
2458		-91.796875
2459		-99.609375
2460		-93.750000
2461		-99.609375
2462		-93.750000
2463		-101.562500
2464		-95.703125
2465		-101.562500
2466		-93.750000
2467		-101.562500
2468		-95.703125
2469		-99.609375
2470		-97.656250
2471		-103.515625
2472		-95.703125
2473		-103.515625
2474		-95.703125
2475		-105.468750
2476		-95.703125
2477		-105.468750
2478		-97.656250
2479		-105.468750
2480		-97.656250
2481		-105.468750
2482		-97.656250
2483		-103.515625
2484		-97.656250
2485		-101.562500
2486		-99.609375
2487		-103.515625
2488		-97.656250
2489		-105.468750
2490		-97.656250
2491		-105.468750
2492		-95.703125
2493		-103.515625
2494		-95.703125
2495		-103.515625
2496		-95.703125
2497		-103.515625
2498		-95.703125
2499		-101.562500
2500		-93.750000
2501		-99.609375
2502		-97.656250
2503		-99.609375
2504		-95.703125
2505		-101.562500
2506		-91.796875
2507		-99.609375
2508		-91.796875
2509		-99.609375
2510		-91.796875
2511		-97.656250
2512		-91.796875
2513		-97.656250
2514		-89.843750
2515		-97.656250
2516		-87.890625
2517		-95.703125
2518		-87.890625
2519		-91.796875
2520		-87.890625
2521		-91.796875
2522		-85.937500
2523		-91.796875
2524		-83.984375
2525		-89.843750
2526		-82.031250
2527		-85.937500
2528		-83.984375
2529		-85.937500
2530		-80.078125
2531		-83.984375
2532		-78.125000
2533		-83.984375
2534		-76.171875
2535		-80.078125
2536		-76.171875
2537		-78.125000
2538		-76.171875
2539		-80.078125
2540		-70.312500
2541		-78.125000
2542		-70.312500
2543		-74.218750
2544		-70.312500
2545		-72.265625
2546		-68.359375
2547		-70.312500
2548		-66.406250
2549		-70.312500
2550		-60.546875
2551		-68.359375
2552		-62.500000
2553		-64.453125
2554		-60.546875
2555		-62.500000
2556		-56.640625
2557		-60.546875
2558		-56.640625
2559		-58.593750
2560		-52.734375
2561		-56.640625
2562		-50.781250
2563		-54.687500
2564		-48.828125
2565		-52.734375
2566		-46.875000
2567		-50.781250
2568		-44.921875
2569		-46.875000
2570		-42.968750
2571		-44.921875
2572		-39.062500
2573		-42.968750
2574		-37.109375
2575		-41.015625
2576		-35.156250
2577		-39.062500
2578		-33.203125
2579		-35.156250
2580		-31.250000
2581		-33.203125
2582		-29.296875
2583		-31.250000
2584		-25.390625
2585		-29.296875
2586		-25.390625
2587		-25.390625
2588		-21.484375
2589		-25.390625
2590		-19.531250
2591		-21.484375
2592		-17.578125
2593		-19.531250
2594		-13.671875
2595		-15.625000
2596		-11.718750
2597		-15.625000
2598		-9.765625
2599		-11.718750
2600		-7.812500
2601		-9.765625
2602		-5.859375
2603		-7.812500
2604		-3.906250
2605		-5.859375
2606		0.000000
2607		-1.953125
2608		1.953125
2609		0.000000
2610		3.906250
2611		1.953125
2612		5.859375
2613		3.906250
2614		9.765625
2615		5.859375
2616		9.765625
2617		7.812500
2618		13.671875
2619		11.718750
2620		15.625000
2621		13.671875
2622		17.578125
2623		13.671875
2624		19.531250
2625		17.578125
2626		23.437500
2627		19.531250
2628		25.390625
2629		21.484375
2630		27.343750
2631		25.390625
2632		29.296875
2633		25.390625
2634		31.250000
2635		27.343750
2636		33.203125
2637		31.250000
2638		35.156250
2639		33.203125
2640		37.109375
2641		35.156250
2642		39.062500
2643		37.109375
2644		41.015625
2645		39.062500
2646		42.968750
2647		41.015625
2648		44.921875
2649		42.968750
2650		46.875000
2651		44.921875
2652		46.875000
2653		46.875000
2654		48.828125
2655		46.875000
2656		50.781250
2657		48.828125
2658		52.734375
2659		50.781250
2660		54.687500
2661		52.734375
2662		56.640625
2663		54.687500
2664		56.640625
2665		54.687500
2666		58.593750
2667		56.640625
2668		62.500000
2669		58.593750
2670		60.546875
2671		60.546875
2672		62.500000
2673		60.546875
2674		64.453125
2675		62.500000
2676		66.406250
2677		62.500000
2678		68.359375
2679		64.453125
2680		68.359375
2681		66.406250
2682		68.359375
2683		66.406250
2684		70.312500
2685		66.406250
2686		70.312500
2687		68.359375
2688		72.265625
2689		70.312500
2690		74.218750
2691		70.312500
2692		74.218750
2693		72.265625
2694		74.218750
2695		72.265625
2696		74.218750
2697		72.265625
2698		76.171875
2699		74.218750
2700		76.171875
2701		74.218750
2702		78.125000
2703		74.218750
2704		78.125000
2705		76.171875
2706		78.125000
2707		76.171875
2708		78.125000
2709		76.171875
2710		80.078125
2711		76.171875
2712		80.078125
2713		76.171875
2714		80.078125
2715		78.125000
2716		80.078125
2717		76.171875
2718		80.078125
2719		76.171875
2720		82.031250
2721		78.125000
2722		80.078125
2723		76.171875
2724		80.078125
2725		78.125000
2726		80.078125
2727		78.125000
2728		80.078125
2729		76.171875
2730		80.078125
2731		76.171875
2732		80.078125
2733		76.171875
2734		80.078125
2735		76.171875
2736		80.078125
2737		76.171875
2738		78.125000
2739		74.218750
2740		80.078125
2741		74.218750
2742		80.078125
2743		74.218750
2744		78.125000
2745		74.218750
2746		78.125000
2747		74.218750
2748		76.171875
2749		72.265625
2750		76.171875
2751		72.265625
2752		76.171875
2753		72.265625
2754		74.218750
2755		70.312500
2756		74.218750
2757		68.359375
2758		74.218750
2759		68.359375
2760		72.265625
2761		68.359375
2762		70.312500
2763		66.406250
2764		70.312500
2765		64.453125
2766		68.359375
2767		64.453125
2768		68.359375
2769		62.500000
2770		68.359375
2771		62.500000
2772		64.453125
2773		60.546875
2774		64.453125
2775		58.593750
2776		62.500000
2777		56.640625
2778		60.546875
2779		56.640625
2780		60.546875
2781		54.687500
2782		58.593750
2783		52.734375
2784		56.640625
2785		50.781250
2786		56.640625
2787		50.781250
2788		52.734375
2789		48.828125
2790		52.734375
2791		44.921875
2792		50.781250
2793		44.921875
2794		48.828125
2795		42.968750
2796		46.875000
2797		41.015625
2798		44.921875
2799		39.062500
2800		42.968750
2801		37.109375
2802		41.015625
2803		35.156250
2804		41.015625
2805		33.203125
2806		37.109375
2807		29.296875
2808		35.156250
2809		27.343750
2810		33.203125
2811		27.343750
2812		31.250000
2813		25.390625
2814		29.296875
2815		23.437500
2816		27.343750
2817		19.531250
2818		25.390625
2819		17.578125
2820		21.484375
2821		15.625000
2822		19.531250
2823		11.718750
2824		17.578125
2825		9.765625
2826		15.625000
2827		7.812500
2828		13.671875
2829		5.859375
2830		9.765625
2831		3.906250
2832		7.812500
2833		1.953125
2834		7.812500
2835		-1.953125
2836		3.906250
2837		-3.906250
2838		1.953125
2839		-5.859375
2840		-1.953125
2841		-7.812500
2842		-3.906250
2843		-9.765625
2844		-5.859375
2845		-13.671875
2846		-7.812500
2847		-15.625000
2848		-11.718750
2849		-17.578125
2850		-13.671875
2851		-19.531250
2852		-15.625000
2853		-21.484375
2854		-17.578125
2855		-25.390625
2856		-21.484375
2857		-27.343750
2858		-23.437500
2859		-31.250000
2860		-25.390625
2861		-33.203125
2862		-27.343750
2863		-35.156250
2864		-29.296875
2865		-37.109375
2866		-33.203125
2867		-39.062500
2868		-35.156250
2869		-42.968750
2870		-37.109375
2871		-42.968750
2872		-39.062500
2873		-46.875000
2874		-42.968750
2875		-48.828125
2876		-42.968750
2877		-50.781250
2878		-46.875000
2879		-52.734375
2880		-48.828125
2881		-54.687500
2882		-50.781250
2883		-56.640625
2884		-52.734375
2885		-60.546875
2886		-54.687500
2887		-62.500000
2888		-56.640625
2889		-62.500000
2890		-60.546875
2891		-66.406250
2892		-62.500000
2893		-68.359375
2894		-64.453125
2895		-70.312500
2896		-64.453125
2897		-72.265625
2898		-66.406250
2899		-74.218750
2900		-68.359375
2901		-76.171875
2902		-70.312500
2903		-78.125000
2904		-72.265625
2905		-78.125000
2906		-74.218750
2907		-80.078125
2908		-76.171875
2909		-82.031250
2910		-76.171875
2911		-83.984375
2912		-80.078125
2913		-85.937500
2914		-82.031250
2915		-85.937500
2916		-82.031250
2917		-87.890625
2918		-83.984375
2919		-91.796875
2920		-85.937500
2921		-89.843750
2922		-87.890625
2923		-91.796875
2924		-87.890625
2925		-93.750000
2926		-89.843750
2927		-93.750000
2928		-89.843750
2929		-95.703125
2930		-91.796875
2931		-95.703125
2932		-91.796875
2933		-97.656250
2934		-93.750000
2935		-97.656250
2936		-93.750000
2937		-99.609375
2938		-93.750000
2939		-99.609375
2940		-95.703125
2941		-101.562500
2942		-95.703125
2943		-99.609375
2944		-95.703125
2945		-101.562500
2946		-97.656250
2947		-101.562500
2948		-97.656250
2949		-101.562500
2950		-97.656250
2951		-101.562500
2952		-99.609375
2953		-103.515625
2954		-99.609375
2955		-101.562500
2956		-99.609375
2957		-101.562500
2958		-99.609375
2959		-103.515625
2960		-97.656250
2961		-103.515625
2962		-99.609375
2963		-101.562500
2964		-99.609375
2965		-103.515625
2966		-97.656250
2967		-101.562500
2968		-99.609375
2969		-101.562500
2970		-97.656250
2971		-101.562500
2972		-97.656250
2973		-99.609375
2974		-97.656250
2975		-101.562500
2976		-95.703125
2977		-99.609375
2978		-95.703125
2979		-99.609375
2980		-95.703125
2981		-97.656250
2982		-95.703125
2983		-97.656250
2984		-93.750000
2985		-97.656250
2986		-93.750000
2987		-97.656250
2988		-91.796875
2989		-95.703125
2990		-91.796875
2991		-93.750000
2992		-91.796875
2993		-93.750000
2994		-89.843750
2995		-91.796875
2996		-87.890625
2997		-91.796875
2998		-87.890625
2999		-89.843750
3000		-85.937500
3001		-87.890625
3002		-83.984375
3003		-87.890625
3004		-82.031250
3005		-85.937500
3006		-82.031250
3007		-83.984375
3008		-80.078125
3009		-83.984375
3010		-78.125000
3011		-82.031250
3012		-76.171875
3013		-78.125000
3014		-76.171875
3015		-78.125000
3016		-74.218750
3017		-76.171875
3018		-72.265625
3019		-74.218750
3020		-70.312500
3021		-72.265625
3022		-68.359375
3023		-70.312500
3024		-66.406250
3025		-68.359375
3026		-62.500000
3027		-68.359375
3028		-62.500000
3029		-64.453125
3030		-60.546875
3031		-62.500000
3032		-58.593750
3033		-60.546875
3034		-56.640625
3035		-58.593750
3036		-54.687500
3037		-56.640625
3038		-52.734375
3039		-54.687500
3040		-50.781250
3041		-52.734375
3042		-46.875000
3043		-50.781250
3044		-44.921875
3045		-46.875000
3046		-42.968750
3047		-44.921875
3048		-41.015625
3049		-42.968750
3050		-39.062500
3051		-41.015625
3052		-37.109375
3053		-39.062500
3054		-33.203125
3055		-37.109375
3056		-31.250000
3057		-33.203125
3058		-29.296875
3059		-31.250000
3060		-27.343750
3061		-29.296875
3062		-23.437500
3063		-27.343750
3064		-21.484375
3065		-23.437500
3066		-19.531250
3067		-21.484375
3068		-17.578125
3069		-19.531250
3070		-15.625000
3071		-17.578125
3072		-11.718750
3073		-13.671875
3074		-9.765625
3075		-11.718750
3076		-7.812500
3077		-11.718750
3078		-5.859375
3079		-7.812500
3080		-1.953125
3081		-5.859375
3082		0.000000
3083		-1.953125
3084		1.953125
3085		0.000000
3086		3.906250
3087		1.953125
3088		5.859375
3089		3.906250
3090		7.812500
3091		5.859375
3092		9.765625
3093		7.812500
3094		13.671875
3095		9.765625
3096		15.625000
3097		13.671875
3098		17.578125
3099		15.625000
3100		19.531250
3101		17.578125
3102		21.484375
3103		19.531250
3104		23.437500
3105		21.484375
3106		25.390625
3107		23.437500
3108		27.343750
3109		25.390625
3110		31.250000
3111		27.343750
3112		33.203125
3113		29.296875
3114		33.203125
3115		31.250000
3116		37.109375
3117		35.156250
3118		39.062500
3119		37.109375
3120		41.015625
3121		39.062500
3122		42.968750
3123		39.062500
3124		42.968750
3125		42.968750
3126		44.921875
3127		42.968750
3128		48.828125
3129		44.921875
3130		48.828125
3131		46.875000
3132		50.781250
3133		46.875000
3134		52.734375
3135		48.828125
3136		54.687500
3137		50.781250
3138		56.640625
3139		52.734375
3140		56.640625
3141		54.687500
3142		58.593750
3143		56.640625
3144		60.546875
3145		58.593750
3146		62.500000
3147		58.593750
3148		64.453125
3149		60.546875
3150		64.453125
3151		62.500000
3152		66.406250
3153		62.500000
3154		66.406250
3155		64.453125
3156		68.359375
3157		66.406250
3158		68.359375
3159		66.406250
3160		70.312500
3161		66.406250
3162		72.265625
3163		68.359375
3164		72.265625
3165		70.312500
3166		72.265625
3167		70.312500
3168		74.218750
3169		70.312500
3170		74.218750
3171		72.265625
3172		76.171875
3173		72.265625
3174		76.171875
3175		74.218750
3176		76.171875
3177		74.218750
3178		78.125000
3179		74.218750
3180		78.125000
3181		76.171875
3182		78.125000
3183		76.171875
3184		80.078125
3185		76.171875
3186		80.078125
3187		76.171875
3188		80.078125
3189		76.171875
3190		80.078125
3191		78.125000
3192		80.078125
3193		78.125000
3194		82.031250
3195		76.171875
3196		82.031250
3197		78.125000
3198		80.078125
3199		78.125000
3200		80.078125
3201		76.171875
3202		82.031250
3203		76.171875
3204		82.031250
3205		76.171875
3206		82.031250
3207		78.125000
3208		80.078125
3209		78.125000
3210		80.078125
3211		76.171875
3212		80.078125
3213		76.171875
3214		80.078125
3215		76.171875
3216		80.078125
3217		76.171875
3218		78.125000
3219		74.218750
3220		78.125000
3221		74.218750
3222		78.125000
3223		72.265625
3224		78.125000
3225		74.218750
3226		76.171875
3227		70.312500
3228		76.171875
3229		72.265625
3230		74.218750
3231		70.312500
3232		74.218750
3233		70.312500
3234		74.218750
3235		68.359375
3236		72.265625
3237		68.359375
3238		72.265625
3239		66.406250
3240		70.312500
3241		66.406250
3242		68.359375
3243		64.453125
3244		68.359375
3245		62.500000
3246		68.359375
3247		62.500000
3248		66.406250
3249		60.546875
3250		64.453125
3251		58.593750
3252		62.500000
3253		58.593750
3254		60.546875
3255		56.640625
3256		60.546875
3257		54.687500
3258		58.593750
3259		54.687500
3260		56.640625
3261		50.781250
3262		56.640625
3263		50.781250
3264		54.687500
3265		48.828125
3266		52.734375
3267		46.875000
3268		50.781250
3269		44.921875
3270		48.828125
3271		42.968750
3272		46.875000
3273		41.015625
3274		44.921875
3275		39.062500
3276		42.968750
3277		37.109375
3278		41.015625
3279		35.156250
3280		39.062500
3281		33.203125
3282		37.109375
3283		31.250000
3284		35.156250
3285		29.296875
3286		33.203125
3287		27.343750
3288		31.250000
3289		25.390625
3290		29.296875
3291		23.437500
3292		27.343750
3293		19.531250
3294		25.390625
3295		19.531250
3296		23.437500
3297		15.625000
3298		19.531250
3299		13.671875
3300		17.578125
3301		11.718750
3302		15.625000
3303		9.765625
3304		13.671875
3305		5.859375
3306		9.765625
3307		3.906250
3308		9.765625
3309		1.953125
3310		5.859375
3311		-1.953125
3312		3.906250
3313		-1.953125
3314		1.953125
3315		-5.859375
3316		0.000000
3317		-7.812500
3318		-3.906250
3319		-9.765625
3320		-5.859375
3321		-11.718750
3322		-7.812500
3323		-15.625000
3324		-9.765625
3325		-17.578125
3326		-13.671875
3327		-19.531250
3328		-15.625000
3329		-21.484375
3330		-17.578125
3331		-25.390625
3332		-19.531250
3333		-27.343750
3334		-23.437500
3335		-31.250000
3336		-25.390625
3337		-33.203125
3338		-27.343750
3339		-35.156250
3340		-29.296875
3341		-37.109375
3342		-31.250000
3343		-39.062500
3344		-35.156250
3345		-41.015625
3346		-37.109375
3347		-44.921875
3348		-39.062500
3349		-46.875000
3350		-42.968750
3351		-48.828125
3352		-42.968750
3353		-50.781250
3354		-46.875000
3355		-52.734375
3356		-48.828125
3357		-54.687500
3358		-50.781250
3359		-56.640625
3360		-52.734375
3361		-60.546875
3362		-54.687500
3363		-62.500000
3364		-56.640625
3365		-62.500000
3366		-58.593750
3367		-64.453125
3368		-60.546875
3369		-68.359375
3370		-62.500000
3371		-70.312500
3372		-64.453125
3373		-72.265625
3374		-66.406250
3375		-72.265625
3376		-70.312500
3377		-74.218750
3378		-70.312500
3379		-78.125000
3380		-70.312500
3381		-78.125000
3382		-74.218750
3383		-80.078125
3384		-76.171875
3385		-82.031250
3386		-78.125000
3387		-83.984375
3388		-78.125000
3389		-83.984375
3390		-80.078125
3391		-85.937500
3392		-82.031250
3393		-87.890625
3394		-83.984375
3395		-89.843750
3396		-85.937500
3397		-89.843750
3398		-85.937500
3399		-91.796875
3400		-87.890625
3401		-91.796875
3402		-89.843750
3403		-93.750000
3404		-89.843750
3405		-95.703125
3406		-89.843750
3407		-97.656250
3408		-91.796875
3409		-95.703125
3410		-93.750000
3411		-97.656250
3412		-93.750000
3413		-99.609375
3414		-95.703125
3415		-99.609375
3416		-95.703125
3417		-99.609375
3418		-95.703125
3419		-101.562500
3420		-97.656250
3421		-101.562500
3422		-97.656250
3423		-101.562500
3424		-97.656250
3425		-101.562500
3426		-97.656250
3427		-101.562500
3428		-99.609375
3429		-103.515625
3430		-97.656250
3431		-103.515625
3432		-99.609375
3433		-101.562500
3434		-99.609375
3435		-103.515625
3436		-99.609375
3437		-103.515625
3438		-99.609375
3439		-103.515625
3440		-99.609375
3441		-101.562500
3442		-99.609375
3443		-101.562500
3444		-99.609375
3445		-103.515625
3446		-97.656250
3447		-101.562500
3448		-99.609375
3449		-101.562500
3450		-97.656250
3451		-101.562500
3452		-97.656250
3453		-101.562500
3454		-95.703125
3455		-99.609375
3456		-95.703125
3457		-99.609375
3458		-95.703125
3459		-97.656250
3460		-95.703125
3461		-97.656250
3462		-93.750000
3463		-97.656250
3464		-91.796875
3465		-95.703125
3466		-91.796875
3467		-95.703125
3468		-91.796875
3469		-93.750000
3470		-89.843750
3471		-91.796875
3472		-87.890625
3473		-91.796875
3474		-87.890625
3475		-89.843750
3476		-85.937500
3477		-87.890625
3478		-85.937500
3479		-87.890625
3480		-83.984375
3481		-85.937500
3482		-82.031250
3483		-83.984375
3484		-80.078125
3485		-83.984375
3486		-80.078125
3487		-82.031250
3488		-76.171875
3489		-80.078125
3490		-76.171875
3491		-78.125000
3492		-74.218750
3493		-76.171875
3494		-72.265625
3495		-74.218750
3496		-70.312500
3497		-74.218750
3498		-68.359375
3499		-70.312500
3500		-66.406250
3501		-68.359375
3502		-64.453125
3503		-66.406250
3504		-62.500000
3505		-66.406250
3506		-60.546875
3507		-62.500000
3508		-58.593750
3509		-60.546875
3510		-56.640625
3511		-58.593750
3512		-54.687500
3513		-56.640625
3514		-50.781250
3515		-54.687500
3516		-50.781250
3517		-52.734375
3518		-48.828125
3519		-50.781250
3520		-44.921875
3521		-46.875000
3522		-42.968750
3523		-46.875000
3524		-41.015625
3525		-42.968750
3526		-39.062500
3527		-41.015625
3528		-37.109375
3529		-39.062500
3530		-35.156250
3531		-39.062500
3532		-31.250000
3533		-35.156250
3534		-29.296875
3535		-31.250000
3536		-27.343750
3537		-29.296875
3538		-25.390625
3539		-27.343750
3540		-23.437500
3541		-23.437500
3542		-19.531250
3543		-21.484375
3544		-17.578125
3545		-19.531250
3546		-15.625000
3547		-17.578125
3548		-11.718750
3549		-15.625000
3550		-11.718750
3551		-13.671875
3552		-7.812500
3553		-9.765625
3554		-5.859375
3555		-7.812500
3556		-3.906250
3557		-5.859375
3558		-1.953125
3559		-3.906250
3560		1.953125
3561		0.000000
3562		3.906250
3563		1.953125
3564		5.859375
3565		3.906250
3566		7.812500
3567		5.859375
3568		9.765625
3569		7.812500
3570		11.718750
3571		9.765625
3572		15.625000
3573		11.718750
3574		17.578125
3575		15.625000
3576		19.531250
3577		17.578125
3578		21.484375
3579		19.531250
3580		23.437500
3581		19.531250
3582		25.390625
3583		23.437500
3584		27.343750
3585		25.390625
3586		29.296875
3587		29.296875
3588		33.203125
3589		29.296875
3590		33.203125
3591		33.203125
3592		37.109375
3593		33.203125
3594		37.109375
3595		35.156250
3596		39.062500
3597		37.109375
3598		42.968750
3599		39.062500
3600		42.968750
3601		41.015625
3602		44.921875
3603		42.968750
3604		46.875000
3605		44.921875
3606		48.828125
3607		46.875000
3608		52.734375
3609		48.828125
3610		52.734375
3611		50.781250
3612		52.734375
3613		52.734375
3614		54.687500
3615		52.734375
3616		58.593750
3617		54.687500
3618		58.593750
3619		56.640625
3620		60.546875
3621		56.640625
3622		62.500000
3623		58.593750
3624		62.500000
3625		60.546875
3626		64.453125
3627		60.546875
3628		64.453125
3629		62.500000
3630		66.406250
3631		64.453125
3632		68.359375
3633		66.406250
3634		70.312500
3635		66.406250
3636		70.312500
3637		66.406250
3638		72.265625
3639		68.359375
3640		72.265625
3641		70.312500
3642		72.265625
3643		70.312500
3644		74.218750
3645		72.265625
3646		74.218750
3647		72.265625
3648		76.171875
3649		72.265625
3650		76.171875
3651		72.265625
3652		76.171875
3653		74.218750
3654		78.125000
3655		74.218750
3656		78.125000
3657		74.218750
3658		78.125000
3659		76.171875
3660		80.078125
3661		76.171875
3662		78.125000
3663		76.171875
3664		80.078125
3665		76.171875
3666		82.031250
3667		76.171875
3668		80.078125
3669		76.171875
3670		80.078125
3671		78.125000
3672		80.078125
3673		78.125000
3674		80.078125
3675		78.125000
3676		80.078125
3677		76.171875
3678		80.078125
3679		78.125000
3680		80.078125
3681		76.171875
3682		80.078125
3683		76.171875
3684		80.078125
3685		76.171875
3686		80.078125
3687		76.171875
3688		80.078125
3689		76.171875
3690		80.078125
3691		76.171875
3692		80.078125
3693		74.218750
3694		80.078125
3695		76.171875
3696		78.125000
3697		74.218750
3698		78.125000
3699		74.218750
3700		78.125000
3701		74.218750
3702		76.171875
3703		72.265625
3704		76.171875
3705		70.312500
3706		76.171875
3707		70.312500
3708		74.218750
3709		70.312500
3710		74.218750
3711		68.359375
3712		72.265625
3713		68.359375
3714		70.312500
3715		64.453125
3716		70.312500
3717		64.453125
3718		70.312500
3719		64.453125
3720		68.359375
3721		62.500000
3722		66.406250
3723		62.500000
3724		66.406250
3725		60.546875
3726		64.453125
3727		60.546875
3728		62.500000
3729		58.593750
3730		60.546875
3731		56.640625
3732		60.546875
3733		54.687500
3734		58.593750
3735		52.734375
3736		58.593750
3737		52.734375
3738		56.640625
3739		50.781250
3740		54.687500
3741		48.828125
3742		52.734375
3743		44.921875
3744		50.781250
3745		44.921875
3746		48.828125
3747		42.968750
3748		46.875000
3749		41.015625
3750		44.921875
3751		39.062500
3752		42.968750
3753		37.109375
3754		41.015625
3755		35.156250
3756		39.062500
3757		33.203125
3758		37.109375
3759		31.250000
3760		35.156250
3761		29.296875
3762		35.156250
3763		27.343750
3764		31.250000
3765		25.390625
3766		29.296875
3767		21.484375
3768		27.343750
3769		19.531250
3770		25.390625
3771		19.531250
3772		23.437500
3773		15.625000
3774		21.484375
3775		13.671875
3776		17.578125
3777		11.718750
3778		15.625000
3779		9.765625
3780		13.671875
3781		7.812500
3782		11.718750
3783		3.906250
3784		9.765625
3785		1.953125
3786		5.859375
3787		0.000000
3788		3.906250
3789		-1.953125
3790		1.953125
3791		-5.859375
3792		0.000000
3793		-7.812500
3794		-1.953125
3795		-9.765625
3796		-3.906250
3797		-11.718750
3798		-7.812500
3799		-15.625000
3800		-9.765625
3801		-17.578125
3802		-11.718750
3803		-19.531250
3804		-15.625000
3805		-23.437500
3806		-17.578125
3807		-25.390625
3808		-19.531250
3809		-27.343750
3810		-21.484375
3811		-29.296875
3812		-23.437500
3813		-31.250000
3814		-27.343750
3815		-35.156250
3816		-29.296875
3817		-37.109375
3818		-31.250000
3819		-39.062500
3820		-35.156250
3821		-41.015625
3822		-37.109375
3823		-42.968750
3824		-39.062500
3825		-46.875000
3826		-41.015625
3827		-48.828125
3828		-42.968750
3829		-50.781250
3830		-46.875000
3831		-52.734375
3832		-48.828125
3833		-54.687500
3834		-50.781250
3835		-56.640625
3836		-52.734375
3837		-58.593750
3838		-54.687500
3839		-60.546875
3840		-56.640625
3841		-64.453125
3842		-58.593750
3843		-64.453125
3844		-60.546875
3845		-68.359375
3846		-62.500000
3847		-68.359375
3848		-66.406250
3849		-72.265625
3850		-66.406250
3851		-72.265625
3852		-68.359375
3853		-74.218750
3854		-70.312500
3855		-76.171875
3856		-72.265625
3857		-78.125000
3858		-74.218750
3859		-80.078125
3860		-76.171875
3861		-82.031250
3862		-78.125000
3863		-82.031250
3864		-80.078125
3865		-83.984375
3866		-82.031250
3867		-85.937500
3868		-82.031250
3869		-87.890625
3870		-83.984375
3871		-89.843750
3872		-85.937500
3873		-89.843750
3874		-85.937500
3875		-91.796875
3876		-85.937500
3877		-93.750000
3878		-87.890625
3879		-93.750000
3880		-89.843750
3881		-93.750000
3882		-91.796875
3883		-95.703125
3884		-91.796875
3885		-95.703125
3886		-91.796875
3887		-97.656250
3888		-93.750000
3889		-97.656250
3890		-95.703125
3891		-97.656250
3892		-95.703125
3893		-99.609375
3894		-95.703125
3895		-101.562500
3896		-95.703125
3897		-99.609375
3898		-97.656250
3899		-101.562500
3900		-97.656250
3901		-101.562500
3902		-97.656250
3903		-101.562500
3904		-99.609375
3905		-101.562500
3906		-99.609375
3907		-103.515625
3908		-99.609375
3909		-103.515625
3910		-99.609375
3911		-103.515625
3912		-97.656250
3913		-101.562500
3914		-99.609375
3915		-101.562500
3916		-99.609375
3917		-101.562500
3918		-99.609375
3919		-101.562500
3920		-99.609375
3921		-101.562500
3922		-97.656250
3923		-101.562500
3924		-97.656250
3925		-101.562500
3926		-97.656250
3927		-101.562500
3928		-97.656250
3929		-99.609375
3930		-95.703125
3931		-99.609375
3932		-95.703125
3933		-99.609375
3934		-93.750000
3935		-97.656250
3936		-93.750000
3937		-97.656250
3938		-93.750000
3939		-95.703125
3940		-91.796875
3941		-95.703125
3942		-91.796875
3943		-93.750000
3944		-91.796875
3945		-93.750000
3946		-89.843750
3947		-91.796875
3948		-89.843750
3949		-91.796875
3950		-87.890625
3951		-91.796875
3952		-85.937500
3953		-87.890625
3954		-83.984375
3955		-87.890625
3956		-83.984375
3957		-85.937500
3958		-82.031250
3959		-83.984375
3960		-80.078125
3961		-83.984375
3962		-78.125000
3963		-82.031250
3964		-78.125000
3965		-80.078125
3966		-76.171875
3967		-78.125000
3968		-74.218750
3969		-76.171875
3970		-72.265625
3971		-74.218750
3972		-70.312500
3973		-72.265625
3974		-68.359375
3975		-70.312500
3976		-66.406250
3977		-68.359375
3978		-64.453125
3979		-68.359375
3980		-62.500000
3981		-64.453125
3982		-60.546875
3983		-62.500000
3984		-58.593750
3985		-60.546875
3986		-54.687500
3987		-58.593750
3988		-54.687500
3989		-56.640625
3990		-52.734375
3991		-54.687500
3992		-50.781250
3993		-52.734375
3994		-48.828125
3995		-50.781250
3996		-44.921875
3997		-46.875000
3998		-44.921875
3999		-44.921875
4000		-41.015625
4001		-44.921875
4002		-39.062500
4003		-41.015625
4004		-37.109375
4005		-39.062500
4006		-33.203125
4007		-35.156250
4008		-33.203125
4009		-35.156250
4010		-29.296875
4011		-31.250000
4012		-27.343750
4013		-31.250000
4014		-25.390625
4015		-27.343750
4016		-23.437500
4017		-25.390625
4018		-19.531250
4019		-23.437500
4020		-17.578125
4021		-19.531250
4022		-13.671875
4023		-17.578125
4024		-11.718750
4025		-15.625000
4026		-9.765625
4027		-13.671875
4028		-7.812500
4029		-9.765625
4030		-3.906250
4031		-7.812500
4032		-3.906250
4033		-5.859375
4034		-1.953125
4035		-3.906250
4036		1.953125
4037		-1.953125
4038		3.906250
4039		1.953125
4040		5.859375
4041		3.906250
4042		9.765625
4043		5.859375
4044		11.718750
4045		7.812500
4046		13.671875
4047		9.765625
4048		15.625000
4049		13.671875
4050		17.578125
4051		15.625000
4052		19.531250
4053		15.625000
4054		21.484375
4055		17.578125
4056		23.437500
4057		21.484375
4058		27.343750
4059		23.437500
4060		29.296875
4061		25.390625
4062		31.250000
4063		27.343750
4064		33.203125
4065		29.296875
4066		33.203125
4067		31.250000
4068		37.109375
4069		33.203125
4070		39.062500
4071		33.203125
4072		41.015625
4073		37.109375
4074		42.968750
4075		39.062500
4076		44.921875
4077		41.015625
4078		46.875000
4079		42.968750
4080		48.828125
4081		44.921875
4082		48.828125
4083		46.875000
4084		50.781250
4085		48.828125
4086		54.687500
4087		48.828125
4088		56.640625
4089		50.781250
4090		56.640625
4091		52.734375
4092		58.593750
4093		54.687500
4094		60.546875
4095		54.687500
4096		62.500000
4097		56.640625
4098		62.500000
4099		58.593750
4100		62.500000
4101		60.546875
4102		66.406250
4103		60.546875
4104		66.406250
4105		62.500000
4106		68.359375
4107		62.500000
4108		70.312500
4109		64.453125
4110		70.312500
4111		64.453125
4112		70.312500
4113		66.406250
4114		72.265625
4115		68.359375
4116		72.265625
4117		70.312500
4118		72.265625
4119		70.312500
4120		76.171875
4121		70.312500
4122		76.171875
4123		70.312500
4124		78.125000
4125		72.265625
4126		78.125000
4127		72.265625
4128		78.125000
4129		74.218750
4130		80.078125
4131		74.218750
4132		78.125000
4133		76.171875
4134		78.125000
4135		76.171875
4136		80.078125
4137		76.171875
4138		80.078125
4139		76.171875
4140		80.078125
4141		78.125000
4142		80.078125
4143		78.125000
4144		80.078125
4145		78.125000
4146		80.078125
4147		78.125000
4148		82.031250
4149		78.125000
4150		80.078125
4151		78.125000
4152		80.078125
4153		78.125000
4154		82.031250
4155		78.125000
4156		80.078125
4157		78.125000
4158		80.078125
4159		78.125000
4160		80.078125
4161		78.125000
4162		80.078125
4163		76.171875
4164		80.078125
4165		76.171875
4166		80.078125
4167		76.171875
4168		80.078125
4169		76.171875
4170		78.125000
4171		76.171875
4172		78.125000
4173		74.218750
4174		78.125000
4175		74.218750
4176		78.125000
4177		74.218750
4178		76.171875
4179		74.218750
4180		76.171875
4181		72.265625
4182		76.171875
4183		72.265625
4184		74.218750
4185		70.312500
4186		74.218750
4187		70.312500
4188		72.265625
4189		68.359375
4190		72.265625
4191		68.359375
4192		70.312500
4193		66.406250
4194		70.312500
4195		66.406250
4196		68.359375
4197		64.453125
4198		68.359375
4199		62.500000
4200		66.406250
4201		62.500000
4202		64.453125
4203		60.546875
4204		64.453125
4205		58.593750
4206		62.500000
4207		58.593750
4208		62.500000
4209		56.640625
4210		58.593750
4211		54.687500
4212		58.593750
4213		52.734375
4214		56.640625
4215		50.781250
4216		54.687500
4217		48.828125
4218		52.734375
4219		48.828125
4220		50.781250
4221		46.875000
4222		48.828125
4223		44.921875
4224		46.875000
4225		42.968750
4226		44.921875
4227		41.015625
4228		44.921875
4229		39.062500
4230		42.968750
4231		37.109375
4232		41.015625
4233		35.156250
4234		39.062500
4235		33.203125
4236		37.109375
4237		29.296875
4238		37.109375
4239		25.390625
4240		35.156250
4241		23.437500
4242		33.203125
4243		23.437500
4244		27.343750
4245		21.484375
4246		25.390625
4247		19.531250
4248		23.437500
4249		17.578125
4250		21.484375
4251		15.625000
4252		19.531250
4253		9.765625
4254		19.531250
4255		7.812500
4256		17.578125
4257		5.859375
4258		15.625000
4259		5.859375
4260		9.765625
4261		3.906250
4262		7.812500
4263		1.953125
4264		5.859375
4265		-1.953125
4266		1.953125
4267		-3.906250
4268		0.000000
4269		-9.765625
4270		0.000000
4271		-11.718750
4272		-1.953125
4273		-13.671875
4274		-3.906250
4275		-15.625000
4276		-5.859375
4277		-15.625000
4278		-11.718750
4279		-17.578125
4280		-13.671875
4281		-21.484375
4282		-17.578125
4283		-23.437500
4284		-19.531250
4285		-25.390625
4286		-21.484375
4287		-31.250000
4288		-21.484375
4289		-33.203125
4290		-23.437500
4291		-35.156250
4292		-25.390625
4293		-35.156250
4294		-31.250000
4295		-37.109375
4296		-33.203125
4297		-41.015625
4298		-35.156250
4299		-42.968750
4300		-39.062500
4301		-44.921875
4302		-41.015625
4303		-50.781250
4304		-41.015625
4305		-52.734375
4306		-41.015625
4307		-54.687500
4308		-44.921875
4309		-54.687500
4310		-46.875000
4311		-56.640625
4312		-52.734375
4313		-58.593750
4314		-54.687500
4315		-60.546875
4316		-56.640625
4317		-62.500000
4318		-58.593750
4319		-64.453125
4320		-60.546875
4321		-68.359375
4322		-58.593750
4323		-70.312500
4324		-60.546875
4325		-72.265625
4326		-62.500000
4327		-72.265625
4328		-68.359375
4329		-74.218750
4330		-70.312500
4331		-76.171875
4332		-72.265625
4333		-76.171875
4334		-74.218750
4335		-78.125000
4336		-76.171875
4337		-83.984375
4338		-74.218750
4339		-85.937500
4340		-76.171875
4341		-87.890625
4342		-76.171875
4343		-83.984375
4344		-82.031250
4345		-85.937500
4346		-83.984375
4347		-87.890625
4348		-83.984375
4349		-89.843750
4350		-85.937500
4351		-89.843750
4352		-87.890625
4353		-95.703125
4354		-85.937500
4355		-95.703125
4356		-85.937500
4357		-97.656250
4358		-85.937500
4359		-97.656250
4360		-87.890625
4361		-95.703125
4362		-93.750000
4363		-95.703125
4364		-93.750000
4365		-97.656250
4366		-93.750000
4367		-97.656250
4368		-95.703125
4369		-99.609375
4370		-95.703125
4371		-103.515625
4372		-93.750000
4373		-103.515625
4374		-93.750000
4375		-103.515625
4376		-93.750000
4377		-101.562500
4378		-97.656250
4379		-101.562500
4380		-99.609375
4381		-101.562500
4382		-99.609375
4383		-101.562500
4384		-99.609375
4385		-101.562500
4386		-99.609375
4387		-105.468750
4388		-95.703125
4389		-105.468750
4390		-95.703125
4391		-105.468750
4392		-95.703125
4393		-103.515625
4394		-95.703125
4395		-101.562500
4396		-99.609375
4397		-101.562500
4398		-99.609375
4399		-101.562500
4400		-97.656250
4401		-101.562500
4402		-97.656250
4403		-99.609375
4404		-97.656250
4405		-103.515625
4406		-93.750000
4407		-103.515625
4408		-91.796875
4409		-101.562500
4410		-91.796875
4411		-97.656250
4412		-93.750000
4413		-97.656250
4414		-93.750000
4415		-95.703125
4416		-93.750000
4417		-95.703125
4418		-91.796875
4419		-93.750000
4420		-91.796875
4421		-91.796875
4422		-89.843750
4423		-93.750000
4424		-85.937500
4425		-91.796875
4426		-85.937500
4427		-89.843750
4428		-85.937500
4429		-87.890625
4430		-85.937500
4431		-85.937500
4432		-83.984375
4433		-85.937500
4434		-82.031250
4435		-83.984375
4436		-80.078125
4437		-82.031250
4438		-80.078125
4439		-82.031250
4440		-74.218750
4441		-82.031250
4442		-72.265625
4443		-78.125000
4444		-74.218750
4445		-76.171875
4446		-72.265625
4447		-74.218750
4448		-70.312500
4449		-72.265625
4450		-68.359375
4451		-70.312500
4452		-66.406250
4453		-68.359375
4454		-64.453125
4455		-66.406250
4456		-62.500000
4457		-66.406250
4458		-58.593750
4459		-64.453125
4460		-56.640625
4461		-60.546875
4462		-56.640625
4463		-58.593750
4464		-54.687500
4465		-56.640625
4466		-52.734375
4467		-54.687500
4468		-50.781250
4469		-52.734375
4470		-48.828125
4471		-48.828125
4472		-46.875000
4473		-46.875000
4474		-42.968750
4475		-44.921875
4476		-41.015625
4477		-42.968750
4478		-39.062500
4479		-41.015625
4480		-37.109375
4481		-39.062500
4482		-35.156250
4483		-35.156250
4484		-31.250000
4485		-33.203125
4486		-29.296875
4487		-31.250000
4488		-27.343750
4489		-29.296875
4490		-25.390625
4491		-27.343750
4492		-23.437500
4493		-25.390625
4494		-19.531250
4495		-21.484375
4496		-17.578125
4497		-19.531250
4498		-15.625000
4499		-17.578125
4500		-13.671875
4501		-15.625000
4502		-9.765625
4503		-11.718750
4504		-7.812500
4505		-9.765625
4506		-5.859375
4507		-7.812500
4508		-3.906250
4509		-5.859375
4510		-1.953125
4511		-1.953125
4512		0.000000
4513		0.000000
4514		3.906250
4515		1.953125
4516		5.859375
4517		3.906250
4518		7.812500
4519		5.859375
4520		9.765625
4521		7.812500
4522		13.671875
4523		9.765625
4524		15.625000
4525		11.718750
4526		17.578125
4527		15.625000
4528		19.531250
4529		15.625000
4530		23.437500
4531		19.531250
4532		23.437500
4533		21.484375
4534		25.390625
4535		25.390625
4536		27.343750
4537		25.390625
4538		29.296875
4539		27.343750
4540		33.203125
4541		29.296875
4542		33.203125
4543		33.203125
4544		35.156250
4545		33.203125
4546		39.062500
4547		35.156250
4548		41.015625
4549		39.062500
4550		42.968750
4551		41.015625
4552		42.968750
4553		41.015625
4554		44.921875
4555		42.968750
4556		48.828125
4557		44.921875
4558		48.828125
4559		46.875000
4560		50.781250
4561		48.828125
4562		52.734375
4563		48.828125
4564		54.687500
4565		52.734375
4566		54.687500
4567		54.687500
4568		56.640625
4569		54.687500
4570		58.593750
4571		56.640625
4572		60.546875
4573		56.640625
4574		62.500000
4575		58.593750
4576		62.500000
4577		60.546875
4578		64.453125
4579		60.546875
4580		66.406250
4581		62.500000
4582		66.406250
4583		64.453125
4584		68.359375
4585		66.406250
4586		68.359375
4587		66.406250
4588		70.312500
4589		66.406250
4590		72.265625
4591		68.359375
4592		72.265625
4593		70.312500
4594		72.265625
4595		70.312500
4596		74.218750
4597		70.312500
4598		76.171875
4599		72.265625
4600		76.171875
4601		74.218750
4602		76.171875
4603		74.218750
4604		76.171875
4605		74.218750
4606		78.125000
4607		74.218750
4608		80.078125
4609		76.171875
4610		78.125000
4611		76.171875
4612		80.078125
4613		76.171875
4614		80.078125
4615		76.171875
4616		80.078125
4617		78.125000
4618		80.078125
4619		78.125000
4620		80.078125
4621		78.125000
4622		80.078125
4623		78.125000
4624		82.031250
4625		78.125000
4626		82.031250
4627		78.125000
4628		80.078125
4629		78.125000
4630		82.031250
4631		78.125000
4632		82.031250
4633		78.125000
4634		80.078125
4635		78.125000
4636		80.078125
4637		78.125000
4638		80.078125
4639		76.171875
4640		82.031250
4641		76.171875
4642		82.031250
4643		76.171875
4644		80.078125
4645		76.171875
4646		80.078125
4647		74.218750
4648		80.078125
4649		76.171875
4650		78.125000
4651		74.218750
4652		78.125000
4653		74.218750
4654		76.171875
4655		74.218750
4656		76.171875
4657		72.265625
4658		78.125000
4659		72.265625
4660		76.171875
4661		70.312500
4662		74.218750
4663		68.359375
4664		74.218750
4665		68.359375
4666		72.265625
4667		66.406250
4668		70.312500
4669		66.406250
4670		70.312500
4671		66.406250
4672		68.359375
4673		62.500000
4674		68.359375
4675		62.500000
4676		66.406250
4677		62.500000
4678		64.453125
4679		58.593750
4680		64.453125
4681		58.593750
4682		62.500000
4683		58.593750
4684		60.546875
4685		56.640625
4686		58.593750
4687		54.687500
4688		58.593750
4689		50.781250
4690		56.640625
4691		50.781250
4692		56.640625
4693		50.781250
4694		54.687500
4695		48.828125
4696		50.781250
4697		44.921875
4698		50.781250
4699		44.921875
4700		50.781250
4701		42.968750
4702		46.875000
4703		41.015625
4704		44.921875
4705		39.062500
4706		42.968750
4707		35.156250
4708		41.015625
4709		35.156250
4710		39.062500
4711		33.203125
4712		37.109375
4713		31.250000
4714		35.156250
4715		29.296875
4716		33.203125
4717		25.390625
4718		29.296875
4719		23.437500
4720		27.343750
4721		21.484375
4722		25.390625
4723		19.531250
4724		23.437500
4725		17.578125
4726		21.484375
4727		15.625000
4728		19.531250
4729		13.671875
4730		17.578125
4731		11.718750
4732		13.671875
4733		7.812500
4734		11.718750
4735		5.859375
4736		9.765625
4737		3.906250
4738		7.812500
4739		1.953125
4740		5.859375
4741		-1.953125
4742		3.906250
4743		-3.906250
4744		0.000000
4745		-5.859375
4746		-1.953125
4747		-7.812500
4748		-3.906250
4749		-9.765625
4750		-7.812500
4751		-13.671875
4752		-9.765625
4753		-15.625000
4754		-11.718750
4755		-17.578125
4756		-13.671875
4757		-19.531250
4758		-15.625000
4759		-23.437500
4760		-19.531250
4761		-25.390625
4762		-21.484375
4763		-29.296875
4764		-23.437500
4765		-31.250000
4766		-25.390625
4767		-33.203125
4768		-29.296875
4769		-35.156250
4770		-31.250000
4771		-37.109375
4772		-33.203125
4773		-39.062500
4774		-35.156250
4775		-41.015625
4776		-39.062500
4777		-44.921875
4778		-41.015625
4779		-46.875000
4780		-42.968750
4781		-48.828125
4782		-44.921875
4783		-50.781250
4784		-46.875000
4785		-52.734375
4786		-48.828125
4787		-54.687500
4788		-50.781250
4789		-56.640625
4790		-54.687500
4791		-60.546875
4792		-56.640625
4793		-62.500000
4794		-58.593750
4795		-64.453125
4796		-60.546875
4797		-66.406250
4798		-62.500000
4799		-68.359375
4800		-64.453125
4801		-68.359375
4802		-66.406250
4803		-70.312500
4804		-68.359375
4805		-72.265625
4806		-70.312500
4807		-74.218750
4808		-72.265625
4809		-76.171875
4810		-74.218750
4811		-78.125000
4812		-74.218750
4813		-80.078125
4814		-76.171875
4815		-82.031250
4816		-78.125000
4817		-83.984375
4818		-80.078125
4819		-83.984375
4820		-82.031250
4821		-85.937500
4822		-82.031250
4823		-87.890625
4824		-83.984375
4825		-89.843750
4826		-83.984375
4827		-89.843750
4828		-85.937500
4829		-89.843750
4830		-87.890625
4831		-91.796875
4832		-89.843750
4833		-93.750000
4834		-89.843750
4835		-93.750000
4836		-91.796875
4837		-95.703125
4838		-91.796875
4839		-95.703125
4840		-93.750000
4841		-97.656250
4842		-91.796875
4843		-97.656250
4844		-95.703125
4845		-97.656250
4846		-95.703125
4847		-99.609375
4848		-95.703125
4849		-99.609375
4850		-97.656250
4851		-99.609375
4852		-97.656250
4853		-99.609375
4854		-97.656250
4855		-99.609375
4856		-97.656250
4857		-101.562500
4858		-97.656250
4859		-103.515625
4860		-97.656250
4861		-101.562500
4862		-97.656250
4863		-101.562500
4864		-99.609375
4865		-101.562500
4866		-97.656250
4867		-101.562500
4868		-99.609375
4869		-101.562500
4870		-97.656250
4871		-101.562500
4872		-97.656250
4873		-99.609375
4874		-97.656250
4875		-103.515625
4876		-95.703125
4877		-101.562500
4878		-95.703125
4879		-99.609375
4880		-97.656250
4881		-99.609375
4882		-95.703125
4883		-97.656250
4884		-95.703125
4885		-97.656250
4886		-95.703125
4887		-97.656250
4888		-93.750000
4889		-95.703125
4890		-93.750000
4891		-95.703125
4892		-89.843750
4893		-95.703125
4894		-89.843750
4895		-93.750000
4896		-89.843750
4897		-91.796875
4898		-89.843750
4899		-91.796875
4900		-87.890625
4901		-89.843750
4902		-87.890625
4903		-87.890625
4904		-85.937500
4905		-87.890625
4906		-83.984375
4907		-85.937500
4908		-83.984375
4909		-87.890625
4910		-80.078125
4911		-85.937500
4912		-78.125000
4913		-82.031250
4914		-78.125000
4915		-80.078125
4916		-76.171875
4917		-78.125000
4918		-76.171875
4919		-78.125000
4920		-72.265625
4921		-76.171875
4922		-72.265625
4923		-74.218750
4924		-70.312500
4925		-72.265625
4926		-66.406250
4927		-70.312500
4928		-64.453125
4929		-68.359375
4930		-64.453125
4931		-66.406250
4932		-62.500000
4933		-64.453125
4934		-60.546875
4935		-62.500000
4936		-58.593750
4937		-60.546875
4938		-56.640625
4939		-58.593750
4940		-54.687500
4941		-56.640625
4942		-48.828125
4943		-54.687500
4944		-48.828125
4945		-52.734375
4946		-46.875000
4947		-48.828125
4948		-44.921875
4949		-46.875000
4950		-42.968750
4951		-44.921875
4952		-41.015625
4953		-42.968750
4954		-39.062500
4955		-41.015625
4956		-37.109375
4957		-39.062500
4958		-35.156250
4959		-37.109375
4960		-29.296875
4961		-35.156250
4962		-29.296875
4963		-31.250000
4964		-27.343750
4965		-29.296875
4966		-25.390625
4967		-25.390625
4968		-21.484375
4969		-23.437500
4970		-19.531250
4971		-21.484375
4972		-17.578125
4973		-19.531250
4974		-15.625000
4975		-17.578125
4976		-11.718750
4977		-15.625000
4978		-7.812500
4979		-11.718750
4980		-7.812500
4981		-9.765625
4982		-5.859375
4983		-7.812500
4984		-3.906250
4985		-3.906250
4986		0.000000
4987		-1.953125
4988		1.953125
4989		0.000000
4990		3.906250
4991		1.953125
4992		5.859375
4993		1.953125
4994		9.765625
4995		5.859375
4996		11.718750
4997		9.765625
4998		13.671875
4999		11.718750
5000		15.625000
5001		13.671875
5002		17.578125
5003		15.625000
5004		19.531250
5005		17.578125
5006		21.484375
5007		19.531250
5008		23.437500
5009		19.531250
5010		27.343750
5011		23.437500
5012		29.296875
5013		27.343750
5014		31.250000
5015		29.296875
5016		33.203125
5017		31.250000
5018		35.156250
5019		33.203125
5020		37.109375
5021		35.156250
5022		39.062500
5023		37.109375
5024		41.015625
5025		39.062500
5026		44.921875
5027		39.062500
5028		46.875000
5029		41.015625
5030		46.875000
5031		42.968750
5032		46.875000
5033		46.875000
5034		48.828125
5035		48.828125
5036		50.781250
5037		48.828125
5038		52.734375
5039		50.781250
5040		54.687500
5041		52.734375
5042		56.640625
5043		52.734375
5044		58.593750
5045		54.687500
5046		58.593750
5047		56.640625
5048		60.546875
5049		58.593750
5050		62.500000
5051		60.546875
5052		64.453125
5053		60.546875
5054		64.453125
5055		62.500000
5056		66.406250
5057		64.453125
5058		66.406250
5059		64.453125
5060		70.312500
5061		66.406250
5062		70.312500
5063		68.359375
5064		70.312500
5065		68.359375
5066		72.265625
5067		70.312500
5068		72.265625
5069		70.312500
5070		74.218750
5071		72.265625
5072		74.218750
5073		72.265625
5074		74.218750
5075		72.265625
5076		76.171875
5077		72.265625
5078		78.125000
5079		74.218750
5080		78.125000
5081		76.171875
5082		78.125000
5083		76.171875
5084		78.125000
5085		76.171875
5086		80.078125
5087		76.171875
5088		80.078125
5089		78.125000
5090		80.078125
5091		78.125000
5092		80.078125
5093		78.125000
5094		80.078125
5095		78.125000
5096		80.078125
5097		78.125000
5098		82.031250
5099		78.125000
5100		82.031250
5101		80.078125
5102		82.031250
5103		78.125000
5104		82.031250
5105		78.125000
5106		82.031250
5107		78.125000
5108		82.031250
5109		78.125000
5110		82.031250
5111		78.125000
5112		82.031250
5113		78.125000
5114		80.078125
5115		78.125000
5116		80.078125
5117		76.171875
5118		82.031250
5119		78.125000
5120		80.078125
5121		76.171875
5122		80.078125
5123		76.171875
5124		78.125000
5125		76.171875
5126		78.125000
5127		76.171875
5128		78.125000
5129		74.218750
5130		78.125000
5131		74.218750
5132		76.171875
5133		72.265625
5134		76.171875
5135		72.265625
5136		76.171875
5137		72.265625
5138		74.218750
5139		70.312500
5140		74.218750
5141		70.312500
5142		72.265625
5143		68.359375
5144		72.265625
5145		68.359375
5146		70.312500
5147		66.406250
5148		70.312500
5149		64.453125
5150		68.359375
5151		64.453125
5152		66.406250
5153		62.500000
5154		66.406250
5155		60.546875
5156		64.453125
5157		60.546875
5158		62.500000
5159		58.593750
5160		62.500000
5161		56.640625
5162		60.546875
5163		54.687500
5164		58.593750
5165		52.734375
5166		56.640625
5167		52.734375
5168		54.687500
5169		50.781250
5170		54.687500
5171		48.828125
5172		52.734375
5173		46.875000
5174		50.781250
5175		44.921875
5176		48.828125
5177		42.968750
5178		46.875000
5179		41.015625
5180		44.921875
5181		39.062500
5182		42.968750
5183		37.109375
5184		41.015625
5185		35.156250
5186		39.062500
5187		33.203125
5188		37.109375
5189		31.250000
5190		35.156250
5191		29.296875
5192		33.203125
5193		27.343750
5194		31.250000
5195		25.390625
5196		29.296875
5197		23.437500
5198		27.343750
5199		19.531250
5200		23.437500
5201		17.578125
5202		21.484375
5203		15.625000
5204		19.531250
5205		13.671875
5206		17.578125
5207		11.718750
5208		15.625000
5209		7.812500
5210		13.671875
5211		5.859375
5212		11.718750
5213		3.906250
5214		7.812500
5215		1.953125
5216		5.859375
5217		0.000000
5218		3.906250
5219		-3.906250
5220		1.953125
5221		-5.859375
5222		-1.953125
5223		-7.812500
5224		-3.906250
5225		-9.765625
5226		-5.859375
5227		-11.718750
5228		-7.812500
5229		-15.625000
5230		-11.718750
5231		-17.578125
5232		-13.671875
5233		-19.531250
5234		-15.625000
5235		-21.484375
5236		-17.578125
5237		-23.437500
5238		-21.484375
5239		-27.343750
5240		-23.437500
5241		-29.296875
5242		-25.390625
5243		-31.250000
5244		-27.343750
5245		-35.156250
5246		-29.296875
5247		-37.109375
5248		-33.203125
5249		-39.062500
5250		-35.156250
5251		-41.015625
5252		-37.109375
5253		-42.968750
5254		-39.062500
5255		-44.921875
5256		-42.968750
5257		-48.828125
5258		-44.921875
5259		-50.781250
5260		-46.875000
5261		-52.734375
5262		-48.828125
5263		-54.687500
5264		-50.781250
5265		-56.640625
5266		-52.734375
5267		-58.593750
5268		-54.687500
5269		-60.546875
5270		-56.640625
5271		-62.500000
5272		-58.593750
5273		-64.453125
5274		-60.546875
5275		-66.406250
5276		-62.500000
5277		-68.359375
5278		-64.453125
5279		-70.312500
5280		-66.406250
5281		-72.265625
5282		-68.359375
5283		-74.218750
5284		-70.312500
5285		-76.171875
5286		-72.265625
5287		-78.125000
5288		-74.218750
5289		-78.125000
5290		-76.171875
5291		-80.078125
5292		-78.125000
5293		-82.031250
5294		-78.125000
5295		-83.984375
5296		-80.078125
5297		-85.937500
5298		-82.031250
5299		-85.937500
5300		-83.984375
5301		-87.890625
5302		-83.984375
5303		-87.890625
5304		-85.937500
5305		-89.843750
5306		-87.890625
5307		-91.796875
5308		-87.890625
5309		-91.796875
5310		-89.843750
5311		-93.750000
5312		-89.843750
5313		-95.703125
5314		-91.796875
5315		-95.703125
5316		-91.796875
5317		-95.703125
5318		-93.750000
5319		-95.703125
5320		-93.750000
5321		-97.656250
5322		-95.703125
5323		-97.656250
5324		-95.703125
5325		-99.609375
5326		-95.703125
5327		-99.609375
5328		-97.656250
5329		-99.609375
5330		-97.656250
5331		-99.609375
5332		-97.656250
5333		-99.609375
5334		-97.656250
5335		-99.609375
5336		-97.656250
5337		-99.609375
5338		-97.656250
5339		-99.609375
5340		-97.656250
5341		-99.609375
5342		-97.656250
5343		-99.609375
5344		-97.656250
5345		-101.562500
5346		-97.656250
5347		-99.609375
5348		-97.656250
5349		-99.609375
5350		-97.656250
5351		-99.609375
5352		-97.656250
5353		-99.609375
5354		-95.703125
5355		-97.656250
5356		-95.703125
5357		-99.609375
5358		-95.703125
5359		-97.656250
5360		-95.703125
5361		-97.656250
5362		-93.750000
5363		-95.703125
5364		-93.750000
5365		-95.703125
5366		-91.796875
5367		-93.750000
5368		-91.796875
5369		-93.750000
5370		-91.796875
5371		-91.796875
5372		-89.843750
5373		-91.796875
5374		-87.890625
5375		-89.843750
5376		-87.890625
5377		-89.843750
5378		-85.937500
5379		-89.843750
5380		-85.937500
5381		-85.937500
5382		-83.984375
5383		-85.937500
5384		-82.031250
5385		-83.984375
5386		-80.078125
5387		-82.031250
5388		-80.078125
5389		-82.031250
5390		-78.125000
5391		-80.078125
5392		-76.171875
5393		-78.125000
5394		-74.218750
5395		-76.171875
5396		-72.265625
5397		-74.218750
5398		-72.265625
5399		-74.218750
5400		-68.359375
5401		-72.265625
5402		-68.359375
5403		-70.312500
5404		-66.406250
5405		-68.359375
5406		-64.453125
5407		-66.406250
5408		-62.500000
5409		-64.453125
5410		-58.593750
5411		-62.500000
5412		-58.593750
5413		-60.546875
5414		-56.640625
5415		-58.593750
5416		-54.687500
5417		-54.687500
5418		-52.734375
5419		-52.734375
5420		-50.781250
5421		-50.781250
5422		-46.875000
5423		-48.828125
5424		-44.921875
5425		-46.875000
5426		-42.968750
5427		-44.921875
5428		-41.015625
5429		-42.968750
5430		-39.062500
5431		-41.015625
5432		-37.109375
5433		-37.109375
5434		-33.203125
5435		-35.156250
5436		-31.250000
5437		-33.203125
5438		-29.296875
5439		-31.250000
5440		-27.343750
5441		-27.343750
5442		-23.437500
5443		-25.390625
5444		-21.484375
5445		-23.437500
5446		-19.531250
5447		-21.484375
5448		-17.578125
5449		-19.531250
5450		-15.625000
5451		-15.625000
5452		-11.718750
5453		-13.671875
5454		-9.765625
5455		-11.718750
5456		-7.812500
5457		-9.765625
5458		-5.859375
5459		-7.812500
5460		-3.906250
5461		-5.859375
5462		0.000000
5463		-1.953125
5464		1.953125
5465		0.000000
5466		3.906250
5467		1.953125
5468		5.859375
5469		5.859375
5470		7.812500
5471		7.812500
5472		11.718750
5473		9.765625
5474		13.671875
5475		11.718750
5476		15.625000
5477		13.671875
5478		17.578125
5479		15.625000
5480		19.531250
5481		17.578125
5482		21.484375
5483		21.484375
5484		25.390625
5485		23.437500
5486		27.343750
5487		25.390625
5488		29.296875
5489		27.343750
5490		31.250000
5491		29.296875
5492		33.203125
5493		31.250000
5494		35.156250
5495		33.203125
5496		37.109375
5497		35.156250
5498		39.062500
5499		37.109375
5500		41.015625
5501		39.062500
5502		42.968750
5503		41.015625
5504		44.921875
5505		42.968750
5506		46.875000
5507		44.921875
5508		48.828125
5509		46.875000
5510		50.781250
5511		48.828125
5512		50.781250
5513		48.828125
5514		52.734375
5515		50.781250
5516		54.687500
5517		52.734375
5518		56.640625
5519		54.687500
5520		58.593750
5521		56.640625
5522		60.546875
5523		58.593750
5524		60.546875
5525		58.593750
5526		62.500000
5527		60.546875
5528		64.453125
5529		62.500000
5530		64.453125
5531		62.500000
5532		66.406250
5533		64.453125
5534		68.359375
5535		66.406250
5536		68.359375
5537		66.406250
5538		70.312500
5539		68.359375
5540		70.312500
5541		68.359375
5542		72.265625
5543		70.312500
5544		72.265625
5545		70.312500
5546		74.218750
5547		72.265625
5548		74.218750
5549		72.265625
5550		76.171875
5551		74.218750
5552		76.171875
5553		74.218750
5554		76.171875
5555		76.171875
5556		78.125000
5557		76.171875
5558		78.125000
5559		76.171875
5560		80.078125
5561		78.125000
5562		80.078125
5563		78.125000
5564		80.078125
5565		78.125000
5566		80.078125
5567		78.125000
5568		80.078125
5569		78.125000
5570		82.031250
5571		80.078125
5572		82.031250
5573		80.078125
5574		82.031250
5575		80.078125
5576		82.031250
5577		80.078125
5578		82.031250
5579		80.078125
5580		82.031250
5581		80.078125
5582		83.984375
5583		80.078125
5584		82.031250
5585		80.078125
5586		82.031250
5587		80.078125
5588		82.031250
5589		80.078125
5590		82.031250
5591		78.125000
5592		82.031250
5593		78.125000
5594		80.078125
5595		78.125000
5596		80.078125
5597		78.125000
5598		80.078125
5599		78.125000
5600		80.078125
5601		76.171875
5602		80.078125
5603		76.171875
5604		78.125000
5605		76.171875
5606		78.125000
5607		74.218750
5608		78.125000
5609		74.218750
5610		76.171875
5611		72.265625
5612		76.171875
5613		72.265625
5614		76.171875
5615		72.265625
5616		74.218750
5617		70.312500
5618		72.265625
5619		68.359375
5620		72.265625
5621		68.359375
5622		70.312500
5623		66.406250
5624		70.312500
5625		66.406250
5626		68.359375
5627		64.453125
5628		68.359375
5629		62.500000
5630		66.406250
5631		62.500000
5632		64.453125
5633		60.546875
5634		64.453125
5635		58.593750
5636		62.500000
5637		58.593750
5638		60.546875
5639		56.640625
5640		60.546875
5641		54.687500
5642		58.593750
5643		52.734375
5644		56.640625
5645		50.781250
5646		54.687500
5647		50.781250
5648		52.734375
5649		48.828125
5650		50.781250
5651		46.875000
5652		48.828125
5653		44.921875
5654		46.875000
5655		42.968750
5656		46.875000
5657		41.015625
5658		44.921875
5659		39.062500
5660		42.968750
5661		37.109375
5662		41.015625
5663		35.156250
5664		39.062500
5665		33.203125
5666		37.109375
5667		31.250000
5668		33.203125
5669		29.296875
5670		31.250000
5671		25.390625
5672		29.296875
5673		23.437500
5674		27.343750
5675		21.484375
5676		25.390625
5677		19.531250
5678		23.437500
5679		17.578125
5680		21.484375
5681		15.625000
5682		19.531250
5683		11.718750
5684		15.625000
5685		9.765625
5686		13.671875
5687		7.812500
5688		11.718750
5689		5.859375
5690		9.765625
5691		3.906250
5692		7.812500
5693		0.000000
5694		3.906250
5695		-1.953125
5696		1.953125
5697		-3.906250
5698		0.000000
5699		-7.812500
5700		-1.953125
5701		-9.765625
5702		-5.859375
5703		-11.718750
5704		-7.812500
5705		-13.671875
5706		-9.765625
5707		-15.625000
5708		-11.718750
5709		-19.531250
5710		-15.625000
5711		-21.484375
5712		-17.578125
5713		-23.437500
5714		-19.531250
5715		-25.390625
5716		-21.484375
5717		-27.343750
5718		-23.437500
5719		-31.250000
5720		-25.390625
5721		-33.203125
5722		-29.296875
5723		-35.156250
5724		-31.250000
5725		-37.109375
5726		-33.203125
5727		-39.062500
5728		-35.156250
5729		-42.968750
5730		-39.062500
5731		-44.921875
5732		-41.015625
5733		-46.875000
5734		-42.968750
5735		-48.828125
5736		-44.921875
5737		-50.781250
5738		-46.875000
5739		-52.734375
5740		-50.781250
5741		-56.640625
5742		-52.734375
5743		-58.593750
5744		-54.687500
5745		-60.546875
5746		-56.640625
5747		-62.500000
5748		-58.593750
5749		-64.453125
5750		-60.546875
5751		-66.406250
5752		-62.500000
5753		-68.359375
5754		-64.453125
5755		-70.312500
5756		-66.406250
5757		-72.265625
5758		-68.359375
5759		-72.265625
5760		-70.312500
5761		-74.218750
5762		-72.265625
5763		-76.171875
5764		-72.265625
5765		-78.125000
5766		-74.218750
5767		-80.078125
5768		-76.171875
5769		-82.031250
5770		-78.125000
5771		-83.984375
5772		-80.078125
5773		-83.984375
5774		-80.078125
5775		-85.937500
5776		-82.031250
5777		-85.937500
5778		-83.984375
5779		-87.890625
5780		-85.937500
5781		-89.843750
5782		-85.937500
5783		-89.843750
5784		-87.890625
5785		-91.796875
5786		-87.890625
5787		-91.796875
5788		-89.843750
5789		-93.750000
5790		-89.843750
5791		-93.750000
5792		-91.796875
5793		-95.703125
5794		-91.796875
5795		-95.703125
5796		-93.750000
5797		-95.703125
5798		-93.750000
5799		-97.656250
5800		-93.750000
5801		-97.656250
5802		-95.703125
5803		-97.656250
5804		-95.703125
5805		-97.656250
5806		-95.703125
5807		-97.656250
5808		-95.703125
5809		-99.609375
5810		-95.703125
5811		-99.609375
5812		-95.703125
5813		-99.609375
5814		-95.703125
5815		-99.609375
5816		-95.703125
5817		-99.609375
5818		-97.656250
5819		-99.609375
5820		-97.656250
5821		-99.609375
5822		-95.703125
5823		-99.609375
5824		-95.703125
5825		-99.609375
5826		-95.703125
5827		-97.656250
5828		-95.703125
5829		-97.656250
5830		-95.703125
5831		-97.656250
5832		-95.703125
5833		-95.703125
5834		-93.750000
5835		-95.703125
5836		-93.750000
5837		-95.703125
5838		-91.796875
5839		-95.703125
5840		-91.796875
5841		-93.750000
5842		-91.796875
5843		-93.750000
5844		-89.843750
5845		-91.796875
5846		-89.843750
5847		-91.796875
5848		-87.890625
5849		-89.843750
5850		-87.890625
5851		-89.843750
5852		-85.937500
5853		-87.890625
5854		-85.937500
5855		-85.937500
5856		-83.984375
5857		-85.937500
5858		-82.031250
5859		-83.984375
5860		-82.031250
5861		-82.031250
5862		-80.078125
5863		-82.031250
5864		-78.125000
5865		-80.078125
5866		-76.171875
5867		-78.125000
5868		-74.218750
5869		-76.171875
5870		-74.218750
5871		-74.218750
5872		-72.265625
5873		-72.265625
5874		-70.312500
5875		-72.265625
5876		-68.359375
5877		-70.312500
5878		-66.406250
5879		-68.359375
5880		-64.453125
5881		-66.406250
5882		-62.500000
5883		-64.453125
5884		-60.546875
5885		-62.500000
5886		-58.593750
5887		-60.546875
5888		-54.687500
5889		-58.593750
5890		-54.687500
5891		-56.640625
5892		-48.828125
5893		-54.687500
5894		-50.781250
5895		-50.781250
5896		-46.875000
5897		-48.828125
5898		-44.921875
5899		-46.875000
5900		-42.968750
5901		-44.921875
5902		-41.015625
5903		-42.968750
5904		-39.062500
5905		-42.968750
5906		-37.109375
5907		-39.062500
5908		-35.156250
5909		-39.062500
5910		-31.250000
5911		-33.203125
5912		-27.343750
5913		-33.203125
5914		-27.343750
5915		-29.296875
5916		-25.390625
5917		-27.343750
5918		-21.484375
5919		-25.390625
5920		-19.531250
5921		-23.437500
5922		-15.625000
5923		-19.531250
5924		-15.625000
5925		-17.578125
5926		-11.718750
5927		-15.625000
5928		-11.718750
5929		-15.625000
5930		-5.859375
5931		-9.765625
5932		-5.859375
5933		-7.812500
5934		-3.906250
5935		-7.812500
5936		0.000000
5937		-3.906250
5938		3.906250
5939		-1.953125
5940		3.906250
5941		1.953125
5942		5.859375
5943		1.953125
5944		9.765625
5945		5.859375
5946		13.671875
5947		7.812500
5948		11.718750
5949		9.765625
5950		15.625000
5951		11.718750
5952		19.531250
5953		11.718750
5954		21.484375
5955		17.578125
5956		21.484375
5957		19.531250
5958		23.437500
5959		21.484375
5960		27.343750
5961		23.437500
5962		27.343750
5963		25.390625
5964		31.250000
5965		29.296875
5966		31.250000
5967		31.250000
5968		35.156250
5969		31.250000
5970		39.062500
5971		35.156250
5972		39.062500
5973		37.109375
5974		39.062500
5975		37.109375
5976		42.968750
5977		37.109375
5978		46.875000
5979		39.062500
5980		46.875000
5981		44.921875
5982		46.875000
5983		46.875000
5984		48.828125
5985		46.875000
5986		52.734375
5987		46.875000
5988		54.687500
5989		48.828125
5990		54.687500
5991		52.734375
5992		56.640625
5993		52.734375
5994		60.546875
5995		56.640625
5996		58.593750
5997		52.734375
5998		64.453125
5999		58.593750
6000		62.500000
6001		60.546875
6002		64.453125
6003		58.593750
6004		68.359375
6005		60.546875
6006		68.359375
6007		64.453125
6008		68.359375
6009		64.453125
6010		72.265625
6011		64.453125
6012		74.218750
6013		64.453125
6014		74.218750
6015		70.312500
6016		72.265625
6017		70.312500
6018		74.218750
6019		70.312500
6020		76.171875
6021		70.312500
6022		78.125000
6023		72.265625
6024		78.125000
6025		74.218750
6026		78.125000
6027		72.265625
6028		82.031250
6029		74.218750
6030		82.031250
6031		76.171875
6032		80.078125
6033		76.171875
6034		80.078125
6035		76.171875
6036		82.031250
6037		76.171875
6038		83.984375
6039		76.171875
6040		82.031250
6041		80.078125
6042		82.031250
6043		76.171875
6044		85.937500
6045		76.171875
6046		85.937500
6047		78.125000
6048		87.890625
6049		80.078125
6050		83.984375
6051		80.078125
6052		85.937500
6053		78.125000
6054		85.937500
6055		78.125000
6056		87.890625
6057		82.031250
6058		83.984375
6059		78.125000
6060		85.937500
6061		78.125000
6062		87.890625
6063		76.171875
6064		85.937500
6065		80.078125
6066		83.984375
6067		80.078125
6068		82.031250
6069		78.125000
6070		83.984375
6071		78.125000
6072		85.937500
6073		78.125000
6074		83.984375
6075		80.078125
6076		82.031250
6077		76.171875
6078		83.984375
6079		78.125000
6080		80.078125
6081		74.218750
6082		83.984375
6083		76.171875
6084		80.078125
6085		74.218750
6086		80.078125
6087		72.265625
6088		80.078125
6089		72.265625
6090		78.125000
6091		72.265625
6092		76.171875
6093		70.312500
6094		76.171875
6095		68.359375
6096		78.125000
6097		68.359375
6098		76.171875
6099		68.359375
6100		72.265625
6101		68.359375
6102		70.312500
6103		64.453125
6104		70.312500
6105		62.500000
6106		72.265625
6107		64.453125
6108		68.359375
6109		60.546875
6110		66.406250
6111		58.593750
6112		68.359375
6113		56.640625
6114		64.453125
6115		58.593750
6116		60.546875
6117		56.640625
6118		60.546875
6119		52.734375
6120		58.593750
6121		50.781250
6122		60.546875
6123		50.781250
6124		56.640625
6125		48.828125
6126		52.734375
6127		44.921875
6128		54.687500
6129		44.921875
6130		52.734375
6131		42.968750
6132		50.781250
6133		42.968750
6134		44.921875
6135		39.062500
6136		42.968750
6137		37.109375
6138		42.968750
6139		35.156250
6140		42.968750
6141		33.203125
6142		39.062500
6143		31.250000
6144		35.156250
6145		27.343750
6146		37.109375
6147		25.390625
6148		35.156250
6149		25.390625
6150		29.296875
6151		23.437500
6152		27.343750
6153		19.531250
6154		25.390625
6155		17.578125
6156		25.390625
6157		15.625000
6158		23.437500
6159		13.671875
6160		17.578125
6161		11.718750
6162		17.578125
6163		9.765625
6164		13.671875
6165		5.859375
6166		15.625000
6167		3.906250
6168		9.765625
6169		1.953125
6170		5.859375
6171		-1.953125
6172		5.859375
6173		-3.906250
6174		3.906250
6175		-3.906250
6176		0.000000
6177		-9.765625
6178		-1.953125
6179		-9.765625
6180		-5.859375
6181		-11.718750
6182		-7.812500
6183		-13.671875
6184		-9.765625
6185		-17.578125
6186		-11.718750
6187		-19.531250
6188		-15.625000
6189		-23.437500
6190		-17.578125
6191		-23.437500
6192		-19.531250
6193		-27.343750
6194		-21.484375
6195		-29.296875
6196		-23.437500
6197		-31.250000
6198		-27.343750
6199		-33.203125
6200		-29.296875
6201		-35.156250
6202		-31.250000
6203		-39.062500
6204		-33.203125
6205		-41.015625
6206		-37.109375
6207		-42.968750
6208		-39.062500
6209		-44.921875
6210		-41.015625
6211		-46.875000
6212		-42.968750
6213		-48.828125
6214		-44.921875
6215		-50.781250
6216		-46.875000
6217		-52.734375
6218		-48.828125
6219		-54.687500
6220		-52.734375
6221		-58.593750
6222		-52.734375
6223		-60.546875
6224		-56.640625
6225		-62.500000
6226		-58.593750
6227		-64.453125
6228		-60.546875
6229		-66.406250
6230		-62.500000
6231		-68.359375
6232		-64.453125
6233		-68.359375
6234		-66.406250
6235		-70.312500
6236		-68.359375
6237		-74.218750
6238		-68.359375
6239		-74.218750
6240		-68.359375
6241		-78.125000
6242		-70.312500
6243		-80.078125
6244		-72.265625
6245		-80.078125
6246		-74.218750
6247		-82.031250
6248		-76.171875
6249		-82.031250
6250		-78.125000
6251		-83.984375
6252		-80.078125
6253		-85.937500
6254		-80.078125
6255		-87.890625
6256		-82.031250
6257		-87.890625
6258		-82.031250
6259		-89.843750
6260		-83.984375
6261		-89.843750
6262		-83.984375
6263		-91.796875
6264		-85.937500
6265		-91.796875
6266		-85.937500
6267		-91.796875
6268		-89.843750
6269		-93.750000
6270		-89.843750
6271		-95.703125
6272		-89.843750
6273		-95.703125
6274		-89.843750
6275		-97.656250
6276		-91.796875
6277		-97.656250
6278		-89.843750
6279		-97.656250
6280		-91.796875
6281		-97.656250
6282		-91.796875
6283		-97.656250
6284		-91.796875
6285		-97.656250
6286		-93.750000
6287		-97.656250
6288		-93.750000
6289		-99.609375
6290		-93.750000
6291		-99.609375
6292		-93.750000
6293		-99.609375
6294		-91.796875
6295		-99.609375
6296		-93.750000
6297		-99.609375
6298		-93.750000
6299		-99.609375
6300		-93.750000
6301		-97.656250
6302		-93.750000
6303		-97.656250
6304		-93.750000
6305		-97.656250
6306		-91.796875
6307		-95.703125
6308		-91.796875
6309		-97.656250
6310		-89.843750
6311		-95.703125
6312		-91.796875
6313		-95.703125
6314		-89.843750
6315		-93.750000
6316		-89.843750
6317		-91.796875
6318		-89.843750
6319		-91.796875
6320		-87.890625
6321		-91.796875
6322		-87.890625
6323		-89.843750
6324		-85.937500
6325		-89.843750
6326		-83.984375
6327		-89.843750
6328		-82.031250
6329		-87.890625
6330		-82.031250
6331		-85.937500
6332		-80.078125
6333		-85.937500
6334		-80.078125
6335		-82.031250
6336		-80.078125
6337		-82.031250
6338		-76.171875
6339		-80.078125
6340		-76.171875
6341		-80.078125
6342		-74.218750
6343		-78.125000
6344		-72.265625
6345		-76.171875
6346		-70.312500
6347		-74.218750
6348		-70.312500
6349		-74.218750
6350		-68.359375
6351		-70.312500
6352		-66.406250
6353		-68.359375
6354		-64.453125
6355		-68.359375
6356		-62.500000
6357		-66.406250
6358		-60.546875
6359		-62.500000
6360		-58.593750
6361		-64.453125
6362		-56.640625
6363		-58.593750
6364		-54.687500
6365		-58.593750
6366		-52.734375
6367		-56.640625
6368		-50.781250
6369		-52.734375
6370		-48.828125
6371		-50.781250
6372		-46.875000
6373		-48.828125
6374		-44.921875
6375		-46.875000
6376		-42.968750
6377		-44.921875
6378		-39.062500
6379		-42.968750
6380		-37.109375
6381		-41.015625
6382		-35.156250
6383		-37.109375
6384		-33.203125
6385		-35.156250
6386		-31.250000
6387		-33.203125
6388		-27.343750
6389		-31.250000
6390		-25.390625
6391		-27.343750
6392		-23.437500
6393		-25.390625
6394		-19.531250
6395		-23.437500
6396		-19.531250
6397		-21.484375
6398		-15.625000
6399		-19.531250
6400		-13.671875
6401		-15.625000
6402		-11.718750
6403		-13.671875
6404		-9.765625
6405		-11.718750
6406		-7.812500
6407		-9.765625
6408		-5.859375
6409		-7.812500
6410		-1.953125
6411		-3.906250
6412		0.000000
6413		-1.953125
6414		1.953125
6415		0.000000
6416		3.906250
6417		1.953125
6418		5.859375
6419		5.859375
6420		9.765625
6421		7.812500
6422		11.718750
6423		9.765625
6424		13.671875
6425		11.718750
6426		17.578125
6427		13.671875
6428		19.531250
6429		15.625000
6430		21.484375
6431		19.531250
6432		23.437500
6433		21.484375
6434		25.390625
6435		23.437500
6436		27.343750
6437		25.390625
6438		29.296875
6439		27.343750
6440		31.250000
6441		29.296875
6442		33.203125
6443		31.250000
6444		35.156250
6445		31.250000
6446		39.062500
6447		35.156250
6448		39.062500
6449		37.109375
6450		41.015625
6451		39.062500
6452		42.968750
6453		41.015625
6454		44.921875
6455		42.968750
6456		46.875000
6457		44.921875
6458		48.828125
6459		46.875000
6460		50.781250
6461		48.828125
6462		52.734375
6463		50.781250
6464		54.687500
6465		52.734375
6466		56.640625
6467		52.734375
6468		58.593750
6469		54.687500
6470		58.593750
6471		56.640625
6472		62.500000
6473		58.593750
6474		62.500000
6475		60.546875
6476		64.453125
6477		60.546875
6478		66.406250
6479		62.500000
6480		66.406250
6481		64.453125
6482		68.359375
6483		64.453125
6484		68.359375
6485		66.406250
6486		70.312500
6487		68.359375
6488		70.312500
6489		68.359375
6490		74.218750
6491		70.312500
6492		74.218750
6493		70.312500
6494		74.218750
6495		72.265625
6496		76.171875
6497		72.265625
6498		76.171875
6499		74.218750
6500		78.125000
6501		74.218750
6502		80.078125
6503		76.171875
6504		78.125000
6505		76.171875
6506		80.078125
6507		78.125000
6508		80.078125
6509		78.125000
6510		82.031250
6511		78.125000
6512		82.031250
6513		78.125000
6514		82.031250
6515		78.125000
6516		83.984375
6517		80.078125
6518		83.984375
6519		80.078125
6520		83.984375
6521		82.031250
6522		83.984375
6523		80.078125
6524		83.984375
6525		82.031250
6526		85.937500
6527		82.031250
6528		85.937500
6529		82.031250
6530		85.937500
6531		82.031250
6532		83.984375
6533		82.031250
6534		85.937500
6535		82.031250
6536		85.937500
6537		82.031250
6538		83.984375
6539		80.078125
6540		85.937500
6541		82.031250
6542		85.937500
6543		80.078125
6544		83.984375
6545		80.078125
6546		83.984375
6547		80.078125
6548		83.984375
6549		80.078125
6550		83.984375
6551		78.125000
6552		82.031250
6553		80.078125
6554		82.031250
6555		78.125000
6556		82.031250
6557		78.125000
6558		82.031250
6559		76.171875
6560		80.078125
6561		76.171875
6562		80.078125
6563		74.218750
6564		78.125000
6565		74.218750
6566		78.125000
6567		72.265625
6568		78.125000
6569		72.265625
6570		76.171875
6571		72.265625
6572		74.218750
6573		70.312500
6574		74.218750
6575		70.312500
6576		74.218750
6577		68.359375
6578		72.265625
6579		66.406250
6580		72.265625
6581		66.406250
6582		70.312500
6583		64.453125
6584		68.359375
6585		62.500000
6586		66.406250
6587		62.500000
6588		64.453125
6589		60.546875
6590		64.453125
6591		58.593750
6592		62.500000
6593		56.640625
6594		60.546875
6595		56.640625
6596		60.546875
6597		52.734375
6598		58.593750
6599		52.734375
6600		56.640625
6601		50.781250
6602		54.687500
6603		48.828125
6604		52.734375
6605		46.875000
6606		50.781250
6607		44.921875
6608		50.781250
6609		42.968750
6610		46.875000
6611		41.015625
6612		44.921875
6613		39.062500
6614		42.968750
6615		37.109375
6616		41.015625
6617		35.156250
6618		39.062500
6619		33.203125
6620		37.109375
6621		31.250000
6622		35.156250
6623		27.343750
6624		33.203125
6625		27.343750
6626		31.250000
6627		23.437500
6628		29.296875
6629		21.484375
6630		27.343750
6631		19.531250
6632		23.437500
6633		17.578125
6634		21.484375
6635		15.625000
6636		19.531250
6637		13.671875
6638		17.578125
6639		11.718750
6640		15.625000
6641		7.812500
6642		13.671875
6643		5.859375
6644		11.718750
6645		3.906250
6646		7.812500
6647		1.953125
6648		5.859375
6649		-1.953125
6650		3.906250
6651		-5.859375
6652		0.000000
6653		-5.859375
6654		-1.953125
6655		-7.812500
6656		-3.906250
6657		-11.718750
6658		-5.859375
6659		-13.671875
6660		-7.812500
6661		-15.625000
6662		-11.718750
6663		-17.578125
6664		-11.718750
6665		-19.531250
6666		-15.625000
6667		-23.437500
6668		-17.578125
6669		-25.390625
6670		-19.531250
6671		-27.343750
6672		-23.437500
6673		-31.250000
6674		-25.390625
6675		-33.203125
6676		-27.343750
6677		-35.156250
6678		-29.296875
6679		-37.109375
6680		-33.203125
6681		-39.062500
6682		-35.156250
6683		-41.015625
6684		-37.109375
6685		-42.968750
6686		-39.062500
6687		-46.875000
6688		-42.968750
6689		-48.828125
6690		-44.921875
6691		-50.781250
6692		-44.921875
6693		-52.734375
6694		-48.828125
6695		-54.687500
6696		-50.781250
6697		-56.640625
6698		-52.734375
6699		-58.593750
6700		-54.687500
6701		-60.546875
6702		-56.640625
6703		-62.500000
6704		-58.593750
6705		-64.453125
6706		-60.546875
6707		-66.406250
6708		-62.500000
6709		-68.359375
6710		-64.453125
6711		-70.312500
6712		-66.406250
6713		-72.265625
6714		-68.359375
6715		-74.218750
6716		-68.359375
6717		-76.171875
6718		-70.312500
6719		-78.125000
6720		-72.265625
6721		-78.125000
6722		-74.218750
6723		-80.078125
6724		-76.171875
6725		-82.031250
6726		-78.125000
6727		-82.031250
6728		-78.125000
6729		-83.984375
6730		-80.078125
6731		-85.937500
6732		-82.031250
6733		-87.890625
6734		-83.984375
6735		-87.890625
6736		-83.984375
6737		-87.890625
6738		-83.984375
6739		-89.843750
6740		-85.937500
6741		-91.796875
6742		-85.937500
6743		-91.796875
6744		-87.890625
6745		-91.796875
6746		-89.843750
6747		-93.750000
6748		-87.890625
6749		-93.750000
6750		-89.843750
6751		-95.703125
6752		-89.843750
6753		-95.703125
6754		-89.843750
6755		-95.703125
6756		-91.796875
6757		-97.656250
6758		-91.796875
6759		-95.703125
6760		-91.796875
6761		-97.656250
6762		-93.750000
6763		-95.703125
6764		-93.750000
6765		-97.656250
6766		-93.750000
6767		-97.656250
6768		-93.750000
6769		-97.656250
6770		-93.750000
6771		-95.703125
6772		-93.750000
6773		-95.703125
6774		-93.750000
6775		-97.656250
6776		-91.796875
6777		-95.703125
6778		-93.750000
6779		-95.703125
6780		-91.796875
6781		-95.703125
6782		-91.796875
6783		-95.703125
6784		-91.796875
6785		-93.750000
6786		-91.796875
6787		-95.703125
6788		-89.843750
6789		-93.750000
6790		-89.843750
6791		-91.796875
6792		-89.843750
6793		-91.796875
6794		-87.890625
6795		-91.796875
6796		-87.890625
6797		-89.843750
6798		-87.890625
6799		-89.843750
6800		-85.937500
6801		-87.890625
6802		-83.984375
6803		-87.890625
6804		-83.984375
6805		-85.937500
6806		-82.031250
6807		-83.984375
6808		-82.031250
6809		-83.984375
6810		-80.078125
6811		-82.031250
6812		-78.125000
6813		-80.078125
6814		-78.125000
6815		-78.125000
6816		-76.171875
6817		-78.125000
6818		-74.218750
6819		-76.171875
6820		-72.265625
6821		-76.171875
6822		-70.312500
6823		-72.265625
6824		-68.359375
6825		-72.265625
6826		-66.406250
6827		-70.312500
6828		-64.453125
6829		-68.359375
6830		-64.453125
6831		-66.406250
6832		-62.500000
6833		-64.453125
6834		-60.546875
6835		-62.500000
6836		-58.593750
6837		-60.546875
6838		-56.640625
6839		-58.593750
6840		-54.687500
6841		-56.640625
6842		-50.781250
6843		-54.687500
6844		-50.781250
6845		-52.734375
6846		-48.828125
6847		-50.781250
6848		-46.875000
6849		-48.828125
6850		-44.921875
6851		-46.875000
6852		-41.015625
6853		-42.968750
6854		-39.062500
6855		-41.015625
6856		-37.109375
6857		-39.062500
6858		-35.156250
6859		-37.109375
6860		-31.250000
6861		-35.156250
6862		-31.250000
6863		-33.203125
6864		-27.343750
6865		-29.296875
6866		-25.390625
6867		-27.343750
6868		-23.437500
6869		-25.390625
6870		-21.484375
6871		-23.437500
6872		-19.531250
6873		-19.531250
6874		-15.625000
6875		-17.578125
6876		-13.671875
6877		-15.625000
6878		-11.718750
6879		-13.671875
6880		-7.812500
6881		-11.718750
6882		-7.812500
6883		-9.765625
6884		-3.906250
6885		-5.859375
6886		-1.953125
6887		-3.906250
6888		0.000000
6889		-1.953125
6890		1.953125
6891		0.000000
6892		3.906250
6893		1.953125
6894		7.812500
6895		5.859375
6896		9.765625
6897		7.812500
6898		11.718750
6899		9.765625
6900		15.625000
6901		11.718750
6902		15.625000
6903		13.671875
6904		19.531250
6905		15.625000
6906		21.484375
6907		17.578125
6908		23.437500
6909		21.484375
6910		25.390625
6911		23.437500
6912		29.296875
6913		25.390625
6914		29.296875
6915		25.390625
6916		33.203125
6917		29.296875
6918		35.156250
6919		31.250000
6920		37.109375
6921		33.203125
6922		39.062500
6923		35.156250
6924		39.062500
6925		37.109375
6926		42.968750
6927		41.015625
6928		44.921875
6929		41.015625
6930		44.921875
6931		42.968750
6932		46.875000
6933		44.921875
6934		48.828125
6935		46.875000
6936		52.734375
6937		48.828125
6938		54.687500
6939		50.781250
6940		54.687500
6941		52.734375
6942		56.640625
6943		52.734375
6944		58.593750
6945		54.687500
6946		58.593750
6947		56.640625
6948		60.546875
6949		58.593750
6950		62.500000
6951		60.546875
6952		64.453125
6953		62.500000
6954		64.453125
6955		62.500000
6956		66.406250
6957		64.453125
6958		68.359375
6959		66.406250
6960		70.312500
6961		66.406250
6962		70.312500
6963		68.359375
6964		72.265625
6965		70.312500
6966		72.265625
6967		70.312500
6968		74.218750
6969		70.312500
6970		76.171875
6971		72.265625
6972		76.171875
6973		74.218750
6974		76.171875
6975		74.218750
6976		78.125000
6977		74.218750
6978		78.125000
6979		76.171875
6980		80.078125
6981		76.171875
6982		80.078125
6983		76.171875
6984		80.078125
6985		78.125000
6986		82.031250
6987		78.125000
6988		82.031250
6989		78.125000
6990		82.031250
6991		80.078125
6992		82.031250
6993		80.078125
6994		83.984375
6995		80.078125
6996		83.984375
6997		82.031250
6998		85.937500
6999		82.031250
7000		83.984375
7001		82.031250
7002		83.984375
7003		82.031250
7004		85.937500
7005		80.078125
7006		85.937500
7007		82.031250
7008		83.984375
7009		82.031250
7010		85.937500
7011		80.078125
7012		85.937500
7013		82.031250
7014		85.937500
7015		82.031250
7016		85.937500
7017		82.031250
7018		85.937500
7019		80.078125
7020		85.937500
7021		80.078125
7022		83.984375
7023		82.031250
7024		83.984375
7025		80.078125
7026		83.984375
7027		78.125000
7028		83.984375
7029		78.125000
7030		82.031250
7031		78.125000
7032		82.031250
7033		78.125000
7034		80.078125
7035		76.171875
7036		82.031250
7037		76.171875
7038		80.078125
7039		74.218750
7040		80.078125
7041		76.171875
7042		78.125000
7043		72.265625
7044		78.125000
7045		72.265625
7046		78.125000
7047		70.312500
7048		76.171875
7049		70.312500
7050		74.218750
7051		70.312500
7052		74.218750
7053		68.359375
7054		72.265625
7055		66.406250
7056		72.265625
7057		66.406250
7058		70.312500
7059		64.453125
7060		68.359375
7061		62.500000
7062		68.359375
7063		62.500000
7064		66.406250
7065		60.546875
7066		64.453125
7067		58.593750
7068		62.500000
7069		56.640625
7070		60.546875
7071		56.640625
7072		60.546875
7073		54.687500
7074		60.546875
7075		52.734375
7076		56.640625
7077		50.781250
7078		54.687500
7079		48.828125
7080		52.734375
7081		46.875000
7082		50.781250
7083		44.921875
7084		48.828125
7085		42.968750
7086		46.875000
7087		42.968750
7088		44.921875
7089		39.062500
7090		44.921875
7091		39.062500
7092		41.015625
7093		35.156250
7094		39.062500
7095		33.203125
7096		37.109375
7097		31.250000
7098		37.109375
7099		29.296875
7100		33.203125
7101		27.343750
7102		31.250000
7103		25.390625
7104		29.296875
7105		21.484375
7106		27.343750
7107		21.484375
7108		25.390625
7109		17.578125
7110		21.484375
7111		15.625000
7112		21.484375
7113		13.671875
7114		17.578125
7115		11.718750
7116		15.625000
7117		7.812500
7118		13.671875
7119		5.859375
7120		11.718750
7121		3.906250
7122		9.765625
7123		1.953125
7124		5.859375
7125		0.000000
7126		3.906250
7127		-3.906250
7128		1.953125
7129		-5.859375
7130		0.000000
7131		-9.765625
7132		-3.906250
7133		-9.765625
7134		-5.859375
7135		-11.718750
7136		-7.812500
7137		-15.625000
7138		-9.765625
7139		-19.531250
7140		-13.671875
7141		-19.531250
7142		-15.625000
7143		-21.484375
7144		-17.578125
7145		-25.390625
7146		-19.531250
7147		-27.343750
7148		-23.437500
7149		-29.296875
7150		-25.390625
7151		-33.203125
7152		-27.343750
7153		-33.203125
7154		-29.296875
7155		-37.109375
7156		-31.250000
7157		-39.062500
7158		-33.203125
7159		-41.015625
7160		-37.109375
7161		-44.921875
7162		-39.062500
7163		-44.921875
7164		-41.015625
7165		-46.875000
7166		-42.968750
7167		-50.781250
7168		-44.921875
7169		-52.734375
7170		-48.828125
7171		-54.687500
7172		-50.781250
7173		-56.640625
7174		-50.781250
7175		-58.593750
7176		-54.687500
7177		-60.546875
7178		-56.640625
7179		-62.500000
7180		-56.640625
7181		-64.453125
7182		-58.593750
7183		-66.406250
7184		-62.500000
7185		-68.359375
7186		-64.453125
7187		-70.312500
7188		-64.453125
7189		-72.265625
7190		-66.406250
7191		-72.265625
7192		-68.359375
7193		-76.171875
7194		-70.312500
7195		-76.171875
7196		-72.265625
7197		-78.125000
7198		-74.218750
7199		-80.078125
7200		-74.218750
7201		-82.031250
7202		-76.171875
7203		-82.031250
7204		-78.125000
7205		-83.984375
7206		-80.078125
7207		-85.937500
7208		-80.078125
7209		-85.937500
7210		-82.031250
7211		-87.890625
7212		-83.984375
7213		-87.890625
7214		-83.984375
7215		-89.843750
7216		-85.937500
7217		-89.843750
7218		-85.937500
7219		-91.796875
7220		-87.890625
7221		-91.796875
7222		-87.890625
7223		-93.750000
7224		-89.843750
7225		-93.750000
7226		-89.843750
7227		-93.750000
7228		-91.796875
7229		-95.703125
7230		-91.796875
7231		-95.703125
7232		-91.796875
7233		-95.703125
7234		-91.796875
7235		-95.703125
7236		-91.796875
7237		-95.703125
7238		-93.750000
7239		-95.703125
7240		-93.750000
7241		-95.703125
7242		-93.750000
7243		-95.703125
7244		-93.750000
7245		-97.656250
7246		-91.796875
7247		-95.703125
7248		-93.750000
7249		-97.656250
7250		-93.750000
7251		-97.656250
7252		-91.796875
7253		-95.703125
7254		-91.796875
7255		-95.703125
7256		-91.796875
7257		-95.703125
7258		-91.796875
7259		-93.750000
7260		-91.796875
7261		-93.750000
7262		-91.796875
7263		-95.703125
7264		-89.843750
7265		-93.750000
7266		-89.843750
7267		-91.796875
7268		-89.843750
7269		-91.796875
7270		-87.890625
7271		-91.796875
7272		-87.890625
7273		-89.843750
7274		-85.937500
7275		-89.843750
7276		-85.937500
7277		-87.890625
7278		-85.937500
7279		-87.890625
7280		-83.984375
7281		-85.937500
7282		-82.031250
7283		-83.984375
7284		-82.031250
7285		-83.984375
7286		-80.078125
7287		-82.031250
7288		-78.125000
7289		-82.031250
7290		-78.125000
7291		-80.078125
7292		-76.171875
7293		-78.125000
7294		-74.218750
7295		-76.171875
7296		-72.265625
7297		-76.171875
7298		-70.312500
7299		-74.218750
7300		-70.312500
7301		-72.265625
7302		-68.359375
7303		-70.312500
7304		-66.406250
7305		-68.359375
7306		-64.453125
7307		-66.406250
7308		-60.546875
7309		-64.453125
7310		-60.546875
7311		-62.500000
7312		-58.593750
7313		-60.546875
7314		-56.640625
7315		-58.593750
7316		-54.687500
7317		-56.640625
7318		-52.734375
7319		-54.687500
7320		-50.781250
7321		-52.734375
7322		-48.828125
7323		-50.781250
7324		-44.921875
7325		-48.828125
7326		-44.921875
7327		-44.921875
7328		-42.968750
7329		-42.968750
7330		-39.062500
7331		-41.015625
7332		-37.109375
7333		-39.062500
7334		-35.156250
7335		-37.109375
7336		-33.203125
7337		-35.156250
7338		-29.296875
7339		-33.203125
7340		-27.343750
7341		-29.296875
7342		-25.390625
7343		-27.343750
7344		-23.437500
7345		-25.390625
7346		-21.484375
7347		-23.437500
7348		-17.578125
7349		-21.484375
7350		-15.625000
7351		-17.578125
7352		-13.671875
7353		-15.625000
7354		-11.718750
7355		-13.671875
7356		-9.765625
7357		-11.718750
7358		-5.859375
7359		-9.765625
7360		-3.906250
7361		-5.859375
7362		-1.953125
7363		-3.906250
7364		0.000000
7365		-1.953125
7366		1.953125
7367		0.000000
7368		3.906250
7369		1.953125
7370		7.812500
7371		5.859375
7372		9.765625
7373		7.812500
7374		11.718750
7375		9.765625
7376		13.671875
7377		11.718750
7378		15.625000
7379		15.625000
7380		19.531250
7381		15.625000
7382		21.484375
7383		19.531250
7384		23.437500
7385		21.484375
7386		25.390625
7387		23.437500
7388		27.343750
7389		25.390625
7390		29.296875
7391		27.343750
7392		31.250000
7393		29.296875
7394		33.203125
7395		33.203125
7396		35.156250
7397		33.203125
7398		39.062500
7399		35.156250
7400		39.062500
7401		37.109375
7402		41.015625
7403		39.062500
7404		42.968750
7405		41.015625
7406		44.921875
7407		42.968750
7408		46.875000
7409		44.921875
7410		48.828125
7411		46.875000
7412		50.781250
7413		46.875000
7414		54.687500
7415		50.781250
7416		54.687500
7417		52.734375
7418		56.640625
7419		54.687500
7420		58.593750
7421		54.687500
7422		60.546875
7423		56.640625
7424		60.546875
7425		56.640625
7426		62.500000
7427		60.546875
7428		62.500000
7429		62.500000
7430		64.453125
7431		62.500000
7432		68.359375
7433		64.453125
7434		68.359375
7435		66.406250
7436		70.312500
7437		66.406250
7438		70.312500
7439		68.359375
7440		72.265625
7441		68.359375
7442		72.265625
7443		70.312500
7444		74.218750
7445		70.312500
7446		74.218750
7447		72.265625
7448		76.171875
7449		74.218750
7450		78.125000
7451		74.218750
7452		78.125000
7453		74.218750
7454		78.125000
7455		76.171875
7456		80.078125
7457		76.171875
7458		80.078125
7459		78.125000
7460		82.031250
7461		78.125000
7462		82.031250
7463		78.125000
7464		83.984375
7465		78.125000
7466		82.031250
7467		80.078125
7468		83.984375
7469		80.078125
7470		83.984375
7471		80.078125
7472		83.984375
7473		80.078125
7474		83.984375
7475		82.031250
7476		85.937500
7477		82.031250
7478		83.984375
7479		82.031250
7480		85.937500
7481		82.031250
7482		85.937500
7483		82.031250
7484		85.937500
7485		82.031250
7486		85.937500
7487		82.031250
7488		85.937500
7489		82.031250
7490		85.937500
7491		82.031250
7492		85.937500
7493		80.078125
7494		85.937500
7495		82.031250
7496		83.984375
7497		82.031250
7498		83.984375
7499		80.078125
7500		83.984375
7501		80.078125
7502		83.984375
7503		80.078125
7504		83.984375
7505		80.078125
7506		83.984375
7507		78.125000
7508		82.031250
7509		78.125000
7510		82.031250
7511		78.125000
7512		80.078125
7513		76.171875
7514		80.078125
7515		74.218750
7516		80.078125
7517		74.218750
7518		80.078125
7519		74.218750
7520		78.125000
7521		74.218750
7522		76.171875
7523		72.265625
7524		76.171875
7525		70.312500
7526		74.218750
7527		70.312500
7528		74.218750
7529		70.312500
7530		72.265625
7531		68.359375
7532		72.265625
7533		66.406250
7534		70.312500
7535		64.453125
7536		70.312500
7537		64.453125
7538		68.359375
7539		62.500000
7540		66.406250
7541		60.546875
7542		66.406250
7543		58.593750
7544		64.453125
7545		58.593750
7546		62.500000
7547		56.640625
7548		60.546875
7549		54.687500
7550		58.593750
7551		52.734375
7552		56.640625
7553		52.734375
7554		56.640625
7555		48.828125
7556		54.687500
7557		46.875000
7558		52.734375
7559		44.921875
7560		50.781250
7561		44.921875
7562		46.875000
7563		42.968750
7564		46.875000
7565		39.062500
7566		42.968750
7567		39.062500
7568		41.015625
7569		35.156250
7570		41.015625
7571		33.203125
7572		37.109375
7573		31.250000
7574		35.156250
7575		29.296875
7576		35.156250
7577		27.343750
7578		33.203125
7579		25.390625
7580		29.296875
7581		21.484375
7582		27.343750
7583		21.484375
7584		25.390625
7585		17.578125
7586		23.437500
7587		15.625000
7588		19.531250
7589		13.671875
7590		19.531250
7591		11.718750
7592		15.625000
7593		9.765625
7594		13.671875
7595		7.812500
7596		11.718750
7597		3.906250
7598		7.812500
7599		1.953125
7600		7.812500
7601		0.000000
7602		3.906250
7603		-1.953125
7604		1.953125
7605		-5.859375
7606		0.000000
7607		-7.812500
7608		-1.953125
7609		-9.765625
7610		-3.906250
7611		-11.718750
7612		-7.812500
7613		-15.625000
7614		-9.765625
7615		-17.578125
7616		-11.718750
7617		-19.531250
7618		-15.625000
7619		-21.484375
7620		-17.578125
7621		-25.390625
7622		-19.531250
7623		-27.343750
7624		-21.484375
7625		-29.296875
7626		-25.390625
7627		-31.250000
7628		-27.343750
7629		-33.203125
7630		-29.296875
7631		-37.109375
7632		-31.250000
7633		-39.062500
7634		-33.203125
7635		-41.015625
7636		-37.109375
7637		-42.968750
7638		-39.062500
7639		-44.921875
7640		-41.015625
7641		-46.875000
7642		-42.968750
7643		-50.781250
7644		-44.921875
7645		-50.781250
7646		-46.875000
7647		-54.687500
7648		-48.828125
7649		-56.640625
7650		-50.781250
7651		-58.593750
7652		-52.734375
7653		-60.546875
7654		-56.640625
7655		-60.546875
7656		-58.593750
7657		-64.453125
7658		-58.593750
7659		-66.406250
7660		-60.546875
7661		-66.406250
7662		-62.500000
7663		-68.359375
7664		-66.406250
7665		-72.265625
7666		-66.406250
7667		-72.265625
7668		-68.359375
7669		-74.218750
7670		-70.312500
7671		-76.171875
7672		-72.265625
7673		-78.125000
7674		-74.218750
7675		-78.125000
7676		-74.218750
7677		-82.031250
7678		-76.171875
7679		-82.031250
7680		-78.125000
7681		-82.031250
7682		-80.078125
7683		-83.984375
7684		-80.078125
7685		-85.937500
7686		-82.031250
7687		-85.937500
7688		-82.031250
7689		-87.890625
7690		-83.984375
7691		-87.890625
7692		-83.984375
7693		-89.843750
7694		-85.937500
7695		-91.796875
7696		-85.937500
7697		-91.796875
7698		-87.890625
7699		-91.796875
7700		-87.890625
7701		-93.750000
7702		-87.890625
7703		-93.750000
7704		-89.843750
7705		-93.750000
7706		-89.843750
7707		-93.750000
7708		-91.796875
7709		-95.703125
7710		-91.796875
7711		-95.703125
7712		-91.796875
7713		-95.703125
7714		-93.750000
7715		-97.656250
7716		-91.796875
7717		-95.703125
7718		-91.796875
7719		-97.656250
7720		-91.796875
7721		-95.703125
7722		-91.796875
7723		-95.703125
7724		-91.796875
7725		-97.656250
7726		-91.796875
7727		-95.703125
7728		-91.796875
7729		-95.703125
7730		-93.750000
7731		-95.703125
7732		-91.796875
7733		-95.703125
7734		-91.796875
7735		-93.750000
7736		-91.796875
7737		-93.750000
7738		-89.843750
7739		-93.750000
7740		-89.843750
7741		-93.750000
7742		-89.843750
7743		-91.796875
7744		-87.890625
7745		-91.796875
7746		-87.890625
7747		-89.843750
7748		-87.890625
7749		-89.843750
7750		-85.937500
7751		-89.843750
7752		-85.937500
7753		-87.890625
7754		-83.984375
7755		-87.890625
7756		-82.031250
7757		-85.937500
7758		-80.078125
7759		-83.984375
7760		-80.078125
7761		-83.984375
7762		-80.078125
7763		-82.031250
7764		-78.125000
7765		-80.078125
7766		-78.125000
7767		-80.078125
7768		-74.218750
7769		-78.125000
7770		-74.218750
7771		-76.171875
7772		-72.265625
7773		-74.218750
7774		-70.312500
7775		-72.265625
7776		-68.359375
7777		-72.265625
7778		-66.406250
7779		-70.312500
7780		-66.406250
7781		-68.359375
7782		-64.453125
7783		-66.406250
7784		-62.500000
7785		-64.453125
7786		-60.546875
7787		-62.500000
7788		-58.593750
7789		-60.546875
7790		-56.640625
7791		-58.593750
7792		-54.687500
7793		-56.640625
7794		-52.734375
7795		-54.687500
7796		-48.828125
7797		-52.734375
7798		-48.828125
7799		-48.828125
7800		-46.875000
7801		-48.828125
7802		-44.921875
7803		-46.875000
7804		-41.015625
7805		-42.968750
7806		-39.062500
7807		-41.015625
7808		-37.109375
7809		-39.062500
7810		-35.156250
7811		-37.109375
7812		-31.250000
7813		-35.156250
7814		-29.296875
7815		-31.250000
7816		-27.343750
7817		-31.250000
7818		-25.390625
7819		-29.296875
7820		-23.437500
7821		-25.390625
7822		-21.484375
7823		-23.437500
7824		-19.531250
7825		-19.531250
7826		-15.625000
7827		-17.578125
7828		-13.671875
7829		-17.578125
7830		-11.718750
7831		-13.671875
7832		-9.765625
7833		-11.718750
7834		-5.859375
7835		-7.812500
7836		-3.906250
7837		-5.859375
7838		-1.953125
7839		-3.906250
7840		0.000000
7841		-1.953125
7842		1.953125
7843		0.000000
7844		5.859375
7845		3.906250
7846		7.812500
7847		5.859375
7848		9.765625
7849		7.812500
7850		11.718750
7851		9.765625
7852		15.625000
7853		11.718750
7854		17.578125
7855		13.671875
7856		19.531250
7857		17.578125
7858		21.484375
7859		19.531250
7860		23.437500
7861		21.484375
7862		25.390625
7863		23.437500
7864		27.343750
7865		25.390625
7866		29.296875
7867		27.343750
7868		33.203125
7869		29.296875
7870		33.203125
7871		31.250000
7872		37.109375
7873		33.203125
7874		37.109375
7875		37.109375
7876		41.015625
7877		37.109375
7878		42.968750
7879		39.062500
7880		44.921875
7881		42.968750
7882		46.875000
7883		44.921875
7884		46.875000
7885		44.921875
7886		48.828125
7887		46.875000
7888		50.781250
7889		48.828125
7890		52.734375
7891		50.781250
7892		54.687500
7893		52.734375
7894		56.640625
7895		54.687500
7896		58.593750
7897		54.687500
7898		60.546875
7899		58.593750
7900		60.546875
7901		58.593750
7902		62.500000
7903		60.546875
7904		64.453125
7905		62.500000
7906		66.406250
7907		62.500000
7908		68.359375
7909		64.453125
7910		68.359375
7911		66.406250
7912		70.312500
7913		66.406250
7914		72.265625
7915		68.359375
7916		72.265625
7917		70.312500
7918		74.218750
7919		70.312500
7920		74.218750
7921		72.265625
7922		76.171875
7923		74.218750
7924		76.171875
7925		74.218750
7926		76.171875
7927		76.171875
7928		78.125000
7929		76.171875
7930		80.078125
7931		76.171875
7932		80.078125
7933		78.125000
7934		80.078125
7935		78.125000
7936		82.031250
7937		78.125000
7938		82.031250
7939		80.078125
7940		83.984375
7941		80.078125
7942		82.031250
7943		80.078125
7944		83.984375
7945		80.078125
7946		83.984375
7947		82.031250
7948		83.984375
7949		82.031250
7950		83.984375
7951		82.031250
7952		85.937500
7953		82.031250
7954		85.937500
7955		82.031250
7956		85.937500
7957		82.031250
7958		85.937500
7959		82.031250
7960		85.937500
7961		82.031250
7962		85.937500
7963		82.031250
7964		85.937500
7965		83.984375
7966		85.937500
7967		82.031250
7968		85.937500
7969		82.031250
7970		87.890625
7971		82.031250
7972		85.937500
7973		82.031250
7974		85.937500
7975		82.031250
7976		83.984375
7977		80.078125
7978		83.984375
7979		80.078125
7980		83.984375
7981		80.078125
7982		83.984375
7983		80.078125
7984		82.031250
7985		78.125000
7986		82.031250
7987		78.125000
7988		82.031250
7989		76.171875
7990		82.031250
7991		76.171875
7992		80.078125
7993		76.171875
7994		80.078125
7995		74.218750
7996		78.125000
7997		74.218750
7998		78.125000
7999		74.218750
8000		76.171875
8001		70.312500
8002		76.171875
8003		70.312500
8004		74.218750
8005		70.312500
8006		72.265625
8007		68.359375
8008		72.265625
8009		66.406250
8010		70.312500
8011		66.406250
8012		70.312500
8013		64.453125
8014		68.359375
8015		64.453125
8016		66.406250
8017		62.500000
8018		64.453125
8019		60.546875
8020		64.453125
8021		58.593750
8022		62.500000
8023		56.640625
8024		60.546875
8025		54.687500
8026		58.593750
8027		54.687500
8028		58.593750
8029		52.734375
8030		56.640625
8031		50.781250
8032		54.687500
8033		48.828125
8034		52.734375
8035		46.875000
8036		50.781250
8037		44.921875
8038		48.828125
8039		42.968750
8040		46.875000
8041		41.015625
8042		44.921875
8043		39.062500
8044		42.968750
8045		37.109375
8046		41.015625
8047		33.203125
8048		39.062500
8049		33.203125
8050		37.109375
8051		31.250000
8052		33.203125
8053		27.343750
8054		33.203125
8055		25.390625
8056		31.250000
8057		23.437500
8058		27.343750
8059		21.484375
8060		25.390625
8061		19.531250
8062		23.437500
8063		17.578125
8064		21.484375
8065		13.671875
8066		19.531250
8067		11.718750
8068		15.625000
8069		9.765625
8070		13.671875
8071		7.812500
8072		11.718750
8073		5.859375
8074		9.765625
8075		1.953125
8076		7.812500
8077		0.000000
8078		5.859375
8079		-1.953125
8080		3.906250
8081		-3.906250
8082		0.000000
8083		-5.859375
8084		-1.953125
8085		-9.765625
8086		-3.906250
8087		-11.718750
8088		-7.812500
8089		-13.671875
8090		-9.765625
8091		-17.578125
8092		-11.718750
8093		-17.578125
8094		-13.671875
8095		-21.484375
8096		-15.625000
8097		-25.390625
8098		-19.531250
8099		-25.390625
8100		-21.484375
8101		-27.343750
8102		-23.437500
8103		-31.250000
8104		-25.390625
8105		-33.203125
8106		-29.296875
8107		-35.156250
8108		-31.250000
8109		-37.109375
8110		-33.203125
8111		-41.015625
8112		-35.156250
8113		-41.015625
8114		-37.109375
8115		-44.921875
8116		-39.062500
8117		-46.875000
8118		-42.968750
8119		-48.828125
8120		-44.921875
8121		-50.781250
8122		-46.875000
8123		-54.687500
8124		-48.828125
8125		-54.687500
8126		-50.781250
8127		-56.640625
8128		-52.734375
8129		-58.593750
8130		-54.687500
8131		-62.500000
8132		-56.640625
8133		-62.500000
8134		-58.593750
8135		-64.453125
8136		-60.546875
8137		-66.406250
8138		-62.500000
8139		-68.359375
8140		-64.453125
8141		-70.312500
8142		-66.406250
8143		-72.265625
8144		-68.359375
8145		-74.218750
8146		-70.312500
8147		-76.171875
8148		-72.265625
8149		-76.171875
8150		-72.265625
8151		-78.125000
8152		-74.218750
8153		-82.031250
8154		-74.218750
8155		-83.984375
8156		-76.171875
8157		-82.031250
8158		-80.078125
8159		-83.984375
8160		-80.078125
8161		-85.937500
8162		-82.031250
8163		-85.937500
8164		-82.031250
8165		-87.890625
8166		-83.984375
8167		-87.890625
8168		-85.937500
8169		-91.796875
8170		-85.937500
8171		-89.843750
8172		-85.937500
8173		-91.796875
8174		-87.890625
8175		-91.796875
8176		-87.890625
8177		-91.796875
8178		-89.843750
8179		-93.750000
8180		-89.843750
8181		-95.703125
8182		-89.843750
8183		-93.750000
8184		-91.796875
8185		-93.750000
8186		-91.796875
8187		-95.703125
8188		-91.796875
8189		-95.703125
8190		-91.796875
8191		-97.656250
8192		-89.843750
8193		-97.656250
8194		-89.843750
8195		-95.703125
8196		-91.796875
8197		-99.609375
8198		-89.843750
8199		-97.656250
8200		-91.796875
8201		-95.703125
8202		-93.750000
8203		-97.656250
8204		-91.796875
8205		-97.656250
8206		-89.843750
8207		-97.656250
8208		-89.843750
8209		-95.703125
8210		-89.843750
8211		-97.656250
8212		-87.890625
8213		-93.750000
8214		-91.796875
8215		-95.703125
8216		-87.890625
8217		-91.796875
8218		-89.843750
8219		-91.796875
8220		-89.843750
8221		-93.750000
8222		-85.937500
8223		-93.750000
8224		-85.937500
8225		-91.796875
8226		-83.984375
8227		-91.796875
8228		-82.031250
8229		-89.843750
8230		-82.031250
8231		-87.890625
8232		-82.031250
8233		-85.937500
8234		-82.031250
8235		-83.984375
8236		-82.031250
8237		-83.984375
8238		-78.125000
8239		-83.984375
8240		-76.171875
8241		-83.984375
8242		-74.218750
8243		-82.031250
8244		-72.265625
8245		-80.078125
8246		-72.265625
8247		-78.125000
8248		-70.312500
8249		-76.171875
8250		-68.359375
8251		-72.265625
8252		-70.312500
8253		-70.312500
8254		-66.406250
8255		-72.265625
8256		-64.453125
8257		-70.312500
8258		-60.546875
8259		-68.359375
8260		-60.546875
8261		-66.406250
8262		-58.593750
8263		-64.453125
8264		-56.640625
8265		-62.500000
8266		-54.687500
8267		-58.593750
8268		-54.687500
8269		-56.640625
8270		-52.734375
8271		-54.687500
8272		-48.828125
8273		-54.687500
8274		-44.921875
8275		-52.734375
8276		-44.921875
8277		-50.781250
8278		-41.015625
8279		-46.875000
8280		-39.062500
8281		-46.875000
8282		-37.109375
8283		-44.921875
8284		-37.109375
8285		-39.062500
8286		-35.156250
8287		-37.109375
8288		-29.296875
8289		-37.109375
8290		-27.343750
8291		-33.203125
8292		-25.390625
8293		-31.250000
8294		-23.437500
8295		-31.250000
8296		-21.484375
8297		-27.343750
8298		-19.531250
8299		-25.390625
8300		-17.578125
8301		-21.484375
8302		-15.625000
8303		-17.578125
8304		-13.671875
8305		-17.578125
8306		-9.765625
8307		-17.578125
8308		-7.812500
8309		-13.671875
8310		-3.906250
8311		-11.718750
8312		-1.953125
8313		-9.765625
8314		0.000000
8315		-5.859375
8316		1.953125
8317		-3.906250
8318		1.953125
8319		0.000000
8320		3.906250
8321		1.953125
8322		7.812500
8323		1.953125
8324		11.718750
8325		3.906250
8326		13.671875
8327		7.812500
8328		17.578125
8329		9.765625
8330		17.578125
8331		11.718750
8332		19.531250
8333		13.671875
8334		21.484375
8335		19.531250
8336		23.437500
8337		21.484375
8338		25.390625
8339		19.531250
8340		29.296875
8341		21.484375
8342		31.250000
8343		25.390625
8344		33.203125
8345		27.343750
8346		35.156250
8347		29.296875
8348		37.109375
8349		31.250000
8350		39.062500
8351		35.156250
8352		39.062500
8353		37.109375
8354		41.015625
8355		39.062500
8356		46.875000
8357		39.062500
8358		48.828125
8359		41.015625
8360		48.828125
8361		42.968750
8362		52.734375
8363		44.921875
8364		52.734375
8365		46.875000
8366		54.687500
8367		48.828125
8368		56.640625
8369		52.734375
8370		56.640625
8371		52.734375
8372		60.546875
8373		52.734375
8374		62.500000
8375		54.687500
8376		62.500000
8377		54.687500
8378		66.406250
8379		58.593750
8380		66.406250
8381		60.546875
8382		68.359375
8383		60.546875
8384		68.359375
8385		64.453125
8386		68.359375
8387		66.406250
8388		68.359375
8389		64.453125
8390		72.265625
8391		66.406250
8392		74.218750
8393		66.406250
8394		76.171875
8395		68.359375
8396		76.171875
8397		70.312500
8398		78.125000
8399		70.312500
8400		78.125000
8401		72.265625
8402		78.125000
8403		74.218750
8404		78.125000
8405		74.218750
8406		82.031250
8407		74.218750
8408		82.031250
8409		74.218750
8410		83.984375
8411		76.171875
8412		83.984375
8413		76.171875
8414		83.984375
8415		76.171875
8416		83.984375
8417		78.125000
8418		85.937500
8419		80.078125
8420		83.984375
8421		82.031250
8422		83.984375
8423		78.125000
8424		87.890625
8425		78.125000
8426		87.890625
8427		78.125000
8428		87.890625
8429		78.125000
8430		87.890625
8431		80.078125
8432		87.890625
8433		80.078125
8434		87.890625
8435		82.031250
8436		85.937500
8437		83.984375
8438		85.937500
8439		80.078125
8440		87.890625
8441		80.078125
8442		87.890625
8443		80.078125
8444		87.890625
8445		80.078125
8446		87.890625
8447		80.078125
8448		87.890625
8449		78.125000
8450		85.937500
8451		80.078125
8452		85.937500
8453		82.031250
8454		83.984375
8455		78.125000
8456		85.937500
8457		78.125000
8458		85.937500
8459		76.171875
8460		85.937500
8461		76.171875
8462		83.984375
8463		74.218750
8464		83.984375
8465		74.218750
8466		82.031250
8467		74.218750
8468		82.031250
8469		76.171875
8470		78.125000
8471		74.218750
8472		78.125000
8473		72.265625
8474		80.078125
8475		70.312500
8476		78.125000
8477		68.359375
8478		78.125000
8479		68.359375
8480		76.171875
8481		66.406250
8482		76.171875
8483		64.453125
8484		74.218750
8485		66.406250
8486		72.265625
8487		66.406250
8488		68.359375
8489		62.500000
8490		70.312500
8491		60.546875
8492		68.359375
8493		58.593750
8494		68.359375
8495		56.640625
8496		66.406250
8497		56.640625
8498		64.453125
8499		54.687500
8500		62.500000
8501		54.687500
8502		62.500000
8503		54.687500
8504		56.640625
8505		52.734375
8506		56.640625
8507		48.828125
8508		56.640625
8509		44.921875
8510		54.687500
8511		44.921875
8512		52.734375
8513		42.968750
8514		50.781250
8515		41.015625
8516		48.828125
8517		39.062500
8518		46.875000
8519		39.062500
8520		42.968750
8521		37.109375
8522		41.015625
8523		31.250000
8524		41.015625
8525		31.250000
8526		39.062500
8527		29.296875
8528		37.109375
8529		25.390625
8530		35.156250
8531		23.437500
8532		31.250000
8533		21.484375
8534		31.250000
8535		21.484375
8536		27.343750
8537		19.531250
8538		23.437500
8539		13.671875
8540		21.484375
8541		11.718750
8542		21.484375
8543		9.765625
8544		19.531250
8545		7.812500
8546		17.578125
8547		3.906250
8548		13.671875
8549		1.953125
8550		11.718750
8551		1.953125
8552		9.765625
8553		0.000000
8554		3.906250
8555		-1.953125
8556		1.953125
8557		-5.859375
8558		1.953125
8559		-9.765625
8560		0.000000
8561		-11.718750
8562		-1.953125
8563		-13.671875
8564		-5.859375
8565		-15.625000
8566		-7.812500
8567		-17.578125
8568		-9.765625
8569		-17.578125
8570		-13.671875
8571		-21.484375
8572		-17.578125
8573		-25.390625
8574		-17.578125
8575		-29.296875
8576		-17.578125
8577		-31.250000
8578		-21.484375
8579		-33.203125
8580		-23.437500
8581		-35.156250
8582		-27.343750
8583		-39.062500
8584		-29.296875
8585		-39.062500
8586		-33.203125
8587		-39.062500
8588		-35.156250
8589		-41.015625
8590		-37.109375
8591		-46.875000
8592		-39.062500
8593		-48.828125
8594		-41.015625
8595		-50.781250
8596		-42.968750
8597		-52.734375
8598		-44.921875
8599		-56.640625
8600		-46.875000
8601		-58.593750
8602		-48.828125
8603		-56.640625
8604		-52.734375
8605		-58.593750
8606		-54.687500
8607		-64.453125
8608		-54.687500
8609		-64.453125
8610		-56.640625
8611		-68.359375
8612		-58.593750
8613		-70.312500
8614		-60.546875
8615		-72.265625
8616		-62.500000
8617		-72.265625
8618		-64.453125
8619		-74.218750
8620		-66.406250
8621		-74.218750
8622		-70.312500
8623		-78.125000
8624		-70.312500
8625		-80.078125
8626		-70.312500
8627		-80.078125
8628		-72.265625
8629		-82.031250
8630		-74.218750
8631		-83.984375
8632		-76.171875
8633		-85.937500
8634		-76.171875
8635		-85.937500
8636		-78.125000
8637		-85.937500
8638		-82.031250
8639		-85.937500
8640		-83.984375
8641		-89.843750
8642		-82.031250
8643		-91.796875
8644		-82.031250
8645		-91.796875
8646		-83.984375
8647		-91.796875
8648		-83.984375
8649		-93.750000
8650		-85.937500
8651		-93.750000
8652		-85.937500
8653		-93.750000
8654		-87.890625
8655		-93.750000
8656		-91.796875
8657		-95.703125
8658		-89.843750
8659		-97.656250
8660		-89.843750
8661		-97.656250
8662		-89.843750
8663		-97.656250
8664		-89.843750
8665		-97.656250
8666		-89.843750
8667		-97.656250
8668		-89.843750
8669		-97.656250
8670		-91.796875
8671		-95.703125
8672		-93.750000
8673		-95.703125
8674		-93.750000
8675		-99.609375
8676		-91.796875
8677		-99.609375
8678		-91.796875
8679		-99.609375
8680		-91.796875
8681		-99.609375
8682		-89.843750
8683		-97.656250
8684		-89.843750
8685		-97.656250
8686		-89.843750
8687		-95.703125
8688		-91.796875
8689		-93.750000
8690		-91.796875
8691		-97.656250
8692		-87.890625
8693		-95.703125
8694		-87.890625
8695		-95.703125
8696		-87.890625
8697		-93.750000
8698		-85.937500
8699		-93.750000
8700		-85.937500
8701		-93.750000
8702		-83.984375
8703		-91.796875
8704		-83.984375
8705		-87.890625
8706		-85.937500
8707		-87.890625
8708		-82.031250
8709		-87.890625
8710		-80.078125
8711		-87.890625
8712		-80.078125
8713		-85.937500
8714		-78.125000
8715		-83.984375
8716		-76.171875
8717		-83.984375
8718		-76.171875
8719		-82.031250
8720		-74.218750
8721		-78.125000
8722		-76.171875
8723		-76.171875
8724		-74.218750
8725		-78.125000
8726		-70.312500
8727		-76.171875
8728		-68.359375
8729		-76.171875
8730		-66.406250
8731		-72.265625
8732		-64.453125
8733		-70.312500
8734		-62.500000
8735		-70.312500
8736		-62.500000
8737		-68.359375
8738		-60.546875
8739		-62.500000
8740		-60.546875
8741		-62.500000
8742		-54.687500
8743		-62.500000
8744		-52.734375
8745		-60.546875
8746		-50.781250
8747		-58.593750
8748		-48.828125
8749		-56.640625
8750		-46.875000
8751		-52.734375
8752		-44.921875
8753		-50.781250
8754		-42.968750
8755		-46.875000
8756		-42.968750
8757		-44.921875
8758		-41.015625
8759		-42.968750
8760		-37.109375
8761		-42.968750
8762		-35.156250
8763		-39.062500
8764		-33.203125
8765		-37.109375
8766		-29.296875
8767		-35.156250
8768		-27.343750
8769		-31.250000
8770		-25.390625
8771		-29.296875
8772		-23.437500
8773		-25.390625
8774		-21.484375
8775		-25.390625
8776		-17.578125
8777		-25.390625
8778		-15.625000
8779		-21.484375
8780		-11.718750
8781		-19.531250
8782		-9.765625
8783		-17.578125
8784		-9.765625
8785		-15.625000
8786		-5.859375
8787		-11.718750
8788		-5.859375
8789		-7.812500
8790		-3.906250
8791		-3.906250
8792		1.953125
8793		-3.906250
8794		3.906250
8795		-3.906250
8796		5.859375
8797		0.000000
8798		7.812500
8799		1.953125
8800		9.765625
8801		3.906250
8802		11.718750
8803		5.859375
8804		13.671875
8805		11.718750
8806		15.625000
8807		13.671875
8808		17.578125
8809		13.671875
8810		23.437500
8811		15.625000
8812		25.390625
8813		17.578125
8814		27.343750
8815		19.531250
8816		29.296875
8817		21.484375
8818		31.250000
8819		23.437500
8820		33.203125
8821		25.390625
8822		33.203125
8823		31.250000
8824		35.156250
8825		31.250000
8826		39.062500
8827		33.203125
8828		41.015625
8829		35.156250
8830		42.968750
8831		37.109375
8832		44.921875
8833		39.062500
8834		46.875000
8835		41.015625
8836		48.828125
8837		41.015625
8838		50.781250
8839		46.875000
8840		50.781250
8841		48.828125
8842		52.734375
8843		46.875000
8844		56.640625
8845		48.828125
8846		58.593750
8847		50.781250
8848		58.593750
8849		52.734375
8850		60.546875
8851		54.687500
8852		62.500000
8853		56.640625
8854		64.453125
8855		58.593750
8856		62.500000
8857		60.546875
8858		64.453125
8859		60.546875
8860		68.359375
8861		60.546875
8862		70.312500
8863		62.500000
8864		70.312500
8865		64.453125
8866		72.265625
8867		64.453125
8868		74.218750
8869		66.406250
8870		74.218750
8871		66.406250
8872		74.218750
8873		72.265625
8874		74.218750
8875		72.265625
8876		78.125000
8877		70.312500
8878		78.125000
8879		72.265625
8880		80.078125
8881		72.265625
8882		82.031250
8883		74.218750
8884		82.031250
8885		74.218750
8886		82.031250
8887		74.218750
8888		82.031250
8889		78.125000
8890		82.031250
8891		80.078125
8892		82.031250
8893		76.171875
8894		83.984375
8895		78.125000
8896		85.937500
8897		78.125000
8898		85.937500
8899		78.125000
8900		85.937500
8901		78.125000
8902		87.890625
8903		80.078125
8904		87.890625
8905		80.078125
8906		87.890625
8907		82.031250
8908		83.984375
8909		80.078125
8910		87.890625
8911		80.078125
8912		87.890625
8913		80.078125
8914		87.890625
8915		80.078125
8916		87.890625
8917		80.078125
8918		87.890625
8919		80.078125
8920		87.890625
8921		80.078125
8922		87.890625
8923		82.031250
8924		83.984375
8925		82.031250
8926		83.984375
8927		78.125000
8928		85.937500
8929		78.125000
8930		85.937500
8931		78.125000
8932		85.937500
8933		76.171875
8934		83.984375
8935		76.171875
8936		85.937500
8937		76.171875
8938		83.984375
8939		78.125000
8940		82.031250
8941		78.125000
8942		80.078125
8943		72.265625
8944		80.078125
8945		72.265625
8946		82.031250
8947		72.265625
8948		80.078125
8949		72.265625
8950		80.078125
8951		70.312500
8952		78.125000
8953		70.312500
8954		78.125000
8955		68.359375
8956		76.171875
8957		70.312500
8958		72.265625
8959		68.359375
8960		72.265625
8961		64.453125
8962		74.218750
8963		64.453125
8964		72.265625
8965		62.500000
8966		70.312500
8967		60.546875
8968		68.359375
8969		58.593750
8970		68.359375
8971		58.593750
8972		66.406250
8973		58.593750
8974		62.500000
8975		56.640625
8976		60.546875
8977		52.734375
8978		60.546875
8979		50.781250
8980		60.546875
8981		50.781250
8982		58.593750
8983		46.875000
8984		56.640625
8985		46.875000
8986		54.687500
8987		44.921875
8988		52.734375
8989		44.921875
8990		48.828125
8991		42.968750
8992		46.875000
8993		37.109375
8994		44.921875
8995		37.109375
8996		44.921875
8997		33.203125
8998		42.968750
8999		33.203125
9000		41.015625
9001		31.250000
9002		39.062500
9003		27.343750
9004		37.109375
9005		27.343750
9006		35.156250
9007		25.390625
9008		29.296875
9009		23.437500
9010		27.343750
9011		19.531250
9012		27.343750
9013		17.578125
9014		25.390625
9015		13.671875
9016		23.437500
9017		11.718750
9018		21.484375
9019		9.765625
9020		17.578125
9021		7.812500
9022		17.578125
9023		7.812500
9024		11.718750
9025		5.859375
9026		9.765625
9027		0.000000
9028		7.812500
9029		-1.953125
9030		7.812500
9031		-3.906250
9032		3.906250
9033		-7.812500
9034		1.953125
9035		-9.765625
9036		0.000000
9037		-11.718750
9038		-1.953125
9039		-11.718750
9040		-5.859375
9041		-13.671875
9042		-9.765625
9043		-15.625000
9044		-11.718750
9045		-21.484375
9046		-11.718750
9047		-23.437500
9048		-15.625000
9049		-25.390625
9050		-17.578125
9051		-29.296875
9052		-19.531250
9053		-31.250000
9054		-21.484375
9055		-33.203125
9056		-25.390625
9057		-33.203125
9058		-29.296875
9059		-35.156250
9060		-31.250000
9061		-41.015625
9062		-33.203125
9063		-42.968750
9064		-35.156250
9065		-44.921875
9066		-35.156250
9067		-46.875000
9068		-37.109375
9069		-48.828125
9070		-41.015625
9071		-50.781250
9072		-41.015625
9073		-52.734375
9074		-44.921875
9075		-52.734375
9076		-48.828125
9077		-58.593750
9078		-50.781250
9079		-60.546875
9080		-50.781250
9081		-62.500000
9082		-52.734375
9083		-64.453125
9084		-54.687500
9085		-66.406250
9086		-56.640625
9087		-68.359375
9088		-58.593750
9089		-68.359375
9090		-60.546875
9091		-68.359375
9092		-64.453125
9093		-70.312500
9094		-68.359375
9095		-74.218750
9096		-66.406250
9097		-76.171875
9098		-68.359375
9099		-78.125000
9100		-70.312500
9101		-80.078125
9102		-72.265625
9103		-82.031250
9104		-72.265625
9105		-82.031250
9106		-74.218750
9107		-82.031250
9108		-78.125000
9109		-82.031250
9110		-80.078125
9111		-85.937500
9112		-78.125000
9113		-87.890625
9114		-80.078125
9115		-89.843750
9116		-80.078125
9117		-89.843750
9118		-82.031250
9119		-91.796875
9120		-83.984375
9121		-91.796875
9122		-83.984375
9123		-93.750000
9124		-85.937500
9125		-91.796875
9126		-87.890625
9127		-93.750000
9128		-87.890625
9129		-95.703125
9130		-87.890625
9131		-95.703125
9132		-87.890625
9133		-97.656250
9134		-87.890625
9135		-97.656250
9136		-89.843750
9137		-97.656250
9138		-89.843750
9139		-97.656250
9140		-89.843750
9141		-97.656250
9142		-91.796875
9143		-95.703125
9144		-93.750000
9145		-99.609375
9146		-91.796875
9147		-99.609375
9148		-91.796875
9149		-99.609375
9150		-91.796875
9151		-99.609375
9152		-91.796875
9153		-99.609375
9154		-91.796875
9155		-99.609375
9156		-91.796875
9157		-99.609375
9158		-91.796875
9159		-95.703125
9160		-93.750000
9161		-97.656250
9162		-91.796875
9163		-97.656250
9164		-89.843750
9165		-97.656250
9166		-89.843750
9167		-97.656250
9168		-89.843750
9169		-97.656250
9170		-89.843750
9171		-95.703125
9172		-87.890625
9173		-95.703125
9174		-87.890625
9175		-91.796875
9176		-89.843750
9177		-91.796875
9178		-87.890625
9179		-91.796875
9180		-83.984375
9181		-91.796875
9182		-83.984375
9183		-91.796875
9184		-82.031250
9185		-89.843750
9186		-82.031250
9187		-87.890625
9188		-80.078125
9189		-87.890625
9190		-78.125000
9191		-85.937500
9192		-78.125000
9193		-82.031250
9194		-78.125000
9195		-82.031250
9196		-76.171875
9197		-82.031250
9198		-74.218750
9199		-80.078125
9200		-72.265625
9201		-78.125000
9202		-70.312500
9203		-78.125000
9204		-68.359375
9205		-76.171875
9206		-66.406250
9207		-74.218750
9208		-66.406250
9209		-70.312500
9210		-66.406250
9211		-68.359375
9212		-64.453125
9213		-68.359375
9214		-58.593750
9215		-66.406250
9216		-58.593750
9217		-64.453125
9218		-56.640625
9219		-62.500000
9220		-54.687500
9221		-60.546875
9222		-52.734375
9223		-58.593750
9224		-50.781250
9225		-56.640625
9226		-50.781250
9227		-52.734375
9228		-48.828125
9229		-50.781250
9230		-42.968750
9231		-48.828125
9232		-41.015625
9233		-46.875000
9234		-39.062500
9235		-44.921875
9236		-37.109375
9237		-42.968750
9238		-35.156250
9239		-41.015625
9240		-31.250000
9241		-39.062500
9242		-31.250000
9243		-33.203125
9244		-29.296875
9245		-31.250000
9246		-25.390625
9247		-31.250000
9248		-23.437500
9249		-31.250000
9250		-21.484375
9251		-27.343750
9252		-19.531250
9253		-25.390625
9254		-15.625000
9255		-23.437500
9256		-13.671875
9257		-19.531250
9258		-11.718750
9259		-15.625000
9260		-11.718750
9261		-13.671875
9262		-9.765625
9263		-11.718750
9264		-3.906250
9265		-11.718750
9266		-1.953125
9267		-7.812500
9268		0.000000
9269		-7.812500
9270		3.906250
9271		-3.906250
9272		5.859375
9273		-1.953125
9274		7.812500
9275		1.953125
9276		7.812500
9277		5.859375
9278		9.765625
9279		7.812500
9280		13.671875
9281		7.812500
9282		17.578125
9283		9.765625
9284		19.531250
9285		11.718750
9286		21.484375
9287		13.671875
9288		23.437500
9289		17.578125
9290		25.390625
9291		19.531250
9292		27.343750
9293		23.437500
9294		27.343750
9295		25.390625
9296		31.250000
9297		25.390625
9298		35.156250
9299		27.343750
9300		37.109375
9301		29.296875
9302		39.062500
9303		31.250000
9304		41.015625
9305		35.156250
9306		42.968750
9307		35.156250
9308		44.921875
9309		37.109375
9310		42.968750
9311		42.968750
9312		44.921875
9313		42.968750
9314		50.781250
9315		42.968750
9316		52.734375
9317		44.921875
9318		52.734375
9319		46.875000
9320		54.687500
9321		48.828125
9322		56.640625
9323		50.781250
9324		58.593750
9325		52.734375
9326		58.593750
9327		56.640625
9328		58.593750
9329		56.640625
9330		62.500000
9331		56.640625
9332		64.453125
9333		58.593750
9334		66.406250
9335		60.546875
9336		66.406250
9337		60.546875
9338		68.359375
9339		62.500000
9340		70.312500
9341		64.453125
9342		72.265625
9343		68.359375
9344		70.312500
9345		68.359375
9346		72.265625
9347		68.359375
9348		74.218750
9349		68.359375
9350		76.171875
9351		68.359375
9352		76.171875
9353		70.312500
9354		78.125000
9355		72.265625
9356		80.078125
9357		72.265625
9358		80.078125
9359		72.265625
9360		80.078125
9361		76.171875
9362		80.078125
9363		76.171875
9364		82.031250
9365		74.218750
9366		83.984375
9367		76.171875
9368		83.984375
9369		76.171875
9370		83.984375
9371		76.171875
9372		83.984375
9373		78.125000
9374		85.937500
9375		78.125000
9376		85.937500
9377		80.078125
9378		83.984375
9379		82.031250
9380		83.984375
9381		78.125000
9382		85.937500
9383		78.125000
9384		85.937500
9385		78.125000
9386		87.890625
9387		80.078125
9388		87.890625
9389		80.078125
9390		87.890625
9391		80.078125
9392		85.937500
9393		80.078125
9394		85.937500
9395		82.031250
9396		83.984375
9397		80.078125
9398		85.937500
9399		78.125000
9400		85.937500
9401		78.125000
9402		85.937500
9403		78.125000
9404		85.937500
9405		78.125000
9406		85.937500
9407		78.125000
9408		85.937500
9409		78.125000
9410		83.984375
9411		78.125000
9412		82.031250
9413		76.171875
9414		82.031250
9415		76.171875
9416		82.031250
9417		74.218750
9418		82.031250
9419		74.218750
9420		80.078125
9421		74.218750
9422		80.078125
9423		72.265625
9424		80.078125
9425		70.312500
9426		78.125000
9427		72.265625
9428		76.171875
9429		70.312500
9430		74.218750
9431		68.359375
9432		76.171875
9433		66.406250
9434		76.171875
9435		64.453125
9436		74.218750
9437		64.453125
9438		72.265625
9439		62.500000
9440		72.265625
9441		60.546875
9442		70.312500
9443		62.500000
9444		68.359375
9445		60.546875
9446		64.453125
9447		58.593750
9448		64.453125
9449		54.687500
9450		64.453125
9451		54.687500
9452		62.500000
9453		52.734375
9454		60.546875
9455		50.781250
9456		58.593750
9457		48.828125
9458		56.640625
9459		48.828125
9460		56.640625
9461		48.828125
9462		52.734375
9463		46.875000
9464		50.781250
9465		42.968750
9466		48.828125
9467		41.015625
9468		48.828125
9469		37.109375
9470		46.875000
9471		37.109375
9472		44.921875
9473		33.203125
9474		42.968750
9475		31.250000
9476		41.015625
9477		33.203125
9478		37.109375
9479		29.296875
9480		33.203125
9481		25.390625
9482		33.203125
9483		23.437500
9484		33.203125
9485		21.484375
9486		29.296875
9487		19.531250
9488		27.343750
9489		15.625000
9490		25.390625
9491		15.625000
9492		23.437500
9493		13.671875
9494		21.484375
9495		11.718750
9496		15.625000
9497		7.812500
9498		13.671875
9499		5.859375
9500		13.671875
9501		1.953125
9502		11.718750
9503		0.000000
9504		7.812500
9505		-1.953125
9506		5.859375
9507		-3.906250
9508		3.906250
9509		-5.859375
9510		1.953125
9511		-5.859375
9512		-3.906250
9513		-9.765625
9514		-5.859375
9515		-13.671875
9516		-5.859375
9517		-17.578125
9518		-7.812500
9519		-19.531250
9520		-9.765625
9521		-21.484375
9522		-13.671875
9523		-23.437500
9524		-13.671875
9525		-25.390625
9526		-17.578125
9527		-27.343750
9528		-21.484375
9529		-29.296875
9530		-25.390625
9531		-31.250000
9532		-27.343750
9533		-37.109375
9534		-27.343750
9535		-39.062500
9536		-29.296875
9537		-39.062500
9538		-31.250000
9539		-42.968750
9540		-35.156250
9541		-44.921875
9542		-37.109375
9543		-46.875000
9544		-39.062500
9545		-46.875000
9546		-42.968750
9547		-48.828125
9548		-44.921875
9549		-54.687500
9550		-46.875000
9551		-56.640625
9552		-48.828125
9553		-58.593750
9554		-48.828125
9555		-60.546875
9556		-52.734375
9557		-62.500000
9558		-54.687500
9559		-64.453125
9560		-54.687500
9561		-64.453125
9562		-58.593750
9563		-66.406250
9564		-62.500000
9565		-70.312500
9566		-62.500000
9567		-72.265625
9568		-64.453125
9569		-74.218750
9570		-64.453125
9571		-76.171875
9572		-66.406250
9573		-78.125000
9574		-68.359375
9575		-78.125000
9576		-70.312500
9577		-80.078125
9578		-72.265625
9579		-80.078125
9580		-76.171875
9581		-82.031250
9582		-78.125000
9583		-85.937500
9584		-76.171875
9585		-85.937500
9586		-78.125000
9587		-87.890625
9588		-80.078125
9589		-89.843750
9590		-80.078125
9591		-89.843750
9592		-82.031250
9593		-89.843750
9594		-83.984375
9595		-89.843750
9596		-87.890625
9597		-89.843750
9598		-87.890625
9599		-93.750000
9600		-85.937500
9601		-95.703125
9602		-87.890625
9603		-95.703125
9604		-87.890625
9605		-97.656250
9606		-89.843750
9607		-97.656250
9608		-89.843750
9609		-97.656250
9610		-89.843750
9611		-97.656250
9612		-91.796875
9613		-95.703125
9614		-93.750000
9615		-99.609375
9616		-93.750000
9617		-99.609375
9618		-91.796875
9619		-99.609375
9620		-91.796875
9621		-99.609375
9622		-91.796875
9623		-99.609375
9624		-93.750000
9625		-101.562500
9626		-93.750000
9627		-99.609375
9628		-93.750000
9629		-97.656250
9630		-95.703125
9631		-97.656250
9632		-95.703125
9633		-99.609375
9634		-93.750000
9635		-99.609375
9636		-91.796875
9637		-99.609375
9638		-91.796875
9639		-99.609375
9640		-91.796875
9641		-99.609375
9642		-91.796875
9643		-97.656250
9644		-89.843750
9645		-95.703125
9646		-89.843750
9647		-93.750000
9648		-91.796875
9649		-95.703125
9650		-87.890625
9651		-95.703125
9652		-87.890625
9653		-95.703125
9654		-87.890625
9655		-93.750000
9656		-85.937500
9657		-93.750000
9658		-85.937500
9659		-91.796875
9660		-83.984375
9661		-89.843750
9662		-83.984375
9663		-87.890625
9664		-83.984375
9665		-85.937500
9666		-83.984375
9667		-87.890625
9668		-80.078125
9669		-85.937500
9670		-78.125000
9671		-83.984375
9672		-76.171875
9673		-83.984375
9674		-74.218750
9675		-82.031250
9676		-72.265625
9677		-80.078125
9678		-70.312500
9679		-76.171875
9680		-72.265625
9681		-74.218750
9682		-70.312500
9683		-74.218750
9684		-66.406250
9685		-72.265625
9686		-64.453125
9687		-72.265625
9688		-64.453125
9689		-70.312500
9690		-60.546875
9691		-68.359375
9692		-58.593750
9693		-66.406250
9694		-58.593750
9695		-64.453125
9696		-56.640625
9697		-58.593750
9698		-56.640625
9699		-56.640625
9700		-52.734375
9701		-58.593750
9702		-48.828125
9703		-56.640625
9704		-46.875000
9705		-54.687500
9706		-44.921875
9707		-52.734375
9708		-42.968750
9709		-50.781250
9710		-41.015625
9711		-46.875000
9712		-39.062500
9713		-42.968750
9714		-39.062500
9715		-41.015625
9716		-37.109375
9717		-39.062500
9718		-31.250000
9719		-37.109375
9720		-29.296875
9721		-35.156250
9722		-27.343750
9723		-33.203125
9724		-25.390625
9725		-31.250000
9726		-21.484375
9727		-29.296875
9728		-19.531250
9729		-25.390625
9730		-19.531250
9731		-21.484375
9732		-17.578125
9733		-19.531250
9734		-13.671875
9735		-19.531250
9736		-9.765625
9737		-17.578125
9738		-7.812500
9739		-13.671875
9740		-5.859375
9741		-11.718750
9742		-3.906250
9743		-9.765625
9744		-1.953125
9745		-7.812500
9746		0.000000
9747		-1.953125
9748		1.953125
9749		0.000000
9750		3.906250
9751		0.000000
9752		7.812500
9753		1.953125
9754		9.765625
9755		3.906250
9756		13.671875
9757		5.859375
9758		15.625000
9759		9.765625
9760		17.578125
9761		11.718750
9762		19.531250
9763		15.625000
9764		19.531250
9765		17.578125
9766		21.484375
9767		19.531250
9768		27.343750
9769		19.531250
9770		27.343750
9771		21.484375
9772		31.250000
9773		23.437500
9774		33.203125
9775		25.390625
9776		35.156250
9777		27.343750
9778		37.109375
9779		29.296875
9780		39.062500
9781		35.156250
9782		39.062500
9783		37.109375
9784		42.968750
9785		37.109375
9786		44.921875
9787		39.062500
9788		46.875000
9789		39.062500
9790		48.828125
9791		42.968750
9792		50.781250
9793		44.921875
9794		52.734375
9795		44.921875
9796		54.687500
9797		50.781250
9798		52.734375
9799		50.781250
9800		54.687500
9801		50.781250
9802		58.593750
9803		52.734375
9804		60.546875
9805		54.687500
9806		62.500000
9807		54.687500
9808		62.500000
9809		56.640625
9810		64.453125
9811		58.593750
9812		66.406250
9813		60.546875
9814		66.406250
9815		64.453125
9816		66.406250
9817		64.453125
9818		68.359375
9819		64.453125
9820		72.265625
9821		64.453125
9822		74.218750
9823		64.453125
9824		74.218750
9825		66.406250
9826		76.171875
9827		68.359375
9828		76.171875
9829		68.359375
9830		78.125000
9831		72.265625
9832		76.171875
9833		74.218750
9834		76.171875
9835		72.265625
9836		80.078125
9837		72.265625
9838		80.078125
9839		74.218750
9840		82.031250
9841		74.218750
9842		82.031250
9843		74.218750
9844		82.031250
9845		74.218750
9846		83.984375
9847		76.171875
9848		83.984375
9849		80.078125
9850		82.031250
9851		78.125000
9852		85.937500
9853		76.171875
9854		83.984375
9855		76.171875
9856		85.937500
9857		78.125000
9858		85.937500
9859		78.125000
9860		85.937500
9861		78.125000
9862		85.937500
9863		78.125000
9864		85.937500
9865		80.078125
9866		83.984375
9867		80.078125
9868		83.984375
9869		78.125000
9870		85.937500
9871		78.125000
9872		85.937500
9873		78.125000
9874		85.937500
9875		78.125000
9876		85.937500
9877		76.171875
9878		85.937500
9879		78.125000
9880		85.937500
9881		80.078125
9882		82.031250
9883		78.125000
9884		82.031250
9885		76.171875
9886		83.984375
9887		74.218750
9888		83.984375
9889		74.218750
9890		82.031250
9891		74.218750
9892		82.031250
9893		74.218750
9894		82.031250
9895		72.265625
9896		82.031250
9897		72.265625
9898		80.078125
9899		74.218750
9900		76.171875
9901		70.312500
9902		78.125000
9903		68.359375
9904		78.125000
9905		68.359375
9906		76.171875
9907		66.406250
9908		76.171875
9909		66.406250
9910		74.218750
9911		64.453125
9912		74.218750
9913		64.453125
9914		72.265625
9915		64.453125
9916		68.359375
9917		62.500000
9918		66.406250
9919		58.593750
9920		68.359375
9921		56.640625
9922		66.406250
9923		56.640625
9924		64.453125
9925		54.687500
9926		64.453125
9927		52.734375
9928		62.500000
9929		52.734375
9930		60.546875
9931		50.781250
9932		58.593750
9933		50.781250
9934		54.687500
9935		46.875000
9936		54.687500
9937		44.921875
9938		52.734375
9939		42.968750
9940		52.734375
9941		41.015625
9942		50.781250
9943		39.062500
9944		46.875000
9945		37.109375
9946		46.875000
9947		37.109375
9948		44.921875
9949		35.156250
9950		39.062500
9951		33.203125
9952		37.109375
9953		27.343750
9954		37.109375
9955		25.390625
9956		35.156250
9957		25.390625
9958		33.203125
9959		23.437500
9960		31.250000
9961		19.531250
9962		29.296875
9963		19.531250
9964		27.343750
9965		17.578125
9966		21.484375
9967		15.625000
9968		19.531250
9969		11.718750
9970		19.531250
9971		9.765625
9972		17.578125
9973		5.859375
9974		15.625000
9975		3.906250
9976		13.671875
9977		1.953125
9978		11.718750
9979		0.000000
9980		7.812500
9981		0.000000
9982		5.859375
9983		-1.953125
9984		1.953125
9985		-7.812500
9986		0.000000
9987		-9.765625
9988		0.000000
9989		-11.718750
9990		-3.906250
9991		-15.625000
9992		-5.859375
9993		-17.578125
9994		-7.812500
9995		-19.531250
9996		-11.718750
9997		-21.484375
9998		-13.671875
9999		-21.484375
10000		-17.578125
