Channel              :		CH1
Frequency            :		1.059kHz
Period               :		0.944ms
PK-PK                :		128.9mV
Probe attenuation    :		1X
Voltage per ADC value:		0.122070mV
Time interval        :		2.00000us

index		CH1_Voltage(mV)
1		27.343750
2		27.343750
3		21.484375
4		27.343750
5		21.484375
6		23.437500
7		17.578125
8		23.437500
9		17.578125
10		23.437500
11		17.578125
12		21.484375
13		15.625000
14		19.531250
15		13.671875
16		17.578125
17		11.718750
18		15.625000
19		9.765625
20		15.625000
21		9.765625
22		11.718750
23		7.812500
24		11.718750
25		5.859375
26		9.765625
27		3.906250
28		7.812500
29		1.953125
30		5.859375
31		1.953125
32		5.859375
33		0.000000
34		3.906250
35		-1.953125
36		3.906250
37		-3.906250
38		1.953125
39		-3.906250
40		-1.953125
41		-7.812500
42		-1.953125
43		-7.812500
44		-3.906250
45		-9.765625
46		-5.859375
47		-9.765625
48		-5.859375
49		-11.718750
50		-7.812500
51		-13.671875
52		-9.765625
53		-15.625000
54		-11.718750
55		-17.578125
56		-13.671875
57		-17.578125
58		-15.625000
59		-19.531250
60		-13.671875
61		-21.484375
62		-17.578125
63		-21.484375
64		-19.531250
65		-23.437500
66		-19.531250
67		-25.390625
68		-21.484375
69		-27.343750
70		-23.437500
71		-27.343750
72		-23.437500
73		-29.296875
74		-27.343750
75		-31.250000
76		-27.343750
77		-31.250000
78		-29.296875
79		-33.203125
80		-29.296875
81		-35.156250
82		-31.250000
83		-35.156250
84		-33.203125
85		-37.109375
86		-33.203125
87		-39.062500
88		-33.203125
89		-41.015625
90		-35.156250
91		-41.015625
92		-37.109375
93		-41.015625
94		-37.109375
95		-42.968750
96		-39.062500
97		-44.921875
98		-39.062500
99		-44.921875
100		-41.015625
101		-44.921875
102		-42.968750
103		-46.875000
104		-42.968750
105		-46.875000
106		-44.921875
107		-48.828125
108		-44.921875
109		-50.781250
110		-44.921875
111		-50.781250
112		-46.875000
113		-50.781250
114		-46.875000
115		-50.781250
116		-48.828125
117		-52.734375
118		-48.828125
119		-52.734375
120		-48.828125
121		-52.734375
122		-48.828125
123		-54.687500
124		-50.781250
125		-54.687500
126		-50.781250
127		-54.687500
128		-50.781250
129		-54.687500
130		-52.734375
131		-56.640625
132		-52.734375
133		-56.640625
134		-52.734375
135		-56.640625
136		-52.734375
137		-56.640625
138		-52.734375
139		-56.640625
140		-54.687500
141		-56.640625
142		-54.687500
143		-58.593750
144		-52.734375
145		-56.640625
146		-54.687500
147		-56.640625
148		-54.687500
149		-56.640625
150		-52.734375
151		-56.640625
152		-52.734375
153		-56.640625
154		-52.734375
155		-56.640625
156		-52.734375
157		-56.640625
158		-54.687500
159		-56.640625
160		-52.734375
161		-56.640625
162		-52.734375
163		-56.640625
164		-52.734375
165		-54.687500
166		-50.781250
167		-54.687500
168		-52.734375
169		-54.687500
170		-50.781250
171		-54.687500
172		-50.781250
173		-52.734375
174		-50.781250
175		-54.687500
176		-48.828125
177		-52.734375
178		-48.828125
179		-52.734375
180		-48.828125
181		-50.781250
182		-46.875000
183		-50.781250
184		-46.875000
185		-48.828125
186		-44.921875
187		-48.828125
188		-44.921875
189		-46.875000
190		-44.921875
191		-46.875000
192		-44.921875
193		-46.875000
194		-42.968750
195		-44.921875
196		-41.015625
197		-44.921875
198		-41.015625
199		-42.968750
200		-41.015625
201		-42.968750
202		-39.062500
203		-41.015625
204		-39.062500
205		-41.015625
206		-37.109375
207		-39.062500
208		-35.156250
209		-39.062500
210		-33.203125
211		-37.109375
212		-33.203125
213		-35.156250
214		-31.250000
215		-33.203125
216		-31.250000
217		-33.203125
218		-29.296875
219		-31.250000
220		-27.343750
221		-31.250000
222		-25.390625
223		-29.296875
224		-25.390625
225		-27.343750
226		-23.437500
227		-25.390625
228		-21.484375
229		-25.390625
230		-19.531250
231		-23.437500
232		-19.531250
233		-21.484375
234		-17.578125
235		-19.531250
236		-17.578125
237		-19.531250
238		-15.625000
239		-19.531250
240		-13.671875
241		-15.625000
242		-11.718750
243		-15.625000
244		-9.765625
245		-13.671875
246		-7.812500
247		-11.718750
248		-7.812500
249		-9.765625
250		-5.859375
251		-7.812500
252		-3.906250
253		-7.812500
254		-3.906250
255		-5.859375
256		-1.953125
257		-3.906250
258		0.000000
259		-1.953125
260		3.906250
261		-1.953125
262		3.906250
263		0.000000
264		3.906250
265		1.953125
266		7.812500
267		3.906250
268		7.812500
269		5.859375
270		7.812500
271		5.859375
272		11.718750
273		7.812500
274		11.718750
275		9.765625
276		13.671875
277		9.765625
278		15.625000
279		13.671875
280		15.625000
281		13.671875
282		17.578125
283		15.625000
284		19.531250
285		17.578125
286		21.484375
287		19.531250
288		21.484375
289		19.531250
290		23.437500
291		21.484375
292		23.437500
293		21.484375
294		27.343750
295		23.437500
296		27.343750
297		25.390625
298		29.296875
299		27.343750
300		29.296875
301		27.343750
302		31.250000
303		29.296875
304		33.203125
305		31.250000
306		35.156250
307		31.250000
308		35.156250
309		33.203125
310		37.109375
311		33.203125
312		37.109375
313		35.156250
314		39.062500
315		37.109375
316		41.015625
317		37.109375
318		41.015625
319		39.062500
320		42.968750
321		39.062500
322		42.968750
323		41.015625
324		44.921875
325		42.968750
326		44.921875
327		41.015625
328		46.875000
329		44.921875
330		48.828125
331		44.921875
332		48.828125
333		44.921875
334		48.828125
335		46.875000
336		50.781250
337		46.875000
338		50.781250
339		46.875000
340		50.781250
341		48.828125
342		52.734375
343		50.781250
344		54.687500
345		50.781250
346		52.734375
347		50.781250
348		54.687500
349		50.781250
350		54.687500
351		52.734375
352		54.687500
353		52.734375
354		56.640625
355		52.734375
356		56.640625
357		54.687500
358		58.593750
359		54.687500
360		56.640625
361		54.687500
362		58.593750
363		54.687500
364		58.593750
365		56.640625
366		60.546875
367		56.640625
368		60.546875
369		56.640625
370		58.593750
371		56.640625
372		58.593750
373		54.687500
374		60.546875
375		56.640625
376		58.593750
377		56.640625
378		60.546875
379		56.640625
380		60.546875
381		58.593750
382		60.546875
383		56.640625
384		60.546875
385		56.640625
386		60.546875
387		58.593750
388		60.546875
389		56.640625
390		60.546875
391		56.640625
392		60.546875
393		56.640625
394		60.546875
395		56.640625
396		62.500000
397		56.640625
398		60.546875
399		56.640625
400		58.593750
401		56.640625
402		58.593750
403		54.687500
404		58.593750
405		54.687500
406		58.593750
407		54.687500
408		58.593750
409		54.687500
410		56.640625
411		52.734375
412		58.593750
413		52.734375
414		56.640625
415		52.734375
416		56.640625
417		52.734375
418		56.640625
419		50.781250
420		54.687500
421		50.781250
422		54.687500
423		50.781250
424		54.687500
425		50.781250
426		52.734375
427		48.828125
428		52.734375
429		46.875000
430		50.781250
431		46.875000
432		50.781250
433		44.921875
434		50.781250
435		44.921875
436		48.828125
437		44.921875
438		48.828125
439		41.015625
440		46.875000
441		42.968750
442		44.921875
443		41.015625
444		44.921875
445		41.015625
446		44.921875
447		39.062500
448		42.968750
449		39.062500
450		42.968750
451		37.109375
452		41.015625
453		35.156250
454		41.015625
455		35.156250
456		39.062500
457		33.203125
458		37.109375
459		33.203125
460		35.156250
461		29.296875
462		33.203125
463		29.296875
464		33.203125
465		29.296875
466		33.203125
467		27.343750
468		31.250000
469		25.390625
470		29.296875
471		23.437500
472		27.343750
473		21.484375
474		27.343750
475		21.484375
476		25.390625
477		19.531250
478		23.437500
479		17.578125
480		23.437500
481		17.578125
482		19.531250
483		15.625000
484		19.531250
485		13.671875
486		17.578125
487		13.671875
488		17.578125
489		11.718750
490		15.625000
491		9.765625
492		13.671875
493		7.812500
494		11.718750
495		5.859375
496		11.718750
497		5.859375
498		9.765625
499		3.906250
500		7.812500
501		1.953125
502		5.859375
503		0.000000
504		3.906250
505		0.000000
506		3.906250
507		-3.906250
508		1.953125
509		-3.906250
510		0.000000
511		-5.859375
512		-1.953125
513		-7.812500
514		-3.906250
515		-7.812500
516		-3.906250
517		-9.765625
518		-5.859375
519		-11.718750
520		-7.812500
521		-13.671875
522		-9.765625
523		-15.625000
524		-11.718750
525		-15.625000
526		-13.671875
527		-17.578125
528		-13.671875
529		-19.531250
530		-15.625000
531		-21.484375
532		-17.578125
533		-23.437500
534		-19.531250
535		-23.437500
536		-19.531250
537		-25.390625
538		-21.484375
539		-27.343750
540		-23.437500
541		-27.343750
542		-23.437500
543		-29.296875
544		-25.390625
545		-31.250000
546		-25.390625
547		-31.250000
548		-27.343750
549		-33.203125
550		-29.296875
551		-35.156250
552		-31.250000
553		-37.109375
554		-33.203125
555		-37.109375
556		-33.203125
557		-39.062500
558		-35.156250
559		-39.062500
560		-37.109375
561		-41.015625
562		-37.109375
563		-42.968750
564		-37.109375
565		-42.968750
566		-39.062500
567		-44.921875
568		-39.062500
569		-44.921875
570		-41.015625
571		-44.921875
572		-42.968750
573		-46.875000
574		-42.968750
575		-48.828125
576		-42.968750
577		-48.828125
578		-44.921875
579		-48.828125
580		-46.875000
581		-50.781250
582		-46.875000
583		-50.781250
584		-48.828125
585		-52.734375
586		-48.828125
587		-52.734375
588		-48.828125
589		-52.734375
590		-50.781250
591		-54.687500
592		-48.828125
593		-54.687500
594		-50.781250
595		-54.687500
596		-50.781250
597		-54.687500
598		-52.734375
599		-54.687500
600		-52.734375
601		-56.640625
602		-52.734375
603		-56.640625
604		-52.734375
605		-56.640625
606		-54.687500
607		-56.640625
608		-54.687500
609		-56.640625
610		-54.687500
611		-56.640625
612		-54.687500
613		-58.593750
614		-52.734375
615		-58.593750
616		-54.687500
617		-58.593750
618		-54.687500
619		-58.593750
620		-54.687500
621		-58.593750
622		-54.687500
623		-58.593750
624		-54.687500
625		-58.593750
626		-54.687500
627		-56.640625
628		-54.687500
629		-58.593750
630		-52.734375
631		-56.640625
632		-52.734375
633		-56.640625
634		-52.734375
635		-56.640625
636		-52.734375
637		-56.640625
638		-52.734375
639		-56.640625
640		-52.734375
641		-56.640625
642		-50.781250
643		-54.687500
644		-52.734375
645		-54.687500
646		-50.781250
647		-54.687500
648		-48.828125
649		-52.734375
650		-48.828125
651		-52.734375
652		-48.828125
653		-50.781250
654		-48.828125
655		-50.781250
656		-48.828125
657		-50.781250
658		-46.875000
659		-50.781250
660		-44.921875
661		-48.828125
662		-44.921875
663		-48.828125
664		-44.921875
665		-46.875000
666		-42.968750
667		-46.875000
668		-41.015625
669		-44.921875
670		-41.015625
671		-42.968750
672		-41.015625
673		-42.968750
674		-39.062500
675		-42.968750
676		-37.109375
677		-41.015625
678		-37.109375
679		-39.062500
680		-37.109375
681		-41.015625
682		-35.156250
683		-37.109375
684		-33.203125
685		-35.156250
686		-31.250000
687		-35.156250
688		-31.250000
689		-33.203125
690		-29.296875
691		-33.203125
692		-29.296875
693		-31.250000
694		-27.343750
695		-29.296875
696		-25.390625
697		-29.296875
698		-23.437500
699		-27.343750
700		-21.484375
701		-25.390625
702		-21.484375
703		-23.437500
704		-19.531250
705		-21.484375
706		-19.531250
707		-21.484375
708		-17.578125
709		-19.531250
710		-15.625000
711		-17.578125
712		-15.625000
713		-15.625000
714		-11.718750
715		-15.625000
716		-11.718750
717		-13.671875
718		-9.765625
719		-11.718750
720		-9.765625
721		-9.765625
722		-7.812500
723		-9.765625
724		-5.859375
725		-7.812500
726		-1.953125
727		-5.859375
728		-1.953125
729		-3.906250
730		-1.953125
731		-3.906250
732		1.953125
733		-1.953125
734		1.953125
735		0.000000
736		3.906250
737		1.953125
738		5.859375
739		1.953125
740		7.812500
741		3.906250
742		7.812500
743		5.859375
744		9.765625
745		7.812500
746		11.718750
747		7.812500
748		13.671875
749		11.718750
750		13.671875
751		11.718750
752		15.625000
753		13.671875
754		17.578125
755		15.625000
756		19.531250
757		17.578125
758		21.484375
759		17.578125
760		21.484375
761		19.531250
762		23.437500
763		21.484375
764		23.437500
765		21.484375
766		25.390625
767		23.437500
768		27.343750
769		25.390625
770		29.296875
771		25.390625
772		29.296875
773		27.343750
774		31.250000
775		29.296875
776		33.203125
777		29.296875
778		33.203125
779		31.250000
780		35.156250
781		31.250000
782		37.109375
783		33.203125
784		37.109375
785		35.156250
786		39.062500
787		35.156250
788		41.015625
789		37.109375
790		41.015625
791		37.109375
792		41.015625
793		39.062500
794		42.968750
795		41.015625
796		42.968750
797		41.015625
798		44.921875
799		42.968750
800		46.875000
801		42.968750
802		46.875000
803		42.968750
804		46.875000
805		44.921875
806		48.828125
807		44.921875
808		48.828125
809		46.875000
810		50.781250
811		48.828125
812		50.781250
813		48.828125
814		50.781250
815		46.875000
816		52.734375
817		48.828125
818		52.734375
819		50.781250
820		54.687500
821		50.781250
822		54.687500
823		50.781250
824		54.687500
825		50.781250
826		56.640625
827		52.734375
828		56.640625
829		52.734375
830		56.640625
831		52.734375
832		58.593750
833		54.687500
834		56.640625
835		54.687500
836		58.593750
837		52.734375
838		60.546875
839		54.687500
840		58.593750
841		54.687500
842		58.593750
843		54.687500
844		58.593750
845		54.687500
846		58.593750
847		56.640625
848		58.593750
849		56.640625
850		60.546875
851		56.640625
852		60.546875
853		56.640625
854		58.593750
855		54.687500
856		60.546875
857		56.640625
858		60.546875
859		56.640625
860		60.546875
861		54.687500
862		60.546875
863		56.640625
864		58.593750
865		54.687500
866		58.593750
867		54.687500
868		58.593750
869		54.687500
870		58.593750
871		54.687500
872		60.546875
873		54.687500
874		58.593750
875		54.687500
876		58.593750
877		54.687500
878		58.593750
879		52.734375
880		56.640625
881		52.734375
882		56.640625
883		52.734375
884		56.640625
885		52.734375
886		54.687500
887		50.781250
888		54.687500
889		50.781250
890		54.687500
891		50.781250
892		54.687500
893		48.828125
894		52.734375
895		48.828125
896		52.734375
897		48.828125
898		50.781250
899		46.875000
900		50.781250
901		46.875000
902		50.781250
903		44.921875
904		50.781250
905		42.968750
906		48.828125
907		44.921875
908		48.828125
909		42.968750
910		46.875000
911		41.015625
912		46.875000
913		41.015625
914		44.921875
915		39.062500
916		44.921875
917		39.062500
918		42.968750
919		37.109375
920		42.968750
921		35.156250
922		42.968750
923		35.156250
924		39.062500
925		35.156250
926		39.062500
927		33.203125
928		37.109375
929		33.203125
930		35.156250
931		31.250000
932		35.156250
933		29.296875
934		33.203125
935		29.296875
936		31.250000
937		27.343750
938		31.250000
939		25.390625
940		31.250000
941		25.390625
942		27.343750
943		23.437500
944		27.343750
945		21.484375
946		25.390625
947		21.484375
948		25.390625
949		17.578125
950		23.437500
951		17.578125
952		21.484375
953		15.625000
954		19.531250
955		13.671875
956		17.578125
957		11.718750
958		17.578125
959		11.718750
960		15.625000
961		9.765625
962		13.671875
963		9.765625
964		11.718750
965		5.859375
966		11.718750
967		5.859375
968		9.765625
969		3.906250
970		7.812500
971		0.000000
972		5.859375
973		1.953125
974		3.906250
975		0.000000
976		3.906250
977		-1.953125
978		1.953125
979		-3.906250
980		0.000000
981		-5.859375
982		-1.953125
983		-7.812500
984		-1.953125
985		-7.812500
986		-3.906250
987		-9.765625
988		-5.859375
989		-13.671875
990		-5.859375
991		-15.625000
992		-7.812500
993		-13.671875
994		-11.718750
995		-15.625000
996		-11.718750
997		-17.578125
998		-13.671875
999		-19.531250
1000		-15.625000
1001		-21.484375
1002		-15.625000
1003		-23.437500
1004		-17.578125
1005		-25.390625
1006		-17.578125
1007		-27.343750
1008		-19.531250
1009		-25.390625
1010		-21.484375
1011		-29.296875
1012		-23.437500
1013		-29.296875
1014		-25.390625
1015		-29.296875
1016		-27.343750
1017		-31.250000
1018		-29.296875
1019		-33.203125
1020		-29.296875
1021		-35.156250
1022		-31.250000
1023		-37.109375
1024		-29.296875
1025		-37.109375
1026		-29.296875
1027		-39.062500
1028		-33.203125
1029		-39.062500
1030		-35.156250
1031		-39.062500
1032		-37.109375
1033		-42.968750
1034		-37.109375
1035		-42.968750
1036		-39.062500
1037		-42.968750
1038		-39.062500
1039		-46.875000
1040		-39.062500
1041		-46.875000
1042		-42.968750
1043		-46.875000
1044		-42.968750
1045		-48.828125
1046		-42.968750
1047		-48.828125
1048		-44.921875
1049		-48.828125
1050		-44.921875
1051		-50.781250
1052		-46.875000
1053		-50.781250
1054		-46.875000
1055		-54.687500
1056		-46.875000
1057		-54.687500
1058		-48.828125
1059		-54.687500
1060		-48.828125
1061		-54.687500
1062		-50.781250
1063		-54.687500
1064		-50.781250
1065		-54.687500
1066		-52.734375
1067		-54.687500
1068		-50.781250
1069		-56.640625
1070		-52.734375
1071		-56.640625
1072		-52.734375
1073		-58.593750
1074		-50.781250
1075		-58.593750
1076		-50.781250
1077		-58.593750
1078		-54.687500
1079		-58.593750
1080		-52.734375
1081		-58.593750
1082		-54.687500
1083		-58.593750
1084		-54.687500
1085		-58.593750
1086		-54.687500
1087		-58.593750
1088		-54.687500
1089		-58.593750
1090		-54.687500
1091		-60.546875
1092		-52.734375
1093		-58.593750
1094		-54.687500
1095		-58.593750
1096		-54.687500
1097		-58.593750
1098		-54.687500
1099		-56.640625
1100		-54.687500
1101		-58.593750
1102		-52.734375
1103		-58.593750
1104		-54.687500
1105		-56.640625
1106		-52.734375
1107		-60.546875
1108		-50.781250
1109		-58.593750
1110		-50.781250
1111		-56.640625
1112		-52.734375
1113		-56.640625
1114		-52.734375
1115		-54.687500
1116		-52.734375
1117		-54.687500
1118		-50.781250
1119		-54.687500
1120		-50.781250
1121		-52.734375
1122		-50.781250
1123		-56.640625
1124		-48.828125
1125		-54.687500
1126		-46.875000
1127		-50.781250
1128		-46.875000
1129		-50.781250
1130		-46.875000
1131		-48.828125
1132		-46.875000
1133		-48.828125
1134		-44.921875
1135		-48.828125
1136		-44.921875
1137		-46.875000
1138		-42.968750
1139		-46.875000
1140		-41.015625
1141		-46.875000
1142		-41.015625
1143		-46.875000
1144		-39.062500
1145		-42.968750
1146		-39.062500
1147		-41.015625
1148		-39.062500
1149		-41.015625
1150		-37.109375
1151		-39.062500
1152		-35.156250
1153		-39.062500
1154		-35.156250
1155		-37.109375
1156		-33.203125
1157		-39.062500
1158		-29.296875
1159		-37.109375
1160		-29.296875
1161		-33.203125
1162		-29.296875
1163		-31.250000
1164		-27.343750
1165		-31.250000
1166		-27.343750
1167		-29.296875
1168		-23.437500
1169		-29.296875
1170		-23.437500
1171		-27.343750
1172		-23.437500
1173		-27.343750
1174		-21.484375
1175		-25.390625
1176		-17.578125
1177		-23.437500
1178		-19.531250
1179		-21.484375
1180		-17.578125
1181		-19.531250
1182		-15.625000
1183		-17.578125
1184		-13.671875
1185		-17.578125
1186		-11.718750
1187		-15.625000
1188		-11.718750
1189		-15.625000
1190		-7.812500
1191		-13.671875
1192		-5.859375
1193		-11.718750
1194		-5.859375
1195		-9.765625
1196		-3.906250
1197		-9.765625
1198		-3.906250
1199		-5.859375
1200		-1.953125
1201		-3.906250
1202		0.000000
1203		-3.906250
1204		0.000000
1205		-1.953125
1206		3.906250
1207		-1.953125
1208		5.859375
1209		0.000000
1210		7.812500
1211		1.953125
1212		7.812500
1213		3.906250
1214		7.812500
1215		5.859375
1216		9.765625
1217		7.812500
1218		11.718750
1219		7.812500
1220		13.671875
1221		9.765625
1222		17.578125
1223		9.765625
1224		19.531250
1225		11.718750
1226		19.531250
1227		13.671875
1228		21.484375
1229		15.625000
1230		23.437500
1231		15.625000
1232		21.484375
1233		19.531250
1234		23.437500
1235		19.531250
1236		23.437500
1237		19.531250
1238		27.343750
1239		21.484375
1240		29.296875
1241		23.437500
1242		31.250000
1243		23.437500
1244		31.250000
1245		25.390625
1246		33.203125
1247		27.343750
1248		33.203125
1249		31.250000
1250		33.203125
1251		31.250000
1252		35.156250
1253		29.296875
1254		37.109375
1255		33.203125
1256		39.062500
1257		33.203125
1258		41.015625
1259		33.203125
1260		42.968750
1261		35.156250
1262		42.968750
1263		35.156250
1264		42.968750
1265		39.062500
1266		42.968750
1267		41.015625
1268		42.968750
1269		41.015625
1270		46.875000
1271		41.015625
1272		46.875000
1273		41.015625
1274		48.828125
1275		41.015625
1276		50.781250
1277		42.968750
1278		50.781250
1279		42.968750
1280		50.781250
1281		44.921875
1282		50.781250
1283		48.828125
1284		50.781250
1285		48.828125
1286		54.687500
1287		46.875000
1288		54.687500
1289		46.875000
1290		54.687500
1291		48.828125
1292		56.640625
1293		48.828125
1294		56.640625
1295		48.828125
1296		56.640625
1297		50.781250
1298		58.593750
1299		52.734375
1300		54.687500
1301		54.687500
1302		56.640625
1303		50.781250
1304		58.593750
1305		52.734375
1306		60.546875
1307		52.734375
1308		60.546875
1309		52.734375
1310		60.546875
1311		52.734375
1312		60.546875
1313		52.734375
1314		60.546875
1315		56.640625
1316		58.593750
1317		56.640625
1318		58.593750
1319		54.687500
1320		60.546875
1321		54.687500
1322		60.546875
1323		54.687500
1324		62.500000
1325		54.687500
1326		62.500000
1327		54.687500
1328		62.500000
1329		54.687500
1330		62.500000
1331		54.687500
1332		60.546875
1333		56.640625
1334		60.546875
1335		56.640625
1336		60.546875
1337		52.734375
1338		62.500000
1339		52.734375
1340		60.546875
1341		52.734375
1342		60.546875
1343		52.734375
1344		60.546875
1345		52.734375
1346		60.546875
1347		52.734375
1348		60.546875
1349		54.687500
1350		56.640625
1351		54.687500
1352		56.640625
1353		50.781250
1354		58.593750
1355		50.781250
1356		56.640625
1357		50.781250
1358		58.593750
1359		48.828125
1360		56.640625
1361		48.828125
1362		56.640625
1363		48.828125
1364		56.640625
1365		48.828125
1366		54.687500
1367		48.828125
1368		52.734375
1369		46.875000
1370		52.734375
1371		44.921875
1372		52.734375
1373		44.921875
1374		52.734375
1375		42.968750
1376		50.781250
1377		42.968750
1378		50.781250
1379		41.015625
1380		50.781250
1381		41.015625
1382		48.828125
1383		42.968750
1384		44.921875
1385		41.015625
1386		44.921875
1387		37.109375
1388		44.921875
1389		37.109375
1390		44.921875
1391		37.109375
1392		42.968750
1393		35.156250
1394		42.968750
1395		33.203125
1396		42.968750
1397		33.203125
1398		41.015625
1399		31.250000
1400		37.109375
1401		33.203125
1402		35.156250
1403		27.343750
1404		37.109375
1405		27.343750
1406		35.156250
1407		25.390625
1408		33.203125
1409		25.390625
1410		33.203125
1411		23.437500
1412		31.250000
1413		21.484375
1414		31.250000
1415		21.484375
1416		29.296875
1417		21.484375
1418		25.390625
1419		19.531250
1420		23.437500
1421		15.625000
1422		25.390625
1423		13.671875
1424		23.437500
1425		13.671875
1426		21.484375
1427		11.718750
1428		21.484375
1429		9.765625
1430		19.531250
1431		7.812500
1432		17.578125
1433		9.765625
1434		13.671875
1435		9.765625
1436		11.718750
1437		5.859375
1438		11.718750
1439		3.906250
1440		9.765625
1441		1.953125
1442		9.765625
1443		1.953125
1444		7.812500
1445		0.000000
1446		5.859375
1447		-1.953125
1448		3.906250
1449		-3.906250
1450		1.953125
1451		-3.906250
1452		0.000000
1453		-5.859375
1454		-1.953125
1455		-9.765625
1456		0.000000
1457		-11.718750
1458		-1.953125
1459		-13.671875
1460		-3.906250
1461		-13.671875
1462		-5.859375
1463		-15.625000
1464		-5.859375
1465		-17.578125
1466		-9.765625
1467		-15.625000
1468		-13.671875
1469		-17.578125
1470		-13.671875
1471		-21.484375
1472		-13.671875
1473		-23.437500
1474		-15.625000
1475		-25.390625
1476		-15.625000
1477		-27.343750
1478		-17.578125
1479		-27.343750
1480		-19.531250
1481		-29.296875
1482		-19.531250
1483		-29.296875
1484		-21.484375
1485		-29.296875
1486		-25.390625
1487		-33.203125
1488		-25.390625
1489		-33.203125
1490		-25.390625
1491		-35.156250
1492		-27.343750
1493		-37.109375
1494		-29.296875
1495		-39.062500
1496		-29.296875
1497		-39.062500
1498		-31.250000
1499		-41.015625
1500		-31.250000
1501		-39.062500
1502		-37.109375
1503		-42.968750
1504		-37.109375
1505		-44.921875
1506		-35.156250
1507		-44.921875
1508		-37.109375
1509		-46.875000
1510		-37.109375
1511		-48.828125
1512		-39.062500
1513		-48.828125
1514		-39.062500
1515		-48.828125
1516		-41.015625
1517		-46.875000
1518		-44.921875
1519		-48.828125
1520		-44.921875
1521		-50.781250
1522		-42.968750
1523		-52.734375
1524		-44.921875
1525		-54.687500
1526		-44.921875
1527		-54.687500
1528		-46.875000
1529		-54.687500
1530		-46.875000
1531		-56.640625
1532		-46.875000
1533		-56.640625
1534		-48.828125
1535		-54.687500
1536		-50.781250
1537		-56.640625
1538		-50.781250
1539		-58.593750
1540		-50.781250
1541		-58.593750
1542		-50.781250
1543		-58.593750
1544		-50.781250
1545		-58.593750
1546		-50.781250
1547		-60.546875
1548		-50.781250
1549		-60.546875
1550		-50.781250
1551		-56.640625
1552		-54.687500
1553		-58.593750
1554		-54.687500
1555		-60.546875
1556		-52.734375
1557		-60.546875
1558		-52.734375
1559		-60.546875
1560		-52.734375
1561		-60.546875
1562		-52.734375
1563		-62.500000
1564		-52.734375
1565		-62.500000
1566		-52.734375
1567		-60.546875
1568		-52.734375
1569		-58.593750
1570		-54.687500
1571		-60.546875
1572		-52.734375
1573		-60.546875
1574		-52.734375
1575		-60.546875
1576		-52.734375
1577		-60.546875
1578		-50.781250
1579		-58.593750
1580		-50.781250
1581		-58.593750
1582		-50.781250
1583		-58.593750
1584		-50.781250
1585		-54.687500
1586		-52.734375
1587		-56.640625
1588		-50.781250
1589		-56.640625
1590		-48.828125
1591		-56.640625
1592		-48.828125
1593		-56.640625
1594		-46.875000
1595		-54.687500
1596		-46.875000
1597		-54.687500
1598		-46.875000
1599		-52.734375
1600		-44.921875
1601		-50.781250
1602		-46.875000
1603		-48.828125
1604		-46.875000
1605		-48.828125
1606		-42.968750
1607		-50.781250
1608		-41.015625
1609		-48.828125
1610		-41.015625
1611		-48.828125
1612		-39.062500
1613		-46.875000
1614		-39.062500
1615		-46.875000
1616		-37.109375
1617		-44.921875
1618		-37.109375
1619		-41.015625
1620		-39.062500
1621		-41.015625
1622		-35.156250
1623		-41.015625
1624		-33.203125
1625		-41.015625
1626		-31.250000
1627		-39.062500
1628		-31.250000
1629		-37.109375
1630		-29.296875
1631		-37.109375
1632		-29.296875
1633		-35.156250
1634		-27.343750
1635		-31.250000
1636		-29.296875
1637		-29.296875
1638		-27.343750
1639		-31.250000
1640		-23.437500
1641		-31.250000
1642		-21.484375
1643		-29.296875
1644		-19.531250
1645		-27.343750
1646		-19.531250
1647		-25.390625
1648		-17.578125
1649		-25.390625
1650		-15.625000
1651		-23.437500
1652		-15.625000
1653		-19.531250
1654		-15.625000
1655		-19.531250
1656		-11.718750
1657		-19.531250
1658		-9.765625
1659		-17.578125
1660		-7.812500
1661		-15.625000
1662		-7.812500
1663		-13.671875
1664		-5.859375
1665		-11.718750
1666		-3.906250
1667		-11.718750
1668		-3.906250
1669		-5.859375
1670		-3.906250
1671		-5.859375
1672		-1.953125
1673		-7.812500
1674		1.953125
1675		-3.906250
1676		3.906250
1677		-3.906250
1678		5.859375
1679		-1.953125
1680		5.859375
1681		0.000000
1682		7.812500
1683		1.953125
1684		9.765625
1685		5.859375
1686		7.812500
1687		5.859375
1688		9.765625
1689		5.859375
1690		13.671875
1691		7.812500
1692		15.625000
1693		7.812500
1694		17.578125
1695		9.765625
1696		19.531250
1697		11.718750
1698		19.531250
1699		13.671875
1700		21.484375
1701		13.671875
1702		21.484375
1703		19.531250
1704		21.484375
1705		19.531250
1706		25.390625
1707		17.578125
1708		27.343750
1709		19.531250
1710		29.296875
1711		21.484375
1712		29.296875
1713		21.484375
1714		31.250000
1715		23.437500
1716		33.203125
1717		25.390625
1718		33.203125
1719		29.296875
1720		33.203125
1721		31.250000
1722		35.156250
1723		29.296875
1724		37.109375
1725		31.250000
1726		39.062500
1727		31.250000
1728		39.062500
1729		33.203125
1730		41.015625
1731		33.203125
1732		42.968750
1733		35.156250
1734		42.968750
1735		37.109375
1736		42.968750
1737		39.062500
1738		42.968750
1739		39.062500
1740		46.875000
1741		39.062500
1742		46.875000
1743		41.015625
1744		48.828125
1745		41.015625
1746		48.828125
1747		41.015625
1748		50.781250
1749		42.968750
1750		50.781250
1751		42.968750
1752		52.734375
1753		46.875000
1754		50.781250
1755		48.828125
1756		50.781250
1757		46.875000
1758		54.687500
1759		46.875000
1760		54.687500
1761		46.875000
1762		56.640625
1763		48.828125
1764		56.640625
1765		48.828125
1766		58.593750
1767		48.828125
1768		58.593750
1769		50.781250
1770		56.640625
1771		52.734375
1772		56.640625
1773		50.781250
1774		58.593750
1775		50.781250
1776		60.546875
1777		52.734375
1778		60.546875
1779		52.734375
1780		60.546875
1781		52.734375
1782		60.546875
1783		52.734375
1784		62.500000
1785		54.687500
1786		62.500000
1787		56.640625
1788		58.593750
1789		52.734375
1790		62.500000
1791		52.734375
1792		62.500000
1793		54.687500
1794		62.500000
1795		52.734375
1796		62.500000
1797		52.734375
1798		62.500000
1799		54.687500
1800		62.500000
1801		54.687500
1802		62.500000
1803		56.640625
1804		60.546875
1805		56.640625
1806		58.593750
1807		54.687500
1808		62.500000
1809		52.734375
1810		62.500000
1811		52.734375
1812		62.500000
1813		52.734375
1814		62.500000
1815		52.734375
1816		60.546875
1817		52.734375
1818		60.546875
1819		52.734375
1820		60.546875
1821		54.687500
1822		56.640625
1823		52.734375
1824		58.593750
1825		50.781250
1826		58.593750
1827		50.781250
1828		58.593750
1829		50.781250
1830		58.593750
1831		48.828125
1832		58.593750
1833		48.828125
1834		56.640625
1835		48.828125
1836		56.640625
1837		48.828125
1838		52.734375
1839		50.781250
1840		52.734375
1841		44.921875
1842		54.687500
1843		44.921875
1844		54.687500
1845		44.921875
1846		52.734375
1847		42.968750
1848		52.734375
1849		42.968750
1850		50.781250
1851		41.015625
1852		50.781250
1853		41.015625
1854		46.875000
1855		42.968750
1856		44.921875
1857		39.062500
1858		46.875000
1859		37.109375
1860		46.875000
1861		37.109375
1862		44.921875
1863		35.156250
1864		44.921875
1865		35.156250
1866		42.968750
1867		33.203125
1868		41.015625
1869		31.250000
1870		41.015625
1871		33.203125
1872		37.109375
1873		31.250000
1874		37.109375
1875		27.343750
1876		37.109375
1877		27.343750
1878		35.156250
1879		25.390625
1880		35.156250
1881		25.390625
1882		33.203125
1883		23.437500
1884		31.250000
1885		21.484375
1886		31.250000
1887		23.437500
1888		27.343750
1889		21.484375
1890		25.390625
1891		17.578125
1892		25.390625
1893		17.578125
1894		25.390625
1895		15.625000
1896		23.437500
1897		13.671875
1898		23.437500
1899		11.718750
1900		19.531250
1901		9.765625
1902		19.531250
1903		9.765625
1904		17.578125
1905		9.765625
1906		13.671875
1907		5.859375
1908		13.671875
1909		3.906250
1910		13.671875
1911		1.953125
1912		11.718750
1913		1.953125
1914		9.765625
1915		0.000000
1916		7.812500
1917		-1.953125
1918		7.812500
1919		-3.906250
1920		5.859375
1921		-1.953125
1922		1.953125
1923		-3.906250
1924		0.000000
1925		-7.812500
1926		1.953125
1927		-9.765625
1928		0.000000
1929		-11.718750
1930		-1.953125
1931		-11.718750
1932		-3.906250
1933		-13.671875
1934		-3.906250
1935		-15.625000
1936		-7.812500
1937		-15.625000
1938		-7.812500
1939		-17.578125
1940		-11.718750
1941		-19.531250
1942		-13.671875
1943		-21.484375
1944		-11.718750
1945		-23.437500
1946		-13.671875
1947		-25.390625
1948		-15.625000
1949		-25.390625
1950		-17.578125
1951		-27.343750
1952		-19.531250
1953		-27.343750
1954		-19.531250
1955		-27.343750
1956		-23.437500
1957		-31.250000
1958		-25.390625
1959		-33.203125
1960		-25.390625
1961		-35.156250
1962		-25.390625
1963		-35.156250
1964		-27.343750
1965		-37.109375
1966		-27.343750
1967		-37.109375
1968		-29.296875
1969		-39.062500
1970		-31.250000
1971		-39.062500
1972		-35.156250
1973		-39.062500
1974		-35.156250
1975		-42.968750
1976		-35.156250
1977		-42.968750
1978		-35.156250
1979		-44.921875
1980		-37.109375
1981		-44.921875
1982		-37.109375
1983		-46.875000
1984		-39.062500
1985		-48.828125
1986		-39.062500
1987		-48.828125
1988		-41.015625
1989		-46.875000
1990		-44.921875
1991		-50.781250
1992		-42.968750
1993		-50.781250
1994		-42.968750
1995		-52.734375
1996		-44.921875
1997		-52.734375
1998		-44.921875
1999		-54.687500
2000		-44.921875
2001		-54.687500
2002		-46.875000
2003		-54.687500
2004		-46.875000
2005		-54.687500
2006		-50.781250
2007		-54.687500
2008		-50.781250
2009		-56.640625
2010		-48.828125
2011		-56.640625
2012		-50.781250
2013		-58.593750
2014		-48.828125
2015		-58.593750
2016		-50.781250
2017		-58.593750
2018		-50.781250
2019		-58.593750
2020		-50.781250
2021		-56.640625
2022		-50.781250
2023		-56.640625
2024		-54.687500
2025		-60.546875
2026		-50.781250
2027		-60.546875
2028		-50.781250
2029		-60.546875
2030		-52.734375
2031		-60.546875
2032		-52.734375
2033		-60.546875
2034		-52.734375
2035		-60.546875
2036		-52.734375
2037		-60.546875
2038		-52.734375
2039		-56.640625
2040		-54.687500
2041		-58.593750
2042		-50.781250
2043		-60.546875
2044		-50.781250
2045		-58.593750
2046		-50.781250
2047		-58.593750
2048		-50.781250
2049		-58.593750
2050		-50.781250
2051		-58.593750
2052		-48.828125
2053		-58.593750
2054		-48.828125
2055		-54.687500
2056		-52.734375
2057		-54.687500
2058		-52.734375
2059		-56.640625
2060		-46.875000
2061		-56.640625
2062		-48.828125
2063		-54.687500
2064		-46.875000
2065		-54.687500
2066		-46.875000
2067		-54.687500
2068		-44.921875
2069		-52.734375
2070		-44.921875
2071		-52.734375
2072		-44.921875
2073		-48.828125
2074		-46.875000
2075		-48.828125
2076		-42.968750
2077		-50.781250
2078		-42.968750
2079		-48.828125
2080		-41.015625
2081		-48.828125
2082		-39.062500
2083		-46.875000
2084		-39.062500
2085		-46.875000
2086		-37.109375
2087		-44.921875
2088		-37.109375
2089		-41.015625
2090		-39.062500
2091		-41.015625
2092		-37.109375
2093		-41.015625
2094		-33.203125
2095		-41.015625
2096		-33.203125
2097		-39.062500
2098		-31.250000
2099		-37.109375
2100		-29.296875
2101		-37.109375
2102		-29.296875
2103		-35.156250
2104		-27.343750
2105		-33.203125
2106		-29.296875
2107		-31.250000
2108		-27.343750
2109		-31.250000
2110		-23.437500
2111		-31.250000
2112		-21.484375
2113		-29.296875
2114		-21.484375
2115		-27.343750
2116		-19.531250
2117		-25.390625
2118		-17.578125
2119		-25.390625
2120		-15.625000
2121		-23.437500
2122		-15.625000
2123		-19.531250
2124		-15.625000
2125		-17.578125
2126		-11.718750
2127		-19.531250
2128		-9.765625
2129		-17.578125
2130		-7.812500
2131		-15.625000
2132		-7.812500
2133		-15.625000
2134		-5.859375
2135		-13.671875
2136		-3.906250
2137		-11.718750
2138		-3.906250
2139		-7.812500
2140		-3.906250
2141		-5.859375
2142		-1.953125
2143		-7.812500
2144		1.953125
2145		-5.859375
2146		3.906250
2147		-3.906250
2148		3.906250
2149		-1.953125
2150		5.859375
2151		-1.953125
2152		7.812500
2153		0.000000
2154		9.765625
2155		3.906250
2156		9.765625
2157		5.859375
2158		9.765625
2159		7.812500
2160		11.718750
2161		5.859375
2162		15.625000
2163		7.812500
2164		15.625000
2165		9.765625
2166		19.531250
2167		9.765625
2168		19.531250
2169		11.718750
2170		21.484375
2171		13.671875
2172		21.484375
2173		17.578125
2174		21.484375
2175		19.531250
2176		23.437500
2177		17.578125
2178		27.343750
2179		19.531250
2180		29.296875
2181		21.484375
2182		29.296875
2183		23.437500
2184		31.250000
2185		23.437500
2186		33.203125
2187		25.390625
2188		33.203125
2189		27.343750
2190		33.203125
2191		29.296875
2192		33.203125
2193		29.296875
2194		37.109375
2195		29.296875
2196		39.062500
2197		31.250000
2198		39.062500
2199		33.203125
2200		41.015625
2201		35.156250
2202		42.968750
2203		35.156250
2204		42.968750
2205		35.156250
2206		42.968750
2207		39.062500
2208		42.968750
2209		39.062500
2210		44.921875
2211		39.062500
2212		46.875000
2213		39.062500
2214		48.828125
2215		41.015625
2216		48.828125
2217		41.015625
2218		50.781250
2219		42.968750
2220		50.781250
2221		42.968750
2222		52.734375
2223		46.875000
2224		50.781250
2225		48.828125
2226		50.781250
2227		46.875000
2228		54.687500
2229		46.875000
2230		54.687500
2231		46.875000
2232		56.640625
2233		46.875000
2234		56.640625
2235		48.828125
2236		56.640625
2237		48.828125
2238		58.593750
2239		50.781250
2240		56.640625
2241		52.734375
2242		58.593750
2243		50.781250
2244		58.593750
2245		50.781250
2246		60.546875
2247		52.734375
2248		60.546875
2249		52.734375
2250		60.546875
2251		52.734375
2252		60.546875
2253		52.734375
2254		62.500000
2255		52.734375
2256		62.500000
2257		56.640625
2258		58.593750
2259		56.640625
2260		58.593750
2261		54.687500
2262		62.500000
2263		54.687500
2264		62.500000
2265		54.687500
2266		62.500000
2267		54.687500
2268		62.500000
2269		54.687500
2270		62.500000
2271		54.687500
2272		62.500000
2273		56.640625
2274		60.546875
2275		54.687500
2276		62.500000
2277		56.640625
2278		60.546875
2279		52.734375
2280		62.500000
2281		54.687500
2282		62.500000
2283		52.734375
2284		62.500000
2285		52.734375
2286		62.500000
2287		52.734375
2288		62.500000
2289		52.734375
2290		60.546875
2291		54.687500
2292		58.593750
2293		54.687500
2294		56.640625
2295		50.781250
2296		60.546875
2297		50.781250
2298		58.593750
2299		50.781250
2300		58.593750
2301		50.781250
2302		58.593750
2303		50.781250
2304		58.593750
2305		48.828125
2306		56.640625
2307		50.781250
2308		54.687500
2309		48.828125
2310		54.687500
2311		46.875000
2312		54.687500
2313		46.875000
2314		54.687500
2315		44.921875
2316		52.734375
2317		44.921875
2318		52.734375
2319		42.968750
2320		52.734375
2321		42.968750
2322		52.734375
2323		44.921875
2324		48.828125
2325		42.968750
2326		46.875000
2327		41.015625
2328		46.875000
2329		39.062500
2330		46.875000
2331		37.109375
2332		46.875000
2333		37.109375
2334		44.921875
2335		35.156250
2336		44.921875
2337		33.203125
2338		42.968750
2339		33.203125
2340		42.968750
2341		33.203125
2342		39.062500
2343		33.203125
2344		37.109375
2345		29.296875
2346		37.109375
2347		29.296875
2348		37.109375
2349		27.343750
2350		35.156250
2351		27.343750
2352		35.156250
2353		25.390625
2354		33.203125
2355		23.437500
2356		31.250000
2357		23.437500
2358		29.296875
2359		23.437500
2360		27.343750
2361		19.531250
2362		25.390625
2363		17.578125
2364		27.343750
2365		17.578125
2366		25.390625
2367		15.625000
2368		23.437500
2369		13.671875
2370		21.484375
2371		11.718750
2372		21.484375
2373		11.718750
2374		19.531250
2375		11.718750
2376		15.625000
2377		9.765625
2378		13.671875
2379		5.859375
2380		13.671875
2381		5.859375
2382		13.671875
2383		1.953125
2384		11.718750
2385		1.953125
2386		9.765625
2387		0.000000
2388		7.812500
2389		-1.953125
2390		5.859375
2391		0.000000
2392		3.906250
2393		-1.953125
2394		1.953125
2395		-5.859375
2396		1.953125
2397		-7.812500
2398		1.953125
2399		-9.765625
2400		0.000000
2401		-9.765625
2402		-1.953125
2403		-11.718750
2404		-3.906250
2405		-13.671875
2406		-5.859375
2407		-15.625000
2408		-7.812500
2409		-13.671875
2410		-9.765625
2411		-17.578125
2412		-9.765625
2413		-19.531250
2414		-11.718750
2415		-21.484375
2416		-13.671875
2417		-23.437500
2418		-13.671875
2419		-23.437500
2420		-15.625000
2421		-25.390625
2422		-17.578125
2423		-27.343750
2424		-19.531250
2425		-25.390625
2426		-23.437500
2427		-27.343750
2428		-25.390625
2429		-31.250000
2430		-23.437500
2431		-33.203125
2432		-25.390625
2433		-33.203125
2434		-25.390625
2435		-35.156250
2436		-27.343750
2437		-37.109375
2438		-27.343750
2439		-39.062500
2440		-29.296875
2441		-39.062500
2442		-31.250000
2443		-37.109375
2444		-35.156250
2445		-41.015625
2446		-35.156250
2447		-42.968750
2448		-35.156250
2449		-44.921875
2450		-35.156250
2451		-44.921875
2452		-37.109375
2453		-46.875000
2454		-39.062500
2455		-46.875000
2456		-39.062500
2457		-46.875000
2458		-39.062500
2459		-46.875000
2460		-42.968750
2461		-46.875000
2462		-44.921875
2463		-50.781250
2464		-42.968750
2465		-52.734375
2466		-42.968750
2467		-52.734375
2468		-44.921875
2469		-54.687500
2470		-44.921875
2471		-54.687500
2472		-44.921875
2473		-54.687500
2474		-46.875000
2475		-54.687500
2476		-48.828125
2477		-52.734375
2478		-50.781250
2479		-56.640625
2480		-48.828125
2481		-58.593750
2482		-48.828125
2483		-58.593750
2484		-48.828125
2485		-58.593750
2486		-50.781250
2487		-58.593750
2488		-50.781250
2489		-58.593750
2490		-50.781250
2491		-58.593750
2492		-50.781250
2493		-56.640625
2494		-54.687500
2495		-60.546875
2496		-52.734375
2497		-60.546875
2498		-50.781250
2499		-60.546875
2500		-52.734375
2501		-60.546875
2502		-52.734375
2503		-60.546875
2504		-52.734375
2505		-60.546875
2506		-52.734375
2507		-60.546875
2508		-52.734375
2509		-56.640625
2510		-54.687500
2511		-56.640625
2512		-54.687500
2513		-60.546875
2514		-52.734375
2515		-60.546875
2516		-52.734375
2517		-60.546875
2518		-50.781250
2519		-60.546875
2520		-50.781250
2521		-58.593750
2522		-50.781250
2523		-58.593750
2524		-50.781250
2525		-56.640625
2526		-50.781250
2527		-54.687500
2528		-52.734375
2529		-56.640625
2530		-48.828125
2531		-56.640625
2532		-48.828125
2533		-56.640625
2534		-48.828125
2535		-56.640625
2536		-46.875000
2537		-54.687500
2538		-46.875000
2539		-54.687500
2540		-44.921875
2541		-54.687500
2542		-46.875000
2543		-50.781250
2544		-46.875000
2545		-48.828125
2546		-46.875000
2547		-50.781250
2548		-42.968750
2549		-50.781250
2550		-42.968750
2551		-48.828125
2552		-41.015625
2553		-48.828125
2554		-41.015625
2555		-46.875000
2556		-39.062500
2557		-46.875000
2558		-39.062500
2559		-44.921875
2560		-39.062500
2561		-42.968750
2562		-37.109375
2563		-42.968750
2564		-35.156250
2565		-42.968750
2566		-33.203125
2567		-41.015625
2568		-33.203125
2569		-39.062500
2570		-31.250000
2571		-39.062500
2572		-29.296875
2573		-37.109375
2574		-29.296875
2575		-35.156250
2576		-29.296875
2577		-31.250000
2578		-29.296875
2579		-33.203125
2580		-25.390625
2581		-31.250000
2582		-23.437500
2583		-31.250000
2584		-21.484375
2585		-29.296875
2586		-21.484375
2587		-29.296875
2588		-19.531250
2589		-27.343750
2590		-17.578125
2591		-25.390625
2592		-17.578125
2593		-21.484375
2594		-15.625000
2595		-19.531250
2596		-17.578125
2597		-21.484375
2598		-11.718750
2599		-19.531250
2600		-11.718750
2601		-17.578125
2602		-9.765625
2603		-15.625000
2604		-7.812500
2605		-15.625000
2606		-5.859375
2607		-13.671875
2608		-5.859375
2609		-9.765625
2610		-3.906250
2611		-7.812500
2612		-5.859375
2613		-7.812500
2614		0.000000
2615		-5.859375
2616		0.000000
2617		-5.859375
2618		1.953125
2619		-3.906250
2620		3.906250
2621		-1.953125
2622		5.859375
2623		-1.953125
2624		7.812500
2625		0.000000
2626		7.812500
2627		3.906250
2628		7.812500
2629		5.859375
2630		9.765625
2631		5.859375
2632		13.671875
2633		5.859375
2634		15.625000
2635		7.812500
2636		15.625000
2637		9.765625
2638		17.578125
2639		9.765625
2640		19.531250
2641		11.718750
2642		21.484375
2643		15.625000
2644		19.531250
2645		17.578125
2646		21.484375
2647		17.578125
2648		25.390625
2649		17.578125
2650		27.343750
2651		19.531250
2652		29.296875
2653		21.484375
2654		29.296875
2655		21.484375
2656		31.250000
2657		23.437500
2658		31.250000
2659		25.390625
2660		33.203125
2661		29.296875
2662		31.250000
2663		29.296875
2664		35.156250
2665		27.343750
2666		37.109375
2667		29.296875
2668		39.062500
2669		31.250000
2670		39.062500
2671		33.203125
2672		41.015625
2673		33.203125
2674		41.015625
2675		33.203125
2676		42.968750
2677		37.109375
2678		41.015625
2679		39.062500
2680		42.968750
2681		37.109375
2682		46.875000
2683		39.062500
2684		46.875000
2685		39.062500
2686		48.828125
2687		39.062500
2688		48.828125
2689		41.015625
2690		50.781250
2691		42.968750
2692		50.781250
2693		44.921875
2694		48.828125
2695		46.875000
2696		50.781250
2697		46.875000
2698		52.734375
2699		44.921875
2700		54.687500
2701		46.875000
2702		54.687500
2703		46.875000
2704		56.640625
2705		48.828125
2706		56.640625
2707		48.828125
2708		56.640625
2709		48.828125
2710		56.640625
2711		52.734375
2712		54.687500
2713		50.781250
2714		56.640625
2715		50.781250
2716		58.593750
2717		50.781250
2718		60.546875
2719		50.781250
2720		60.546875
2721		52.734375
2722		60.546875
2723		52.734375
2724		60.546875
2725		52.734375
2726		60.546875
2727		54.687500
2728		58.593750
2729		56.640625
2730		58.593750
2731		54.687500
2732		60.546875
2733		54.687500
2734		60.546875
2735		54.687500
2736		62.500000
2737		54.687500
2738		62.500000
2739		54.687500
2740		62.500000
2741		54.687500
2742		62.500000
2743		54.687500
2744		62.500000
2745		54.687500
2746		60.546875
2747		56.640625
2748		60.546875
2749		54.687500
2750		62.500000
2751		52.734375
2752		62.500000
2753		52.734375
2754		62.500000
2755		52.734375
2756		62.500000
2757		52.734375
2758		60.546875
2759		52.734375
2760		60.546875
2761		54.687500
2762		58.593750
2763		54.687500
2764		56.640625
2765		50.781250
2766		60.546875
2767		50.781250
2768		58.593750
2769		50.781250
2770		58.593750
2771		50.781250
2772		58.593750
2773		50.781250
2774		58.593750
2775		48.828125
2776		58.593750
2777		48.828125
2778		56.640625
2779		50.781250
2780		52.734375
2781		46.875000
2782		54.687500
2783		46.875000
2784		54.687500
2785		44.921875
2786		54.687500
2787		44.921875
2788		52.734375
2789		44.921875
2790		52.734375
2791		42.968750
2792		52.734375
2793		42.968750
2794		50.781250
2795		44.921875
2796		46.875000
2797		42.968750
2798		46.875000
2799		39.062500
2800		48.828125
2801		39.062500
2802		46.875000
2803		37.109375
2804		44.921875
2805		37.109375
2806		44.921875
2807		35.156250
2808		44.921875
2809		33.203125
2810		42.968750
2811		35.156250
2812		39.062500
2813		35.156250
2814		37.109375
2815		29.296875
2816		39.062500
2817		29.296875
2818		37.109375
2819		29.296875
2820		39.062500
2821		27.343750
2822		35.156250
2823		25.390625
2824		33.203125
2825		23.437500
2826		33.203125
2827		23.437500
2828		31.250000
2829		23.437500
2830		27.343750
2831		21.484375
2832		27.343750
2833		19.531250
2834		27.343750
2835		17.578125
2836		27.343750
2837		15.625000
2838		25.390625
2839		15.625000
2840		23.437500
2841		13.671875
2842		21.484375
2843		11.718750
2844		19.531250
2845		13.671875
2846		15.625000
2847		11.718750
2848		13.671875
2849		5.859375
2850		15.625000
2851		5.859375
2852		13.671875
2853		3.906250
2854		13.671875
2855		1.953125
2856		11.718750
2857		1.953125
2858		9.765625
2859		0.000000
2860		7.812500
2861		0.000000
2862		7.812500
2863		0.000000
2864		3.906250
2865		-3.906250
2866		1.953125
2867		-5.859375
2868		1.953125
2869		-7.812500
2870		0.000000
2871		-9.765625
2872		-1.953125
2873		-11.718750
2874		-1.953125
2875		-13.671875
2876		-3.906250
2877		-13.671875
2878		-5.859375
2879		-13.671875
2880		-9.765625
2881		-13.671875
2882		-11.718750
2883		-19.531250
2884		-11.718750
2885		-19.531250
2886		-11.718750
2887		-23.437500
2888		-13.671875
2889		-23.437500
2890		-15.625000
2891		-25.390625
2892		-15.625000
2893		-25.390625
2894		-17.578125
2895		-25.390625
2896		-19.531250
2897		-25.390625
2898		-23.437500
2899		-31.250000
2900		-23.437500
2901		-31.250000
2902		-23.437500
2903		-33.203125
2904		-25.390625
2905		-35.156250
2906		-27.343750
2907		-37.109375
2908		-27.343750
2909		-37.109375
2910		-29.296875
2911		-37.109375
2912		-31.250000
2913		-37.109375
2914		-33.203125
2915		-41.015625
2916		-33.203125
2917		-42.968750
2918		-33.203125
2919		-42.968750
2920		-35.156250
2921		-44.921875
2922		-37.109375
2923		-44.921875
2924		-37.109375
2925		-46.875000
2926		-37.109375
2927		-46.875000
2928		-39.062500
2929		-44.921875
2930		-42.968750
2931		-46.875000
2932		-42.968750
2933		-48.828125
2934		-41.015625
2935		-50.781250
2936		-42.968750
2937		-52.734375
2938		-42.968750
2939		-52.734375
2940		-44.921875
2941		-54.687500
2942		-44.921875
2943		-54.687500
2944		-44.921875
2945		-54.687500
2946		-46.875000
2947		-54.687500
2948		-48.828125
2949		-54.687500
2950		-50.781250
2951		-56.640625
2952		-48.828125
2953		-58.593750
2954		-48.828125
2955		-58.593750
2956		-48.828125
2957		-58.593750
2958		-50.781250
2959		-58.593750
2960		-50.781250
2961		-58.593750
2962		-50.781250
2963		-56.640625
2964		-54.687500
2965		-56.640625
2966		-54.687500
2967		-60.546875
2968		-52.734375
2969		-60.546875
2970		-52.734375
2971		-60.546875
2972		-50.781250
2973		-60.546875
2974		-52.734375
2975		-60.546875
2976		-52.734375
2977		-60.546875
2978		-52.734375
2979		-58.593750
2980		-52.734375
2981		-56.640625
2982		-54.687500
2983		-60.546875
2984		-52.734375
2985		-60.546875
2986		-50.781250
2987		-60.546875
2988		-52.734375
2989		-60.546875
2990		-52.734375
2991		-60.546875
2992		-50.781250
2993		-58.593750
2994		-50.781250
2995		-58.593750
2996		-52.734375
2997		-56.640625
2998		-52.734375
2999		-54.687500
3000		-52.734375
3001		-58.593750
3002		-48.828125
3003		-56.640625
3004		-48.828125
3005		-56.640625
3006		-46.875000
3007		-56.640625
3008		-46.875000
3009		-54.687500
3010		-46.875000
3011		-54.687500
3012		-46.875000
3013		-52.734375
3014		-48.828125
3015		-50.781250
3016		-46.875000
3017		-50.781250
3018		-42.968750
3019		-52.734375
3020		-42.968750
3021		-50.781250
3022		-39.062500
3023		-48.828125
3024		-41.015625
3025		-48.828125
3026		-41.015625
3027		-46.875000
3028		-39.062500
3029		-46.875000
3030		-39.062500
3031		-42.968750
3032		-39.062500
3033		-42.968750
3034		-35.156250
3035		-42.968750
3036		-35.156250
3037		-42.968750
3038		-33.203125
3039		-41.015625
3040		-33.203125
3041		-39.062500
3042		-31.250000
3043		-39.062500
3044		-29.296875
3045		-37.109375
3046		-29.296875
3047		-33.203125
3048		-29.296875
3049		-31.250000
3050		-29.296875
3051		-33.203125
3052		-25.390625
3053		-33.203125
3054		-21.484375
3055		-31.250000
3056		-21.484375
3057		-29.296875
3058		-21.484375
3059		-27.343750
3060		-19.531250
3061		-27.343750
3062		-17.578125
3063		-21.484375
3064		-19.531250
3065		-21.484375
3066		-17.578125
3067		-21.484375
3068		-13.671875
3069		-21.484375
3070		-11.718750
3071		-19.531250
3072		-9.765625
3073		-17.578125
3074		-9.765625
3075		-15.625000
3076		-7.812500
3077		-15.625000
3078		-5.859375
3079		-13.671875
3080		-5.859375
3081		-9.765625
3082		-5.859375
3083		-7.812500
3084		-3.906250
3085		-7.812500
3086		0.000000
3087		-7.812500
3088		1.953125
3089		-5.859375
3090		1.953125
3091		-3.906250
3092		3.906250
3093		-1.953125
3094		7.812500
3095		-1.953125
3096		7.812500
3097		1.953125
3098		7.812500
3099		5.859375
3100		7.812500
3101		3.906250
3102		13.671875
3103		3.906250
3104		13.671875
3105		5.859375
3106		15.625000
3107		7.812500
3108		15.625000
3109		11.718750
3110		17.578125
3111		9.765625
3112		19.531250
3113		13.671875
3114		21.484375
3115		17.578125
3116		19.531250
3117		17.578125
3118		23.437500
3119		15.625000
3120		23.437500
3121		19.531250
3122		25.390625
3123		21.484375
3124		27.343750
3125		21.484375
3126		29.296875
3127		23.437500
3128		31.250000
3129		25.390625
3130		31.250000
3131		27.343750
3132		31.250000
3133		29.296875
3134		31.250000
3135		29.296875
3136		37.109375
3137		29.296875
3138		37.109375
3139		31.250000
3140		39.062500
3141		31.250000
3142		39.062500
3143		33.203125
3144		41.015625
3145		33.203125
3146		42.968750
3147		35.156250
3148		41.015625
3149		39.062500
3150		41.015625
3151		37.109375
3152		44.921875
3153		39.062500
3154		46.875000
3155		39.062500
3156		46.875000
3157		39.062500
3158		48.828125
3159		41.015625
3160		48.828125
3161		42.968750
3162		48.828125
3163		44.921875
3164		50.781250
3165		46.875000
3166		48.828125
3167		46.875000
3168		50.781250
3169		44.921875
3170		52.734375
3171		44.921875
3172		54.687500
3173		46.875000
3174		54.687500
3175		46.875000
3176		56.640625
3177		48.828125
3178		56.640625
3179		48.828125
3180		56.640625
3181		50.781250
3182		56.640625
3183		50.781250
3184		56.640625
3185		50.781250
3186		58.593750
3187		50.781250
3188		58.593750
3189		52.734375
3190		60.546875
3191		52.734375
3192		60.546875
3193		52.734375
3194		60.546875
3195		52.734375
3196		60.546875
3197		54.687500
3198		60.546875
3199		56.640625
3200		58.593750
3201		54.687500
3202		60.546875
3203		54.687500
3204		62.500000
3205		54.687500
3206		62.500000
3207		54.687500
3208		62.500000
3209		54.687500
3210		62.500000
3211		54.687500
3212		62.500000
3213		54.687500
3214		62.500000
3215		56.640625
3216		60.546875
3217		56.640625
3218		58.593750
3219		54.687500
3220		62.500000
3221		54.687500
3222		62.500000
3223		54.687500
3224		62.500000
3225		54.687500
3226		62.500000
3227		52.734375
3228		62.500000
3229		52.734375
3230		60.546875
3231		52.734375
3232		58.593750
3233		54.687500
3234		58.593750
3235		54.687500
3236		58.593750
3237		52.734375
3238		60.546875
3239		50.781250
3240		58.593750
3241		50.781250
3242		58.593750
3243		50.781250
3244		58.593750
3245		48.828125
3246		56.640625
3247		48.828125
3248		56.640625
3249		50.781250
3250		52.734375
3251		50.781250
3252		52.734375
3253		46.875000
3254		54.687500
3255		46.875000
3256		54.687500
3257		46.875000
3258		54.687500
3259		44.921875
3260		52.734375
3261		44.921875
3262		50.781250
3263		42.968750
3264		50.781250
3265		44.921875
3266		48.828125
3267		44.921875
3268		46.875000
3269		41.015625
3270		48.828125
3271		39.062500
3272		46.875000
3273		39.062500
3274		46.875000
3275		37.109375
3276		44.921875
3277		37.109375
3278		42.968750
3279		35.156250
3280		42.968750
3281		35.156250
3282		42.968750
3283		35.156250
3284		39.062500
3285		33.203125
3286		37.109375
3287		31.250000
3288		39.062500
3289		29.296875
3290		37.109375
3291		29.296875
3292		35.156250
3293		27.343750
3294		35.156250
3295		27.343750
3296		33.203125
3297		25.390625
3298		31.250000
3299		25.390625
3300		29.296875
3301		23.437500
3302		27.343750
3303		19.531250
3304		29.296875
3305		19.531250
3306		27.343750
3307		19.531250
3308		23.437500
3309		15.625000
3310		25.390625
3311		15.625000
3312		23.437500
3313		13.671875
3314		19.531250
3315		13.671875
3316		17.578125
3317		11.718750
3318		15.625000
3319		9.765625
3320		15.625000
3321		7.812500
3322		15.625000
3323		7.812500
3324		11.718750
3325		3.906250
3326		11.718750
3327		1.953125
3328		11.718750
3329		1.953125
3330		5.859375
3331		0.000000
3332		5.859375
3333		0.000000
3334		3.906250
3335		-1.953125
3336		1.953125
3337		-1.953125
3338		0.000000
3339		-3.906250
3340		0.000000
3341		-9.765625
3342		-1.953125
3343		-9.765625
3344		-1.953125
3345		-11.718750
3346		-3.906250
3347		-11.718750
3348		-5.859375
3349		-11.718750
3350		-7.812500
3351		-13.671875
3352		-9.765625
3353		-15.625000
3354		-11.718750
3355		-17.578125
3356		-13.671875
3357		-19.531250
3358		-13.671875
3359		-21.484375
3360		-13.671875
3361		-23.437500
3362		-15.625000
3363		-23.437500
3364		-19.531250
3365		-25.390625
3366		-19.531250
3367		-25.390625
3368		-21.484375
3369		-27.343750
3370		-21.484375
3371		-29.296875
3372		-25.390625
3373		-29.296875
3374		-27.343750
3375		-31.250000
3376		-25.390625
3377		-35.156250
3378		-27.343750
3379		-35.156250
3380		-27.343750
3381		-37.109375
3382		-31.250000
3383		-35.156250
3384		-33.203125
3385		-37.109375
3386		-35.156250
3387		-39.062500
3388		-35.156250
3389		-39.062500
3390		-35.156250
3391		-41.015625
3392		-35.156250
3393		-44.921875
3394		-37.109375
3395		-44.921875
3396		-37.109375
3397		-42.968750
3398		-41.015625
3399		-44.921875
3400		-41.015625
3401		-46.875000
3402		-41.015625
3403		-48.828125
3404		-42.968750
3405		-48.828125
3406		-44.921875
3407		-48.828125
3408		-44.921875
3409		-52.734375
3410		-44.921875
3411		-50.781250
3412		-44.921875
3413		-54.687500
3414		-46.875000
3415		-52.734375
3416		-48.828125
3417		-52.734375
3418		-50.781250
3419		-52.734375
3420		-50.781250
3421		-54.687500
3422		-48.828125
3423		-56.640625
3424		-50.781250
3425		-56.640625
3426		-50.781250
3427		-58.593750
3428		-50.781250
3429		-58.593750
3430		-52.734375
3431		-56.640625
3432		-52.734375
3433		-58.593750
3434		-52.734375
3435		-58.593750
3436		-52.734375
3437		-56.640625
3438		-54.687500
3439		-58.593750
3440		-54.687500
3441		-58.593750
3442		-54.687500
3443		-58.593750
3444		-52.734375
3445		-60.546875
3446		-52.734375
3447		-58.593750
3448		-54.687500
3449		-58.593750
3450		-52.734375
3451		-56.640625
3452		-54.687500
3453		-58.593750
3454		-54.687500
3455		-58.593750
3456		-54.687500
3457		-58.593750
3458		-54.687500
3459		-58.593750
3460		-52.734375
3461		-60.546875
3462		-52.734375
3463		-58.593750
3464		-50.781250
3465		-56.640625
3466		-52.734375
3467		-56.640625
3468		-52.734375
3469		-54.687500
3470		-52.734375
3471		-54.687500
3472		-52.734375
3473		-54.687500
3474		-50.781250
3475		-54.687500
3476		-50.781250
3477		-56.640625
3478		-50.781250
3479		-56.640625
3480		-46.875000
3481		-52.734375
3482		-48.828125
3483		-50.781250
3484		-48.828125
3485		-50.781250
3486		-48.828125
3487		-50.781250
3488		-44.921875
3489		-50.781250
3490		-44.921875
3491		-48.828125
3492		-44.921875
3493		-50.781250
3494		-42.968750
3495		-46.875000
3496		-42.968750
3497		-46.875000
3498		-42.968750
3499		-44.921875
3500		-41.015625
3501		-44.921875
3502		-39.062500
3503		-42.968750
3504		-39.062500
3505		-42.968750
3506		-37.109375
3507		-41.015625
3508		-37.109375
3509		-41.015625
3510		-33.203125
3511		-39.062500
3512		-33.203125
3513		-39.062500
3514		-33.203125
3515		-35.156250
3516		-31.250000
3517		-35.156250
3518		-31.250000
3519		-33.203125
3520		-29.296875
3521		-31.250000
3522		-27.343750
3523		-31.250000
3524		-27.343750
3525		-29.296875
3526		-25.390625
3527		-27.343750
3528		-23.437500
3529		-29.296875
3530		-21.484375
3531		-25.390625
3532		-21.484375
3533		-25.390625
3534		-19.531250
3535		-21.484375
3536		-19.531250
3537		-21.484375
3538		-17.578125
3539		-21.484375
3540		-15.625000
3541		-17.578125
3542		-13.671875
3543		-17.578125
3544		-11.718750
3545		-15.625000
3546		-9.765625
3547		-13.671875
3548		-9.765625
3549		-11.718750
3550		-7.812500
3551		-9.765625
3552		-7.812500
3553		-7.812500
3554		-5.859375
3555		-7.812500
3556		-1.953125
3557		-5.859375
3558		-1.953125
3559		-3.906250
3560		-1.953125
3561		-5.859375
3562		1.953125
3563		-1.953125
3564		1.953125
3565		0.000000
3566		3.906250
3567		1.953125
3568		5.859375
3569		3.906250
3570		5.859375
3571		3.906250
3572		9.765625
3573		5.859375
3574		9.765625
3575		7.812500
3576		11.718750
3577		7.812500
3578		15.625000
3579		9.765625
3580		15.625000
3581		11.718750
3582		15.625000
3583		13.671875
3584		17.578125
3585		15.625000
3586		17.578125
3587		17.578125
3588		19.531250
3589		17.578125
3590		23.437500
3591		19.531250
3592		23.437500
3593		21.484375
3594		25.390625
3595		23.437500
3596		25.390625
3597		23.437500
3598		27.343750
3599		25.390625
3600		29.296875
3601		23.437500
3602		31.250000
3603		27.343750
3604		31.250000
3605		29.296875
3606		31.250000
3607		31.250000
3608		33.203125
3609		31.250000
3610		35.156250
3611		31.250000
3612		37.109375
3613		33.203125
3614		37.109375
3615		35.156250
3616		39.062500
3617		37.109375
3618		41.015625
3619		37.109375
3620		41.015625
3621		39.062500
3622		41.015625
3623		39.062500
3624		42.968750
3625		39.062500
3626		44.921875
3627		41.015625
3628		44.921875
3629		41.015625
3630		46.875000
3631		42.968750
3632		46.875000
3633		42.968750
3634		48.828125
3635		42.968750
3636		48.828125
3637		46.875000
3638		48.828125
3639		46.875000
3640		50.781250
3641		46.875000
3642		50.781250
3643		48.828125
3644		50.781250
3645		48.828125
3646		52.734375
3647		50.781250
3648		54.687500
3649		50.781250
3650		54.687500
3651		50.781250
3652		54.687500
3653		52.734375
3654		54.687500
3655		52.734375
3656		56.640625
3657		50.781250
3658		56.640625
3659		52.734375
3660		56.640625
3661		54.687500
3662		56.640625
3663		54.687500
3664		56.640625
3665		54.687500
3666		58.593750
3667		54.687500
3668		60.546875
3669		56.640625
3670		58.593750
3671		56.640625
3672		58.593750
3673		54.687500
3674		58.593750
3675		56.640625
3676		58.593750
3677		56.640625
3678		60.546875
3679		54.687500
3680		60.546875
3681		56.640625
3682		58.593750
3683		56.640625
3684		60.546875
3685		56.640625
3686		60.546875
3687		56.640625
3688		58.593750
3689		54.687500
3690		60.546875
3691		56.640625
3692		60.546875
3693		56.640625
3694		60.546875
3695		56.640625
3696		60.546875
3697		56.640625
3698		58.593750
3699		54.687500
3700		58.593750
3701		54.687500
3702		60.546875
3703		54.687500
3704		58.593750
3705		54.687500
3706		56.640625
3707		52.734375
3708		58.593750
3709		54.687500
3710		56.640625
3711		52.734375
3712		56.640625
3713		52.734375
3714		56.640625
3715		52.734375
3716		54.687500
3717		50.781250
3718		54.687500
3719		50.781250
3720		54.687500
3721		50.781250
3722		52.734375
3723		48.828125
3724		54.687500
3725		48.828125
3726		52.734375
3727		48.828125
3728		52.734375
3729		46.875000
3730		50.781250
3731		46.875000
3732		50.781250
3733		46.875000
3734		50.781250
3735		44.921875
3736		48.828125
3737		44.921875
3738		46.875000
3739		42.968750
3740		46.875000
3741		42.968750
3742		44.921875
3743		41.015625
3744		44.921875
3745		39.062500
3746		44.921875
3747		39.062500
3748		42.968750
3749		37.109375
3750		42.968750
3751		35.156250
3752		41.015625
3753		37.109375
3754		39.062500
3755		35.156250
3756		39.062500
3757		33.203125
3758		37.109375
3759		33.203125
3760		37.109375
3761		31.250000
3762		35.156250
3763		31.250000
3764		33.203125
3765		29.296875
3766		33.203125
3767		27.343750
3768		31.250000
3769		25.390625
3770		31.250000
3771		25.390625
3772		27.343750
3773		21.484375
3774		27.343750
3775		21.484375
3776		25.390625
3777		21.484375
3778		25.390625
3779		19.531250
3780		23.437500
3781		17.578125
3782		21.484375
3783		17.578125
3784		19.531250
3785		13.671875
3786		19.531250
3787		13.671875
3788		17.578125
3789		11.718750
3790		15.625000
3791		9.765625
3792		15.625000
3793		7.812500
3794		11.718750
3795		7.812500
3796		9.765625
3797		5.859375
3798		9.765625
3799		3.906250
3800		7.812500
3801		1.953125
3802		5.859375
3803		1.953125
3804		5.859375
3805		0.000000
3806		3.906250
3807		-1.953125
3808		1.953125
3809		-3.906250
3810		0.000000
3811		-3.906250
3812		-1.953125
3813		-7.812500
3814		-1.953125
3815		-7.812500
3816		-3.906250
3817		-9.765625
3818		-5.859375
3819		-11.718750
3820		-7.812500
3821		-11.718750
3822		-9.765625
3823		-15.625000
3824		-11.718750
3825		-15.625000
3826		-11.718750
3827		-17.578125
3828		-13.671875
3829		-19.531250
3830		-15.625000
3831		-21.484375
3832		-15.625000
3833		-21.484375
3834		-17.578125
3835		-23.437500
3836		-19.531250
3837		-23.437500
3838		-19.531250
3839		-25.390625
3840		-23.437500
3841		-27.343750
3842		-23.437500
3843		-29.296875
3844		-25.390625
3845		-31.250000
3846		-25.390625
3847		-31.250000
3848		-27.343750
3849		-33.203125
3850		-29.296875
3851		-33.203125
3852		-31.250000
3853		-35.156250
3854		-31.250000
3855		-37.109375
3856		-33.203125
3857		-37.109375
3858		-33.203125
3859		-39.062500
3860		-35.156250
3861		-41.015625
3862		-37.109375
3863		-41.015625
3864		-39.062500
3865		-42.968750
3866		-39.062500
3867		-42.968750
3868		-39.062500
3869		-44.921875
3870		-41.015625
3871		-44.921875
3872		-41.015625
3873		-46.875000
3874		-42.968750
3875		-46.875000
3876		-42.968750
3877		-48.828125
3878		-44.921875
3879		-48.828125
3880		-44.921875
3881		-50.781250
3882		-46.875000
3883		-50.781250
3884		-48.828125
3885		-50.781250
3886		-46.875000
3887		-52.734375
3888		-48.828125
3889		-52.734375
3890		-50.781250
3891		-54.687500
3892		-48.828125
3893		-54.687500
3894		-50.781250
3895		-54.687500
3896		-50.781250
3897		-54.687500
3898		-52.734375
3899		-54.687500
3900		-52.734375
3901		-56.640625
3902		-52.734375
3903		-56.640625
3904		-52.734375
3905		-56.640625
3906		-52.734375
3907		-58.593750
3908		-54.687500
3909		-56.640625
3910		-54.687500
3911		-58.593750
3912		-54.687500
3913		-58.593750
3914		-54.687500
3915		-58.593750
3916		-54.687500
3917		-58.593750
3918		-54.687500
3919		-60.546875
3920		-54.687500
3921		-58.593750
3922		-56.640625
3923		-58.593750
3924		-56.640625
3925		-58.593750
3926		-54.687500
3927		-58.593750
3928		-54.687500
3929		-58.593750
3930		-54.687500
3931		-58.593750
3932		-54.687500
3933		-58.593750
3934		-54.687500
3935		-56.640625
3936		-54.687500
3937		-56.640625
3938		-52.734375
3939		-58.593750
3940		-52.734375
3941		-56.640625
3942		-52.734375
3943		-54.687500
3944		-52.734375
3945		-54.687500
3946		-50.781250
3947		-54.687500
3948		-50.781250
3949		-54.687500
3950		-50.781250
3951		-54.687500
3952		-48.828125
3953		-52.734375
3954		-48.828125
3955		-50.781250
3956		-48.828125
3957		-50.781250
3958		-48.828125
3959		-50.781250
3960		-46.875000
3961		-50.781250
3962		-44.921875
3963		-48.828125
3964		-46.875000
3965		-48.828125
3966		-44.921875
3967		-46.875000
3968		-44.921875
3969		-44.921875
3970		-42.968750
3971		-44.921875
3972		-41.015625
3973		-44.921875
3974		-39.062500
3975		-42.968750
3976		-39.062500
3977		-41.015625
3978		-37.109375
3979		-41.015625
3980		-37.109375
3981		-39.062500
3982		-37.109375
3983		-39.062500
3984		-35.156250
3985		-37.109375
3986		-33.203125
3987		-37.109375
3988		-33.203125
3989		-35.156250
3990		-31.250000
3991		-33.203125
3992		-29.296875
3993		-33.203125
3994		-29.296875
3995		-31.250000
3996		-27.343750
3997		-31.250000
3998		-25.390625
3999		-29.296875
4000		-25.390625
4001		-27.343750
4002		-23.437500
4003		-25.390625
4004		-21.484375
4005		-23.437500
4006		-21.484375
4007		-23.437500
4008		-17.578125
4009		-21.484375
4010		-17.578125
4011		-19.531250
4012		-15.625000
4013		-17.578125
4014		-13.671875
4015		-15.625000
4016		-11.718750
4017		-15.625000
4018		-11.718750
4019		-13.671875
4020		-9.765625
4021		-13.671875
4022		-7.812500
4023		-9.765625
4024		-7.812500
4025		-9.765625
4026		-5.859375
4027		-7.812500
4028		-3.906250
4029		-5.859375
4030		-1.953125
4031		-3.906250
4032		0.000000
4033		-3.906250
4034		0.000000
4035		-1.953125
4036		1.953125
4037		0.000000
4038		3.906250
4039		1.953125
4040		5.859375
4041		3.906250
4042		5.859375
4043		1.953125
4044		7.812500
4045		5.859375
4046		9.765625
4047		7.812500
4048		11.718750
4049		9.765625
4050		13.671875
4051		9.765625
4052		13.671875
4053		11.718750
4054		15.625000
4055		13.671875
4056		17.578125
4057		15.625000
4058		17.578125
4059		15.625000
4060		21.484375
4061		17.578125
4062		21.484375
4063		19.531250
4064		23.437500
4065		19.531250
4066		25.390625
4067		21.484375
4068		27.343750
4069		23.437500
4070		27.343750
4071		25.390625
4072		29.296875
4073		27.343750
4074		29.296875
4075		27.343750
4076		33.203125
4077		27.343750
4078		33.203125
4079		29.296875
4080		33.203125
4081		31.250000
4082		35.156250
4083		33.203125
4084		35.156250
4085		33.203125
4086		37.109375
4087		35.156250
4088		39.062500
4089		35.156250
4090		39.062500
4091		37.109375
4092		41.015625
4093		37.109375
4094		41.015625
4095		39.062500
4096		42.968750
4097		41.015625
4098		44.921875
4099		41.015625
4100		44.921875
4101		41.015625
4102		46.875000
4103		42.968750
4104		46.875000
4105		42.968750
4106		48.828125
4107		44.921875
4108		48.828125
4109		44.921875
4110		48.828125
4111		46.875000
4112		50.781250
4113		46.875000
4114		50.781250
4115		48.828125
4116		50.781250
4117		48.828125
4118		52.734375
4119		50.781250
4120		52.734375
4121		50.781250
4122		52.734375
4123		50.781250
4124		54.687500
4125		50.781250
4126		54.687500
4127		52.734375
4128		56.640625
4129		52.734375
4130		56.640625
4131		52.734375
4132		56.640625
4133		52.734375
4134		56.640625
4135		54.687500
4136		58.593750
4137		54.687500
4138		58.593750
4139		54.687500
4140		58.593750
4141		56.640625
4142		58.593750
4143		54.687500
4144		58.593750
4145		54.687500
4146		58.593750
4147		54.687500
4148		60.546875
4149		56.640625
4150		58.593750
4151		56.640625
4152		60.546875
4153		56.640625
4154		58.593750
4155		56.640625
4156		60.546875
4157		56.640625
4158		58.593750
4159		56.640625
4160		60.546875
4161		56.640625
4162		60.546875
4163		56.640625
4164		60.546875
4165		56.640625
4166		58.593750
4167		56.640625
4168		60.546875
4169		56.640625
4170		58.593750
4171		54.687500
4172		58.593750
4173		54.687500
4174		58.593750
4175		54.687500
4176		56.640625
4177		52.734375
4178		58.593750
4179		54.687500
4180		56.640625
4181		52.734375
4182		56.640625
4183		52.734375
4184		56.640625
4185		52.734375
4186		56.640625
4187		52.734375
4188		56.640625
4189		52.734375
4190		54.687500
4191		50.781250
4192		54.687500
4193		48.828125
4194		54.687500
4195		48.828125
4196		54.687500
4197		48.828125
4198		52.734375
4199		48.828125
4200		50.781250
4201		46.875000
4202		50.781250
4203		46.875000
4204		48.828125
4205		44.921875
4206		48.828125
4207		44.921875
4208		48.828125
4209		44.921875
4210		46.875000
4211		42.968750
4212		46.875000
4213		42.968750
4214		44.921875
4215		41.015625
4216		44.921875
4217		39.062500
4218		42.968750
4219		39.062500
4220		42.968750
4221		37.109375
4222		41.015625
4223		37.109375
4224		41.015625
4225		35.156250
4226		39.062500
4227		33.203125
4228		37.109375
4229		31.250000
4230		37.109375
4231		31.250000
4232		35.156250
4233		31.250000
4234		33.203125
4235		29.296875
4236		33.203125
4237		27.343750
4238		31.250000
4239		25.390625
4240		31.250000
4241		25.390625
4242		29.296875
4243		25.390625
4244		27.343750
4245		23.437500
4246		27.343750
4247		21.484375
4248		25.390625
4249		19.531250
4250		23.437500
4251		17.578125
4252		21.484375
4253		15.625000
4254		21.484375
4255		15.625000
4256		19.531250
4257		13.671875
4258		17.578125
4259		13.671875
4260		15.625000
4261		9.765625
4262		15.625000
4263		9.765625
4264		13.671875
4265		7.812500
4266		11.718750
4267		5.859375
4268		9.765625
4269		5.859375
4270		9.765625
4271		3.906250
4272		7.812500
4273		1.953125
4274		5.859375
4275		0.000000
4276		3.906250
4277		-1.953125
4278		3.906250
4279		-1.953125
4280		1.953125
4281		-3.906250
4282		0.000000
4283		-5.859375
4284		-1.953125
4285		-5.859375
4286		-3.906250
4287		-9.765625
4288		-3.906250
4289		-11.718750
4290		-5.859375
4291		-11.718750
4292		-7.812500
4293		-13.671875
4294		-9.765625
4295		-15.625000
4296		-9.765625
4297		-15.625000
4298		-13.671875
4299		-17.578125
4300		-13.671875
4301		-19.531250
4302		-15.625000
4303		-21.484375
4304		-17.578125
4305		-23.437500
4306		-19.531250
4307		-23.437500
4308		-19.531250
4309		-25.390625
4310		-21.484375
4311		-27.343750
4312		-23.437500
4313		-27.343750
4314		-23.437500
4315		-29.296875
4316		-25.390625
4317		-31.250000
4318		-27.343750
4319		-33.203125
4320		-27.343750
4321		-33.203125
4322		-29.296875
4323		-35.156250
4324		-31.250000
4325		-35.156250
4326		-31.250000
4327		-37.109375
4328		-33.203125
4329		-39.062500
4330		-33.203125
4331		-39.062500
4332		-35.156250
4333		-41.015625
4334		-37.109375
4335		-42.968750
4336		-39.062500
4337		-42.968750
4338		-39.062500
4339		-44.921875
4340		-41.015625
4341		-44.921875
4342		-41.015625
4343		-44.921875
4344		-42.968750
4345		-46.875000
4346		-42.968750
4347		-48.828125
4348		-44.921875
4349		-48.828125
4350		-44.921875
4351		-50.781250
4352		-46.875000
4353		-50.781250
4354		-46.875000
4355		-50.781250
4356		-46.875000
4357		-52.734375
4358		-48.828125
4359		-52.734375
4360		-48.828125
4361		-52.734375
4362		-50.781250
4363		-54.687500
4364		-50.781250
4365		-54.687500
4366		-52.734375
4367		-54.687500
4368		-50.781250
4369		-56.640625
4370		-52.734375
4371		-56.640625
4372		-52.734375
4373		-58.593750
4374		-52.734375
4375		-56.640625
4376		-54.687500
4377		-56.640625
4378		-54.687500
4379		-58.593750
4380		-54.687500
4381		-58.593750
4382		-54.687500
4383		-58.593750
4384		-54.687500
4385		-58.593750
4386		-54.687500
4387		-58.593750
4388		-56.640625
4389		-58.593750
4390		-54.687500
4391		-58.593750
4392		-54.687500
4393		-58.593750
4394		-56.640625
4395		-58.593750
4396		-54.687500
4397		-58.593750
4398		-54.687500
4399		-58.593750
4400		-54.687500
4401		-58.593750
4402		-54.687500
4403		-58.593750
4404		-54.687500
4405		-56.640625
4406		-54.687500
4407		-58.593750
4408		-54.687500
4409		-58.593750
4410		-52.734375
4411		-56.640625
4412		-54.687500
4413		-56.640625
4414		-52.734375
4415		-56.640625
4416		-52.734375
4417		-54.687500
4418		-52.734375
4419		-54.687500
4420		-50.781250
4421		-54.687500
4422		-50.781250
4423		-52.734375
4424		-50.781250
4425		-54.687500
4426		-48.828125
4427		-50.781250
4428		-48.828125
4429		-50.781250
4430		-46.875000
4431		-50.781250
4432		-46.875000
4433		-50.781250
4434		-46.875000
4435		-48.828125
4436		-44.921875
4437		-46.875000
4438		-44.921875
4439		-46.875000
4440		-42.968750
4441		-46.875000
4442		-42.968750
4443		-44.921875
4444		-41.015625
4445		-44.921875
4446		-41.015625
4447		-42.968750
4448		-39.062500
4449		-41.015625
4450		-39.062500
4451		-41.015625
4452		-37.109375
4453		-39.062500
4454		-35.156250
4455		-39.062500
4456		-35.156250
4457		-37.109375
4458		-33.203125
4459		-35.156250
4460		-33.203125
4461		-35.156250
4462		-31.250000
4463		-33.203125
4464		-29.296875
4465		-31.250000
4466		-29.296875
4467		-31.250000
4468		-27.343750
4469		-29.296875
4470		-25.390625
4471		-27.343750
4472		-25.390625
4473		-27.343750
4474		-23.437500
4475		-25.390625
4476		-21.484375
4477		-23.437500
4478		-19.531250
4479		-21.484375
4480		-17.578125
4481		-21.484375
4482		-17.578125
4483		-19.531250
4484		-15.625000
4485		-17.578125
4486		-13.671875
4487		-15.625000
4488		-11.718750
4489		-15.625000
4490		-11.718750
4491		-13.671875
4492		-9.765625
4493		-11.718750
4494		-7.812500
4495		-9.765625
4496		-7.812500
4497		-9.765625
4498		-3.906250
4499		-7.812500
4500		-1.953125
4501		-5.859375
4502		-1.953125
4503		-3.906250
4504		0.000000
4505		-1.953125
4506		1.953125
4507		-1.953125
4508		1.953125
4509		0.000000
4510		3.906250
4511		1.953125
4512		5.859375
4513		3.906250
4514		5.859375
4515		3.906250
4516		7.812500
4517		5.859375
4518		9.765625
4519		7.812500
4520		11.718750
4521		9.765625
4522		13.671875
4523		11.718750
4524		15.625000
4525		11.718750
4526		17.578125
4527		13.671875
4528		17.578125
4529		15.625000
4530		19.531250
4531		15.625000
4532		21.484375
4533		17.578125
4534		21.484375
4535		19.531250
4536		23.437500
4537		21.484375
4538		25.390625
4539		21.484375
4540		25.390625
4541		23.437500
4542		27.343750
4543		25.390625
4544		29.296875
4545		27.343750
4546		29.296875
4547		27.343750
4548		31.250000
4549		29.296875
4550		33.203125
4551		29.296875
4552		33.203125
4553		31.250000
4554		35.156250
4555		33.203125
4556		37.109375
4557		33.203125
4558		37.109375
4559		35.156250
4560		39.062500
4561		35.156250
4562		41.015625
4563		37.109375
4564		41.015625
4565		39.062500
4566		41.015625
4567		39.062500
4568		42.968750
4569		41.015625
4570		42.968750
4571		41.015625
4572		44.921875
4573		42.968750
4574		46.875000
4575		42.968750
4576		46.875000
4577		44.921875
4578		46.875000
4579		44.921875
4580		48.828125
4581		46.875000
4582		50.781250
4583		46.875000
4584		50.781250
4585		46.875000
4586		50.781250
4587		48.828125
4588		52.734375
4589		48.828125
4590		52.734375
4591		50.781250
4592		52.734375
4593		50.781250
4594		54.687500
4595		50.781250
4596		54.687500
4597		50.781250
4598		56.640625
4599		52.734375
4600		56.640625
4601		52.734375
4602		56.640625
4603		54.687500
4604		56.640625
4605		54.687500
4606		56.640625
4607		54.687500
4608		58.593750
4609		54.687500
4610		58.593750
4611		54.687500
4612		58.593750
4613		54.687500
4614		58.593750
4615		56.640625
4616		58.593750
4617		54.687500
4618		58.593750
4619		54.687500
4620		60.546875
4621		56.640625
4622		58.593750
4623		56.640625
4624		58.593750
4625		54.687500
4626		60.546875
4627		56.640625
4628		58.593750
4629		56.640625
4630		58.593750
4631		54.687500
4632		60.546875
4633		56.640625
4634		60.546875
4635		56.640625
4636		58.593750
4637		54.687500
4638		60.546875
4639		56.640625
4640		58.593750
4641		54.687500
4642		58.593750
4643		54.687500
4644		58.593750
4645		54.687500
4646		58.593750
4647		54.687500
4648		58.593750
4649		54.687500
4650		58.593750
4651		54.687500
4652		58.593750
4653		52.734375
4654		56.640625
4655		52.734375
4656		56.640625
4657		52.734375
4658		56.640625
4659		50.781250
4660		56.640625
4661		52.734375
4662		54.687500
4663		50.781250
4664		54.687500
4665		48.828125
4666		54.687500
4667		50.781250
4668		52.734375
4669		48.828125
4670		52.734375
4671		48.828125
4672		50.781250
4673		46.875000
4674		50.781250
4675		46.875000
4676		50.781250
4677		44.921875
4678		48.828125
4679		44.921875
4680		46.875000
4681		42.968750
4682		46.875000
4683		42.968750
4684		46.875000
4685		42.968750
4686		46.875000
4687		41.015625
4688		44.921875
4689		39.062500
4690		42.968750
4691		39.062500
4692		42.968750
4693		37.109375
4694		41.015625
4695		37.109375
4696		39.062500
4697		35.156250
4698		39.062500
4699		33.203125
4700		39.062500
4701		33.203125
4702		37.109375
4703		33.203125
4704		35.156250
4705		31.250000
4706		35.156250
4707		29.296875
4708		33.203125
4709		27.343750
4710		31.250000
4711		25.390625
4712		31.250000
4713		25.390625
4714		29.296875
4715		25.390625
4716		27.343750
4717		21.484375
4718		27.343750
4719		21.484375
4720		25.390625
4721		19.531250
4722		23.437500
4723		17.578125
4724		23.437500
4725		17.578125
4726		21.484375
4727		15.625000
4728		19.531250
4729		13.671875
4730		17.578125
4731		11.718750
4732		15.625000
4733		9.765625
4734		15.625000
4735		9.765625
4736		13.671875
4737		7.812500
4738		11.718750
4739		5.859375
4740		11.718750
4741		5.859375
4742		9.765625
4743		3.906250
4744		7.812500
4745		1.953125
4746		5.859375
4747		0.000000
4748		5.859375
4749		-1.953125
4750		3.906250
4751		-1.953125
4752		1.953125
4753		-3.906250
4754		0.000000
4755		-5.859375
4756		-1.953125
4757		-7.812500
4758		-3.906250
4759		-7.812500
4760		-3.906250
4761		-9.765625
4762		-5.859375
4763		-11.718750
4764		-7.812500
4765		-13.671875
4766		-9.765625
4767		-15.625000
4768		-11.718750
4769		-15.625000
4770		-11.718750
4771		-17.578125
4772		-13.671875
4773		-19.531250
4774		-15.625000
4775		-21.484375
4776		-17.578125
4777		-23.437500
4778		-17.578125
4779		-23.437500
4780		-21.484375
4781		-25.390625
4782		-21.484375
4783		-25.390625
4784		-21.484375
4785		-27.343750
4786		-23.437500
4787		-29.296875
4788		-25.390625
4789		-31.250000
4790		-27.343750
4791		-33.203125
4792		-29.296875
4793		-35.156250
4794		-29.296875
4795		-35.156250
4796		-31.250000
4797		-35.156250
4798		-33.203125
4799		-37.109375
4800		-33.203125
4801		-39.062500
4802		-35.156250
4803		-41.015625
4804		-35.156250
4805		-41.015625
4806		-37.109375
4807		-41.015625
4808		-39.062500
4809		-42.968750
4810		-39.062500
4811		-42.968750
4812		-41.015625
4813		-44.921875
4814		-42.968750
4815		-46.875000
4816		-41.015625
4817		-46.875000
4818		-42.968750
4819		-46.875000
4820		-44.921875
4821		-48.828125
4822		-44.921875
4823		-50.781250
4824		-46.875000
4825		-52.734375
4826		-46.875000
4827		-52.734375
4828		-46.875000
4829		-52.734375
4830		-48.828125
4831		-52.734375
4832		-50.781250
4833		-54.687500
4834		-48.828125
4835		-54.687500
4836		-50.781250
4837		-56.640625
4838		-50.781250
4839		-54.687500
4840		-52.734375
4841		-56.640625
4842		-52.734375
4843		-56.640625
4844		-52.734375
4845		-58.593750
4846		-52.734375
4847		-58.593750
4848		-54.687500
4849		-58.593750
4850		-54.687500
4851		-58.593750
4852		-54.687500
4853		-58.593750
4854		-54.687500
4855		-58.593750
4856		-56.640625
4857		-58.593750
4858		-56.640625
4859		-60.546875
4860		-54.687500
4861		-60.546875
4862		-54.687500
4863		-58.593750
4864		-56.640625
4865		-58.593750
4866		-56.640625
4867		-58.593750
4868		-54.687500
4869		-58.593750
4870		-54.687500
4871		-58.593750
4872		-54.687500
4873		-58.593750
4874		-54.687500
4875		-58.593750
4876		-54.687500
4877		-56.640625
4878		-54.687500
4879		-58.593750
4880		-54.687500
4881		-56.640625
4882		-54.687500
4883		-56.640625
4884		-52.734375
4885		-56.640625
4886		-52.734375
4887		-56.640625
4888		-52.734375
4889		-56.640625
4890		-52.734375
4891		-54.687500
4892		-50.781250
4893		-54.687500
4894		-50.781250
4895		-54.687500
4896		-50.781250
4897		-52.734375
4898		-50.781250
4899		-52.734375
4900		-46.875000
4901		-50.781250
4902		-48.828125
4903		-50.781250
4904		-46.875000
4905		-50.781250
4906		-46.875000
4907		-48.828125
4908		-44.921875
4909		-48.828125
4910		-44.921875
4911		-46.875000
4912		-44.921875
4913		-46.875000
4914		-42.968750
4915		-44.921875
4916		-42.968750
4917		-44.921875
4918		-39.062500
4919		-42.968750
4920		-39.062500
4921		-42.968750
4922		-39.062500
4923		-41.015625
4924		-37.109375
4925		-41.015625
4926		-37.109375
4927		-39.062500
4928		-33.203125
4929		-39.062500
4930		-33.203125
4931		-35.156250
4932		-33.203125
4933		-35.156250
4934		-31.250000
4935		-33.203125
4936		-29.296875
4937		-33.203125
4938		-27.343750
4939		-31.250000
4940		-27.343750
4941		-29.296875
4942		-25.390625
4943		-29.296875
4944		-23.437500
4945		-27.343750
4946		-21.484375
4947		-25.390625
4948		-21.484375
4949		-23.437500
4950		-19.531250
4951		-23.437500
4952		-19.531250
4953		-21.484375
4954		-17.578125
4955		-19.531250
4956		-15.625000
4957		-17.578125
4958		-15.625000
4959		-17.578125
4960		-13.671875
4961		-15.625000
4962		-11.718750
4963		-13.671875
4964		-9.765625
4965		-11.718750
4966		-9.765625
4967		-9.765625
4968		-5.859375
4969		-9.765625
4970		-5.859375
4971		-7.812500
4972		-3.906250
4973		-7.812500
4974		-1.953125
4975		-3.906250
4976		0.000000
4977		-3.906250
4978		1.953125
4979		-1.953125
4980		1.953125
4981		0.000000
4982		3.906250
4983		0.000000
4984		5.859375
4985		1.953125
4986		5.859375
4987		3.906250
4988		7.812500
4989		5.859375
4990		9.765625
4991		7.812500
4992		11.718750
4993		9.765625
4994		13.671875
4995		9.765625
4996		15.625000
4997		11.718750
4998		15.625000
4999		13.671875
5000		17.578125
5001		15.625000
5002		19.531250
5003		15.625000
5004		19.531250
5005		17.578125
5006		23.437500
5007		19.531250
5008		23.437500
5009		19.531250
5010		25.390625
5011		21.484375
5012		25.390625
5013		23.437500
5014		27.343750
5015		25.390625
5016		29.296875
5017		25.390625
5018		31.250000
5019		27.343750
5020		31.250000
5021		29.296875
5022		33.203125
5023		29.296875
5024		33.203125
5025		31.250000
5026		35.156250
5027		31.250000
5028		35.156250
5029		33.203125
5030		37.109375
5031		35.156250
5032		37.109375
5033		37.109375
5034		39.062500
5035		37.109375
5036		41.015625
5037		39.062500
5038		41.015625
5039		39.062500
5040		42.968750
5041		41.015625
5042		42.968750
5043		41.015625
5044		44.921875
5045		42.968750
5046		44.921875
5047		41.015625
5048		46.875000
5049		44.921875
5050		46.875000
5051		44.921875
5052		48.828125
5053		46.875000
5054		48.828125
5055		46.875000
5056		50.781250
5057		46.875000
5058		50.781250
5059		48.828125
5060		52.734375
5061		48.828125
5062		52.734375
5063		48.828125
5064		54.687500
5065		50.781250
5066		52.734375
5067		50.781250
5068		54.687500
5069		50.781250
5070		54.687500
5071		52.734375
5072		54.687500
5073		52.734375
5074		56.640625
5075		52.734375
5076		56.640625
5077		52.734375
5078		56.640625
5079		54.687500
5080		58.593750
5081		54.687500
5082		56.640625
5083		54.687500
5084		58.593750
5085		54.687500
5086		58.593750
5087		54.687500
5088		58.593750
5089		56.640625
5090		58.593750
5091		56.640625
5092		58.593750
5093		56.640625
5094		58.593750
5095		56.640625
5096		60.546875
5097		56.640625
5098		60.546875
5099		56.640625
5100		58.593750
5101		56.640625
5102		60.546875
5103		56.640625
5104		60.546875
5105		56.640625
5106		60.546875
5107		54.687500
5108		60.546875
5109		54.687500
5110		58.593750
5111		56.640625
5112		58.593750
5113		54.687500
5114		58.593750
5115		54.687500
5116		58.593750
5117		54.687500
5118		58.593750
5119		54.687500
5120		58.593750
5121		52.734375
5122		58.593750
5123		52.734375
5124		56.640625
5125		52.734375
5126		56.640625
5127		52.734375
5128		56.640625
5129		52.734375
5130		56.640625
5131		50.781250
5132		56.640625
5133		50.781250
5134		54.687500
5135		50.781250
5136		54.687500
5137		50.781250
5138		54.687500
5139		48.828125
5140		52.734375
5141		48.828125
5142		52.734375
5143		48.828125
5144		50.781250
5145		46.875000
5146		50.781250
5147		46.875000
5148		50.781250
5149		46.875000
5150		48.828125
5151		42.968750
5152		48.828125
5153		42.968750
5154		46.875000
5155		42.968750
5156		46.875000
5157		42.968750
5158		44.921875
5159		41.015625
5160		44.921875
5161		39.062500
5162		44.921875
5163		39.062500
5164		42.968750
5165		37.109375
5166		41.015625
5167		37.109375
5168		39.062500
5169		35.156250
5170		39.062500
5171		33.203125
5172		39.062500
5173		33.203125
5174		37.109375
5175		31.250000
5176		35.156250
5177		31.250000
5178		35.156250
5179		29.296875
5180		33.203125
5181		27.343750
5182		31.250000
5183		25.390625
5184		31.250000
5185		25.390625
5186		29.296875
5187		23.437500
5188		27.343750
5189		23.437500
5190		27.343750
5191		21.484375
5192		25.390625
5193		19.531250
5194		23.437500
5195		17.578125
5196		23.437500
5197		15.625000
5198		21.484375
5199		15.625000
5200		19.531250
5201		13.671875
5202		17.578125
5203		11.718750
5204		17.578125
5205		11.718750
5206		15.625000
5207		9.765625
5208		13.671875
5209		7.812500
5210		11.718750
5211		5.859375
5212		9.765625
5213		5.859375
5214		9.765625
5215		3.906250
5216		7.812500
5217		1.953125
5218		5.859375
5219		0.000000
5220		3.906250
5221		-1.953125
5222		1.953125
5223		-1.953125
5224		1.953125
5225		-3.906250
5226		0.000000
5227		-5.859375
5228		-1.953125
5229		-7.812500
5230		-3.906250
5231		-7.812500
5232		-3.906250
5233		-9.765625
5234		-7.812500
5235		-13.671875
5236		-7.812500
5237		-13.671875
5238		-9.765625
5239		-15.625000
5240		-9.765625
5241		-15.625000
5242		-11.718750
5243		-17.578125
5244		-13.671875
5245		-19.531250
5246		-15.625000
5247		-21.484375
5248		-17.578125
5249		-23.437500
5250		-17.578125
5251		-23.437500
5252		-19.531250
5253		-25.390625
5254		-21.484375
5255		-25.390625
5256		-23.437500
5257		-27.343750
5258		-23.437500
5259		-29.296875
5260		-25.390625
5261		-31.250000
5262		-25.390625
5263		-31.250000
5264		-29.296875
5265		-33.203125
5266		-29.296875
5267		-33.203125
5268		-31.250000
5269		-35.156250
5270		-33.203125
5271		-37.109375
5272		-33.203125
5273		-39.062500
5274		-35.156250
5275		-39.062500
5276		-35.156250
5277		-41.015625
5278		-37.109375
5279		-41.015625
5280		-37.109375
5281		-42.968750
5282		-39.062500
5283		-44.921875
5284		-39.062500
5285		-44.921875
5286		-41.015625
5287		-44.921875
5288		-42.968750
5289		-46.875000
5290		-42.968750
5291		-46.875000
5292		-42.968750
5293		-48.828125
5294		-44.921875
5295		-48.828125
5296		-46.875000
5297		-50.781250
5298		-46.875000
5299		-50.781250
5300		-46.875000
5301		-50.781250
5302		-48.828125
5303		-52.734375
5304		-48.828125
5305		-54.687500
5306		-48.828125
5307		-52.734375
5308		-50.781250
5309		-54.687500
5310		-50.781250
5311		-54.687500
5312		-52.734375
5313		-54.687500
5314		-52.734375
5315		-56.640625
5316		-50.781250
5317		-54.687500
5318		-52.734375
5319		-56.640625
5320		-52.734375
5321		-56.640625
5322		-52.734375
5323		-56.640625
5324		-52.734375
5325		-56.640625
5326		-54.687500
5327		-58.593750
5328		-52.734375
5329		-58.593750
5330		-54.687500
5331		-58.593750
5332		-54.687500
5333		-56.640625
5334		-54.687500
5335		-58.593750
5336		-54.687500
5337		-58.593750
5338		-54.687500
5339		-56.640625
5340		-54.687500
5341		-56.640625
5342		-54.687500
5343		-56.640625
5344		-54.687500
5345		-56.640625
5346		-54.687500
5347		-56.640625
5348		-54.687500
5349		-58.593750
5350		-52.734375
5351		-56.640625
5352		-52.734375
5353		-56.640625
5354		-52.734375
5355		-54.687500
5356		-50.781250
5357		-54.687500
5358		-50.781250
5359		-54.687500
5360		-50.781250
5361		-54.687500
5362		-50.781250
5363		-52.734375
5364		-50.781250
5365		-52.734375
5366		-48.828125
5367		-52.734375
5368		-48.828125
5369		-52.734375
5370		-46.875000
5371		-50.781250
5372		-46.875000
5373		-48.828125
5374		-46.875000
5375		-48.828125
5376		-44.921875
5377		-48.828125
5378		-44.921875
5379		-48.828125
5380		-44.921875
5381		-46.875000
5382		-42.968750
5383		-44.921875
5384		-42.968750
5385		-44.921875
5386		-41.015625
5387		-44.921875
5388		-39.062500
5389		-42.968750
5390		-39.062500
5391		-41.015625
5392		-37.109375
5393		-39.062500
5394		-37.109375
5395		-39.062500
5396		-35.156250
5397		-39.062500
5398		-35.156250
5399		-37.109375
5400		-33.203125
5401		-35.156250
5402		-31.250000
5403		-35.156250
5404		-31.250000
5405		-33.203125
5406		-29.296875
5407		-31.250000
5408		-27.343750
5409		-31.250000
5410		-27.343750
5411		-29.296875
5412		-25.390625
5413		-27.343750
5414		-23.437500
5415		-25.390625
5416		-21.484375
5417		-25.390625
5418		-21.484375
5419		-23.437500
5420		-19.531250
5421		-21.484375
5422		-19.531250
5423		-19.531250
5424		-15.625000
5425		-19.531250
5426		-15.625000
5427		-17.578125
5428		-13.671875
5429		-15.625000
5430		-11.718750
5431		-13.671875
5432		-11.718750
5433		-13.671875
5434		-9.765625
5435		-11.718750
5436		-7.812500
5437		-9.765625
5438		-5.859375
5439		-9.765625
5440		-3.906250
5441		-7.812500
5442		-3.906250
5443		-5.859375
5444		-1.953125
5445		-3.906250
5446		0.000000
5447		-1.953125
5448		1.953125
5449		0.000000
5450		3.906250
5451		0.000000
5452		3.906250
5453		1.953125
5454		5.859375
5455		1.953125
5456		7.812500
5457		3.906250
5458		9.765625
5459		5.859375
5460		11.718750
5461		7.812500
5462		11.718750
5463		9.765625
5464		13.671875
5465		11.718750
5466		15.625000
5467		11.718750
5468		17.578125
5469		13.671875
5470		17.578125
5471		15.625000
5472		19.531250
5473		17.578125
5474		19.531250
5475		19.531250
5476		21.484375
5477		19.531250
5478		25.390625
5479		19.531250
5480		25.390625
5481		21.484375
5482		25.390625
5483		23.437500
5484		27.343750
5485		25.390625
5486		29.296875
5487		27.343750
5488		29.296875
5489		27.343750
5490		31.250000
5491		29.296875
5492		33.203125
5493		29.296875
5494		33.203125
5495		31.250000
5496		35.156250
5497		33.203125
5498		37.109375
5499		33.203125
5500		39.062500
5501		33.203125
5502		39.062500
5503		37.109375
5504		39.062500
5505		35.156250
5506		41.015625
5507		39.062500
5508		42.968750
5509		39.062500
5510		44.921875
5511		41.015625
5512		44.921875
5513		42.968750
5514		44.921875
5515		42.968750
5516		46.875000
5517		44.921875
5518		46.875000
5519		44.921875
5520		48.828125
5521		46.875000
5522		50.781250
5523		46.875000
5524		50.781250
5525		46.875000
5526		50.781250
5527		48.828125
5528		52.734375
5529		48.828125
5530		54.687500
5531		48.828125
5532		54.687500
5533		48.828125
5534		54.687500
5535		50.781250
5536		54.687500
5537		52.734375
5538		54.687500
5539		50.781250
5540		56.640625
5541		52.734375
5542		56.640625
5543		52.734375
5544		56.640625
5545		54.687500
5546		58.593750
5547		54.687500
5548		58.593750
5549		54.687500
5550		58.593750
5551		54.687500
5552		58.593750
5553		54.687500
5554		60.546875
5555		56.640625
5556		60.546875
5557		54.687500
5558		60.546875
5559		56.640625
5560		60.546875
5561		56.640625
5562		60.546875
5563		56.640625
5564		60.546875
5565		56.640625
5566		60.546875
5567		56.640625
5568		62.500000
5569		58.593750
5570		60.546875
5571		58.593750
5572		60.546875
5573		56.640625
5574		62.500000
5575		56.640625
5576		62.500000
5577		56.640625
5578		62.500000
5579		56.640625
5580		62.500000
5581		56.640625
5582		62.500000
5583		54.687500
5584		62.500000
5585		56.640625
5586		60.546875
5587		56.640625
5588		58.593750
5589		54.687500
5590		60.546875
5591		54.687500
5592		60.546875
5593		54.687500
5594		60.546875
5595		54.687500
5596		60.546875
5597		52.734375
5598		60.546875
5599		52.734375
5600		58.593750
5601		52.734375
5602		58.593750
5603		52.734375
5604		56.640625
5605		50.781250
5606		56.640625
5607		50.781250
5608		56.640625
5609		48.828125
5610		56.640625
5611		48.828125
5612		54.687500
5613		48.828125
5614		54.687500
5615		46.875000
5616		54.687500
5617		46.875000
5618		52.734375
5619		46.875000
5620		50.781250
5621		46.875000
5622		48.828125
5623		42.968750
5624		50.781250
5625		42.968750
5626		48.828125
5627		42.968750
5628		48.828125
5629		41.015625
5630		46.875000
5631		41.015625
5632		46.875000
5633		39.062500
5634		44.921875
5635		39.062500
5636		44.921875
5637		39.062500
5638		41.015625
5639		37.109375
5640		42.968750
5641		37.109375
5642		39.062500
5643		35.156250
5644		39.062500
5645		35.156250
5646		37.109375
5647		33.203125
5648		35.156250
5649		31.250000
5650		35.156250
5651		31.250000
5652		35.156250
5653		29.296875
5654		33.203125
5655		27.343750
5656		31.250000
5657		27.343750
5658		31.250000
5659		25.390625
5660		29.296875
5661		23.437500
5662		27.343750
5663		23.437500
5664		25.390625
5665		21.484375
5666		23.437500
5667		19.531250
5668		23.437500
5669		17.578125
5670		21.484375
5671		17.578125
5672		21.484375
5673		15.625000
5674		17.578125
5675		13.671875
5676		17.578125
5677		11.718750
5678		15.625000
5679		9.765625
5680		13.671875
5681		9.765625
5682		13.671875
5683		7.812500
5684		11.718750
5685		5.859375
5686		9.765625
5687		3.906250
5688		7.812500
5689		1.953125
5690		5.859375
5691		1.953125
5692		5.859375
5693		0.000000
5694		3.906250
5695		-1.953125
5696		1.953125
5697		-3.906250
5698		0.000000
5699		-3.906250
5700		-1.953125
5701		-7.812500
5702		-1.953125
5703		-7.812500
5704		-3.906250
5705		-9.765625
5706		-5.859375
5707		-11.718750
5708		-7.812500
5709		-11.718750
5710		-9.765625
5711		-13.671875
5712		-11.718750
5713		-15.625000
5714		-11.718750
5715		-17.578125
5716		-13.671875
5717		-17.578125
5718		-15.625000
5719		-19.531250
5720		-15.625000
5721		-21.484375
5722		-17.578125
5723		-23.437500
5724		-19.531250
5725		-23.437500
5726		-21.484375
5727		-25.390625
5728		-21.484375
5729		-27.343750
5730		-23.437500
5731		-27.343750
5732		-23.437500
5733		-31.250000
5734		-25.390625
5735		-31.250000
5736		-27.343750
5737		-33.203125
5738		-29.296875
5739		-33.203125
5740		-29.296875
5741		-37.109375
5742		-27.343750
5743		-39.062500
5744		-29.296875
5745		-41.015625
5746		-31.250000
5747		-39.062500
5748		-35.156250
5749		-39.062500
5750		-37.109375
5751		-41.015625
5752		-37.109375
5753		-41.015625
5754		-39.062500
5755		-42.968750
5756		-39.062500
5757		-46.875000
5758		-37.109375
5759		-48.828125
5760		-39.062500
5761		-48.828125
5762		-39.062500
5763		-46.875000
5764		-42.968750
5765		-46.875000
5766		-42.968750
5767		-48.828125
5768		-44.921875
5769		-48.828125
5770		-46.875000
5771		-48.828125
5772		-46.875000
5773		-54.687500
5774		-44.921875
5775		-54.687500
5776		-44.921875
5777		-56.640625
5778		-44.921875
5779		-54.687500
5780		-44.921875
5781		-52.734375
5782		-50.781250
5783		-52.734375
5784		-50.781250
5785		-54.687500
5786		-50.781250
5787		-54.687500
5788		-50.781250
5789		-54.687500
5790		-52.734375
5791		-58.593750
5792		-48.828125
5793		-58.593750
5794		-48.828125
5795		-60.546875
5796		-48.828125
5797		-56.640625
5798		-52.734375
5799		-56.640625
5800		-54.687500
5801		-56.640625
5802		-54.687500
5803		-56.640625
5804		-54.687500
5805		-56.640625
5806		-54.687500
5807		-60.546875
5808		-50.781250
5809		-60.546875
5810		-48.828125
5811		-60.546875
5812		-50.781250
5813		-60.546875
5814		-50.781250
5815		-56.640625
5816		-54.687500
5817		-56.640625
5818		-52.734375
5819		-54.687500
5820		-52.734375
5821		-54.687500
5822		-52.734375
5823		-54.687500
5824		-52.734375
5825		-58.593750
5826		-48.828125
5827		-58.593750
5828		-46.875000
5829		-58.593750
5830		-46.875000
5831		-52.734375
5832		-50.781250
5833		-52.734375
5834		-50.781250
5835		-52.734375
5836		-48.828125
5837		-50.781250
5838		-48.828125
5839		-50.781250
5840		-46.875000
5841		-52.734375
5842		-42.968750
5843		-52.734375
5844		-42.968750
5845		-52.734375
5846		-42.968750
5847		-46.875000
5848		-44.921875
5849		-46.875000
5850		-42.968750
5851		-46.875000
5852		-42.968750
5853		-44.921875
5854		-42.968750
5855		-44.921875
5856		-41.015625
5857		-42.968750
5858		-37.109375
5859		-46.875000
5860		-35.156250
5861		-44.921875
5862		-33.203125
5863		-42.968750
5864		-33.203125
5865		-39.062500
5866		-37.109375
5867		-37.109375
5868		-35.156250
5869		-37.109375
5870		-33.203125
5871		-35.156250
5872		-31.250000
5873		-33.203125
5874		-31.250000
5875		-37.109375
5876		-25.390625
5877		-35.156250
5878		-25.390625
5879		-33.203125
5880		-23.437500
5881		-29.296875
5882		-25.390625
5883		-27.343750
5884		-25.390625
5885		-27.343750
5886		-23.437500
5887		-25.390625
5888		-21.484375
5889		-23.437500
5890		-21.484375
5891		-25.390625
5892		-15.625000
5893		-23.437500
5894		-13.671875
5895		-23.437500
5896		-11.718750
5897		-21.484375
5898		-11.718750
5899		-15.625000
5900		-13.671875
5901		-15.625000
5902		-11.718750
5903		-13.671875
5904		-9.765625
5905		-11.718750
5906		-9.765625
5907		-9.765625
5908		-7.812500
5909		-11.718750
5910		-1.953125
5911		-11.718750
5912		0.000000
5913		-9.765625
5914		1.953125
5915		-3.906250
5916		-1.953125
5917		-3.906250
5918		0.000000
5919		-1.953125
5920		1.953125
5921		0.000000
5922		3.906250
5923		1.953125
5924		5.859375
5925		3.906250
5926		5.859375
5927		1.953125
5928		11.718750
5929		3.906250
5930		11.718750
5931		7.812500
5932		11.718750
5933		9.765625
5934		11.718750
5935		9.765625
5936		13.671875
5937		11.718750
5938		15.625000
5939		13.671875
5940		17.578125
5941		15.625000
5942		17.578125
5943		17.578125
5944		21.484375
5945		15.625000
5946		25.390625
5947		17.578125
5948		23.437500
5949		21.484375
5950		23.437500
5951		21.484375
5952		25.390625
5953		23.437500
5954		27.343750
5955		25.390625
5956		29.296875
5957		27.343750
5958		29.296875
5959		27.343750
5960		31.250000
5961		27.343750
5962		35.156250
5963		27.343750
5964		35.156250
5965		31.250000
5966		35.156250
5967		33.203125
5968		37.109375
5969		33.203125
5970		37.109375
5971		35.156250
5972		39.062500
5973		37.109375
5974		39.062500
5975		37.109375
5976		41.015625
5977		39.062500
5978		42.968750
5979		41.015625
5980		42.968750
5981		41.015625
5982		42.968750
5983		41.015625
5984		44.921875
5985		42.968750
5986		46.875000
5987		42.968750
5988		48.828125
5989		44.921875
5990		46.875000
5991		46.875000
5992		48.828125
5993		46.875000
5994		50.781250
5995		48.828125
5996		50.781250
5997		48.828125
5998		50.781250
5999		48.828125
6000		52.734375
6001		50.781250
6002		52.734375
6003		50.781250
6004		52.734375
6005		52.734375
6006		54.687500
6007		52.734375
6008		54.687500
6009		52.734375
6010		56.640625
6011		52.734375
6012		56.640625
6013		54.687500
6014		56.640625
6015		54.687500
6016		56.640625
6017		54.687500
6018		58.593750
6019		54.687500
6020		58.593750
6021		56.640625
6022		58.593750
6023		56.640625
6024		58.593750
6025		56.640625
6026		60.546875
6027		56.640625
6028		60.546875
6029		56.640625
6030		60.546875
6031		56.640625
6032		62.500000
6033		56.640625
6034		62.500000
6035		58.593750
6036		60.546875
6037		58.593750
6038		60.546875
6039		58.593750
6040		60.546875
6041		58.593750
6042		62.500000
6043		56.640625
6044		62.500000
6045		58.593750
6046		62.500000
6047		58.593750
6048		60.546875
6049		56.640625
6050		62.500000
6051		56.640625
6052		62.500000
6053		58.593750
6054		60.546875
6055		58.593750
6056		60.546875
6057		58.593750
6058		60.546875
6059		56.640625
6060		60.546875
6061		56.640625
6062		60.546875
6063		56.640625
6064		60.546875
6065		56.640625
6066		58.593750
6067		54.687500
6068		60.546875
6069		54.687500
6070		58.593750
6071		54.687500
6072		56.640625
6073		52.734375
6074		58.593750
6075		54.687500
6076		56.640625
6077		52.734375
6078		56.640625
6079		52.734375
6080		56.640625
6081		52.734375
6082		54.687500
6083		50.781250
6084		54.687500
6085		48.828125
6086		54.687500
6087		48.828125
6088		52.734375
6089		48.828125
6090		50.781250
6091		48.828125
6092		50.781250
6093		44.921875
6094		50.781250
6095		44.921875
6096		50.781250
6097		44.921875
6098		48.828125
6099		44.921875
6100		46.875000
6101		42.968750
6102		46.875000
6103		42.968750
6104		44.921875
6105		41.015625
6106		44.921875
6107		41.015625
6108		42.968750
6109		35.156250
6110		42.968750
6111		37.109375
6112		42.968750
6113		37.109375
6114		41.015625
6115		35.156250
6116		39.062500
6117		33.203125
6118		39.062500
6119		33.203125
6120		37.109375
6121		31.250000
6122		35.156250
6123		31.250000
6124		33.203125
6125		29.296875
6126		33.203125
6127		27.343750
6128		31.250000
6129		27.343750
6130		31.250000
6131		25.390625
6132		29.296875
6133		23.437500
6134		27.343750
6135		21.484375
6136		27.343750
6137		21.484375
6138		23.437500
6139		19.531250
6140		23.437500
6141		17.578125
6142		21.484375
6143		15.625000
6144		19.531250
6145		13.671875
6146		19.531250
6147		13.671875
6148		17.578125
6149		11.718750
6150		15.625000
6151		9.765625
6152		15.625000
6153		9.765625
6154		13.671875
6155		7.812500
6156		11.718750
6157		5.859375
6158		9.765625
6159		3.906250
6160		7.812500
6161		1.953125
6162		7.812500
6163		1.953125
6164		5.859375
6165		0.000000
6166		3.906250
6167		-1.953125
6168		1.953125
6169		-3.906250
6170		1.953125
6171		-3.906250
6172		0.000000
6173		-5.859375
6174		-1.953125
6175		-7.812500
6176		-3.906250
6177		-11.718750
6178		-3.906250
6179		-11.718750
6180		-7.812500
6181		-13.671875
6182		-7.812500
6183		-13.671875
6184		-9.765625
6185		-15.625000
6186		-11.718750
6187		-15.625000
6188		-13.671875
6189		-17.578125
6190		-15.625000
6191		-19.531250
6192		-15.625000
6193		-21.484375
6194		-17.578125
6195		-23.437500
6196		-17.578125
6197		-23.437500
6198		-19.531250
6199		-25.390625
6200		-21.484375
6201		-27.343750
6202		-23.437500
6203		-29.296875
6204		-23.437500
6205		-29.296875
6206		-25.390625
6207		-31.250000
6208		-27.343750
6209		-31.250000
6210		-29.296875
6211		-33.203125
6212		-29.296875
6213		-35.156250
6214		-31.250000
6215		-35.156250
6216		-31.250000
6217		-37.109375
6218		-33.203125
6219		-39.062500
6220		-35.156250
6221		-39.062500
6222		-37.109375
6223		-41.015625
6224		-37.109375
6225		-41.015625
6226		-37.109375
6227		-42.968750
6228		-39.062500
6229		-42.968750
6230		-41.015625
6231		-44.921875
6232		-41.015625
6233		-44.921875
6234		-42.968750
6235		-46.875000
6236		-42.968750
6237		-46.875000
6238		-44.921875
6239		-46.875000
6240		-44.921875
6241		-48.828125
6242		-44.921875
6243		-48.828125
6244		-46.875000
6245		-50.781250
6246		-46.875000
6247		-50.781250
6248		-46.875000
6249		-50.781250
6250		-48.828125
6251		-52.734375
6252		-48.828125
6253		-52.734375
6254		-50.781250
6255		-52.734375
6256		-50.781250
6257		-54.687500
6258		-50.781250
6259		-54.687500
6260		-50.781250
6261		-54.687500
6262		-52.734375
6263		-54.687500
6264		-52.734375
6265		-54.687500
6266		-52.734375
6267		-54.687500
6268		-52.734375
6269		-56.640625
6270		-52.734375
6271		-56.640625
6272		-52.734375
6273		-56.640625
6274		-52.734375
6275		-56.640625
6276		-52.734375
6277		-56.640625
6278		-54.687500
6279		-56.640625
6280		-52.734375
6281		-56.640625
6282		-54.687500
6283		-56.640625
6284		-52.734375
6285		-54.687500
6286		-52.734375
6287		-54.687500
6288		-52.734375
6289		-56.640625
6290		-52.734375
6291		-56.640625
6292		-50.781250
6293		-54.687500
6294		-52.734375
6295		-54.687500
6296		-52.734375
6297		-54.687500
6298		-52.734375
6299		-54.687500
6300		-50.781250
6301		-54.687500
6302		-48.828125
6303		-52.734375
6304		-50.781250
6305		-52.734375
6306		-50.781250
6307		-50.781250
6308		-48.828125
6309		-50.781250
6310		-48.828125
6311		-50.781250
6312		-46.875000
6313		-50.781250
6314		-46.875000
6315		-48.828125
6316		-46.875000
6317		-48.828125
6318		-44.921875
6319		-46.875000
6320		-44.921875
6321		-46.875000
6322		-42.968750
6323		-46.875000
6324		-42.968750
6325		-44.921875
6326		-42.968750
6327		-42.968750
6328		-41.015625
6329		-42.968750
6330		-39.062500
6331		-41.015625
6332		-39.062500
6333		-41.015625
6334		-37.109375
6335		-41.015625
6336		-37.109375
6337		-39.062500
6338		-35.156250
6339		-37.109375
6340		-35.156250
6341		-35.156250
6342		-33.203125
6343		-35.156250
6344		-31.250000
6345		-35.156250
6346		-29.296875
6347		-33.203125
6348		-29.296875
6349		-31.250000
6350		-27.343750
6351		-29.296875
6352		-27.343750
6353		-29.296875
6354		-25.390625
6355		-27.343750
6356		-23.437500
6357		-27.343750
6358		-21.484375
6359		-23.437500
6360		-21.484375
6361		-23.437500
6362		-19.531250
6363		-23.437500
6364		-17.578125
6365		-21.484375
6366		-15.625000
6367		-19.531250
6368		-15.625000
6369		-17.578125
6370		-13.671875
6371		-15.625000
6372		-13.671875
6373		-13.671875
6374		-11.718750
6375		-13.671875
6376		-9.765625
6377		-11.718750
6378		-7.812500
6379		-11.718750
6380		-5.859375
6381		-9.765625
6382		-3.906250
6383		-5.859375
6384		-3.906250
6385		-5.859375
6386		-1.953125
6387		-3.906250
6388		0.000000
6389		-1.953125
6390		1.953125
6391		0.000000
6392		1.953125
6393		0.000000
6394		3.906250
6395		0.000000
6396		7.812500
6397		1.953125
6398		9.765625
6399		3.906250
6400		7.812500
6401		5.859375
6402		9.765625
6403		7.812500
6404		11.718750
6405		9.765625
6406		11.718750
6407		11.718750
6408		13.671875
6409		11.718750
6410		15.625000
6411		13.671875
6412		17.578125
6413		13.671875
6414		19.531250
6415		15.625000
6416		21.484375
6417		19.531250
6418		21.484375
6419		19.531250
6420		23.437500
6421		21.484375
6422		23.437500
6423		21.484375
6424		27.343750
6425		23.437500
6426		27.343750
6427		25.390625
6428		29.296875
6429		25.390625
6430		31.250000
6431		27.343750
6432		33.203125
6433		29.296875
6434		33.203125
6435		31.250000
6436		33.203125
6437		31.250000
6438		35.156250
6439		33.203125
6440		37.109375
6441		35.156250
6442		37.109375
6443		35.156250
6444		39.062500
6445		35.156250
6446		41.015625
6447		35.156250
6448		42.968750
6449		37.109375
6450		42.968750
6451		41.015625
6452		42.968750
6453		41.015625
6454		44.921875
6455		42.968750
6456		46.875000
6457		42.968750
6458		46.875000
6459		44.921875
6460		46.875000
6461		44.921875
6462		46.875000
6463		44.921875
6464		50.781250
6465		44.921875
6466		50.781250
6467		46.875000
6468		50.781250
6469		48.828125
6470		50.781250
6471		50.781250
6472		52.734375
6473		50.781250
6474		52.734375
6475		50.781250
6476		52.734375
6477		50.781250
6478		54.687500
6479		52.734375
6480		56.640625
6481		50.781250
6482		56.640625
6483		52.734375
6484		56.640625
6485		54.687500
6486		56.640625
6487		54.687500
6488		56.640625
6489		54.687500
6490		58.593750
6491		56.640625
6492		58.593750
6493		56.640625
6494		58.593750
6495		56.640625
6496		58.593750
6497		54.687500
6498		60.546875
6499		56.640625
6500		62.500000
6501		58.593750
6502		60.546875
6503		58.593750
6504		60.546875
6505		58.593750
6506		60.546875
6507		58.593750
6508		60.546875
6509		58.593750
6510		60.546875
6511		56.640625
6512		62.500000
6513		56.640625
6514		62.500000
6515		56.640625
6516		62.500000
6517		58.593750
6518		60.546875
6519		58.593750
6520		60.546875
6521		58.593750
6522		60.546875
6523		56.640625
6524		62.500000
6525		58.593750
6526		60.546875
6527		58.593750
6528		60.546875
6529		58.593750
6530		60.546875
6531		54.687500
6532		62.500000
6533		54.687500
6534		60.546875
6535		56.640625
6536		58.593750
6537		56.640625
6538		58.593750
6539		56.640625
6540		58.593750
6541		54.687500
6542		58.593750
6543		54.687500
6544		56.640625
6545		54.687500
6546		58.593750
6547		52.734375
6548		56.640625
6549		52.734375
6550		56.640625
6551		52.734375
6552		54.687500
6553		50.781250
6554		54.687500
6555		50.781250
6556		54.687500
6557		50.781250
6558		52.734375
6559		48.828125
6560		52.734375
6561		48.828125
6562		50.781250
6563		46.875000
6564		52.734375
6565		46.875000
6566		50.781250
6567		44.921875
6568		50.781250
6569		44.921875
6570		48.828125
6571		44.921875
6572		46.875000
6573		42.968750
6574		46.875000
6575		42.968750
6576		44.921875
6577		41.015625
6578		44.921875
6579		41.015625
6580		42.968750
6581		39.062500
6582		42.968750
6583		37.109375
6584		41.015625
6585		37.109375
6586		39.062500
6587		35.156250
6588		39.062500
6589		35.156250
6590		39.062500
6591		33.203125
6592		35.156250
6593		31.250000
6594		35.156250
6595		31.250000
6596		33.203125
6597		29.296875
6598		33.203125
6599		27.343750
6600		31.250000
6601		27.343750
6602		31.250000
6603		25.390625
6604		27.343750
6605		23.437500
6606		27.343750
6607		23.437500
6608		25.390625
6609		21.484375
6610		23.437500
6611		19.531250
6612		23.437500
6613		17.578125
6614		21.484375
6615		17.578125
6616		19.531250
6617		15.625000
6618		17.578125
6619		13.671875
6620		17.578125
6621		11.718750
6622		15.625000
6623		11.718750
6624		15.625000
6625		9.765625
6626		13.671875
6627		7.812500
6628		11.718750
6629		5.859375
6630		9.765625
6631		3.906250
6632		7.812500
6633		1.953125
6634		7.812500
6635		1.953125
6636		3.906250
6637		0.000000
6638		3.906250
6639		-1.953125
6640		1.953125
6641		-1.953125
6642		0.000000
6643		-5.859375
6644		-1.953125
6645		-5.859375
6646		-1.953125
6647		-7.812500
6648		-3.906250
6649		-9.765625
6650		-5.859375
6651		-9.765625
6652		-7.812500
6653		-11.718750
6654		-7.812500
6655		-13.671875
6656		-9.765625
6657		-15.625000
6658		-9.765625
6659		-15.625000
6660		-13.671875
6661		-17.578125
6662		-15.625000
6663		-19.531250
6664		-15.625000
6665		-21.484375
6666		-17.578125
6667		-23.437500
6668		-19.531250
6669		-23.437500
6670		-21.484375
6671		-25.390625
6672		-21.484375
6673		-27.343750
6674		-23.437500
6675		-27.343750
6676		-25.390625
6677		-29.296875
6678		-25.390625
6679		-31.250000
6680		-25.390625
6681		-31.250000
6682		-29.296875
6683		-33.203125
6684		-29.296875
6685		-33.203125
6686		-31.250000
6687		-35.156250
6688		-33.203125
6689		-37.109375
6690		-33.203125
6691		-37.109375
6692		-35.156250
6693		-39.062500
6694		-37.109375
6695		-39.062500
6696		-37.109375
6697		-41.015625
6698		-39.062500
6699		-42.968750
6700		-39.062500
6701		-42.968750
6702		-39.062500
6703		-44.921875
6704		-41.015625
6705		-44.921875
6706		-42.968750
6707		-44.921875
6708		-42.968750
6709		-46.875000
6710		-44.921875
6711		-46.875000
6712		-44.921875
6713		-48.828125
6714		-42.968750
6715		-48.828125
6716		-46.875000
6717		-50.781250
6718		-46.875000
6719		-50.781250
6720		-48.828125
6721		-50.781250
6722		-48.828125
6723		-52.734375
6724		-48.828125
6725		-52.734375
6726		-48.828125
6727		-52.734375
6728		-50.781250
6729		-52.734375
6730		-50.781250
6731		-52.734375
6732		-50.781250
6733		-54.687500
6734		-52.734375
6735		-54.687500
6736		-50.781250
6737		-54.687500
6738		-52.734375
6739		-54.687500
6740		-52.734375
6741		-54.687500
6742		-52.734375
6743		-54.687500
6744		-52.734375
6745		-54.687500
6746		-52.734375
6747		-56.640625
6748		-50.781250
6749		-54.687500
6750		-52.734375
6751		-54.687500
6752		-52.734375
6753		-54.687500
6754		-52.734375
6755		-54.687500
6756		-52.734375
6757		-56.640625
6758		-50.781250
6759		-54.687500
6760		-52.734375
6761		-54.687500
6762		-52.734375
6763		-54.687500
6764		-52.734375
6765		-54.687500
6766		-52.734375
6767		-54.687500
6768		-50.781250
6769		-54.687500
6770		-50.781250
6771		-52.734375
6772		-50.781250
6773		-52.734375
6774		-50.781250
6775		-52.734375
6776		-48.828125
6777		-50.781250
6778		-48.828125
6779		-50.781250
6780		-48.828125
6781		-50.781250
6782		-46.875000
6783		-48.828125
6784		-46.875000
6785		-48.828125
6786		-46.875000
6787		-48.828125
6788		-44.921875
6789		-48.828125
6790		-44.921875
6791		-46.875000
6792		-42.968750
6793		-44.921875
6794		-42.968750
6795		-44.921875
6796		-42.968750
6797		-44.921875
6798		-41.015625
6799		-42.968750
6800		-41.015625
6801		-42.968750
6802		-39.062500
6803		-41.015625
6804		-37.109375
6805		-39.062500
6806		-37.109375
6807		-39.062500
6808		-37.109375
6809		-37.109375
6810		-35.156250
6811		-37.109375
6812		-33.203125
6813		-35.156250
6814		-33.203125
6815		-35.156250
6816		-31.250000
6817		-33.203125
6818		-29.296875
6819		-31.250000
6820		-29.296875
6821		-31.250000
6822		-27.343750
6823		-29.296875
6824		-25.390625
6825		-27.343750
6826		-25.390625
6827		-27.343750
6828		-23.437500
6829		-25.390625
6830		-21.484375
6831		-23.437500
6832		-21.484375
6833		-21.484375
6834		-19.531250
6835		-21.484375
6836		-17.578125
6837		-19.531250
6838		-15.625000
6839		-17.578125
6840		-15.625000
6841		-17.578125
6842		-13.671875
6843		-15.625000
6844		-11.718750
6845		-13.671875
6846		-9.765625
6847		-11.718750
6848		-9.765625
6849		-11.718750
6850		-5.859375
6851		-9.765625
6852		-5.859375
6853		-7.812500
6854		-3.906250
6855		-5.859375
6856		-3.906250
6857		-3.906250
6858		-1.953125
6859		-3.906250
6860		0.000000
6861		-1.953125
6862		1.953125
6863		0.000000
6864		3.906250
6865		1.953125
6866		3.906250
6867		1.953125
6868		5.859375
6869		3.906250
6870		7.812500
6871		5.859375
6872		9.765625
6873		5.859375
6874		11.718750
6875		9.765625
6876		11.718750
6877		9.765625
6878		13.671875
6879		11.718750
6880		15.625000
6881		13.671875
6882		15.625000
6883		13.671875
6884		19.531250
6885		15.625000
6886		19.531250
6887		17.578125
6888		21.484375
6889		19.531250
6890		23.437500
6891		21.484375
6892		23.437500
6893		21.484375
6894		25.390625
6895		23.437500
6896		27.343750
6897		25.390625
6898		27.343750
6899		27.343750
6900		29.296875
6901		27.343750
6902		31.250000
6903		29.296875
6904		31.250000
6905		29.296875
6906		33.203125
6907		31.250000
6908		35.156250
6909		33.203125
6910		35.156250
6911		33.203125
6912		37.109375
6913		35.156250
6914		37.109375
6915		37.109375
6916		39.062500
6917		37.109375
6918		41.015625
6919		37.109375
6920		42.968750
6921		39.062500
6922		42.968750
6923		41.015625
6924		42.968750
6925		42.968750
6926		44.921875
6927		42.968750
6928		44.921875
6929		42.968750
6930		48.828125
6931		44.921875
6932		48.828125
6933		46.875000
6934		48.828125
6935		46.875000
6936		48.828125
6937		46.875000
6938		50.781250
6939		48.828125
6940		50.781250
6941		48.828125
6942		52.734375
6943		50.781250
6944		52.734375
6945		50.781250
6946		52.734375
6947		52.734375
6948		54.687500
6949		52.734375
6950		54.687500
6951		52.734375
6952		56.640625
6953		52.734375
6954		56.640625
6955		54.687500
6956		56.640625
6957		54.687500
6958		56.640625
6959		54.687500
6960		58.593750
6961		56.640625
6962		58.593750
6963		56.640625
6964		58.593750
6965		54.687500
6966		60.546875
6967		56.640625
6968		58.593750
6969		56.640625
6970		60.546875
6971		58.593750
6972		60.546875
6973		58.593750
6974		60.546875
6975		58.593750
6976		60.546875
6977		56.640625
6978		60.546875
6979		58.593750
6980		60.546875
6981		58.593750
6982		60.546875
6983		58.593750
6984		60.546875
6985		58.593750
6986		60.546875
6987		58.593750
6988		62.500000
6989		58.593750
6990		60.546875
6991		58.593750
6992		60.546875
6993		58.593750
6994		60.546875
6995		58.593750
6996		60.546875
6997		58.593750
6998		60.546875
6999		56.640625
7000		62.500000
7001		58.593750
7002		60.546875
7003		56.640625
7004		60.546875
7005		56.640625
7006		60.546875
7007		56.640625
7008		58.593750
7009		56.640625
7010		58.593750
7011		54.687500
7012		60.546875
7013		56.640625
7014		58.593750
7015		54.687500
7016		56.640625
7017		54.687500
7018		56.640625
7019		54.687500
7020		56.640625
7021		52.734375
7022		56.640625
7023		52.734375
7024		56.640625
7025		52.734375
7026		54.687500
7027		50.781250
7028		54.687500
7029		50.781250
7030		52.734375
7031		50.781250
7032		52.734375
7033		48.828125
7034		50.781250
7035		46.875000
7036		52.734375
7037		46.875000
7038		50.781250
7039		46.875000
7040		48.828125
7041		44.921875
7042		48.828125
7043		44.921875
7044		46.875000
7045		42.968750
7046		46.875000
7047		41.015625
7048		46.875000
7049		41.015625
7050		44.921875
7051		41.015625
7052		42.968750
7053		39.062500
7054		42.968750
7055		39.062500
7056		41.015625
7057		35.156250
7058		41.015625
7059		35.156250
7060		39.062500
7061		35.156250
7062		37.109375
7063		33.203125
7064		37.109375
7065		31.250000
7066		35.156250
7067		31.250000
7068		33.203125
7069		27.343750
7070		33.203125
7071		27.343750
7072		31.250000
7073		27.343750
7074		29.296875
7075		25.390625
7076		29.296875
7077		23.437500
7078		27.343750
7079		23.437500
7080		25.390625
7081		21.484375
7082		25.390625
7083		19.531250
7084		23.437500
7085		17.578125
7086		21.484375
7087		17.578125
7088		19.531250
7089		15.625000
7090		17.578125
7091		13.671875
7092		17.578125
7093		11.718750
7094		15.625000
7095		11.718750
7096		13.671875
7097		9.765625
7098		11.718750
7099		7.812500
7100		11.718750
7101		5.859375
7102		9.765625
7103		3.906250
7104		7.812500
7105		1.953125
7106		7.812500
7107		1.953125
7108		3.906250
7109		0.000000
7110		3.906250
7111		-1.953125
7112		1.953125
7113		-3.906250
7114		0.000000
7115		-3.906250
7116		-1.953125
7117		-5.859375
7118		-1.953125
7119		-7.812500
7120		-3.906250
7121		-9.765625
7122		-5.859375
7123		-9.765625
7124		-7.812500
7125		-11.718750
7126		-7.812500
7127		-13.671875
7128		-9.765625
7129		-15.625000
7130		-11.718750
7131		-15.625000
7132		-13.671875
7133		-17.578125
7134		-15.625000
7135		-19.531250
7136		-15.625000
7137		-21.484375
7138		-17.578125
7139		-23.437500
7140		-19.531250
7141		-23.437500
7142		-19.531250
7143		-25.390625
7144		-21.484375
7145		-27.343750
7146		-23.437500
7147		-27.343750
7148		-25.390625
7149		-29.296875
7150		-25.390625
7151		-31.250000
7152		-27.343750
7153		-31.250000
7154		-27.343750
7155		-33.203125
7156		-29.296875
7157		-35.156250
7158		-31.250000
7159		-35.156250
7160		-33.203125
7161		-37.109375
7162		-33.203125
7163		-37.109375
7164		-35.156250
7165		-39.062500
7166		-35.156250
7167		-39.062500
7168		-37.109375
7169		-41.015625
7170		-39.062500
7171		-42.968750
7172		-39.062500
7173		-42.968750
7174		-39.062500
7175		-44.921875
7176		-41.015625
7177		-44.921875
7178		-41.015625
7179		-44.921875
7180		-42.968750
7181		-46.875000
7182		-42.968750
7183		-46.875000
7184		-44.921875
7185		-48.828125
7186		-44.921875
7187		-48.828125
7188		-46.875000
7189		-50.781250
7190		-46.875000
7191		-50.781250
7192		-46.875000
7193		-50.781250
7194		-48.828125
7195		-50.781250
7196		-48.828125
7197		-52.734375
7198		-48.828125
7199		-52.734375
7200		-50.781250
7201		-54.687500
7202		-48.828125
7203		-52.734375
7204		-50.781250
7205		-52.734375
7206		-50.781250
7207		-54.687500
7208		-52.734375
7209		-54.687500
7210		-52.734375
7211		-54.687500
7212		-52.734375
7213		-54.687500
7214		-50.781250
7215		-54.687500
7216		-52.734375
7217		-54.687500
7218		-52.734375
7219		-54.687500
7220		-52.734375
7221		-54.687500
7222		-52.734375
7223		-54.687500
7224		-52.734375
7225		-56.640625
7226		-50.781250
7227		-54.687500
7228		-52.734375
7229		-54.687500
7230		-52.734375
7231		-54.687500
7232		-52.734375
7233		-54.687500
7234		-50.781250
7235		-54.687500
7236		-50.781250
7237		-54.687500
7238		-50.781250
7239		-52.734375
7240		-50.781250
7241		-52.734375
7242		-50.781250
7243		-52.734375
7244		-50.781250
7245		-52.734375
7246		-48.828125
7247		-50.781250
7248		-48.828125
7249		-50.781250
7250		-46.875000
7251		-50.781250
7252		-48.828125
7253		-48.828125
7254		-46.875000
7255		-48.828125
7256		-46.875000
7257		-48.828125
7258		-44.921875
7259		-46.875000
7260		-44.921875
7261		-46.875000
7262		-42.968750
7263		-44.921875
7264		-42.968750
7265		-44.921875
7266		-42.968750
7267		-44.921875
7268		-41.015625
7269		-42.968750
7270		-41.015625
7271		-41.015625
7272		-39.062500
7273		-41.015625
7274		-37.109375
7275		-41.015625
7276		-37.109375
7277		-39.062500
7278		-37.109375
7279		-37.109375
7280		-35.156250
7281		-37.109375
7282		-35.156250
7283		-35.156250
7284		-33.203125
7285		-35.156250
7286		-31.250000
7287		-33.203125
7288		-31.250000
7289		-31.250000
7290		-29.296875
7291		-31.250000
7292		-27.343750
7293		-29.296875
7294		-27.343750
7295		-29.296875
7296		-25.390625
7297		-27.343750
7298		-23.437500
7299		-25.390625
7300		-23.437500
7301		-23.437500
7302		-21.484375
7303		-23.437500
7304		-19.531250
7305		-21.484375
7306		-17.578125
7307		-19.531250
7308		-17.578125
7309		-19.531250
7310		-15.625000
7311		-17.578125
7312		-13.671875
7313		-15.625000
7314		-11.718750
7315		-13.671875
7316		-11.718750
7317		-13.671875
7318		-9.765625
7319		-11.718750
7320		-7.812500
7321		-9.765625
7322		-5.859375
7323		-7.812500
7324		-5.859375
7325		-5.859375
7326		-3.906250
7327		-5.859375
7328		-1.953125
7329		-3.906250
7330		0.000000
7331		-1.953125
7332		1.953125
7333		-1.953125
7334		1.953125
7335		1.953125
7336		3.906250
7337		1.953125
7338		5.859375
7339		3.906250
7340		7.812500
7341		5.859375
7342		9.765625
7343		5.859375
7344		9.765625
7345		7.812500
7346		11.718750
7347		9.765625
7348		13.671875
7349		11.718750
7350		15.625000
7351		13.671875
7352		15.625000
7353		13.671875
7354		17.578125
7355		15.625000
7356		19.531250
7357		15.625000
7358		21.484375
7359		19.531250
7360		21.484375
7361		19.531250
7362		23.437500
7363		21.484375
7364		25.390625
7365		23.437500
7366		25.390625
7367		25.390625
7368		27.343750
7369		25.390625
7370		29.296875
7371		27.343750
7372		29.296875
7373		29.296875
7374		31.250000
7375		29.296875
7376		33.203125
7377		31.250000
7378		35.156250
7379		33.203125
7380		37.109375
7381		33.203125
7382		37.109375
7383		35.156250
7384		37.109375
7385		37.109375
7386		39.062500
7387		37.109375
7388		41.015625
7389		39.062500
7390		41.015625
7391		37.109375
7392		44.921875
7393		41.015625
7394		44.921875
7395		41.015625
7396		48.828125
7397		41.015625
7398		44.921875
7399		42.968750
7400		46.875000
7401		44.921875
7402		46.875000
7403		44.921875
7404		50.781250
7405		46.875000
7406		48.828125
7407		48.828125
7408		50.781250
7409		46.875000
7410		52.734375
7411		48.828125
7412		52.734375
7413		46.875000
7414		54.687500
7415		50.781250
7416		54.687500
7417		48.828125
7418		56.640625
7419		52.734375
7420		54.687500
7421		52.734375
7422		56.640625
7423		52.734375
7424		56.640625
7425		52.734375
7426		58.593750
7427		54.687500
7428		58.593750
7429		52.734375
7430		60.546875
7431		56.640625
7432		58.593750
7433		52.734375
7434		62.500000
7435		56.640625
7436		60.546875
7437		56.640625
7438		60.546875
7439		56.640625
7440		62.500000
7441		56.640625
7442		64.453125
7443		58.593750
7444		62.500000
7445		58.593750
7446		62.500000
7447		58.593750
7448		64.453125
7449		56.640625
7450		66.406250
7451		58.593750
7452		62.500000
7453		60.546875
7454		62.500000
7455		58.593750
7456		64.453125
7457		56.640625
7458		66.406250
7459		58.593750
7460		64.453125
7461		58.593750
7462		62.500000
7463		58.593750
7464		64.453125
7465		60.546875
7466		62.500000
7467		58.593750
7468		64.453125
7469		58.593750
7470		62.500000
7471		58.593750
7472		62.500000
7473		56.640625
7474		64.453125
7475		56.640625
7476		64.453125
7477		56.640625
7478		60.546875
7479		56.640625
7480		62.500000
7481		54.687500
7482		64.453125
7483		54.687500
7484		62.500000
7485		56.640625
7486		60.546875
7487		56.640625
7488		58.593750
7489		54.687500
7490		58.593750
7491		52.734375
7492		60.546875
7493		50.781250
7494		58.593750
7495		52.734375
7496		58.593750
7497		48.828125
7498		60.546875
7499		52.734375
7500		54.687500
7501		48.828125
7502		56.640625
7503		50.781250
7504		52.734375
7505		48.828125
7506		54.687500
7507		46.875000
7508		54.687500
7509		44.921875
7510		52.734375
7511		46.875000
7512		50.781250
7513		42.968750
7514		50.781250
7515		42.968750
7516		52.734375
7517		41.015625
7518		50.781250
7519		42.968750
7520		46.875000
7521		41.015625
7522		46.875000
7523		39.062500
7524		44.921875
7525		37.109375
7526		46.875000
7527		39.062500
7528		42.968750
7529		35.156250
7530		41.015625
7531		33.203125
7532		42.968750
7533		31.250000
7534		41.015625
7535		33.203125
7536		37.109375
7537		33.203125
7538		37.109375
7539		31.250000
7540		35.156250
7541		27.343750
7542		37.109375
7543		27.343750
7544		33.203125
7545		27.343750
7546		31.250000
7547		21.484375
7548		33.203125
7549		23.437500
7550		31.250000
7551		19.531250
7552		29.296875
7553		21.484375
7554		25.390625
7555		19.531250
7556		23.437500
7557		17.578125
7558		25.390625
7559		15.625000
7560		25.390625
7561		15.625000
7562		19.531250
7563		13.671875
7564		17.578125
7565		9.765625
7566		21.484375
7567		7.812500
7568		17.578125
7569		9.765625
7570		13.671875
7571		7.812500
7572		11.718750
7573		5.859375
7574		11.718750
7575		1.953125
7576		11.718750
7577		1.953125
7578		9.765625
7579		1.953125
7580		7.812500
7581		-1.953125
7582		7.812500
7583		-1.953125
7584		7.812500
7585		-5.859375
7586		5.859375
7587		-3.906250
7588		0.000000
7589		-5.859375
7590		-1.953125
7591		-9.765625
7592		0.000000
7593		-9.765625
7594		-1.953125
7595		-9.765625
7596		-5.859375
7597		-11.718750
7598		-5.859375
7599		-15.625000
7600		-5.859375
7601		-17.578125
7602		-7.812500
7603		-15.625000
7604		-13.671875
7605		-17.578125
7606		-13.671875
7607		-19.531250
7608		-13.671875
7609		-21.484375
7610		-13.671875
7611		-21.484375
7612		-17.578125
7613		-23.437500
7614		-19.531250
7615		-27.343750
7616		-17.578125
7617		-27.343750
7618		-21.484375
7619		-27.343750
7620		-23.437500
7621		-27.343750
7622		-25.390625
7623		-31.250000
7624		-25.390625
7625		-35.156250
7626		-25.390625
7627		-35.156250
7628		-27.343750
7629		-33.203125
7630		-29.296875
7631		-39.062500
7632		-27.343750
7633		-39.062500
7634		-29.296875
7635		-39.062500
7636		-31.250000
7637		-37.109375
7638		-35.156250
7639		-39.062500
7640		-37.109375
7641		-41.015625
7642		-37.109375
7643		-44.921875
7644		-35.156250
7645		-42.968750
7646		-37.109375
7647		-44.921875
7648		-39.062500
7649		-46.875000
7650		-37.109375
7651		-48.828125
7652		-39.062500
7653		-44.921875
7654		-42.968750
7655		-46.875000
7656		-42.968750
7657		-48.828125
7658		-44.921875
7659		-50.781250
7660		-41.015625
7661		-50.781250
7662		-42.968750
7663		-48.828125
7664		-46.875000
7665		-50.781250
7666		-44.921875
7667		-50.781250
7668		-48.828125
7669		-52.734375
7670		-44.921875
7671		-50.781250
7672		-48.828125
7673		-50.781250
7674		-48.828125
7675		-56.640625
7676		-46.875000
7677		-54.687500
7678		-48.828125
7679		-52.734375
7680		-50.781250
7681		-56.640625
7682		-48.828125
7683		-52.734375
7684		-50.781250
7685		-52.734375
7686		-50.781250
7687		-54.687500
7688		-50.781250
7689		-54.687500
7690		-50.781250
7691		-54.687500
7692		-50.781250
7693		-54.687500
7694		-48.828125
7695		-56.640625
7696		-50.781250
7697		-54.687500
7698		-48.828125
7699		-56.640625
7700		-50.781250
7701		-52.734375
7702		-50.781250
7703		-52.734375
7704		-50.781250
7705		-54.687500
7706		-50.781250
7707		-52.734375
7708		-48.828125
7709		-52.734375
7710		-50.781250
7711		-52.734375
7712		-50.781250
7713		-52.734375
7714		-48.828125
7715		-52.734375
7716		-48.828125
7717		-50.781250
7718		-48.828125
7719		-50.781250
7720		-48.828125
7721		-50.781250
7722		-46.875000
7723		-50.781250
7724		-46.875000
7725		-48.828125
7726		-46.875000
7727		-48.828125
7728		-44.921875
7729		-46.875000
7730		-42.968750
7731		-46.875000
7732		-42.968750
7733		-44.921875
7734		-42.968750
7735		-44.921875
7736		-41.015625
7737		-44.921875
7738		-41.015625
7739		-44.921875
7740		-41.015625
7741		-42.968750
7742		-39.062500
7743		-42.968750
7744		-37.109375
7745		-41.015625
7746		-35.156250
7747		-41.015625
7748		-33.203125
7749		-39.062500
7750		-33.203125
7751		-39.062500
7752		-33.203125
7753		-37.109375
7754		-33.203125
7755		-35.156250
7756		-31.250000
7757		-35.156250
7758		-29.296875
7759		-35.156250
7760		-27.343750
7761		-33.203125
7762		-25.390625
7763		-31.250000
7764		-25.390625
7765		-29.296875
7766		-23.437500
7767		-29.296875
7768		-21.484375
7769		-27.343750
7770		-21.484375
7771		-25.390625
7772		-21.484375
7773		-23.437500
7774		-19.531250
7775		-23.437500
7776		-17.578125
7777		-21.484375
7778		-15.625000
7779		-21.484375
7780		-13.671875
7781		-19.531250
7782		-13.671875
7783		-17.578125
7784		-11.718750
7785		-15.625000
7786		-9.765625
7787		-15.625000
7788		-9.765625
7789		-11.718750
7790		-9.765625
7791		-11.718750
7792		-5.859375
7793		-9.765625
7794		-3.906250
7795		-9.765625
7796		-1.953125
7797		-7.812500
7798		0.000000
7799		-5.859375
7800		0.000000
7801		-3.906250
7802		1.953125
7803		-1.953125
7804		3.906250
7805		0.000000
7806		3.906250
7807		0.000000
7808		5.859375
7809		1.953125
7810		7.812500
7811		3.906250
7812		7.812500
7813		5.859375
7814		11.718750
7815		5.859375
7816		11.718750
7817		7.812500
7818		15.625000
7819		9.765625
7820		15.625000
7821		11.718750
7822		15.625000
7823		13.671875
7824		17.578125
7825		13.671875
7826		19.531250
7827		15.625000
7828		21.484375
7829		17.578125
7830		21.484375
7831		17.578125
7832		25.390625
7833		19.531250
7834		25.390625
7835		21.484375
7836		27.343750
7837		23.437500
7838		27.343750
7839		25.390625
7840		29.296875
7841		25.390625
7842		31.250000
7843		27.343750
7844		31.250000
7845		29.296875
7846		33.203125
7847		29.296875
7848		35.156250
7849		29.296875
7850		35.156250
7851		31.250000
7852		37.109375
7853		33.203125
7854		39.062500
7855		35.156250
7856		39.062500
7857		37.109375
7858		39.062500
7859		37.109375
7860		41.015625
7861		39.062500
7862		42.968750
7863		39.062500
7864		44.921875
7865		39.062500
7866		46.875000
7867		41.015625
7868		46.875000
7869		42.968750
7870		46.875000
7871		42.968750
7872		48.828125
7873		44.921875
7874		48.828125
7875		46.875000
7876		48.828125
7877		46.875000
7878		50.781250
7879		48.828125
7880		50.781250
7881		46.875000
7882		54.687500
7883		48.828125
7884		52.734375
7885		48.828125
7886		54.687500
7887		50.781250
7888		54.687500
7889		52.734375
7890		54.687500
7891		52.734375
7892		54.687500
7893		52.734375
7894		56.640625
7895		54.687500
7896		56.640625
7897		52.734375
7898		60.546875
7899		52.734375
7900		60.546875
7901		54.687500
7902		58.593750
7903		56.640625
7904		60.546875
7905		56.640625
7906		60.546875
7907		56.640625
7908		60.546875
7909		56.640625
7910		62.500000
7911		56.640625
7912		62.500000
7913		58.593750
7914		60.546875
7915		58.593750
7916		62.500000
7917		58.593750
7918		62.500000
7919		56.640625
7920		62.500000
7921		58.593750
7922		62.500000
7923		60.546875
7924		62.500000
7925		58.593750
7926		62.500000
7927		58.593750
7928		62.500000
7929		58.593750
7930		64.453125
7931		58.593750
7932		62.500000
7933		58.593750
7934		62.500000
7935		60.546875
7936		62.500000
7937		58.593750
7938		62.500000
7939		58.593750
7940		62.500000
7941		58.593750
7942		62.500000
7943		58.593750
7944		62.500000
7945		58.593750
7946		62.500000
7947		58.593750
7948		62.500000
7949		56.640625
7950		62.500000
7951		56.640625
7952		60.546875
7953		56.640625
7954		62.500000
7955		56.640625
7956		60.546875
7957		56.640625
7958		58.593750
7959		54.687500
7960		58.593750
7961		54.687500
7962		58.593750
7963		54.687500
7964		58.593750
7965		54.687500
7966		58.593750
7967		52.734375
7968		56.640625
7969		52.734375
7970		56.640625
7971		52.734375
7972		54.687500
7973		50.781250
7974		54.687500
7975		50.781250
7976		54.687500
7977		48.828125
7978		54.687500
7979		48.828125
7980		52.734375
7981		46.875000
7982		50.781250
7983		44.921875
7984		52.734375
7985		44.921875
7986		50.781250
7987		44.921875
7988		48.828125
7989		42.968750
7990		48.828125
7991		42.968750
7992		46.875000
7993		41.015625
7994		46.875000
7995		41.015625
7996		44.921875
7997		39.062500
7998		42.968750
7999		39.062500
8000		41.015625
8001		37.109375
8002		41.015625
8003		37.109375
8004		39.062500
8005		33.203125
8006		39.062500
8007		33.203125
8008		37.109375
8009		33.203125
8010		35.156250
8011		31.250000
8012		35.156250
8013		29.296875
8014		33.203125
8015		29.296875
8016		33.203125
8017		27.343750
8018		31.250000
8019		25.390625
8020		31.250000
8021		23.437500
8022		29.296875
8023		23.437500
8024		25.390625
8025		21.484375
8026		25.390625
8027		19.531250
8028		23.437500
8029		19.531250
8030		23.437500
8031		17.578125
8032		23.437500
8033		15.625000
8034		19.531250
8035		13.671875
8036		19.531250
8037		11.718750
8038		17.578125
8039		11.718750
8040		15.625000
8041		9.765625
8042		13.671875
8043		7.812500
8044		11.718750
8045		5.859375
8046		9.765625
8047		5.859375
8048		9.765625
8049		3.906250
8050		7.812500
8051		1.953125
8052		5.859375
8053		0.000000
8054		5.859375
8055		0.000000
8056		3.906250
8057		-1.953125
8058		0.000000
8059		-3.906250
8060		0.000000
8061		-5.859375
8062		0.000000
8063		-7.812500
8064		-1.953125
8065		-7.812500
8066		-5.859375
8067		-9.765625
8068		-5.859375
8069		-11.718750
8070		-7.812500
8071		-13.671875
8072		-9.765625
8073		-13.671875
8074		-9.765625
8075		-15.625000
8076		-11.718750
8077		-17.578125
8078		-13.671875
8079		-19.531250
8080		-15.625000
8081		-21.484375
8082		-17.578125
8083		-21.484375
8084		-17.578125
8085		-23.437500
8086		-19.531250
8087		-25.390625
8088		-19.531250
8089		-27.343750
8090		-21.484375
8091		-27.343750
8092		-23.437500
8093		-29.296875
8094		-25.390625
8095		-31.250000
8096		-25.390625
8097		-33.203125
8098		-27.343750
8099		-33.203125
8100		-29.296875
8101		-33.203125
8102		-31.250000
8103		-37.109375
8104		-31.250000
8105		-37.109375
8106		-33.203125
8107		-39.062500
8108		-33.203125
8109		-39.062500
8110		-35.156250
8111		-41.015625
8112		-35.156250
8113		-41.015625
8114		-37.109375
8115		-42.968750
8116		-39.062500
8117		-42.968750
8118		-39.062500
8119		-44.921875
8120		-39.062500
8121		-44.921875
8122		-41.015625
8123		-44.921875
8124		-42.968750
8125		-46.875000
8126		-42.968750
8127		-46.875000
8128		-42.968750
8129		-48.828125
8130		-42.968750
8131		-48.828125
8132		-44.921875
8133		-48.828125
8134		-46.875000
8135		-50.781250
8136		-46.875000
8137		-50.781250
8138		-46.875000
8139		-52.734375
8140		-46.875000
8141		-52.734375
8142		-46.875000
8143		-52.734375
8144		-48.828125
8145		-52.734375
8146		-48.828125
8147		-52.734375
8148		-50.781250
8149		-54.687500
8150		-50.781250
8151		-54.687500
8152		-50.781250
8153		-54.687500
8154		-50.781250
8155		-54.687500
8156		-50.781250
8157		-54.687500
8158		-50.781250
8159		-54.687500
8160		-52.734375
8161		-54.687500
8162		-52.734375
8163		-56.640625
8164		-50.781250
8165		-54.687500
8166		-52.734375
8167		-54.687500
8168		-52.734375
8169		-54.687500
8170		-50.781250
8171		-54.687500
8172		-50.781250
8173		-56.640625
8174		-50.781250
8175		-54.687500
8176		-52.734375
8177		-54.687500
8178		-48.828125
8179		-54.687500
8180		-50.781250
8181		-52.734375
8182		-50.781250
8183		-52.734375
8184		-50.781250
8185		-54.687500
8186		-48.828125
8187		-52.734375
8188		-48.828125
8189		-52.734375
8190		-48.828125
8191		-50.781250
8192		-48.828125
8193		-50.781250
8194		-48.828125
8195		-50.781250
8196		-44.921875
8197		-50.781250
8198		-46.875000
8199		-48.828125
8200		-44.921875
8201		-48.828125
8202		-44.921875
8203		-46.875000
8204		-44.921875
8205		-46.875000
8206		-42.968750
8207		-46.875000
8208		-41.015625
8209		-44.921875
8210		-42.968750
8211		-42.968750
8212		-41.015625
8213		-42.968750
8214		-39.062500
8215		-42.968750
8216		-39.062500
8217		-42.968750
8218		-35.156250
8219		-41.015625
8220		-37.109375
8221		-39.062500
8222		-35.156250
8223		-39.062500
8224		-33.203125
8225		-37.109375
8226		-33.203125
8227		-37.109375
8228		-33.203125
8229		-37.109375
8230		-29.296875
8231		-33.203125
8232		-29.296875
8233		-31.250000
8234		-29.296875
8235		-31.250000
8236		-27.343750
8237		-29.296875
8238		-25.390625
8239		-29.296875
8240		-23.437500
8241		-27.343750
8242		-23.437500
8243		-25.390625
8244		-21.484375
8245		-23.437500
8246		-19.531250
8247		-23.437500
8248		-17.578125
8249		-21.484375
8250		-17.578125
8251		-21.484375
8252		-15.625000
8253		-17.578125
8254		-13.671875
8255		-17.578125
8256		-13.671875
8257		-15.625000
8258		-11.718750
8259		-13.671875
8260		-9.765625
8261		-13.671875
8262		-7.812500
8263		-11.718750
8264		-7.812500
8265		-9.765625
8266		-5.859375
8267		-7.812500
8268		-3.906250
8269		-5.859375
8270		-3.906250
8271		-5.859375
8272		0.000000
8273		-3.906250
8274		0.000000
8275		-1.953125
8276		1.953125
8277		0.000000
8278		1.953125
8279		0.000000
8280		5.859375
8281		1.953125
8282		7.812500
8283		1.953125
8284		9.765625
8285		5.859375
8286		9.765625
8287		7.812500
8288		11.718750
8289		7.812500
8290		13.671875
8291		7.812500
8292		13.671875
8293		9.765625
8294		17.578125
8295		13.671875
8296		17.578125
8297		13.671875
8298		19.531250
8299		15.625000
8300		21.484375
8301		17.578125
8302		21.484375
8303		19.531250
8304		21.484375
8305		19.531250
8306		23.437500
8307		21.484375
8308		25.390625
8309		23.437500
8310		27.343750
8311		25.390625
8312		27.343750
8313		23.437500
8314		29.296875
8315		25.390625
8316		31.250000
8317		29.296875
8318		33.203125
8319		29.296875
8320		33.203125
8321		31.250000
8322		35.156250
8323		33.203125
8324		35.156250
8325		33.203125
8326		37.109375
8327		33.203125
8328		39.062500
8329		35.156250
8330		41.015625
8331		37.109375
8332		41.015625
8333		37.109375
8334		41.015625
8335		39.062500
8336		42.968750
8337		39.062500
8338		44.921875
8339		41.015625
8340		44.921875
8341		42.968750
8342		46.875000
8343		44.921875
8344		46.875000
8345		44.921875
8346		50.781250
8347		44.921875
8348		50.781250
8349		46.875000
8350		50.781250
8351		46.875000
8352		50.781250
8353		48.828125
8354		52.734375
8355		48.828125
8356		52.734375
8357		50.781250
8358		54.687500
8359		48.828125
8360		54.687500
8361		52.734375
8362		54.687500
8363		52.734375
8364		54.687500
8365		52.734375
8366		56.640625
8367		54.687500
8368		56.640625
8369		52.734375
8370		58.593750
8371		54.687500
8372		58.593750
8373		56.640625
8374		58.593750
8375		54.687500
8376		60.546875
8377		56.640625
8378		58.593750
8379		56.640625
8380		60.546875
8381		56.640625
8382		62.500000
8383		58.593750
8384		60.546875
8385		58.593750
8386		62.500000
8387		58.593750
8388		62.500000
8389		58.593750
8390		62.500000
8391		58.593750
8392		62.500000
8393		60.546875
8394		62.500000
8395		60.546875
8396		62.500000
8397		58.593750
8398		62.500000
8399		60.546875
8400		62.500000
8401		58.593750
8402		64.453125
8403		58.593750
8404		62.500000
8405		58.593750
8406		62.500000
8407		58.593750
8408		62.500000
8409		58.593750
8410		62.500000
8411		58.593750
8412		62.500000
8413		58.593750
8414		62.500000
8415		58.593750
8416		62.500000
8417		58.593750
8418		62.500000
8419		56.640625
8420		62.500000
8421		56.640625
8422		60.546875
8423		56.640625
8424		62.500000
8425		56.640625
8426		60.546875
8427		56.640625
8428		58.593750
8429		56.640625
8430		58.593750
8431		54.687500
8432		58.593750
8433		54.687500
8434		58.593750
8435		54.687500
8436		58.593750
8437		52.734375
8438		58.593750
8439		52.734375
8440		56.640625
8441		52.734375
8442		56.640625
8443		50.781250
8444		54.687500
8445		50.781250
8446		56.640625
8447		50.781250
8448		54.687500
8449		48.828125
8450		52.734375
8451		48.828125
8452		52.734375
8453		48.828125
8454		50.781250
8455		44.921875
8456		50.781250
8457		46.875000
8458		48.828125
8459		44.921875
8460		48.828125
8461		42.968750
8462		48.828125
8463		41.015625
8464		46.875000
8465		41.015625
8466		46.875000
8467		41.015625
8468		44.921875
8469		37.109375
8470		44.921875
8471		37.109375
8472		42.968750
8473		37.109375
8474		41.015625
8475		35.156250
8476		39.062500
8477		33.203125
8478		39.062500
8479		33.203125
8480		37.109375
8481		31.250000
8482		37.109375
8483		31.250000
8484		35.156250
8485		29.296875
8486		33.203125
8487		27.343750
8488		33.203125
8489		27.343750
8490		31.250000
8491		25.390625
8492		29.296875
8493		23.437500
8494		29.296875
8495		23.437500
8496		27.343750
8497		21.484375
8498		25.390625
8499		19.531250
8500		25.390625
8501		19.531250
8502		21.484375
8503		17.578125
8504		21.484375
8505		15.625000
8506		19.531250
8507		13.671875
8508		17.578125
8509		11.718750
8510		17.578125
8511		11.718750
8512		15.625000
8513		9.765625
8514		13.671875
8515		7.812500
8516		11.718750
8517		5.859375
8518		9.765625
8519		3.906250
8520		9.765625
8521		3.906250
8522		7.812500
8523		1.953125
8524		5.859375
8525		0.000000
8526		3.906250
8527		0.000000
8528		3.906250
8529		-1.953125
8530		0.000000
8531		-5.859375
8532		1.953125
8533		-5.859375
8534		-1.953125
8535		-7.812500
8536		-3.906250
8537		-7.812500
8538		-5.859375
8539		-11.718750
8540		-5.859375
8541		-13.671875
8542		-7.812500
8543		-13.671875
8544		-9.765625
8545		-15.625000
8546		-11.718750
8547		-17.578125
8548		-11.718750
8549		-17.578125
8550		-13.671875
8551		-21.484375
8552		-13.671875
8553		-21.484375
8554		-17.578125
8555		-21.484375
8556		-17.578125
8557		-23.437500
8558		-19.531250
8559		-25.390625
8560		-21.484375
8561		-27.343750
8562		-23.437500
8563		-27.343750
8564		-21.484375
8565		-29.296875
8566		-25.390625
8567		-29.296875
8568		-27.343750
8569		-31.250000
8570		-27.343750
8571		-33.203125
8572		-29.296875
8573		-35.156250
8574		-29.296875
8575		-35.156250
8576		-31.250000
8577		-37.109375
8578		-31.250000
8579		-37.109375
8580		-33.203125
8581		-39.062500
8582		-35.156250
8583		-41.015625
8584		-35.156250
8585		-41.015625
8586		-37.109375
8587		-41.015625
8588		-39.062500
8589		-42.968750
8590		-39.062500
8591		-42.968750
8592		-41.015625
8593		-44.921875
8594		-41.015625
8595		-46.875000
8596		-41.015625
8597		-46.875000
8598		-42.968750
8599		-46.875000
8600		-42.968750
8601		-48.828125
8602		-44.921875
8603		-48.828125
8604		-44.921875
8605		-50.781250
8606		-44.921875
8607		-50.781250
8608		-46.875000
8609		-50.781250
8610		-46.875000
8611		-50.781250
8612		-46.875000
8613		-50.781250
8614		-48.828125
8615		-54.687500
8616		-46.875000
8617		-52.734375
8618		-48.828125
8619		-52.734375
8620		-48.828125
8621		-52.734375
8622		-50.781250
8623		-54.687500
8624		-50.781250
8625		-56.640625
8626		-50.781250
8627		-54.687500
8628		-48.828125
8629		-54.687500
8630		-50.781250
8631		-54.687500
8632		-50.781250
8633		-54.687500
8634		-50.781250
8635		-54.687500
8636		-50.781250
8637		-56.640625
8638		-48.828125
8639		-54.687500
8640		-50.781250
8641		-58.593750
8642		-48.828125
8643		-54.687500
8644		-50.781250
8645		-54.687500
8646		-50.781250
8647		-56.640625
8648		-48.828125
8649		-56.640625
8650		-46.875000
8651		-54.687500
8652		-50.781250
8653		-52.734375
8654		-50.781250
8655		-54.687500
8656		-46.875000
8657		-54.687500
8658		-46.875000
8659		-52.734375
8660		-48.828125
8661		-52.734375
8662		-46.875000
8663		-50.781250
8664		-48.828125
8665		-50.781250
8666		-46.875000
8667		-50.781250
8668		-46.875000
8669		-50.781250
8670		-42.968750
8671		-48.828125
8672		-44.921875
8673		-48.828125
8674		-42.968750
8675		-46.875000
8676		-42.968750
8677		-46.875000
8678		-42.968750
8679		-46.875000
8680		-39.062500
8681		-44.921875
8682		-41.015625
8683		-44.921875
8684		-39.062500
8685		-42.968750
8686		-39.062500
8687		-41.015625
8688		-37.109375
8689		-41.015625
8690		-35.156250
8691		-39.062500
8692		-35.156250
8693		-39.062500
8694		-35.156250
8695		-37.109375
8696		-33.203125
8697		-35.156250
8698		-33.203125
8699		-37.109375
8700		-31.250000
8701		-35.156250
8702		-27.343750
8703		-33.203125
8704		-29.296875
8705		-31.250000
8706		-27.343750
8707		-29.296875
8708		-27.343750
8709		-29.296875
8710		-23.437500
8711		-29.296875
8712		-21.484375
8713		-25.390625
8714		-21.484375
8715		-25.390625
8716		-19.531250
8717		-23.437500
8718		-19.531250
8719		-21.484375
8720		-17.578125
8721		-21.484375
8722		-13.671875
8723		-19.531250
8724		-15.625000
8725		-19.531250
8726		-13.671875
8727		-17.578125
8728		-11.718750
8729		-15.625000
8730		-11.718750
8731		-15.625000
8732		-7.812500
8733		-15.625000
8734		-3.906250
8735		-9.765625
8736		-5.859375
8737		-9.765625
8738		-3.906250
8739		-7.812500
8740		-3.906250
8741		-7.812500
8742		0.000000
8743		-7.812500
8744		3.906250
8745		-5.859375
8746		5.859375
8747		-3.906250
8748		1.953125
8749		0.000000
8750		3.906250
8751		1.953125
8752		5.859375
8753		-1.953125
8754		13.671875
8755		3.906250
8756		7.812500
8757		3.906250
8758		9.765625
8759		5.859375
8760		11.718750
8761		7.812500
8762		13.671875
8763		3.906250
8764		15.625000
8765		7.812500
8766		21.484375
8767		9.765625
8768		17.578125
8769		9.765625
8770		21.484375
8771		9.765625
8772		25.390625
8773		9.765625
8774		27.343750
8775		13.671875
8776		25.390625
8777		17.578125
8778		23.437500
8779		15.625000
8780		23.437500
8781		13.671875
8782		21.484375
8783		13.671875
8784		19.531250
8785		9.765625
8786		25.390625
8787		5.859375
8788		21.484375
8789		3.906250
8790		17.578125
8791		1.953125
8792		13.671875
8793		9.765625
8794		17.578125
8795		9.765625
8796		19.531250
8797		11.718750
8798		27.343750
8799		13.671875
8800		23.437500
8801		15.625000
8802		25.390625
8803		19.531250
8804		25.390625
8805		19.531250
8806		33.203125
8807		23.437500
8808		39.062500
8809		21.484375
8810		35.156250
8811		19.531250
8812		33.203125
8813		21.484375
8814		31.250000
8815		19.531250
8816		25.390625
8817		17.578125
8818		29.296875
8819		23.437500
8820		35.156250
8821		23.437500
8822		31.250000
8823		27.343750
8824		35.156250
8825		27.343750
8826		41.015625
8827		33.203125
8828		44.921875
8829		35.156250
8830		50.781250
8831		33.203125
8832		41.015625
8833		29.296875
8834		37.109375
8835		35.156250
8836		41.015625
8837		33.203125
8838		41.015625
8839		31.250000
8840		50.781250
8841		39.062500
8842		48.828125
8843		41.015625
8844		46.875000
8845		41.015625
8846		48.828125
8847		44.921875
8848		52.734375
8849		37.109375
8850		54.687500
8851		33.203125
8852		50.781250
8853		35.156250
8854		56.640625
8855		46.875000
8856		62.500000
8857		44.921875
8858		58.593750
8859		48.828125
8860		60.546875
8861		54.687500
8862		66.406250
8863		54.687500
8864		60.546875
8865		52.734375
8866		58.593750
8867		50.781250
8868		58.593750
8869		50.781250
8870		60.546875
8871		44.921875
8872		68.359375
8873		44.921875
8874		60.546875
8875		46.875000
8876		56.640625
8877		48.828125
8878		54.687500
8879		48.828125
8880		54.687500
8881		46.875000
8882		60.546875
8883		46.875000
8884		60.546875
8885		50.781250
8886		58.593750
8887		50.781250
8888		58.593750
8889		50.781250
8890		60.546875
8891		46.875000
8892		56.640625
8893		41.015625
8894		62.500000
8895		25.390625
8896		83.984375
8897		33.203125
8898		68.359375
8899		37.109375
8900		56.640625
8901		33.203125
8902		72.265625
8903		21.484375
8904		82.031250
8905		31.250000
8906		58.593750
8907		42.968750
8908		54.687500
8909		29.296875
8910		82.031250
8911		29.296875
8912		76.171875
8913		35.156250
8914		66.406250
8915		31.250000
8916		46.875000
8917		39.062500
8918		48.828125
8919		35.156250
8920		44.921875
8921		35.156250
8922		39.062500
8923		33.203125
8924		41.015625
8925		37.109375
8926		50.781250
8927		37.109375
8928		48.828125
8929		37.109375
8930		41.015625
8931		33.203125
8932		41.015625
8933		23.437500
8934		37.109375
8935		17.578125
8936		31.250000
8937		21.484375
8938		44.921875
8939		35.156250
8940		44.921875
8941		27.343750
8942		42.968750
8943		31.250000
8944		41.015625
8945		29.296875
8946		39.062500
8947		25.390625
8948		41.015625
8949		25.390625
8950		31.250000
8951		25.390625
8952		31.250000
8953		17.578125
8954		29.296875
8955		13.671875
8956		29.296875
8957		9.765625
8958		19.531250
8959		15.625000
8960		31.250000
8961		15.625000
8962		19.531250
8963		13.671875
8964		21.484375
8965		15.625000
8966		23.437500
8967		7.812500
8968		21.484375
8969		11.718750
8970		27.343750
8971		13.671875
8972		21.484375
8973		13.671875
8974		21.484375
8975		7.812500
8976		19.531250
8977		3.906250
8978		17.578125
8979		3.906250
8980		13.671875
8981		3.906250
8982		15.625000
8983		3.906250
8984		7.812500
8985		0.000000
8986		7.812500
8987		0.000000
8988		5.859375
8989		-1.953125
8990		5.859375
8991		-1.953125
8992		11.718750
8993		-3.906250
8994		17.578125
8995		-5.859375
8996		15.625000
8997		-9.765625
8998		0.000000
8999		-13.671875
9000		-3.906250
9001		-13.671875
9002		1.953125
9003		-11.718750
9004		-3.906250
9005		-11.718750
9006		-7.812500
9007		-11.718750
9008		-3.906250
9009		-13.671875
9010		-7.812500
9011		-19.531250
9012		-9.765625
9013		-15.625000
9014		-3.906250
9015		-19.531250
9016		-11.718750
9017		-29.296875
9018		-13.671875
9019		-27.343750
9020		-13.671875
9021		-21.484375
9022		-3.906250
9023		-29.296875
9024		-7.812500
9025		-29.296875
9026		-11.718750
9027		-23.437500
9028		-17.578125
9029		-27.343750
9030		-19.531250
9031		-29.296875
9032		-23.437500
9033		-33.203125
9034		-25.390625
9035		-31.250000
9036		-19.531250
9037		-37.109375
9038		-27.343750
9039		-39.062500
9040		-27.343750
9041		-39.062500
9042		-29.296875
9043		-39.062500
9044		-31.250000
9045		-42.968750
9046		-25.390625
9047		-39.062500
9048		-33.203125
9049		-44.921875
9050		-33.203125
9051		-44.921875
9052		-35.156250
9053		-42.968750
9054		-35.156250
9055		-42.968750
9056		-35.156250
9057		-46.875000
9058		-31.250000
9059		-50.781250
9060		-37.109375
9061		-48.828125
9062		-39.062500
9063		-52.734375
9064		-42.968750
9065		-52.734375
9066		-42.968750
9067		-50.781250
9068		-35.156250
9069		-50.781250
9070		-42.968750
9071		-50.781250
9072		-44.921875
9073		-52.734375
9074		-44.921875
9075		-54.687500
9076		-44.921875
9077		-58.593750
9078		-35.156250
9079		-58.593750
9080		-35.156250
9081		-56.640625
9082		-48.828125
9083		-54.687500
9084		-46.875000
9085		-56.640625
9086		-48.828125
9087		-60.546875
9088		-52.734375
9089		-56.640625
9090		-44.921875
9091		-56.640625
9092		-48.828125
9093		-58.593750
9094		-52.734375
9095		-56.640625
9096		-48.828125
9097		-58.593750
9098		-52.734375
9099		-60.546875
9100		-52.734375
9101		-64.453125
9102		-50.781250
9103		-60.546875
9104		-48.828125
9105		-58.593750
9106		-46.875000
9107		-60.546875
9108		-46.875000
9109		-58.593750
9110		-46.875000
9111		-78.125000
9112		-27.343750
9113		-78.125000
9114		-39.062500
9115		-66.406250
9116		-46.875000
9117		-58.593750
9118		-50.781250
9119		-76.171875
9120		-25.390625
9121		-70.312500
9122		-39.062500
9123		-66.406250
9124		-42.968750
9125		-68.359375
9126		-48.828125
9127		-76.171875
9128		-29.296875
9129		-66.406250
9130		-46.875000
9131		-58.593750
9132		-46.875000
9133		-58.593750
9134		-42.968750
9135		-58.593750
9136		-46.875000
9137		-56.640625
9138		-48.828125
9139		-60.546875
9140		-42.968750
9141		-68.359375
9142		-29.296875
9143		-70.312500
9144		-33.203125
9145		-56.640625
9146		-37.109375
9147		-66.406250
9148		-35.156250
9149		-70.312500
9150		-29.296875
9151		-66.406250
9152		-33.203125
9153		-60.546875
9154		-39.062500
9155		-62.500000
9156		-33.203125
9157		-60.546875
9158		-27.343750
9159		-60.546875
9160		-33.203125
9161		-44.921875
9162		-23.437500
9163		-56.640625
9164		-27.343750
9165		-62.500000
9166		-29.296875
9167		-52.734375
9168		-29.296875
9169		-50.781250
9170		-31.250000
9171		-54.687500
9172		-21.484375
9173		-50.781250
9174		-25.390625
9175		-44.921875
9176		-31.250000
9177		-44.921875
9178		-17.578125
9179		-44.921875
9180		-15.625000
9181		-48.828125
9182		-27.343750
9183		-42.968750
9184		-23.437500
9185		-42.968750
9186		-25.390625
9187		-42.968750
9188		-19.531250
9189		-29.296875
9190		-15.625000
9191		-31.250000
9192		-17.578125
9193		-27.343750
9194		-17.578125
9195		-23.437500
9196		-17.578125
9197		-29.296875
9198		-17.578125
9199		-27.343750
9200		-11.718750
9201		-21.484375
9202		-13.671875
9203		-31.250000
9204		-15.625000
9205		-31.250000
9206		-19.531250
9207		-27.343750
9208		-15.625000
9209		-23.437500
9210		-13.671875
9211		-19.531250
9212		-5.859375
9213		-17.578125
9214		-9.765625
9215		-13.671875
9216		-5.859375
9217		-15.625000
9218		-5.859375
9219		-17.578125
9220		-7.812500
9221		-13.671875
9222		5.859375
9223		-7.812500
9224		3.906250
9225		-15.625000
9226		1.953125
9227		-17.578125
9228		0.000000
9229		-7.812500
9230		0.000000
9231		-13.671875
9232		-5.859375
9233		-7.812500
9234		3.906250
9235		-3.906250
9236		1.953125
9237		-5.859375
9238		1.953125
9239		-1.953125
9240		3.906250
9241		-1.953125
9242		5.859375
9243		0.000000
9244		23.437500
9245		5.859375
9246		23.437500
9247		0.000000
9248		15.625000
9249		1.953125
9250		9.765625
9251		5.859375
9252		13.671875
9253		0.000000
9254		9.765625
9255		3.906250
9256		19.531250
9257		9.765625
9258		15.625000
9259		9.765625
9260		17.578125
9261		11.718750
9262		19.531250
9263		13.671875
9264		21.484375
9265		13.671875
9266		31.250000
9267		7.812500
9268		21.484375
9269		7.812500
9270		27.343750
9271		13.671875
9272		35.156250
9273		25.390625
9274		35.156250
9275		17.578125
9276		35.156250
9277		25.390625
9278		42.968750
9279		31.250000
9280		39.062500
9281		29.296875
9282		35.156250
9283		31.250000
9284		37.109375
9285		29.296875
9286		37.109375
9287		19.531250
9288		39.062500
9289		21.484375
9290		35.156250
9291		23.437500
9292		35.156250
9293		29.296875
9294		35.156250
9295		29.296875
9296		37.109375
9297		31.250000
9298		41.015625
9299		33.203125
9300		48.828125
9301		35.156250
9302		44.921875
9303		33.203125
9304		44.921875
9305		33.203125
9306		66.406250
9307		23.437500
9308		70.312500
9309		27.343750
9310		54.687500
9311		33.203125
9312		50.781250
9313		17.578125
9314		66.406250
9315		21.484375
9316		58.593750
9317		31.250000
9318		50.781250
9319		37.109375
9320		46.875000
9321		21.484375
9322		66.406250
9323		37.109375
9324		58.593750
9325		37.109375
9326		52.734375
9327		42.968750
9328		76.171875
9329		33.203125
9330		76.171875
9331		31.250000
9332		50.781250
9333		39.062500
9334		52.734375
9335		42.968750
9336		50.781250
9337		41.015625
9338		48.828125
9339		41.015625
9340		48.828125
9341		44.921875
9342		50.781250
9343		41.015625
9344		58.593750
9345		44.921875
9346		52.734375
9347		46.875000
9348		52.734375
9349		42.968750
9350		54.687500
9351		37.109375
9352		54.687500
9353		37.109375
9354		56.640625
9355		46.875000
9356		64.453125
9357		50.781250
9358		64.453125
9359		46.875000
9360		60.546875
9361		52.734375
9362		58.593750
9363		50.781250
9364		56.640625
9365		46.875000
9366		62.500000
9367		48.828125
9368		58.593750
9369		42.968750
9370		56.640625
9371		37.109375
9372		48.828125
9373		39.062500
9374		46.875000
9375		39.062500
9376		50.781250
9377		41.015625
9378		56.640625
9379		41.015625
9380		48.828125
9381		44.921875
9382		52.734375
9383		44.921875
9384		52.734375
9385		41.015625
9386		50.781250
9387		37.109375
9388		56.640625
9389		44.921875
9390		58.593750
9391		39.062500
9392		50.781250
9393		35.156250
9394		48.828125
9395		41.015625
9396		48.828125
9397		35.156250
9398		44.921875
9399		37.109375
9400		48.828125
9401		37.109375
9402		44.921875
9403		37.109375
9404		44.921875
9405		37.109375
9406		44.921875
9407		39.062500
9408		46.875000
9409		31.250000
9410		48.828125
9411		31.250000
9412		48.828125
9413		31.250000
9414		46.875000
9415		31.250000
9416		39.062500
9417		31.250000
9418		39.062500
9419		31.250000
9420		37.109375
9421		27.343750
9422		42.968750
9423		29.296875
9424		35.156250
9425		25.390625
9426		33.203125
9427		21.484375
9428		31.250000
9429		23.437500
9430		29.296875
9431		21.484375
9432		29.296875
9433		19.531250
9434		35.156250
9435		15.625000
9436		31.250000
9437		19.531250
9438		31.250000
9439		21.484375
9440		27.343750
9441		15.625000
9442		25.390625
9443		7.812500
9444		29.296875
9445		17.578125
9446		29.296875
9447		13.671875
9448		21.484375
9449		11.718750
9450		19.531250
9451		11.718750
9452		19.531250
9453		3.906250
9454		13.671875
9455		5.859375
9456		21.484375
9457		5.859375
9458		11.718750
9459		3.906250
9460		11.718750
9461		1.953125
9462		9.765625
9463		1.953125
9464		7.812500
9465		-1.953125
9466		7.812500
9467		0.000000
9468		13.671875
9469		-5.859375
9470		3.906250
9471		-5.859375
9472		3.906250
9473		-7.812500
9474		3.906250
9475		-11.718750
9476		1.953125
9477		-13.671875
9478		3.906250
9479		-11.718750
9480		-1.953125
9481		-11.718750
9482		-5.859375
9483		-13.671875
9484		-7.812500
9485		-15.625000
9486		-7.812500
9487		-19.531250
9488		-11.718750
9489		-19.531250
9490		-5.859375
9491		-17.578125
9492		-9.765625
9493		-23.437500
9494		-11.718750
9495		-25.390625
9496		-5.859375
9497		-25.390625
9498		-19.531250
9499		-31.250000
9500		-19.531250
9501		-27.343750
9502		-9.765625
9503		-29.296875
9504		-23.437500
9505		-31.250000
9506		-23.437500
9507		-31.250000
9508		-25.390625
9509		-33.203125
9510		-25.390625
9511		-37.109375
9512		-19.531250
9513		-33.203125
9514		-27.343750
9515		-39.062500
9516		-31.250000
9517		-37.109375
9518		-29.296875
9519		-41.015625
9520		-29.296875
9521		-42.968750
9522		-29.296875
9523		-41.015625
9524		-25.390625
9525		-44.921875
9526		-31.250000
9527		-42.968750
9528		-33.203125
9529		-42.968750
9530		-35.156250
9531		-44.921875
9532		-37.109375
9533		-52.734375
9534		-39.062500
9535		-48.828125
9536		-35.156250
9537		-52.734375
9538		-41.015625
9539		-50.781250
9540		-42.968750
9541		-52.734375
9542		-42.968750
9543		-50.781250
9544		-41.015625
9545		-66.406250
9546		-23.437500
9547		-68.359375
9548		-33.203125
9549		-58.593750
9550		-41.015625
9551		-54.687500
9552		-46.875000
9553		-72.265625
9554		-21.484375
9555		-64.453125
9556		-37.109375
9557		-66.406250
9558		-42.968750
9559		-64.453125
9560		-46.875000
9561		-70.312500
9562		-29.296875
9563		-66.406250
9564		-48.828125
9565		-62.500000
9566		-50.781250
9567		-74.218750
9568		-33.203125
9569		-72.265625
9570		-41.015625
9571		-64.453125
9572		-50.781250
9573		-60.546875
9574		-48.828125
9575		-74.218750
9576		-35.156250
9577		-64.453125
9578		-42.968750
9579		-64.453125
9580		-39.062500
9581		-60.546875
9582		-50.781250
9583		-60.546875
9584		-54.687500
9585		-58.593750
9586		-50.781250
9587		-62.500000
9588		-52.734375
9589		-64.453125
9590		-54.687500
9591		-60.546875
9592		-46.875000
9593		-58.593750
9594		-52.734375
9595		-58.593750
9596		-52.734375
9597		-62.500000
9598		-52.734375
9599		-64.453125
9600		-52.734375
9601		-62.500000
9602		-44.921875
9603		-58.593750
9604		-39.062500
9605		-56.640625
9606		-46.875000
9607		-50.781250
9608		-39.062500
9609		-58.593750
9610		-42.968750
9611		-54.687500
9612		-42.968750
9613		-54.687500
9614		-37.109375
9615		-54.687500
9616		-42.968750
9617		-52.734375
9618		-41.015625
9619		-58.593750
9620		-44.921875
9621		-58.593750
9622		-48.828125
9623		-58.593750
9624		-48.828125
9625		-54.687500
9626		-41.015625
9627		-52.734375
9628		-41.015625
9629		-52.734375
9630		-42.968750
9631		-50.781250
9632		-42.968750
9633		-46.875000
9634		-39.062500
9635		-44.921875
9636		-39.062500
9637		-44.921875
9638		-29.296875
9639		-48.828125
9640		-33.203125
9641		-48.828125
9642		-33.203125
9643		-46.875000
9644		-31.250000
9645		-44.921875
9646		-33.203125
9647		-46.875000
9648		-29.296875
9649		-39.062500
9650		-33.203125
9651		-39.062500
9652		-31.250000
9653		-39.062500
9654		-31.250000
9655		-37.109375
9656		-27.343750
9657		-33.203125
9658		-21.484375
9659		-37.109375
9660		-19.531250
9661		-33.203125
9662		-15.625000
9663		-27.343750
9664		-15.625000
9665		-31.250000
9666		-25.390625
9667		-29.296875
9668		-19.531250
9669		-29.296875
9670		-17.578125
9671		-25.390625
9672		-13.671875
9673		-25.390625
9674		-17.578125
9675		-23.437500
9676		-15.625000
9677		-19.531250
9678		-11.718750
9679		-17.578125
9680		-9.765625
9681		-21.484375
9682		-9.765625
9683		-23.437500
9684		-5.859375
9685		-11.718750
9686		1.953125
9687		-15.625000
9688		1.953125
9689		-13.671875
9690		0.000000
9691		-7.812500
9692		5.859375
9693		-9.765625
9694		7.812500
9695		-5.859375
9696		7.812500
9697		-1.953125
9698		5.859375
9699		-5.859375
9700		5.859375
9701		-1.953125
9702		5.859375
9703		-9.765625
9704		7.812500
9705		-5.859375
9706		7.812500
9707		-3.906250
9708		9.765625
9709		-1.953125
9710		7.812500
9711		0.000000
9712		11.718750
9713		3.906250
9714		13.671875
9715		3.906250
9716		13.671875
9717		9.765625
9718		21.484375
9719		11.718750
9720		19.531250
9721		11.718750
9722		27.343750
9723		11.718750
9724		23.437500
9725		11.718750
9726		27.343750
9727		15.625000
9728		25.390625
9729		15.625000
9730		27.343750
9731		15.625000
9732		23.437500
9733		17.578125
9734		27.343750
9735		19.531250
9736		29.296875
9737		21.484375
9738		27.343750
9739		21.484375
9740		42.968750
9741		19.531250
9742		35.156250
9743		19.531250
9744		37.109375
9745		27.343750
9746		44.921875
9747		27.343750
9748		42.968750
9749		25.390625
9750		37.109375
9751		29.296875
9752		46.875000
9753		31.250000
9754		41.015625
9755		27.343750
9756		37.109375
9757		29.296875
9758		37.109375
9759		29.296875
9760		41.015625
9761		35.156250
9762		44.921875
9763		37.109375
9764		50.781250
9765		29.296875
9766		42.968750
9767		37.109375
9768		48.828125
9769		41.015625
9770		54.687500
9771		35.156250
9772		48.828125
9773		44.921875
9774		50.781250
9775		46.875000
9776		60.546875
9777		42.968750
9778		54.687500
9779		46.875000
9780		54.687500
9781		46.875000
9782		56.640625
9783		44.921875
9784		56.640625
9785		42.968750
9786		60.546875
9787		27.343750
9788		64.453125
9789		29.296875
9790		66.406250
9791		39.062500
9792		70.312500
9793		35.156250
9794		80.078125
9795		33.203125
9796		80.078125
9797		33.203125
9798		83.984375
9799		33.203125
9800		74.218750
9801		35.156250
9802		82.031250
9803		33.203125
9804		76.171875
9805		27.343750
9806		89.843750
9807		33.203125
9808		80.078125
9809		35.156250
9810		80.078125
9811		21.484375
9812		74.218750
9813		31.250000
9814		74.218750
9815		35.156250
9816		76.171875
9817		41.015625
9818		72.265625
9819		31.250000
9820		80.078125
9821		35.156250
9822		89.843750
9823		42.968750
9824		76.171875
9825		46.875000
9826		64.453125
9827		46.875000
9828		64.453125
9829		54.687500
9830		68.359375
9831		46.875000
9832		58.593750
9833		48.828125
9834		62.500000
9835		52.734375
9836		58.593750
9837		50.781250
9838		56.640625
9839		50.781250
9840		56.640625
9841		50.781250
9842		56.640625
9843		46.875000
9844		56.640625
9845		50.781250
9846		64.453125
9847		46.875000
9848		56.640625
9849		46.875000
9850		60.546875
9851		48.828125
9852		58.593750
9853		46.875000
9854		60.546875
9855		39.062500
9856		60.546875
9857		48.828125
9858		56.640625
9859		44.921875
9860		56.640625
9861		44.921875
9862		56.640625
9863		46.875000
9864		54.687500
9865		41.015625
9866		52.734375
9867		42.968750
9868		56.640625
9869		35.156250
9870		52.734375
9871		37.109375
9872		46.875000
9873		37.109375
9874		42.968750
9875		37.109375
9876		44.921875
9877		33.203125
9878		44.921875
9879		35.156250
9880		50.781250
9881		37.109375
9882		46.875000
9883		35.156250
9884		41.015625
9885		35.156250
9886		42.968750
9887		31.250000
9888		42.968750
9889		19.531250
9890		39.062500
9891		27.343750
9892		46.875000
9893		29.296875
9894		35.156250
9895		23.437500
9896		33.203125
9897		25.390625
9898		33.203125
9899		25.390625
9900		33.203125
9901		21.484375
9902		33.203125
9903		23.437500
9904		37.109375
9905		23.437500
9906		35.156250
9907		17.578125
9908		27.343750
9909		15.625000
9910		27.343750
9911		11.718750
9912		31.250000
9913		13.671875
9914		29.296875
9915		13.671875
9916		29.296875
9917		13.671875
9918		23.437500
9919		11.718750
9920		21.484375
9921		11.718750
9922		17.578125
9923		9.765625
9924		15.625000
9925		5.859375
9926		15.625000
9927		7.812500
9928		21.484375
9929		5.859375
9930		11.718750
9931		-1.953125
9932		9.765625
9933		0.000000
9934		13.671875
9935		1.953125
9936		13.671875
9937		-3.906250
9938		11.718750
9939		-3.906250
9940		5.859375
9941		-1.953125
9942		5.859375
9943		-11.718750
9944		3.906250
9945		-7.812500
9946		1.953125
9947		-7.812500
9948		0.000000
9949		-13.671875
9950		3.906250
9951		-13.671875
9952		-3.906250
9953		-19.531250
9954		-7.812500
9955		-15.625000
9956		-5.859375
9957		-13.671875
9958		-5.859375
9959		-17.578125
9960		-9.765625
9961		-19.531250
9962		-3.906250
9963		-19.531250
9964		-9.765625
9965		-21.484375
9966		-13.671875
9967		-23.437500
9968		-15.625000
9969		-23.437500
9970		-17.578125
9971		-29.296875
9972		-15.625000
9973		-27.343750
9974		-11.718750
9975		-29.296875
9976		-21.484375
9977		-29.296875
9978		-23.437500
9979		-31.250000
9980		-25.390625
9981		-31.250000
9982		-25.390625
9983		-37.109375
9984		-27.343750
9985		-35.156250
9986		-23.437500
9987		-33.203125
9988		-29.296875
9989		-37.109375
9990		-29.296875
9991		-41.015625
9992		-31.250000
9993		-42.968750
9994		-29.296875
9995		-46.875000
9996		-27.343750
9997		-42.968750
9998		-25.390625
9999		-44.921875
10000		-35.156250
