Channel              :		CH1
Frequency            :		1.061kHz
Period               :		0.943ms
PK-PK                :		183.6mV
Probe attenuation    :		1X
Voltage per ADC value:		0.122070mV
Time interval        :		2.00000us

index		CH1_Voltage(mV)
1		27.343750
2		27.343750
3		31.250000
4		25.390625
5		29.296875
6		23.437500
7		27.343750
8		19.531250
9		23.437500
10		17.578125
11		23.437500
12		15.625000
13		19.531250
14		13.671875
15		17.578125
16		11.718750
17		15.625000
18		9.765625
19		13.671875
20		7.812500
21		11.718750
22		5.859375
23		9.765625
24		3.906250
25		7.812500
26		0.000000
27		3.906250
28		-1.953125
29		3.906250
30		-3.906250
31		0.000000
32		-5.859375
33		-1.953125
34		-9.765625
35		-3.906250
36		-11.718750
37		-5.859375
38		-13.671875
39		-7.812500
40		-15.625000
41		-11.718750
42		-17.578125
43		-13.671875
44		-21.484375
45		-15.625000
46		-23.437500
47		-17.578125
48		-25.390625
49		-21.484375
50		-27.343750
51		-23.437500
52		-29.296875
53		-25.390625
54		-33.203125
55		-27.343750
56		-35.156250
57		-29.296875
58		-37.109375
59		-33.203125
60		-39.062500
61		-35.156250
62		-42.968750
63		-37.109375
64		-42.968750
65		-39.062500
66		-44.921875
67		-41.015625
68		-48.828125
69		-42.968750
70		-50.781250
71		-44.921875
72		-52.734375
73		-46.875000
74		-54.687500
75		-50.781250
76		-56.640625
77		-52.734375
78		-58.593750
79		-54.687500
80		-60.546875
81		-56.640625
82		-62.500000
83		-58.593750
84		-64.453125
85		-60.546875
86		-66.406250
87		-62.500000
88		-68.359375
89		-64.453125
90		-70.312500
91		-64.453125
92		-72.265625
93		-68.359375
94		-74.218750
95		-68.359375
96		-74.218750
97		-70.312500
98		-76.171875
99		-72.265625
100		-78.125000
101		-74.218750
102		-80.078125
103		-76.171875
104		-80.078125
105		-78.125000
106		-82.031250
107		-78.125000
108		-83.984375
109		-80.078125
110		-83.984375
111		-82.031250
112		-85.937500
113		-82.031250
114		-89.843750
115		-83.984375
116		-89.843750
117		-85.937500
118		-89.843750
119		-85.937500
120		-89.843750
121		-87.890625
122		-91.796875
123		-87.890625
124		-91.796875
125		-89.843750
126		-93.750000
127		-89.843750
128		-93.750000
129		-91.796875
130		-95.703125
131		-91.796875
132		-95.703125
133		-91.796875
134		-95.703125
135		-93.750000
136		-95.703125
137		-93.750000
138		-97.656250
139		-93.750000
140		-97.656250
141		-93.750000
142		-97.656250
143		-95.703125
144		-99.609375
145		-95.703125
146		-97.656250
147		-95.703125
148		-97.656250
149		-95.703125
150		-99.609375
151		-93.750000
152		-99.609375
153		-95.703125
154		-99.609375
155		-95.703125
156		-99.609375
157		-93.750000
158		-97.656250
159		-95.703125
160		-97.656250
161		-93.750000
162		-97.656250
163		-93.750000
164		-97.656250
165		-93.750000
166		-97.656250
167		-93.750000
168		-95.703125
169		-91.796875
170		-95.703125
171		-91.796875
172		-93.750000
173		-91.796875
174		-95.703125
175		-89.843750
176		-91.796875
177		-89.843750
178		-91.796875
179		-87.890625
180		-91.796875
181		-87.890625
182		-89.843750
183		-85.937500
184		-89.843750
185		-85.937500
186		-87.890625
187		-83.984375
188		-87.890625
189		-82.031250
190		-85.937500
191		-82.031250
192		-83.984375
193		-80.078125
194		-82.031250
195		-80.078125
196		-82.031250
197		-78.125000
198		-80.078125
199		-76.171875
200		-78.125000
201		-74.218750
202		-76.171875
203		-72.265625
204		-74.218750
205		-70.312500
206		-74.218750
207		-70.312500
208		-72.265625
209		-68.359375
210		-70.312500
211		-66.406250
212		-68.359375
213		-64.453125
214		-66.406250
215		-62.500000
216		-64.453125
217		-60.546875
218		-62.500000
219		-56.640625
220		-60.546875
221		-56.640625
222		-58.593750
223		-54.687500
224		-56.640625
225		-52.734375
226		-54.687500
227		-50.781250
228		-52.734375
229		-46.875000
230		-50.781250
231		-44.921875
232		-48.828125
233		-44.921875
234		-46.875000
235		-41.015625
236		-42.968750
237		-39.062500
238		-42.968750
239		-37.109375
240		-39.062500
241		-35.156250
242		-37.109375
243		-33.203125
244		-35.156250
245		-31.250000
246		-33.203125
247		-27.343750
248		-29.296875
249		-25.390625
250		-27.343750
251		-23.437500
252		-25.390625
253		-21.484375
254		-23.437500
255		-19.531250
256		-21.484375
257		-15.625000
258		-19.531250
259		-13.671875
260		-15.625000
261		-11.718750
262		-13.671875
263		-9.765625
264		-11.718750
265		-5.859375
266		-9.765625
267		-5.859375
268		-7.812500
269		-1.953125
270		-3.906250
271		0.000000
272		-1.953125
273		1.953125
274		0.000000
275		3.906250
276		1.953125
277		5.859375
278		3.906250
279		7.812500
280		5.859375
281		11.718750
282		7.812500
283		13.671875
284		11.718750
285		15.625000
286		13.671875
287		17.578125
288		15.625000
289		19.531250
290		17.578125
291		21.484375
292		19.531250
293		23.437500
294		21.484375
295		25.390625
296		23.437500
297		27.343750
298		25.390625
299		31.250000
300		27.343750
301		31.250000
302		29.296875
303		33.203125
304		31.250000
305		35.156250
306		33.203125
307		37.109375
308		35.156250
309		39.062500
310		37.109375
311		41.015625
312		39.062500
313		42.968750
314		41.015625
315		44.921875
316		42.968750
317		46.875000
318		44.921875
319		48.828125
320		44.921875
321		48.828125
322		46.875000
323		50.781250
324		48.828125
325		52.734375
326		50.781250
327		54.687500
328		52.734375
329		54.687500
330		52.734375
331		56.640625
332		54.687500
333		58.593750
334		56.640625
335		60.546875
336		56.640625
337		60.546875
338		58.593750
339		62.500000
340		60.546875
341		62.500000
342		60.546875
343		64.453125
344		62.500000
345		66.406250
346		62.500000
347		66.406250
348		64.453125
349		68.359375
350		64.453125
351		68.359375
352		66.406250
353		70.312500
354		66.406250
355		70.312500
356		68.359375
357		70.312500
358		68.359375
359		72.265625
360		70.312500
361		72.265625
362		70.312500
363		74.218750
364		68.359375
365		74.218750
366		70.312500
367		74.218750
368		72.265625
369		74.218750
370		72.265625
371		76.171875
372		72.265625
373		76.171875
374		72.265625
375		76.171875
376		72.265625
377		76.171875
378		74.218750
379		76.171875
380		74.218750
381		78.125000
382		74.218750
383		76.171875
384		74.218750
385		76.171875
386		74.218750
387		78.125000
388		74.218750
389		78.125000
390		74.218750
391		78.125000
392		72.265625
393		78.125000
394		74.218750
395		76.171875
396		74.218750
397		76.171875
398		72.265625
399		76.171875
400		72.265625
401		76.171875
402		72.265625
403		76.171875
404		72.265625
405		74.218750
406		72.265625
407		74.218750
408		70.312500
409		74.218750
410		70.312500
411		74.218750
412		70.312500
413		72.265625
414		68.359375
415		72.265625
416		68.359375
417		72.265625
418		66.406250
419		70.312500
420		66.406250
421		70.312500
422		66.406250
423		70.312500
424		64.453125
425		68.359375
426		62.500000
427		68.359375
428		62.500000
429		66.406250
430		60.546875
431		64.453125
432		60.546875
433		64.453125
434		58.593750
435		62.500000
436		58.593750
437		62.500000
438		56.640625
439		60.546875
440		54.687500
441		58.593750
442		52.734375
443		58.593750
444		52.734375
445		56.640625
446		50.781250
447		54.687500
448		48.828125
449		52.734375
450		46.875000
451		50.781250
452		44.921875
453		50.781250
454		44.921875
455		48.828125
456		42.968750
457		46.875000
458		39.062500
459		44.921875
460		39.062500
461		42.968750
462		37.109375
463		41.015625
464		35.156250
465		39.062500
466		33.203125
467		37.109375
468		31.250000
469		35.156250
470		29.296875
471		33.203125
472		27.343750
473		31.250000
474		25.390625
475		29.296875
476		23.437500
477		27.343750
478		21.484375
479		25.390625
480		19.531250
481		23.437500
482		17.578125
483		21.484375
484		15.625000
485		19.531250
486		11.718750
487		17.578125
488		9.765625
489		15.625000
490		7.812500
491		11.718750
492		3.906250
493		9.765625
494		3.906250
495		7.812500
496		1.953125
497		5.859375
498		-1.953125
499		3.906250
500		-3.906250
501		1.953125
502		-5.859375
503		-1.953125
504		-7.812500
505		-3.906250
506		-9.765625
507		-5.859375
508		-13.671875
509		-7.812500
510		-15.625000
511		-11.718750
512		-17.578125
513		-13.671875
514		-19.531250
515		-15.625000
516		-21.484375
517		-17.578125
518		-25.390625
519		-19.531250
520		-27.343750
521		-21.484375
522		-29.296875
523		-25.390625
524		-31.250000
525		-27.343750
526		-35.156250
527		-29.296875
528		-37.109375
529		-31.250000
530		-39.062500
531		-33.203125
532		-41.015625
533		-37.109375
534		-42.968750
535		-39.062500
536		-44.921875
537		-41.015625
538		-46.875000
539		-42.968750
540		-48.828125
541		-44.921875
542		-52.734375
543		-46.875000
544		-54.687500
545		-48.828125
546		-54.687500
547		-50.781250
548		-58.593750
549		-52.734375
550		-60.546875
551		-56.640625
552		-62.500000
553		-58.593750
554		-64.453125
555		-60.546875
556		-66.406250
557		-60.546875
558		-68.359375
559		-64.453125
560		-70.312500
561		-64.453125
562		-72.265625
563		-66.406250
564		-72.265625
565		-68.359375
566		-74.218750
567		-70.312500
568		-76.171875
569		-72.265625
570		-78.125000
571		-74.218750
572		-80.078125
573		-76.171875
574		-82.031250
575		-76.171875
576		-82.031250
577		-78.125000
578		-83.984375
579		-80.078125
580		-85.937500
581		-82.031250
582		-87.890625
583		-82.031250
584		-87.890625
585		-83.984375
586		-87.890625
587		-85.937500
588		-89.843750
589		-85.937500
590		-91.796875
591		-87.890625
592		-91.796875
593		-87.890625
594		-93.750000
595		-89.843750
596		-93.750000
597		-89.843750
598		-95.703125
599		-89.843750
600		-95.703125
601		-91.796875
602		-95.703125
603		-91.796875
604		-95.703125
605		-93.750000
606		-97.656250
607		-93.750000
608		-99.609375
609		-93.750000
610		-99.609375
611		-95.703125
612		-99.609375
613		-95.703125
614		-99.609375
615		-95.703125
616		-99.609375
617		-95.703125
618		-99.609375
619		-95.703125
620		-99.609375
621		-95.703125
622		-99.609375
623		-95.703125
624		-99.609375
625		-95.703125
626		-99.609375
627		-95.703125
628		-99.609375
629		-93.750000
630		-99.609375
631		-95.703125
632		-99.609375
633		-95.703125
634		-97.656250
635		-95.703125
636		-97.656250
637		-93.750000
638		-97.656250
639		-93.750000
640		-95.703125
641		-93.750000
642		-95.703125
643		-91.796875
644		-95.703125
645		-91.796875
646		-93.750000
647		-91.796875
648		-93.750000
649		-89.843750
650		-93.750000
651		-89.843750
652		-91.796875
653		-87.890625
654		-89.843750
655		-87.890625
656		-89.843750
657		-85.937500
658		-87.890625
659		-83.984375
660		-87.890625
661		-83.984375
662		-85.937500
663		-82.031250
664		-83.984375
665		-80.078125
666		-83.984375
667		-78.125000
668		-82.031250
669		-78.125000
670		-80.078125
671		-76.171875
672		-78.125000
673		-74.218750
674		-78.125000
675		-72.265625
676		-76.171875
677		-70.312500
678		-74.218750
679		-70.312500
680		-72.265625
681		-68.359375
682		-70.312500
683		-64.453125
684		-68.359375
685		-64.453125
686		-66.406250
687		-62.500000
688		-64.453125
689		-60.546875
690		-62.500000
691		-58.593750
692		-60.546875
693		-56.640625
694		-58.593750
695		-52.734375
696		-56.640625
697		-52.734375
698		-54.687500
699		-50.781250
700		-52.734375
701		-46.875000
702		-50.781250
703		-46.875000
704		-48.828125
705		-42.968750
706		-46.875000
707		-41.015625
708		-44.921875
709		-39.062500
710		-41.015625
711		-37.109375
712		-39.062500
713		-35.156250
714		-37.109375
715		-33.203125
716		-35.156250
717		-29.296875
718		-33.203125
719		-27.343750
720		-31.250000
721		-25.390625
722		-27.343750
723		-23.437500
724		-25.390625
725		-19.531250
726		-23.437500
727		-19.531250
728		-21.484375
729		-15.625000
730		-19.531250
731		-13.671875
732		-15.625000
733		-11.718750
734		-13.671875
735		-9.765625
736		-11.718750
737		-7.812500
738		-9.765625
739		-3.906250
740		-7.812500
741		-1.953125
742		-3.906250
743		0.000000
744		-1.953125
745		1.953125
746		-1.953125
747		3.906250
748		1.953125
749		5.859375
750		3.906250
751		9.765625
752		5.859375
753		11.718750
754		9.765625
755		13.671875
756		11.718750
757		15.625000
758		13.671875
759		17.578125
760		15.625000
761		19.531250
762		17.578125
763		21.484375
764		19.531250
765		23.437500
766		21.484375
767		25.390625
768		23.437500
769		27.343750
770		25.390625
771		29.296875
772		27.343750
773		31.250000
774		29.296875
775		33.203125
776		31.250000
777		35.156250
778		33.203125
779		37.109375
780		35.156250
781		39.062500
782		37.109375
783		41.015625
784		37.109375
785		42.968750
786		41.015625
787		44.921875
788		42.968750
789		46.875000
790		44.921875
791		48.828125
792		44.921875
793		48.828125
794		46.875000
795		50.781250
796		48.828125
797		52.734375
798		50.781250
799		54.687500
800		50.781250
801		56.640625
802		52.734375
803		56.640625
804		54.687500
805		58.593750
806		56.640625
807		60.546875
808		56.640625
809		60.546875
810		58.593750
811		62.500000
812		58.593750
813		64.453125
814		60.546875
815		64.453125
816		62.500000
817		66.406250
818		62.500000
819		66.406250
820		64.453125
821		68.359375
822		64.453125
823		68.359375
824		66.406250
825		70.312500
826		66.406250
827		70.312500
828		66.406250
829		72.265625
830		68.359375
831		72.265625
832		68.359375
833		72.265625
834		70.312500
835		74.218750
836		70.312500
837		74.218750
838		70.312500
839		74.218750
840		70.312500
841		76.171875
842		72.265625
843		74.218750
844		72.265625
845		76.171875
846		72.265625
847		78.125000
848		72.265625
849		76.171875
850		72.265625
851		76.171875
852		74.218750
853		76.171875
854		74.218750
855		76.171875
856		72.265625
857		76.171875
858		74.218750
859		76.171875
860		74.218750
861		78.125000
862		72.265625
863		76.171875
864		74.218750
865		76.171875
866		72.265625
867		76.171875
868		72.265625
869		76.171875
870		72.265625
871		76.171875
872		72.265625
873		76.171875
874		72.265625
875		74.218750
876		70.312500
877		74.218750
878		70.312500
879		74.218750
880		70.312500
881		74.218750
882		70.312500
883		72.265625
884		68.359375
885		72.265625
886		68.359375
887		72.265625
888		68.359375
889		72.265625
890		66.406250
891		70.312500
892		64.453125
893		68.359375
894		64.453125
895		68.359375
896		62.500000
897		68.359375
898		62.500000
899		66.406250
900		60.546875
901		66.406250
902		60.546875
903		64.453125
904		58.593750
905		62.500000
906		58.593750
907		62.500000
908		56.640625
909		60.546875
910		54.687500
911		58.593750
912		54.687500
913		58.593750
914		52.734375
915		56.640625
916		50.781250
917		54.687500
918		48.828125
919		52.734375
920		46.875000
921		52.734375
922		46.875000
923		50.781250
924		44.921875
925		48.828125
926		42.968750
927		46.875000
928		41.015625
929		44.921875
930		39.062500
931		42.968750
932		37.109375
933		42.968750
934		35.156250
935		41.015625
936		33.203125
937		39.062500
938		31.250000
939		37.109375
940		29.296875
941		35.156250
942		27.343750
943		33.203125
944		25.390625
945		31.250000
946		23.437500
947		29.296875
948		21.484375
949		25.390625
950		19.531250
951		23.437500
952		17.578125
953		21.484375
954		15.625000
955		19.531250
956		13.671875
957		17.578125
958		9.765625
959		15.625000
960		7.812500
961		13.671875
962		5.859375
963		11.718750
964		3.906250
965		9.765625
966		1.953125
967		5.859375
968		0.000000
969		3.906250
970		-1.953125
971		1.953125
972		-5.859375
973		0.000000
974		-7.812500
975		-1.953125
976		-9.765625
977		-3.906250
978		-11.718750
979		-7.812500
980		-13.671875
981		-9.765625
982		-15.625000
983		-11.718750
984		-19.531250
985		-13.671875
986		-21.484375
987		-15.625000
988		-25.390625
989		-17.578125
990		-25.390625
991		-19.531250
992		-29.296875
993		-23.437500
994		-31.250000
995		-25.390625
996		-33.203125
997		-27.343750
998		-35.156250
999		-31.250000
1000		-37.109375
1001		-33.203125
1002		-41.015625
1003		-35.156250
1004		-42.968750
1005		-35.156250
1006		-46.875000
1007		-39.062500
1008		-48.828125
1009		-41.015625
1010		-48.828125
1011		-42.968750
1012		-52.734375
1013		-44.921875
1014		-52.734375
1015		-48.828125
1016		-54.687500
1017		-50.781250
1018		-56.640625
1019		-52.734375
1020		-60.546875
1021		-52.734375
1022		-64.453125
1023		-54.687500
1024		-64.453125
1025		-58.593750
1026		-66.406250
1027		-60.546875
1028		-68.359375
1029		-62.500000
1030		-70.312500
1031		-64.453125
1032		-70.312500
1033		-66.406250
1034		-72.265625
1035		-68.359375
1036		-76.171875
1037		-70.312500
1038		-78.125000
1039		-70.312500
1040		-78.125000
1041		-72.265625
1042		-80.078125
1043		-74.218750
1044		-83.984375
1045		-76.171875
1046		-83.984375
1047		-76.171875
1048		-83.984375
1049		-78.125000
1050		-83.984375
1051		-82.031250
1052		-87.890625
1053		-82.031250
1054		-89.843750
1055		-82.031250
1056		-89.843750
1057		-83.984375
1058		-91.796875
1059		-83.984375
1060		-93.750000
1061		-85.937500
1062		-93.750000
1063		-87.890625
1064		-93.750000
1065		-87.890625
1066		-93.750000
1067		-89.843750
1068		-93.750000
1069		-91.796875
1070		-97.656250
1071		-89.843750
1072		-97.656250
1073		-91.796875
1074		-99.609375
1075		-91.796875
1076		-99.609375
1077		-91.796875
1078		-99.609375
1079		-91.796875
1080		-99.609375
1081		-93.750000
1082		-97.656250
1083		-95.703125
1084		-99.609375
1085		-95.703125
1086		-99.609375
1087		-95.703125
1088		-101.562500
1089		-93.750000
1090		-101.562500
1091		-95.703125
1092		-101.562500
1093		-93.750000
1094		-101.562500
1095		-93.750000
1096		-101.562500
1097		-93.750000
1098		-101.562500
1099		-95.703125
1100		-99.609375
1101		-95.703125
1102		-99.609375
1103		-95.703125
1104		-101.562500
1105		-93.750000
1106		-99.609375
1107		-91.796875
1108		-99.609375
1109		-93.750000
1110		-99.609375
1111		-91.796875
1112		-97.656250
1113		-91.796875
1114		-97.656250
1115		-91.796875
1116		-95.703125
1117		-91.796875
1118		-93.750000
1119		-89.843750
1120		-93.750000
1121		-87.890625
1122		-95.703125
1123		-85.937500
1124		-93.750000
1125		-85.937500
1126		-91.796875
1127		-85.937500
1128		-89.843750
1129		-83.984375
1130		-89.843750
1131		-83.984375
1132		-89.843750
1133		-82.031250
1134		-85.937500
1135		-82.031250
1136		-85.937500
1137		-80.078125
1138		-83.984375
1139		-76.171875
1140		-83.984375
1141		-74.218750
1142		-82.031250
1143		-74.218750
1144		-80.078125
1145		-72.265625
1146		-80.078125
1147		-72.265625
1148		-76.171875
1149		-68.359375
1150		-74.218750
1151		-68.359375
1152		-70.312500
1153		-66.406250
1154		-72.265625
1155		-64.453125
1156		-70.312500
1157		-62.500000
1158		-68.359375
1159		-60.546875
1160		-66.406250
1161		-58.593750
1162		-64.453125
1163		-56.640625
1164		-62.500000
1165		-52.734375
1166		-58.593750
1167		-52.734375
1168		-56.640625
1169		-50.781250
1170		-54.687500
1171		-48.828125
1172		-54.687500
1173		-44.921875
1174		-50.781250
1175		-42.968750
1176		-48.828125
1177		-41.015625
1178		-46.875000
1179		-39.062500
1180		-44.921875
1181		-37.109375
1182		-42.968750
1183		-35.156250
1184		-39.062500
1185		-35.156250
1186		-37.109375
1187		-31.250000
1188		-35.156250
1189		-27.343750
1190		-33.203125
1191		-25.390625
1192		-31.250000
1193		-23.437500
1194		-29.296875
1195		-21.484375
1196		-27.343750
1197		-17.578125
1198		-23.437500
1199		-15.625000
1200		-21.484375
1201		-15.625000
1202		-17.578125
1203		-13.671875
1204		-15.625000
1205		-7.812500
1206		-13.671875
1207		-7.812500
1208		-13.671875
1209		-3.906250
1210		-11.718750
1211		-1.953125
1212		-7.812500
1213		0.000000
1214		-5.859375
1215		1.953125
1216		-3.906250
1217		3.906250
1218		0.000000
1219		5.859375
1220		3.906250
1221		9.765625
1222		3.906250
1223		11.718750
1224		5.859375
1225		13.671875
1226		7.812500
1227		15.625000
1228		9.765625
1229		17.578125
1230		11.718750
1231		19.531250
1232		13.671875
1233		21.484375
1234		17.578125
1235		23.437500
1236		19.531250
1237		25.390625
1238		21.484375
1239		29.296875
1240		23.437500
1241		31.250000
1242		25.390625
1243		33.203125
1244		27.343750
1245		33.203125
1246		29.296875
1247		37.109375
1248		29.296875
1249		37.109375
1250		33.203125
1251		39.062500
1252		35.156250
1253		41.015625
1254		37.109375
1255		42.968750
1256		37.109375
1257		44.921875
1258		39.062500
1259		46.875000
1260		41.015625
1261		48.828125
1262		42.968750
1263		50.781250
1264		44.921875
1265		52.734375
1266		46.875000
1267		52.734375
1268		48.828125
1269		54.687500
1270		50.781250
1271		54.687500
1272		48.828125
1273		58.593750
1274		52.734375
1275		60.546875
1276		52.734375
1277		60.546875
1278		54.687500
1279		62.500000
1280		54.687500
1281		62.500000
1282		56.640625
1283		62.500000
1284		60.546875
1285		64.453125
1286		60.546875
1287		64.453125
1288		60.546875
1289		68.359375
1290		60.546875
1291		68.359375
1292		62.500000
1293		70.312500
1294		62.500000
1295		70.312500
1296		64.453125
1297		70.312500
1298		64.453125
1299		72.265625
1300		66.406250
1301		72.265625
1302		68.359375
1303		72.265625
1304		68.359375
1305		74.218750
1306		68.359375
1307		74.218750
1308		68.359375
1309		76.171875
1310		68.359375
1311		76.171875
1312		70.312500
1313		76.171875
1314		70.312500
1315		78.125000
1316		70.312500
1317		78.125000
1318		72.265625
1319		76.171875
1320		74.218750
1321		76.171875
1322		70.312500
1323		78.125000
1324		72.265625
1325		78.125000
1326		72.265625
1327		78.125000
1328		70.312500
1329		78.125000
1330		72.265625
1331		78.125000
1332		70.312500
1333		78.125000
1334		72.265625
1335		76.171875
1336		74.218750
1337		76.171875
1338		72.265625
1339		78.125000
1340		70.312500
1341		78.125000
1342		70.312500
1343		78.125000
1344		70.312500
1345		78.125000
1346		68.359375
1347		76.171875
1348		70.312500
1349		76.171875
1350		70.312500
1351		74.218750
1352		70.312500
1353		74.218750
1354		70.312500
1355		72.265625
1356		66.406250
1357		74.218750
1358		66.406250
1359		74.218750
1360		64.453125
1361		72.265625
1362		64.453125
1363		72.265625
1364		64.453125
1365		70.312500
1366		62.500000
1367		70.312500
1368		64.453125
1369		68.359375
1370		62.500000
1371		66.406250
1372		60.546875
1373		66.406250
1374		58.593750
1375		66.406250
1376		56.640625
1377		64.453125
1378		54.687500
1379		62.500000
1380		54.687500
1381		62.500000
1382		52.734375
1383		60.546875
1384		52.734375
1385		58.593750
1386		52.734375
1387		56.640625
1388		48.828125
1389		54.687500
1390		46.875000
1391		54.687500
1392		46.875000
1393		52.734375
1394		42.968750
1395		52.734375
1396		42.968750
1397		48.828125
1398		39.062500
1399		48.828125
1400		39.062500
1401		46.875000
1402		39.062500
1403		42.968750
1404		37.109375
1405		41.015625
1406		33.203125
1407		41.015625
1408		31.250000
1409		39.062500
1410		29.296875
1411		37.109375
1412		27.343750
1413		35.156250
1414		25.390625
1415		33.203125
1416		23.437500
1417		31.250000
1418		23.437500
1419		29.296875
1420		21.484375
1421		25.390625
1422		17.578125
1423		23.437500
1424		15.625000
1425		23.437500
1426		13.671875
1427		21.484375
1428		11.718750
1429		19.531250
1430		9.765625
1431		15.625000
1432		5.859375
1433		13.671875
1434		5.859375
1435		11.718750
1436		3.906250
1437		7.812500
1438		1.953125
1439		5.859375
1440		-3.906250
1441		5.859375
1442		-5.859375
1443		3.906250
1444		-7.812500
1445		1.953125
1446		-9.765625
1447		-1.953125
1448		-11.718750
1449		-5.859375
1450		-13.671875
1451		-5.859375
1452		-15.625000
1453		-9.765625
1454		-17.578125
1455		-13.671875
1456		-21.484375
1457		-15.625000
1458		-23.437500
1459		-15.625000
1460		-27.343750
1461		-19.531250
1462		-29.296875
1463		-21.484375
1464		-31.250000
1465		-23.437500
1466		-33.203125
1467		-25.390625
1468		-35.156250
1469		-27.343750
1470		-35.156250
1471		-31.250000
1472		-39.062500
1473		-33.203125
1474		-41.015625
1475		-33.203125
1476		-46.875000
1477		-37.109375
1478		-46.875000
1479		-39.062500
1480		-48.828125
1481		-41.015625
1482		-50.781250
1483		-42.968750
1484		-52.734375
1485		-44.921875
1486		-54.687500
1487		-48.828125
1488		-56.640625
1489		-50.781250
1490		-58.593750
1491		-52.734375
1492		-60.546875
1493		-52.734375
1494		-62.500000
1495		-56.640625
1496		-64.453125
1497		-58.593750
1498		-66.406250
1499		-60.546875
1500		-68.359375
1501		-62.500000
1502		-70.312500
1503		-64.453125
1504		-72.265625
1505		-68.359375
1506		-74.218750
1507		-68.359375
1508		-76.171875
1509		-68.359375
1510		-78.125000
1511		-70.312500
1512		-80.078125
1513		-72.265625
1514		-82.031250
1515		-74.218750
1516		-83.984375
1517		-76.171875
1518		-83.984375
1519		-78.125000
1520		-83.984375
1521		-80.078125
1522		-85.937500
1523		-82.031250
1524		-87.890625
1525		-82.031250
1526		-91.796875
1527		-83.984375
1528		-91.796875
1529		-83.984375
1530		-91.796875
1531		-85.937500
1532		-93.750000
1533		-85.937500
1534		-93.750000
1535		-87.890625
1536		-93.750000
1537		-89.843750
1538		-93.750000
1539		-91.796875
1540		-95.703125
1541		-91.796875
1542		-97.656250
1543		-91.796875
1544		-99.609375
1545		-91.796875
1546		-99.609375
1547		-91.796875
1548		-99.609375
1549		-91.796875
1550		-99.609375
1551		-93.750000
1552		-101.562500
1553		-93.750000
1554		-99.609375
1555		-95.703125
1556		-99.609375
1557		-95.703125
1558		-101.562500
1559		-95.703125
1560		-101.562500
1561		-95.703125
1562		-101.562500
1563		-95.703125
1564		-101.562500
1565		-95.703125
1566		-101.562500
1567		-95.703125
1568		-101.562500
1569		-95.703125
1570		-99.609375
1571		-95.703125
1572		-99.609375
1573		-95.703125
1574		-101.562500
1575		-93.750000
1576		-101.562500
1577		-93.750000
1578		-101.562500
1579		-93.750000
1580		-99.609375
1581		-93.750000
1582		-99.609375
1583		-93.750000
1584		-97.656250
1585		-91.796875
1586		-97.656250
1587		-93.750000
1588		-95.703125
1589		-91.796875
1590		-95.703125
1591		-89.843750
1592		-95.703125
1593		-87.890625
1594		-93.750000
1595		-87.890625
1596		-93.750000
1597		-85.937500
1598		-91.796875
1599		-85.937500
1600		-91.796875
1601		-83.984375
1602		-89.843750
1603		-83.984375
1604		-85.937500
1605		-83.984375
1606		-85.937500
1607		-82.031250
1608		-85.937500
1609		-78.125000
1610		-83.984375
1611		-76.171875
1612		-83.984375
1613		-76.171875
1614		-82.031250
1615		-74.218750
1616		-82.031250
1617		-74.218750
1618		-78.125000
1619		-72.265625
1620		-76.171875
1621		-70.312500
1622		-74.218750
1623		-68.359375
1624		-72.265625
1625		-66.406250
1626		-72.265625
1627		-64.453125
1628		-70.312500
1629		-60.546875
1630		-68.359375
1631		-58.593750
1632		-66.406250
1633		-58.593750
1634		-64.453125
1635		-56.640625
1636		-60.546875
1637		-54.687500
1638		-58.593750
1639		-52.734375
1640		-56.640625
1641		-50.781250
1642		-56.640625
1643		-46.875000
1644		-52.734375
1645		-44.921875
1646		-50.781250
1647		-42.968750
1648		-48.828125
1649		-41.015625
1650		-46.875000
1651		-39.062500
1652		-44.921875
1653		-35.156250
1654		-41.015625
1655		-37.109375
1656		-39.062500
1657		-33.203125
1658		-37.109375
1659		-29.296875
1660		-35.156250
1661		-27.343750
1662		-35.156250
1663		-25.390625
1664		-31.250000
1665		-23.437500
1666		-29.296875
1667		-19.531250
1668		-25.390625
1669		-19.531250
1670		-23.437500
1671		-17.578125
1672		-19.531250
1673		-15.625000
1674		-17.578125
1675		-11.718750
1676		-17.578125
1677		-9.765625
1678		-15.625000
1679		-5.859375
1680		-13.671875
1681		-3.906250
1682		-9.765625
1683		-1.953125
1684		-7.812500
1685		0.000000
1686		-5.859375
1687		1.953125
1688		-1.953125
1689		3.906250
1690		1.953125
1691		5.859375
1692		1.953125
1693		7.812500
1694		3.906250
1695		11.718750
1696		5.859375
1697		13.671875
1698		7.812500
1699		15.625000
1700		9.765625
1701		17.578125
1702		11.718750
1703		21.484375
1704		15.625000
1705		21.484375
1706		17.578125
1707		23.437500
1708		19.531250
1709		25.390625
1710		19.531250
1711		27.343750
1712		23.437500
1713		31.250000
1714		23.437500
1715		31.250000
1716		25.390625
1717		35.156250
1718		29.296875
1719		37.109375
1720		31.250000
1721		37.109375
1722		35.156250
1723		39.062500
1724		37.109375
1725		41.015625
1726		35.156250
1727		44.921875
1728		37.109375
1729		44.921875
1730		39.062500
1731		46.875000
1732		41.015625
1733		48.828125
1734		42.968750
1735		50.781250
1736		44.921875
1737		50.781250
1738		46.875000
1739		52.734375
1740		48.828125
1741		52.734375
1742		48.828125
1743		56.640625
1744		50.781250
1745		58.593750
1746		52.734375
1747		60.546875
1748		52.734375
1749		60.546875
1750		54.687500
1751		62.500000
1752		56.640625
1753		62.500000
1754		56.640625
1755		64.453125
1756		60.546875
1757		64.453125
1758		60.546875
1759		68.359375
1760		60.546875
1761		66.406250
1762		60.546875
1763		68.359375
1764		62.500000
1765		70.312500
1766		62.500000
1767		70.312500
1768		64.453125
1769		70.312500
1770		64.453125
1771		72.265625
1772		68.359375
1773		70.312500
1774		68.359375
1775		72.265625
1776		68.359375
1777		74.218750
1778		68.359375
1779		74.218750
1780		68.359375
1781		76.171875
1782		68.359375
1783		76.171875
1784		68.359375
1785		76.171875
1786		70.312500
1787		76.171875
1788		70.312500
1789		76.171875
1790		72.265625
1791		76.171875
1792		70.312500
1793		78.125000
1794		70.312500
1795		78.125000
1796		70.312500
1797		78.125000
1798		70.312500
1799		78.125000
1800		70.312500
1801		78.125000
1802		72.265625
1803		78.125000
1804		70.312500
1805		78.125000
1806		72.265625
1807		76.171875
1808		72.265625
1809		76.171875
1810		70.312500
1811		78.125000
1812		70.312500
1813		78.125000
1814		70.312500
1815		78.125000
1816		70.312500
1817		76.171875
1818		70.312500
1819		76.171875
1820		68.359375
1821		76.171875
1822		68.359375
1823		74.218750
1824		70.312500
1825		72.265625
1826		66.406250
1827		74.218750
1828		66.406250
1829		72.265625
1830		66.406250
1831		72.265625
1832		64.453125
1833		72.265625
1834		64.453125
1835		70.312500
1836		62.500000
1837		70.312500
1838		62.500000
1839		68.359375
1840		62.500000
1841		66.406250
1842		60.546875
1843		66.406250
1844		58.593750
1845		64.453125
1846		58.593750
1847		64.453125
1848		56.640625
1849		62.500000
1850		54.687500
1851		62.500000
1852		54.687500
1853		60.546875
1854		52.734375
1855		58.593750
1856		52.734375
1857		56.640625
1858		50.781250
1859		54.687500
1860		46.875000
1861		56.640625
1862		46.875000
1863		52.734375
1864		44.921875
1865		52.734375
1866		42.968750
1867		50.781250
1868		41.015625
1869		48.828125
1870		39.062500
1871		46.875000
1872		39.062500
1873		44.921875
1874		37.109375
1875		42.968750
1876		33.203125
1877		41.015625
1878		31.250000
1879		41.015625
1880		31.250000
1881		37.109375
1882		29.296875
1883		37.109375
1884		27.343750
1885		33.203125
1886		25.390625
1887		31.250000
1888		23.437500
1889		31.250000
1890		21.484375
1891		27.343750
1892		19.531250
1893		25.390625
1894		15.625000
1895		23.437500
1896		13.671875
1897		21.484375
1898		9.765625
1899		19.531250
1900		9.765625
1901		17.578125
1902		7.812500
1903		15.625000
1904		5.859375
1905		13.671875
1906		3.906250
1907		11.718750
1908		1.953125
1909		7.812500
1910		-1.953125
1911		5.859375
1912		-3.906250
1913		3.906250
1914		-5.859375
1915		1.953125
1916		-9.765625
1917		0.000000
1918		-11.718750
1919		-1.953125
1920		-13.671875
1921		-3.906250
1922		-15.625000
1923		-7.812500
1924		-17.578125
1925		-11.718750
1926		-21.484375
1927		-13.671875
1928		-23.437500
1929		-15.625000
1930		-25.390625
1931		-17.578125
1932		-27.343750
1933		-19.531250
1934		-31.250000
1935		-21.484375
1936		-33.203125
1937		-23.437500
1938		-33.203125
1939		-25.390625
1940		-35.156250
1941		-31.250000
1942		-37.109375
1943		-33.203125
1944		-41.015625
1945		-33.203125
1946		-42.968750
1947		-35.156250
1948		-46.875000
1949		-39.062500
1950		-46.875000
1951		-41.015625
1952		-50.781250
1953		-42.968750
1954		-52.734375
1955		-44.921875
1956		-54.687500
1957		-46.875000
1958		-54.687500
1959		-50.781250
1960		-58.593750
1961		-52.734375
1962		-60.546875
1963		-54.687500
1964		-62.500000
1965		-54.687500
1966		-64.453125
1967		-56.640625
1968		-66.406250
1969		-58.593750
1970		-70.312500
1971		-60.546875
1972		-70.312500
1973		-62.500000
1974		-70.312500
1975		-66.406250
1976		-72.265625
1977		-68.359375
1978		-76.171875
1979		-68.359375
1980		-78.125000
1981		-70.312500
1982		-80.078125
1983		-72.265625
1984		-82.031250
1985		-74.218750
1986		-82.031250
1987		-76.171875
1988		-83.984375
1989		-76.171875
1990		-83.984375
1991		-78.125000
1992		-83.984375
1993		-80.078125
1994		-87.890625
1995		-82.031250
1996		-89.843750
1997		-82.031250
1998		-91.796875
1999		-83.984375
2000		-91.796875
2001		-83.984375
2002		-93.750000
2003		-85.937500
2004		-93.750000
2005		-87.890625
2006		-95.703125
2007		-87.890625
2008		-93.750000
2009		-91.796875
2010		-97.656250
2011		-91.796875
2012		-97.656250
2013		-89.843750
2014		-97.656250
2015		-91.796875
2016		-99.609375
2017		-91.796875
2018		-99.609375
2019		-91.796875
2020		-99.609375
2021		-93.750000
2022		-101.562500
2023		-93.750000
2024		-99.609375
2025		-95.703125
2026		-99.609375
2027		-97.656250
2028		-103.515625
2029		-95.703125
2030		-101.562500
2031		-95.703125
2032		-101.562500
2033		-95.703125
2034		-101.562500
2035		-93.750000
2036		-103.515625
2037		-95.703125
2038		-103.515625
2039		-95.703125
2040		-101.562500
2041		-95.703125
2042		-99.609375
2043		-97.656250
2044		-101.562500
2045		-95.703125
2046		-101.562500
2047		-95.703125
2048		-101.562500
2049		-93.750000
2050		-101.562500
2051		-93.750000
2052		-99.609375
2053		-93.750000
2054		-99.609375
2055		-91.796875
2056		-99.609375
2057		-91.796875
2058		-95.703125
2059		-93.750000
2060		-95.703125
2061		-91.796875
2062		-95.703125
2063		-89.843750
2064		-95.703125
2065		-89.843750
2066		-95.703125
2067		-87.890625
2068		-93.750000
2069		-85.937500
2070		-93.750000
2071		-85.937500
2072		-91.796875
2073		-83.984375
2074		-89.843750
2075		-83.984375
2076		-87.890625
2077		-82.031250
2078		-85.937500
2079		-80.078125
2080		-85.937500
2081		-78.125000
2082		-83.984375
2083		-76.171875
2084		-82.031250
2085		-76.171875
2086		-82.031250
2087		-74.218750
2088		-80.078125
2089		-72.265625
2090		-78.125000
2091		-72.265625
2092		-74.218750
2093		-70.312500
2094		-72.265625
2095		-66.406250
2096		-74.218750
2097		-64.453125
2098		-72.265625
2099		-62.500000
2100		-68.359375
2101		-62.500000
2102		-66.406250
2103		-58.593750
2104		-66.406250
2105		-56.640625
2106		-64.453125
2107		-56.640625
2108		-58.593750
2109		-54.687500
2110		-56.640625
2111		-52.734375
2112		-56.640625
2113		-48.828125
2114		-56.640625
2115		-46.875000
2116		-52.734375
2117		-44.921875
2118		-50.781250
2119		-42.968750
2120		-46.875000
2121		-41.015625
2122		-46.875000
2123		-39.062500
2124		-44.921875
2125		-37.109375
2126		-39.062500
2127		-35.156250
2128		-37.109375
2129		-31.250000
2130		-37.109375
2131		-29.296875
2132		-35.156250
2133		-27.343750
2134		-33.203125
2135		-25.390625
2136		-29.296875
2137		-21.484375
2138		-29.296875
2139		-19.531250
2140		-25.390625
2141		-17.578125
2142		-21.484375
2143		-17.578125
2144		-19.531250
2145		-13.671875
2146		-19.531250
2147		-11.718750
2148		-15.625000
2149		-7.812500
2150		-13.671875
2151		-5.859375
2152		-11.718750
2153		-3.906250
2154		-9.765625
2155		0.000000
2156		-7.812500
2157		1.953125
2158		-3.906250
2159		1.953125
2160		0.000000
2161		3.906250
2162		0.000000
2163		7.812500
2164		1.953125
2165		9.765625
2166		3.906250
2167		11.718750
2168		5.859375
2169		13.671875
2170		7.812500
2171		15.625000
2172		9.765625
2173		17.578125
2174		13.671875
2175		19.531250
2176		15.625000
2177		21.484375
2178		19.531250
2179		23.437500
2180		19.531250
2181		27.343750
2182		21.484375
2183		29.296875
2184		23.437500
2185		31.250000
2186		25.390625
2187		33.203125
2188		25.390625
2189		35.156250
2190		29.296875
2191		37.109375
2192		33.203125
2193		37.109375
2194		35.156250
2195		39.062500
2196		35.156250
2197		42.968750
2198		37.109375
2199		42.968750
2200		37.109375
2201		44.921875
2202		39.062500
2203		46.875000
2204		41.015625
2205		48.828125
2206		42.968750
2207		50.781250
2208		44.921875
2209		50.781250
2210		48.828125
2211		52.734375
2212		48.828125
2213		54.687500
2214		48.828125
2215		56.640625
2216		50.781250
2217		56.640625
2218		50.781250
2219		60.546875
2220		52.734375
2221		60.546875
2222		54.687500
2223		62.500000
2224		56.640625
2225		62.500000
2226		58.593750
2227		62.500000
2228		60.546875
2229		64.453125
2230		58.593750
2231		66.406250
2232		60.546875
2233		68.359375
2234		62.500000
2235		68.359375
2236		62.500000
2237		70.312500
2238		62.500000
2239		70.312500
2240		64.453125
2241		72.265625
2242		64.453125
2243		70.312500
2244		68.359375
2245		70.312500
2246		66.406250
2247		72.265625
2248		66.406250
2249		74.218750
2250		68.359375
2251		74.218750
2252		68.359375
2253		76.171875
2254		68.359375
2255		74.218750
2256		68.359375
2257		76.171875
2258		70.312500
2259		76.171875
2260		72.265625
2261		74.218750
2262		72.265625
2263		74.218750
2264		70.312500
2265		78.125000
2266		70.312500
2267		76.171875
2268		70.312500
2269		78.125000
2270		70.312500
2271		76.171875
2272		70.312500
2273		78.125000
2274		70.312500
2275		78.125000
2276		72.265625
2277		76.171875
2278		72.265625
2279		74.218750
2280		68.359375
2281		76.171875
2282		70.312500
2283		76.171875
2284		68.359375
2285		76.171875
2286		68.359375
2287		76.171875
2288		68.359375
2289		76.171875
2290		68.359375
2291		74.218750
2292		68.359375
2293		74.218750
2294		68.359375
2295		72.265625
2296		68.359375
2297		72.265625
2298		66.406250
2299		72.265625
2300		64.453125
2301		72.265625
2302		64.453125
2303		72.265625
2304		62.500000
2305		70.312500
2306		62.500000
2307		70.312500
2308		60.546875
2309		68.359375
2310		62.500000
2311		66.406250
2312		62.500000
2313		64.453125
2314		58.593750
2315		66.406250
2316		56.640625
2317		64.453125
2318		56.640625
2319		64.453125
2320		54.687500
2321		62.500000
2322		54.687500
2323		60.546875
2324		52.734375
2325		58.593750
2326		50.781250
2327		58.593750
2328		50.781250
2329		56.640625
2330		48.828125
2331		54.687500
2332		46.875000
2333		54.687500
2334		44.921875
2335		52.734375
2336		42.968750
2337		50.781250
2338		41.015625
2339		48.828125
2340		41.015625
2341		46.875000
2342		39.062500
2343		44.921875
2344		39.062500
2345		42.968750
2346		37.109375
2347		41.015625
2348		33.203125
2349		41.015625
2350		31.250000
2351		39.062500
2352		29.296875
2353		37.109375
2354		27.343750
2355		35.156250
2356		23.437500
2357		33.203125
2358		23.437500
2359		31.250000
2360		23.437500
2361		27.343750
2362		19.531250
2363		25.390625
2364		15.625000
2365		23.437500
2366		15.625000
2367		21.484375
2368		11.718750
2369		19.531250
2370		9.765625
2371		17.578125
2372		7.812500
2373		15.625000
2374		5.859375
2375		13.671875
2376		5.859375
2377		9.765625
2378		1.953125
2379		7.812500
2380		0.000000
2381		3.906250
2382		-3.906250
2383		3.906250
2384		-5.859375
2385		1.953125
2386		-7.812500
2387		0.000000
2388		-11.718750
2389		-1.953125
2390		-11.718750
2391		-5.859375
2392		-15.625000
2393		-7.812500
2394		-15.625000
2395		-11.718750
2396		-17.578125
2397		-13.671875
2398		-21.484375
2399		-15.625000
2400		-25.390625
2401		-15.625000
2402		-27.343750
2403		-19.531250
2404		-29.296875
2405		-21.484375
2406		-31.250000
2407		-25.390625
2408		-35.156250
2409		-27.343750
2410		-35.156250
2411		-29.296875
2412		-37.109375
2413		-33.203125
2414		-39.062500
2415		-35.156250
2416		-44.921875
2417		-35.156250
2418		-46.875000
2419		-37.109375
2420		-46.875000
2421		-41.015625
2422		-50.781250
2423		-42.968750
2424		-52.734375
2425		-44.921875
2426		-52.734375
2427		-46.875000
2428		-54.687500
2429		-50.781250
2430		-56.640625
2431		-52.734375
2432		-60.546875
2433		-52.734375
2434		-62.500000
2435		-54.687500
2436		-64.453125
2437		-56.640625
2438		-68.359375
2439		-58.593750
2440		-68.359375
2441		-60.546875
2442		-70.312500
2443		-64.453125
2444		-70.312500
2445		-66.406250
2446		-72.265625
2447		-68.359375
2448		-76.171875
2449		-68.359375
2450		-78.125000
2451		-70.312500
2452		-78.125000
2453		-72.265625
2454		-82.031250
2455		-74.218750
2456		-83.984375
2457		-76.171875
2458		-83.984375
2459		-76.171875
2460		-85.937500
2461		-78.125000
2462		-85.937500
2463		-82.031250
2464		-89.843750
2465		-83.984375
2466		-89.843750
2467		-82.031250
2468		-89.843750
2469		-83.984375
2470		-91.796875
2471		-83.984375
2472		-93.750000
2473		-87.890625
2474		-95.703125
2475		-87.890625
2476		-95.703125
2477		-89.843750
2478		-93.750000
2479		-91.796875
2480		-95.703125
2481		-91.796875
2482		-99.609375
2483		-91.796875
2484		-99.609375
2485		-91.796875
2486		-99.609375
2487		-93.750000
2488		-101.562500
2489		-93.750000
2490		-101.562500
2491		-95.703125
2492		-101.562500
2493		-93.750000
2494		-101.562500
2495		-95.703125
2496		-101.562500
2497		-97.656250
2498		-103.515625
2499		-97.656250
2500		-103.515625
2501		-95.703125
2502		-103.515625
2503		-97.656250
2504		-103.515625
2505		-95.703125
2506		-103.515625
2507		-97.656250
2508		-103.515625
2509		-97.656250
2510		-103.515625
2511		-97.656250
2512		-101.562500
2513		-97.656250
2514		-101.562500
2515		-97.656250
2516		-103.515625
2517		-95.703125
2518		-103.515625
2519		-95.703125
2520		-101.562500
2521		-95.703125
2522		-101.562500
2523		-93.750000
2524		-101.562500
2525		-93.750000
2526		-99.609375
2527		-93.750000
2528		-99.609375
2529		-93.750000
2530		-97.656250
2531		-93.750000
2532		-97.656250
2533		-91.796875
2534		-97.656250
2535		-89.843750
2536		-95.703125
2537		-89.843750
2538		-95.703125
2539		-87.890625
2540		-95.703125
2541		-85.937500
2542		-93.750000
2543		-85.937500
2544		-91.796875
2545		-85.937500
2546		-87.890625
2547		-83.984375
2548		-87.890625
2549		-82.031250
2550		-87.890625
2551		-80.078125
2552		-85.937500
2553		-78.125000
2554		-83.984375
2555		-78.125000
2556		-83.984375
2557		-76.171875
2558		-82.031250
2559		-74.218750
2560		-80.078125
2561		-72.265625
2562		-76.171875
2563		-72.265625
2564		-74.218750
2565		-70.312500
2566		-74.218750
2567		-66.406250
2568		-72.265625
2569		-66.406250
2570		-72.265625
2571		-64.453125
2572		-68.359375
2573		-62.500000
2574		-68.359375
2575		-60.546875
2576		-66.406250
2577		-58.593750
2578		-64.453125
2579		-56.640625
2580		-60.546875
2581		-54.687500
2582		-58.593750
2583		-52.734375
2584		-56.640625
2585		-50.781250
2586		-56.640625
2587		-46.875000
2588		-52.734375
2589		-44.921875
2590		-50.781250
2591		-42.968750
2592		-48.828125
2593		-41.015625
2594		-46.875000
2595		-39.062500
2596		-42.968750
2597		-37.109375
2598		-41.015625
2599		-35.156250
2600		-39.062500
2601		-31.250000
2602		-37.109375
2603		-29.296875
2604		-33.203125
2605		-27.343750
2606		-33.203125
2607		-25.390625
2608		-31.250000
2609		-21.484375
2610		-27.343750
2611		-19.531250
2612		-27.343750
2613		-19.531250
2614		-21.484375
2615		-17.578125
2616		-19.531250
2617		-13.671875
2618		-19.531250
2619		-11.718750
2620		-17.578125
2621		-7.812500
2622		-13.671875
2623		-5.859375
2624		-11.718750
2625		-3.906250
2626		-9.765625
2627		-1.953125
2628		-7.812500
2629		0.000000
2630		-1.953125
2631		1.953125
2632		0.000000
2633		3.906250
2634		0.000000
2635		5.859375
2636		1.953125
2637		9.765625
2638		3.906250
2639		11.718750
2640		5.859375
2641		13.671875
2642		9.765625
2643		15.625000
2644		11.718750
2645		17.578125
2646		15.625000
2647		19.531250
2648		17.578125
2649		21.484375
2650		17.578125
2651		25.390625
2652		19.531250
2653		27.343750
2654		19.531250
2655		29.296875
2656		23.437500
2657		31.250000
2658		25.390625
2659		35.156250
2660		27.343750
2661		35.156250
2662		29.296875
2663		35.156250
2664		33.203125
2665		37.109375
2666		35.156250
2667		41.015625
2668		35.156250
2669		42.968750
2670		35.156250
2671		42.968750
2672		39.062500
2673		46.875000
2674		39.062500
2675		46.875000
2676		41.015625
2677		48.828125
2678		42.968750
2679		50.781250
2680		46.875000
2681		50.781250
2682		46.875000
2683		52.734375
2684		48.828125
2685		54.687500
2686		48.828125
2687		56.640625
2688		50.781250
2689		56.640625
2690		52.734375
2691		58.593750
2692		52.734375
2693		60.546875
2694		54.687500
2695		62.500000
2696		54.687500
2697		62.500000
2698		58.593750
2699		62.500000
2700		58.593750
2701		64.453125
2702		58.593750
2703		66.406250
2704		60.546875
2705		68.359375
2706		62.500000
2707		68.359375
2708		60.546875
2709		70.312500
2710		62.500000
2711		70.312500
2712		62.500000
2713		70.312500
2714		66.406250
2715		70.312500
2716		68.359375
2717		70.312500
2718		66.406250
2719		72.265625
2720		66.406250
2721		74.218750
2722		66.406250
2723		74.218750
2724		68.359375
2725		74.218750
2726		68.359375
2727		76.171875
2728		68.359375
2729		76.171875
2730		72.265625
2731		74.218750
2732		72.265625
2733		74.218750
2734		70.312500
2735		76.171875
2736		70.312500
2737		76.171875
2738		70.312500
2739		78.125000
2740		70.312500
2741		78.125000
2742		70.312500
2743		78.125000
2744		70.312500
2745		76.171875
2746		68.359375
2747		76.171875
2748		72.265625
2749		76.171875
2750		70.312500
2751		76.171875
2752		68.359375
2753		76.171875
2754		68.359375
2755		76.171875
2756		68.359375
2757		76.171875
2758		68.359375
2759		76.171875
2760		68.359375
2761		76.171875
2762		68.359375
2763		74.218750
2764		70.312500
2765		72.265625
2766		68.359375
2767		72.265625
2768		64.453125
2769		72.265625
2770		66.406250
2771		72.265625
2772		64.453125
2773		72.265625
2774		64.453125
2775		70.312500
2776		62.500000
2777		70.312500
2778		62.500000
2779		68.359375
2780		62.500000
2781		68.359375
2782		62.500000
2783		66.406250
2784		58.593750
2785		66.406250
2786		56.640625
2787		64.453125
2788		56.640625
2789		64.453125
2790		56.640625
2791		62.500000
2792		54.687500
2793		62.500000
2794		52.734375
2795		60.546875
2796		52.734375
2797		58.593750
2798		52.734375
2799		56.640625
2800		48.828125
2801		54.687500
2802		46.875000
2803		54.687500
2804		46.875000
2805		52.734375
2806		42.968750
2807		50.781250
2808		42.968750
2809		48.828125
2810		39.062500
2811		48.828125
2812		39.062500
2813		46.875000
2814		39.062500
2815		42.968750
2816		37.109375
2817		41.015625
2818		33.203125
2819		41.015625
2820		31.250000
2821		39.062500
2822		29.296875
2823		37.109375
2824		27.343750
2825		35.156250
2826		25.390625
2827		33.203125
2828		23.437500
2829		31.250000
2830		23.437500
2831		29.296875
2832		21.484375
2833		25.390625
2834		19.531250
2835		23.437500
2836		15.625000
2837		23.437500
2838		13.671875
2839		21.484375
2840		11.718750
2841		19.531250
2842		7.812500
2843		17.578125
2844		5.859375
2845		13.671875
2846		5.859375
2847		11.718750
2848		3.906250
2849		7.812500
2850		1.953125
2851		5.859375
2852		-1.953125
2853		5.859375
2854		-5.859375
2855		3.906250
2856		-5.859375
2857		0.000000
2858		-9.765625
2859		0.000000
2860		-11.718750
2861		-3.906250
2862		-13.671875
2863		-7.812500
2864		-15.625000
2865		-7.812500
2866		-15.625000
2867		-11.718750
2868		-21.484375
2869		-13.671875
2870		-23.437500
2871		-15.625000
2872		-25.390625
2873		-17.578125
2874		-27.343750
2875		-19.531250
2876		-31.250000
2877		-21.484375
2878		-33.203125
2879		-25.390625
2880		-33.203125
2881		-27.343750
2882		-35.156250
2883		-31.250000
2884		-39.062500
2885		-33.203125
2886		-42.968750
2887		-33.203125
2888		-44.921875
2889		-37.109375
2890		-46.875000
2891		-39.062500
2892		-48.828125
2893		-41.015625
2894		-50.781250
2895		-42.968750
2896		-52.734375
2897		-44.921875
2898		-54.687500
2899		-48.828125
2900		-56.640625
2901		-50.781250
2902		-58.593750
2903		-52.734375
2904		-62.500000
2905		-52.734375
2906		-62.500000
2907		-56.640625
2908		-66.406250
2909		-58.593750
2910		-66.406250
2911		-60.546875
2912		-70.312500
2913		-62.500000
2914		-70.312500
2915		-64.453125
2916		-70.312500
2917		-66.406250
2918		-74.218750
2919		-68.359375
2920		-76.171875
2921		-68.359375
2922		-80.078125
2923		-72.265625
2924		-80.078125
2925		-72.265625
2926		-82.031250
2927		-74.218750
2928		-83.984375
2929		-76.171875
2930		-85.937500
2931		-78.125000
2932		-83.984375
2933		-80.078125
2934		-85.937500
2935		-82.031250
2936		-89.843750
2937		-82.031250
2938		-89.843750
2939		-83.984375
2940		-91.796875
2941		-83.984375
2942		-93.750000
2943		-85.937500
2944		-93.750000
2945		-87.890625
2946		-95.703125
2947		-87.890625
2948		-93.750000
2949		-89.843750
2950		-95.703125
2951		-91.796875
2952		-97.656250
2953		-89.843750
2954		-97.656250
2955		-91.796875
2956		-99.609375
2957		-91.796875
2958		-99.609375
2959		-93.750000
2960		-101.562500
2961		-93.750000
2962		-101.562500
2963		-93.750000
2964		-101.562500
2965		-93.750000
2966		-99.609375
2967		-95.703125
2968		-101.562500
2969		-95.703125
2970		-103.515625
2971		-95.703125
2972		-103.515625
2973		-97.656250
2974		-103.515625
2975		-95.703125
2976		-103.515625
2977		-95.703125
2978		-103.515625
2979		-95.703125
2980		-103.515625
2981		-95.703125
2982		-101.562500
2983		-97.656250
2984		-101.562500
2985		-97.656250
2986		-101.562500
2987		-95.703125
2988		-101.562500
2989		-95.703125
2990		-101.562500
2991		-95.703125
2992		-101.562500
2993		-93.750000
2994		-101.562500
2995		-93.750000
2996		-99.609375
2997		-93.750000
2998		-99.609375
2999		-91.796875
3000		-97.656250
3001		-93.750000
3002		-97.656250
3003		-91.796875
3004		-97.656250
3005		-89.843750
3006		-95.703125
3007		-89.843750
3008		-95.703125
3009		-87.890625
3010		-93.750000
3011		-87.890625
3012		-93.750000
3013		-85.937500
3014		-91.796875
3015		-83.984375
3016		-89.843750
3017		-85.937500
3018		-87.890625
3019		-83.984375
3020		-87.890625
3021		-82.031250
3022		-85.937500
3023		-80.078125
3024		-85.937500
3025		-78.125000
3026		-83.984375
3027		-76.171875
3028		-82.031250
3029		-76.171875
3030		-80.078125
3031		-74.218750
3032		-80.078125
3033		-72.265625
3034		-76.171875
3035		-72.265625
3036		-74.218750
3037		-68.359375
3038		-74.218750
3039		-66.406250
3040		-72.265625
3041		-64.453125
3042		-70.312500
3043		-62.500000
3044		-68.359375
3045		-60.546875
3046		-66.406250
3047		-58.593750
3048		-64.453125
3049		-56.640625
3050		-60.546875
3051		-54.687500
3052		-58.593750
3053		-54.687500
3054		-58.593750
3055		-50.781250
3056		-56.640625
3057		-48.828125
3058		-52.734375
3059		-46.875000
3060		-52.734375
3061		-42.968750
3062		-48.828125
3063		-42.968750
3064		-48.828125
3065		-39.062500
3066		-42.968750
3067		-39.062500
3068		-41.015625
3069		-37.109375
3070		-39.062500
3071		-33.203125
3072		-37.109375
3073		-31.250000
3074		-35.156250
3075		-29.296875
3076		-33.203125
3077		-25.390625
3078		-31.250000
3079		-23.437500
3080		-29.296875
3081		-19.531250
3082		-25.390625
3083		-19.531250
3084		-23.437500
3085		-17.578125
3086		-19.531250
3087		-15.625000
3088		-19.531250
3089		-11.718750
3090		-17.578125
3091		-9.765625
3092		-15.625000
3093		-7.812500
3094		-13.671875
3095		-3.906250
3096		-9.765625
3097		-1.953125
3098		-7.812500
3099		-1.953125
3100		-3.906250
3101		0.000000
3102		-1.953125
3103		1.953125
3104		0.000000
3105		5.859375
3106		1.953125
3107		7.812500
3108		1.953125
3109		11.718750
3110		5.859375
3111		13.671875
3112		7.812500
3113		15.625000
3114		9.765625
3115		17.578125
3116		9.765625
3117		17.578125
3118		15.625000
3119		19.531250
3120		17.578125
3121		23.437500
3122		17.578125
3123		25.390625
3124		19.531250
3125		27.343750
3126		21.484375
3127		31.250000
3128		23.437500
3129		31.250000
3130		27.343750
3131		33.203125
3132		27.343750
3133		35.156250
3134		31.250000
3135		37.109375
3136		33.203125
3137		37.109375
3138		33.203125
3139		41.015625
3140		35.156250
3141		42.968750
3142		37.109375
3143		44.921875
3144		39.062500
3145		46.875000
3146		41.015625
3147		48.828125
3148		41.015625
3149		50.781250
3150		44.921875
3151		50.781250
3152		46.875000
3153		52.734375
3154		48.828125
3155		54.687500
3156		48.828125
3157		56.640625
3158		50.781250
3159		56.640625
3160		50.781250
3161		58.593750
3162		52.734375
3163		60.546875
3164		54.687500
3165		60.546875
3166		54.687500
3167		62.500000
3168		56.640625
3169		62.500000
3170		60.546875
3171		64.453125
3172		58.593750
3173		64.453125
3174		60.546875
3175		66.406250
3176		62.500000
3177		68.359375
3178		62.500000
3179		68.359375
3180		64.453125
3181		68.359375
3182		64.453125
3183		70.312500
3184		66.406250
3185		70.312500
3186		66.406250
3187		70.312500
3188		66.406250
3189		72.265625
3190		66.406250
3191		74.218750
3192		66.406250
3193		74.218750
3194		66.406250
3195		74.218750
3196		66.406250
3197		76.171875
3198		68.359375
3199		74.218750
3200		70.312500
3201		76.171875
3202		72.265625
3203		74.218750
3204		70.312500
3205		76.171875
3206		70.312500
3207		78.125000
3208		70.312500
3209		76.171875
3210		70.312500
3211		76.171875
3212		70.312500
3213		78.125000
3214		70.312500
3215		78.125000
3216		70.312500
3217		78.125000
3218		72.265625
3219		76.171875
3220		72.265625
3221		76.171875
3222		70.312500
3223		76.171875
3224		70.312500
3225		76.171875
3226		70.312500
3227		76.171875
3228		68.359375
3229		76.171875
3230		68.359375
3231		76.171875
3232		68.359375
3233		74.218750
3234		70.312500
3235		74.218750
3236		70.312500
3237		72.265625
3238		66.406250
3239		74.218750
3240		66.406250
3241		74.218750
3242		66.406250
3243		72.265625
3244		64.453125
3245		72.265625
3246		62.500000
3247		70.312500
3248		62.500000
3249		70.312500
3250		60.546875
3251		68.359375
3252		62.500000
3253		66.406250
3254		60.546875
3255		66.406250
3256		58.593750
3257		66.406250
3258		56.640625
3259		64.453125
3260		56.640625
3261		62.500000
3262		54.687500
3263		62.500000
3264		54.687500
3265		60.546875
3266		52.734375
3267		60.546875
3268		52.734375
3269		56.640625
3270		50.781250
3271		54.687500
3272		48.828125
3273		54.687500
3274		46.875000
3275		54.687500
3276		44.921875
3277		52.734375
3278		42.968750
3279		50.781250
3280		41.015625
3281		48.828125
3282		41.015625
3283		46.875000
3284		39.062500
3285		44.921875
3286		39.062500
3287		42.968750
3288		35.156250
3289		41.015625
3290		33.203125
3291		41.015625
3292		31.250000
3293		39.062500
3294		29.296875
3295		37.109375
3296		27.343750
3297		35.156250
3298		25.390625
3299		33.203125
3300		23.437500
3301		31.250000
3302		23.437500
3303		27.343750
3304		21.484375
3305		25.390625
3306		17.578125
3307		23.437500
3308		13.671875
3309		23.437500
3310		11.718750
3311		19.531250
3312		9.765625
3313		17.578125
3314		7.812500
3315		15.625000
3316		5.859375
3317		13.671875
3318		5.859375
3319		11.718750
3320		3.906250
3321		7.812500
3322		0.000000
3323		5.859375
3324		-3.906250
3325		3.906250
3326		-5.859375
3327		1.953125
3328		-7.812500
3329		0.000000
3330		-11.718750
3331		-1.953125
3332		-13.671875
3333		-3.906250
3334		-13.671875
3335		-7.812500
3336		-15.625000
3337		-9.765625
3338		-19.531250
3339		-13.671875
3340		-21.484375
3341		-13.671875
3342		-23.437500
3343		-15.625000
3344		-27.343750
3345		-19.531250
3346		-29.296875
3347		-21.484375
3348		-31.250000
3349		-23.437500
3350		-35.156250
3351		-25.390625
3352		-33.203125
3353		-29.296875
3354		-37.109375
3355		-31.250000
3356		-41.015625
3357		-35.156250
3358		-42.968750
3359		-35.156250
3360		-44.921875
3361		-37.109375
3362		-46.875000
3363		-41.015625
3364		-48.828125
3365		-42.968750
3366		-52.734375
3367		-42.968750
3368		-52.734375
3369		-46.875000
3370		-54.687500
3371		-48.828125
3372		-56.640625
3373		-52.734375
3374		-60.546875
3375		-52.734375
3376		-62.500000
3377		-54.687500
3378		-64.453125
3379		-56.640625
3380		-66.406250
3381		-58.593750
3382		-68.359375
3383		-60.546875
3384		-70.312500
3385		-62.500000
3386		-70.312500
3387		-64.453125
3388		-72.265625
3389		-68.359375
3390		-76.171875
3391		-68.359375
3392		-78.125000
3393		-70.312500
3394		-78.125000
3395		-72.265625
3396		-82.031250
3397		-74.218750
3398		-82.031250
3399		-74.218750
3400		-83.984375
3401		-76.171875
3402		-83.984375
3403		-78.125000
3404		-85.937500
3405		-80.078125
3406		-87.890625
3407		-82.031250
3408		-89.843750
3409		-82.031250
3410		-89.843750
3411		-83.984375
3412		-91.796875
3413		-83.984375
3414		-93.750000
3415		-85.937500
3416		-93.750000
3417		-87.890625
3418		-95.703125
3419		-87.890625
3420		-93.750000
3421		-91.796875
3422		-95.703125
3423		-91.796875
3424		-97.656250
3425		-91.796875
3426		-99.609375
3427		-91.796875
3428		-99.609375
3429		-91.796875
3430		-99.609375
3431		-93.750000
3432		-101.562500
3433		-93.750000
3434		-101.562500
3435		-93.750000
3436		-99.609375
3437		-97.656250
3438		-99.609375
3439		-95.703125
3440		-103.515625
3441		-95.703125
3442		-103.515625
3443		-95.703125
3444		-103.515625
3445		-95.703125
3446		-103.515625
3447		-95.703125
3448		-103.515625
3449		-95.703125
3450		-103.515625
3451		-95.703125
3452		-101.562500
3453		-97.656250
3454		-101.562500
3455		-97.656250
3456		-101.562500
3457		-95.703125
3458		-103.515625
3459		-95.703125
3460		-101.562500
3461		-95.703125
3462		-101.562500
3463		-95.703125
3464		-101.562500
3465		-93.750000
3466		-101.562500
3467		-93.750000
3468		-99.609375
3469		-93.750000
3470		-97.656250
3471		-93.750000
3472		-97.656250
3473		-93.750000
3474		-97.656250
3475		-89.843750
3476		-97.656250
3477		-89.843750
3478		-95.703125
3479		-89.843750
3480		-95.703125
3481		-87.890625
3482		-93.750000
3483		-85.937500
3484		-93.750000
3485		-85.937500
3486		-91.796875
3487		-83.984375
3488		-87.890625
3489		-83.984375
3490		-87.890625
3491		-82.031250
3492		-87.890625
3493		-80.078125
3494		-85.937500
3495		-80.078125
3496		-83.984375
3497		-78.125000
3498		-82.031250
3499		-76.171875
3500		-82.031250
3501		-74.218750
3502		-80.078125
3503		-74.218750
3504		-76.171875
3505		-72.265625
3506		-74.218750
3507		-70.312500
3508		-74.218750
3509		-66.406250
3510		-74.218750
3511		-66.406250
3512		-72.265625
3513		-64.453125
3514		-68.359375
3515		-60.546875
3516		-68.359375
3517		-60.546875
3518		-64.453125
3519		-58.593750
3520		-62.500000
3521		-56.640625
3522		-58.593750
3523		-54.687500
3524		-58.593750
3525		-50.781250
3526		-56.640625
3527		-50.781250
3528		-54.687500
3529		-46.875000
3530		-52.734375
3531		-44.921875
3532		-50.781250
3533		-42.968750
3534		-48.828125
3535		-39.062500
3536		-46.875000
3537		-41.015625
3538		-42.968750
3539		-37.109375
3540		-39.062500
3541		-35.156250
3542		-39.062500
3543		-31.250000
3544		-37.109375
3545		-29.296875
3546		-35.156250
3547		-27.343750
3548		-33.203125
3549		-25.390625
3550		-31.250000
3551		-23.437500
3552		-27.343750
3553		-21.484375
3554		-23.437500
3555		-19.531250
3556		-21.484375
3557		-17.578125
3558		-19.531250
3559		-13.671875
3560		-17.578125
3561		-11.718750
3562		-15.625000
3563		-7.812500
3564		-13.671875
3565		-5.859375
3566		-11.718750
3567		-3.906250
3568		-9.765625
3569		-1.953125
3570		-7.812500
3571		0.000000
3572		-3.906250
3573		1.953125
3574		-1.953125
3575		5.859375
3576		0.000000
3577		7.812500
3578		1.953125
3579		11.718750
3580		3.906250
3581		11.718750
3582		5.859375
3583		13.671875
3584		7.812500
3585		15.625000
3586		9.765625
3587		17.578125
3588		15.625000
3589		19.531250
3590		17.578125
3591		21.484375
3592		17.578125
3593		23.437500
3594		19.531250
3595		27.343750
3596		19.531250
3597		29.296875
3598		23.437500
3599		31.250000
3600		25.390625
3601		33.203125
3602		27.343750
3603		35.156250
3604		31.250000
3605		35.156250
3606		33.203125
3607		37.109375
3608		33.203125
3609		39.062500
3610		35.156250
3611		41.015625
3612		35.156250
3613		42.968750
3614		39.062500
3615		44.921875
3616		39.062500
3617		46.875000
3618		41.015625
3619		48.828125
3620		42.968750
3621		48.828125
3622		46.875000
3623		50.781250
3624		48.828125
3625		52.734375
3626		46.875000
3627		56.640625
3628		48.828125
3629		56.640625
3630		50.781250
3631		58.593750
3632		50.781250
3633		58.593750
3634		52.734375
3635		60.546875
3636		54.687500
3637		60.546875
3638		58.593750
3639		60.546875
3640		58.593750
3641		62.500000
3642		58.593750
3643		66.406250
3644		58.593750
3645		66.406250
3646		60.546875
3647		68.359375
3648		60.546875
3649		68.359375
3650		62.500000
3651		68.359375
3652		62.500000
3653		70.312500
3654		64.453125
3655		70.312500
3656		66.406250
3657		70.312500
3658		66.406250
3659		72.265625
3660		66.406250
3661		74.218750
3662		66.406250
3663		74.218750
3664		66.406250
3665		74.218750
3666		68.359375
3667		76.171875
3668		68.359375
3669		76.171875
3670		68.359375
3671		76.171875
3672		70.312500
3673		74.218750
3674		72.265625
3675		74.218750
3676		70.312500
3677		78.125000
3678		70.312500
3679		78.125000
3680		70.312500
3681		78.125000
3682		70.312500
3683		78.125000
3684		70.312500
3685		78.125000
3686		70.312500
3687		76.171875
3688		72.265625
3689		76.171875
3690		72.265625
3691		76.171875
3692		72.265625
3693		78.125000
3694		70.312500
3695		78.125000
3696		70.312500
3697		76.171875
3698		70.312500
3699		76.171875
3700		68.359375
3701		76.171875
3702		68.359375
3703		76.171875
3704		68.359375
3705		74.218750
3706		70.312500
3707		72.265625
3708		68.359375
3709		72.265625
3710		66.406250
3711		74.218750
3712		64.453125
3713		72.265625
3714		64.453125
3715		72.265625
3716		64.453125
3717		70.312500
3718		62.500000
3719		70.312500
3720		62.500000
3721		68.359375
3722		62.500000
3723		66.406250
3724		62.500000
3725		66.406250
3726		58.593750
3727		66.406250
3728		58.593750
3729		66.406250
3730		56.640625
3731		64.453125
3732		54.687500
3733		64.453125
3734		54.687500
3735		62.500000
3736		52.734375
3737		60.546875
3738		52.734375
3739		58.593750
3740		52.734375
3741		56.640625
3742		50.781250
3743		54.687500
3744		46.875000
3745		54.687500
3746		46.875000
3747		52.734375
3748		42.968750
3749		52.734375
3750		42.968750
3751		48.828125
3752		41.015625
3753		48.828125
3754		41.015625
3755		46.875000
3756		39.062500
3757		44.921875
3758		37.109375
3759		42.968750
3760		35.156250
3761		41.015625
3762		31.250000
3763		39.062500
3764		31.250000
3765		39.062500
3766		29.296875
3767		35.156250
3768		27.343750
3769		33.203125
3770		23.437500
3771		31.250000
3772		25.390625
3773		29.296875
3774		21.484375
3775		27.343750
3776		19.531250
3777		25.390625
3778		15.625000
3779		23.437500
3780		13.671875
3781		21.484375
3782		11.718750
3783		19.531250
3784		9.765625
3785		17.578125
3786		7.812500
3787		15.625000
3788		5.859375
3789		13.671875
3790		5.859375
3791		9.765625
3792		0.000000
3793		7.812500
3794		-1.953125
3795		5.859375
3796		-3.906250
3797		3.906250
3798		-7.812500
3799		1.953125
3800		-7.812500
3801		0.000000
3802		-11.718750
3803		-1.953125
3804		-11.718750
3805		-5.859375
3806		-13.671875
3807		-9.765625
3808		-15.625000
3809		-11.718750
3810		-19.531250
3811		-13.671875
3812		-21.484375
3813		-13.671875
3814		-25.390625
3815		-17.578125
3816		-27.343750
3817		-19.531250
3818		-29.296875
3819		-21.484375
3820		-31.250000
3821		-23.437500
3822		-33.203125
3823		-25.390625
3824		-35.156250
3825		-29.296875
3826		-37.109375
3827		-33.203125
3828		-41.015625
3829		-31.250000
3830		-42.968750
3831		-35.156250
3832		-44.921875
3833		-37.109375
3834		-46.875000
3835		-39.062500
3836		-50.781250
3837		-42.968750
3838		-50.781250
3839		-44.921875
3840		-52.734375
3841		-48.828125
3842		-54.687500
3843		-50.781250
3844		-58.593750
3845		-50.781250
3846		-62.500000
3847		-52.734375
3848		-64.453125
3849		-54.687500
3850		-64.453125
3851		-56.640625
3852		-66.406250
3853		-58.593750
3854		-70.312500
3855		-60.546875
3856		-68.359375
3857		-64.453125
3858		-70.312500
3859		-66.406250
3860		-74.218750
3861		-68.359375
3862		-76.171875
3863		-68.359375
3864		-78.125000
3865		-70.312500
3866		-80.078125
3867		-72.265625
3868		-82.031250
3869		-74.218750
3870		-83.984375
3871		-76.171875
3872		-83.984375
3873		-76.171875
3874		-83.984375
3875		-80.078125
3876		-85.937500
3877		-82.031250
3878		-87.890625
3879		-82.031250
3880		-89.843750
3881		-82.031250
3882		-91.796875
3883		-83.984375
3884		-93.750000
3885		-85.937500
3886		-93.750000
3887		-85.937500
3888		-93.750000
3889		-85.937500
3890		-93.750000
3891		-89.843750
3892		-93.750000
3893		-91.796875
3894		-99.609375
3895		-89.843750
3896		-99.609375
3897		-91.796875
3898		-99.609375
3899		-91.796875
3900		-99.609375
3901		-93.750000
3902		-99.609375
3903		-93.750000
3904		-101.562500
3905		-93.750000
3906		-101.562500
3907		-93.750000
3908		-99.609375
3909		-97.656250
3910		-101.562500
3911		-97.656250
3912		-103.515625
3913		-95.703125
3914		-103.515625
3915		-95.703125
3916		-103.515625
3917		-97.656250
3918		-103.515625
3919		-95.703125
3920		-103.515625
3921		-95.703125
3922		-103.515625
3923		-95.703125
3924		-101.562500
3925		-97.656250
3926		-101.562500
3927		-97.656250
3928		-103.515625
3929		-95.703125
3930		-103.515625
3931		-95.703125
3932		-101.562500
3933		-95.703125
3934		-101.562500
3935		-95.703125
3936		-101.562500
3937		-93.750000
3938		-101.562500
3939		-93.750000
3940		-99.609375
3941		-93.750000
3942		-97.656250
3943		-93.750000
3944		-97.656250
3945		-91.796875
3946		-97.656250
3947		-89.843750
3948		-97.656250
3949		-89.843750
3950		-95.703125
3951		-89.843750
3952		-95.703125
3953		-87.890625
3954		-93.750000
3955		-85.937500
3956		-93.750000
3957		-85.937500
3958		-89.843750
3959		-85.937500
3960		-89.843750
3961		-83.984375
3962		-87.890625
3963		-82.031250
3964		-87.890625
3965		-80.078125
3966		-85.937500
3967		-78.125000
3968		-83.984375
3969		-76.171875
3970		-82.031250
3971		-76.171875
3972		-82.031250
3973		-74.218750
3974		-78.125000
3975		-74.218750
3976		-76.171875
3977		-72.265625
3978		-76.171875
3979		-70.312500
3980		-74.218750
3981		-66.406250
3982		-74.218750
3983		-66.406250
3984		-70.312500
3985		-64.453125
3986		-70.312500
3987		-62.500000
3988		-66.406250
3989		-60.546875
3990		-66.406250
3991		-58.593750
3992		-62.500000
3993		-56.640625
3994		-58.593750
3995		-54.687500
3996		-60.546875
3997		-52.734375
3998		-56.640625
3999		-50.781250
4000		-54.687500
4001		-48.828125
4002		-52.734375
4003		-44.921875
4004		-50.781250
4005		-42.968750
4006		-48.828125
4007		-41.015625
4008		-44.921875
4009		-39.062500
4010		-42.968750
4011		-37.109375
4012		-41.015625
4013		-35.156250
4014		-39.062500
4015		-33.203125
4016		-35.156250
4017		-31.250000
4018		-33.203125
4019		-27.343750
4020		-31.250000
4021		-25.390625
4022		-29.296875
4023		-23.437500
4024		-27.343750
4025		-21.484375
4026		-23.437500
4027		-19.531250
4028		-21.484375
4029		-13.671875
4030		-21.484375
4031		-13.671875
4032		-17.578125
4033		-11.718750
4034		-13.671875
4035		-9.765625
4036		-13.671875
4037		-7.812500
4038		-11.718750
4039		-3.906250
4040		-9.765625
4041		-1.953125
4042		-5.859375
4043		0.000000
4044		-1.953125
4045		1.953125
4046		-1.953125
4047		3.906250
4048		1.953125
4049		5.859375
4050		3.906250
4051		7.812500
4052		5.859375
4053		11.718750
4054		7.812500
4055		13.671875
4056		9.765625
4057		17.578125
4058		13.671875
4059		17.578125
4060		15.625000
4061		19.531250
4062		15.625000
4063		21.484375
4064		19.531250
4065		23.437500
4066		21.484375
4067		25.390625
4068		23.437500
4069		27.343750
4070		25.390625
4071		29.296875
4072		27.343750
4073		31.250000
4074		29.296875
4075		33.203125
4076		31.250000
4077		35.156250
4078		33.203125
4079		37.109375
4080		35.156250
4081		39.062500
4082		37.109375
4083		41.015625
4084		39.062500
4085		42.968750
4086		41.015625
4087		44.921875
4088		41.015625
4089		44.921875
4090		42.968750
4091		48.828125
4092		44.921875
4093		48.828125
4094		46.875000
4095		50.781250
4096		48.828125
4097		52.734375
4098		50.781250
4099		54.687500
4100		50.781250
4101		54.687500
4102		52.734375
4103		56.640625
4104		54.687500
4105		58.593750
4106		54.687500
4107		60.546875
4108		56.640625
4109		60.546875
4110		58.593750
4111		62.500000
4112		58.593750
4113		62.500000
4114		60.546875
4115		64.453125
4116		60.546875
4117		64.453125
4118		62.500000
4119		66.406250
4120		62.500000
4121		66.406250
4122		64.453125
4123		68.359375
4124		64.453125
4125		68.359375
4126		66.406250
4127		68.359375
4128		66.406250
4129		70.312500
4130		66.406250
4131		70.312500
4132		68.359375
4133		72.265625
4134		68.359375
4135		72.265625
4136		68.359375
4137		72.265625
4138		68.359375
4139		74.218750
4140		70.312500
4141		74.218750
4142		70.312500
4143		74.218750
4144		70.312500
4145		74.218750
4146		72.265625
4147		76.171875
4148		72.265625
4149		74.218750
4150		72.265625
4151		76.171875
4152		72.265625
4153		76.171875
4154		72.265625
4155		76.171875
4156		72.265625
4157		76.171875
4158		70.312500
4159		76.171875
4160		72.265625
4161		76.171875
4162		72.265625
4163		76.171875
4164		72.265625
4165		76.171875
4166		72.265625
4167		74.218750
4168		72.265625
4169		74.218750
4170		70.312500
4171		74.218750
4172		70.312500
4173		74.218750
4174		68.359375
4175		74.218750
4176		70.312500
4177		72.265625
4178		68.359375
4179		72.265625
4180		68.359375
4181		72.265625
4182		68.359375
4183		70.312500
4184		66.406250
4185		70.312500
4186		66.406250
4187		70.312500
4188		66.406250
4189		68.359375
4190		64.453125
4191		68.359375
4192		64.453125
4193		68.359375
4194		62.500000
4195		66.406250
4196		60.546875
4197		66.406250
4198		60.546875
4199		64.453125
4200		60.546875
4201		62.500000
4202		58.593750
4203		62.500000
4204		56.640625
4205		60.546875
4206		56.640625
4207		60.546875
4208		54.687500
4209		58.593750
4210		52.734375
4211		56.640625
4212		52.734375
4213		56.640625
4214		50.781250
4215		54.687500
4216		48.828125
4217		52.734375
4218		46.875000
4219		50.781250
4220		44.921875
4221		50.781250
4222		42.968750
4223		48.828125
4224		42.968750
4225		46.875000
4226		41.015625
4227		44.921875
4228		39.062500
4229		42.968750
4230		37.109375
4231		41.015625
4232		35.156250
4233		39.062500
4234		33.203125
4235		37.109375
4236		31.250000
4237		37.109375
4238		29.296875
4239		33.203125
4240		27.343750
4241		33.203125
4242		25.390625
4243		29.296875
4244		23.437500
4245		27.343750
4246		21.484375
4247		25.390625
4248		19.531250
4249		23.437500
4250		17.578125
4251		21.484375
4252		15.625000
4253		19.531250
4254		13.671875
4255		17.578125
4256		11.718750
4257		15.625000
4258		7.812500
4259		13.671875
4260		5.859375
4261		11.718750
4262		3.906250
4263		7.812500
4264		0.000000
4265		5.859375
4266		0.000000
4267		3.906250
4268		-1.953125
4269		1.953125
4270		-5.859375
4271		0.000000
4272		-7.812500
4273		-1.953125
4274		-9.765625
4275		-5.859375
4276		-11.718750
4277		-7.812500
4278		-13.671875
4279		-9.765625
4280		-17.578125
4281		-11.718750
4282		-19.531250
4283		-15.625000
4284		-21.484375
4285		-17.578125
4286		-23.437500
4287		-19.531250
4288		-27.343750
4289		-21.484375
4290		-29.296875
4291		-23.437500
4292		-31.250000
4293		-27.343750
4294		-33.203125
4295		-29.296875
4296		-35.156250
4297		-31.250000
4298		-37.109375
4299		-33.203125
4300		-41.015625
4301		-35.156250
4302		-42.968750
4303		-37.109375
4304		-44.921875
4305		-41.015625
4306		-46.875000
4307		-41.015625
4308		-48.828125
4309		-44.921875
4310		-50.781250
4311		-46.875000
4312		-52.734375
4313		-48.828125
4314		-56.640625
4315		-50.781250
4316		-58.593750
4317		-52.734375
4318		-60.546875
4319		-54.687500
4320		-62.500000
4321		-56.640625
4322		-64.453125
4323		-58.593750
4324		-66.406250
4325		-60.546875
4326		-68.359375
4327		-62.500000
4328		-70.312500
4329		-64.453125
4330		-72.265625
4331		-68.359375
4332		-74.218750
4333		-68.359375
4334		-76.171875
4335		-72.265625
4336		-78.125000
4337		-72.265625
4338		-78.125000
4339		-74.218750
4340		-80.078125
4341		-76.171875
4342		-82.031250
4343		-78.125000
4344		-83.984375
4345		-80.078125
4346		-83.984375
4347		-80.078125
4348		-85.937500
4349		-82.031250
4350		-87.890625
4351		-82.031250
4352		-87.890625
4353		-85.937500
4354		-89.843750
4355		-85.937500
4356		-91.796875
4357		-85.937500
4358		-91.796875
4359		-87.890625
4360		-93.750000
4361		-89.843750
4362		-93.750000
4363		-89.843750
4364		-95.703125
4365		-91.796875
4366		-95.703125
4367		-91.796875
4368		-97.656250
4369		-93.750000
4370		-97.656250
4371		-93.750000
4372		-99.609375
4373		-93.750000
4374		-99.609375
4375		-95.703125
4376		-99.609375
4377		-95.703125
4378		-99.609375
4379		-95.703125
4380		-101.562500
4381		-97.656250
4382		-101.562500
4383		-97.656250
4384		-101.562500
4385		-97.656250
4386		-101.562500
4387		-97.656250
4388		-101.562500
4389		-97.656250
4390		-101.562500
4391		-97.656250
4392		-101.562500
4393		-97.656250
4394		-101.562500
4395		-97.656250
4396		-101.562500
4397		-97.656250
4398		-101.562500
4399		-97.656250
4400		-101.562500
4401		-97.656250
4402		-101.562500
4403		-97.656250
4404		-99.609375
4405		-97.656250
4406		-99.609375
4407		-95.703125
4408		-99.609375
4409		-95.703125
4410		-99.609375
4411		-95.703125
4412		-97.656250
4413		-93.750000
4414		-97.656250
4415		-93.750000
4416		-95.703125
4417		-93.750000
4418		-95.703125
4419		-91.796875
4420		-93.750000
4421		-91.796875
4422		-93.750000
4423		-89.843750
4424		-91.796875
4425		-89.843750
4426		-91.796875
4427		-87.890625
4428		-89.843750
4429		-85.937500
4430		-89.843750
4431		-85.937500
4432		-87.890625
4433		-83.984375
4434		-85.937500
4435		-82.031250
4436		-85.937500
4437		-80.078125
4438		-83.984375
4439		-80.078125
4440		-82.031250
4441		-78.125000
4442		-82.031250
4443		-76.171875
4444		-80.078125
4445		-74.218750
4446		-78.125000
4447		-74.218750
4448		-76.171875
4449		-72.265625
4450		-74.218750
4451		-70.312500
4452		-72.265625
4453		-68.359375
4454		-70.312500
4455		-66.406250
4456		-68.359375
4457		-64.453125
4458		-66.406250
4459		-62.500000
4460		-64.453125
4461		-60.546875
4462		-62.500000
4463		-58.593750
4464		-60.546875
4465		-56.640625
4466		-58.593750
4467		-54.687500
4468		-56.640625
4469		-50.781250
4470		-54.687500
4471		-50.781250
4472		-52.734375
4473		-46.875000
4474		-50.781250
4475		-44.921875
4476		-48.828125
4477		-42.968750
4478		-44.921875
4479		-41.015625
4480		-42.968750
4481		-39.062500
4482		-41.015625
4483		-37.109375
4484		-39.062500
4485		-35.156250
4486		-37.109375
4487		-31.250000
4488		-35.156250
4489		-29.296875
4490		-31.250000
4491		-27.343750
4492		-29.296875
4493		-25.390625
4494		-27.343750
4495		-23.437500
4496		-25.390625
4497		-21.484375
4498		-23.437500
4499		-17.578125
4500		-19.531250
4501		-15.625000
4502		-17.578125
4503		-13.671875
4504		-15.625000
4505		-11.718750
4506		-13.671875
4507		-9.765625
4508		-11.718750
4509		-5.859375
4510		-9.765625
4511		-3.906250
4512		-5.859375
4513		-1.953125
4514		-3.906250
4515		0.000000
4516		-1.953125
4517		3.906250
4518		0.000000
4519		5.859375
4520		1.953125
4521		7.812500
4522		3.906250
4523		9.765625
4524		7.812500
4525		11.718750
4526		9.765625
4527		13.671875
4528		9.765625
4529		15.625000
4530		13.671875
4531		17.578125
4532		15.625000
4533		21.484375
4534		17.578125
4535		21.484375
4536		19.531250
4537		25.390625
4538		21.484375
4539		27.343750
4540		23.437500
4541		27.343750
4542		25.390625
4543		31.250000
4544		27.343750
4545		33.203125
4546		29.296875
4547		35.156250
4548		31.250000
4549		35.156250
4550		33.203125
4551		39.062500
4552		35.156250
4553		41.015625
4554		37.109375
4555		42.968750
4556		39.062500
4557		42.968750
4558		41.015625
4559		44.921875
4560		41.015625
4561		46.875000
4562		42.968750
4563		48.828125
4564		46.875000
4565		50.781250
4566		46.875000
4567		52.734375
4568		48.828125
4569		52.734375
4570		50.781250
4571		54.687500
4572		52.734375
4573		56.640625
4574		52.734375
4575		56.640625
4576		54.687500
4577		58.593750
4578		54.687500
4579		60.546875
4580		56.640625
4581		60.546875
4582		58.593750
4583		62.500000
4584		58.593750
4585		62.500000
4586		60.546875
4587		64.453125
4588		62.500000
4589		66.406250
4590		62.500000
4591		66.406250
4592		64.453125
4593		68.359375
4594		64.453125
4595		68.359375
4596		66.406250
4597		68.359375
4598		66.406250
4599		70.312500
4600		68.359375
4601		72.265625
4602		66.406250
4603		72.265625
4604		68.359375
4605		72.265625
4606		70.312500
4607		72.265625
4608		70.312500
4609		72.265625
4610		70.312500
4611		74.218750
4612		70.312500
4613		74.218750
4614		70.312500
4615		74.218750
4616		70.312500
4617		74.218750
4618		72.265625
4619		76.171875
4620		72.265625
4621		76.171875
4622		72.265625
4623		76.171875
4624		72.265625
4625		76.171875
4626		72.265625
4627		76.171875
4628		72.265625
4629		76.171875
4630		72.265625
4631		76.171875
4632		72.265625
4633		76.171875
4634		72.265625
4635		76.171875
4636		72.265625
4637		76.171875
4638		72.265625
4639		76.171875
4640		70.312500
4641		74.218750
4642		70.312500
4643		74.218750
4644		70.312500
4645		74.218750
4646		70.312500
4647		74.218750
4648		70.312500
4649		74.218750
4650		68.359375
4651		72.265625
4652		68.359375
4653		72.265625
4654		68.359375
4655		72.265625
4656		66.406250
4657		70.312500
4658		66.406250
4659		70.312500
4660		66.406250
4661		70.312500
4662		64.453125
4663		68.359375
4664		64.453125
4665		68.359375
4666		62.500000
4667		66.406250
4668		62.500000
4669		66.406250
4670		60.546875
4671		64.453125
4672		60.546875
4673		64.453125
4674		58.593750
4675		62.500000
4676		56.640625
4677		60.546875
4678		54.687500
4679		60.546875
4680		54.687500
4681		58.593750
4682		52.734375
4683		56.640625
4684		52.734375
4685		56.640625
4686		50.781250
4687		54.687500
4688		48.828125
4689		52.734375
4690		46.875000
4691		52.734375
4692		44.921875
4693		50.781250
4694		44.921875
4695		48.828125
4696		42.968750
4697		46.875000
4698		41.015625
4699		44.921875
4700		37.109375
4701		42.968750
4702		37.109375
4703		41.015625
4704		35.156250
4705		39.062500
4706		33.203125
4707		37.109375
4708		31.250000
4709		35.156250
4710		29.296875
4711		33.203125
4712		27.343750
4713		31.250000
4714		25.390625
4715		29.296875
4716		23.437500
4717		27.343750
4718		21.484375
4719		25.390625
4720		19.531250
4721		23.437500
4722		17.578125
4723		21.484375
4724		15.625000
4725		19.531250
4726		11.718750
4727		17.578125
4728		9.765625
4729		13.671875
4730		7.812500
4731		11.718750
4732		5.859375
4733		9.765625
4734		3.906250
4735		7.812500
4736		1.953125
4737		5.859375
4738		-1.953125
4739		3.906250
4740		-3.906250
4741		1.953125
4742		-5.859375
4743		0.000000
4744		-7.812500
4745		-1.953125
4746		-9.765625
4747		-5.859375
4748		-11.718750
4749		-7.812500
4750		-15.625000
4751		-9.765625
4752		-17.578125
4753		-11.718750
4754		-19.531250
4755		-13.671875
4756		-21.484375
4757		-17.578125
4758		-25.390625
4759		-19.531250
4760		-27.343750
4761		-21.484375
4762		-29.296875
4763		-25.390625
4764		-31.250000
4765		-27.343750
4766		-33.203125
4767		-29.296875
4768		-35.156250
4769		-31.250000
4770		-39.062500
4771		-33.203125
4772		-41.015625
4773		-35.156250
4774		-42.968750
4775		-37.109375
4776		-44.921875
4777		-41.015625
4778		-46.875000
4779		-42.968750
4780		-48.828125
4781		-44.921875
4782		-50.781250
4783		-46.875000
4784		-54.687500
4785		-48.828125
4786		-56.640625
4787		-50.781250
4788		-58.593750
4789		-52.734375
4790		-60.546875
4791		-54.687500
4792		-62.500000
4793		-56.640625
4794		-64.453125
4795		-58.593750
4796		-66.406250
4797		-60.546875
4798		-68.359375
4799		-64.453125
4800		-70.312500
4801		-66.406250
4802		-72.265625
4803		-66.406250
4804		-74.218750
4805		-70.312500
4806		-76.171875
4807		-70.312500
4808		-76.171875
4809		-72.265625
4810		-78.125000
4811		-74.218750
4812		-80.078125
4813		-76.171875
4814		-82.031250
4815		-78.125000
4816		-83.984375
4817		-80.078125
4818		-85.937500
4819		-80.078125
4820		-85.937500
4821		-82.031250
4822		-87.890625
4823		-83.984375
4824		-89.843750
4825		-83.984375
4826		-89.843750
4827		-85.937500
4828		-91.796875
4829		-87.890625
4830		-91.796875
4831		-87.890625
4832		-93.750000
4833		-89.843750
4834		-93.750000
4835		-89.843750
4836		-95.703125
4837		-91.796875
4838		-95.703125
4839		-91.796875
4840		-97.656250
4841		-93.750000
4842		-97.656250
4843		-93.750000
4844		-99.609375
4845		-93.750000
4846		-99.609375
4847		-95.703125
4848		-99.609375
4849		-95.703125
4850		-99.609375
4851		-95.703125
4852		-99.609375
4853		-97.656250
4854		-99.609375
4855		-97.656250
4856		-101.562500
4857		-97.656250
4858		-101.562500
4859		-97.656250
4860		-101.562500
4861		-97.656250
4862		-101.562500
4863		-97.656250
4864		-103.515625
4865		-97.656250
4866		-101.562500
4867		-97.656250
4868		-101.562500
4869		-95.703125
4870		-101.562500
4871		-97.656250
4872		-101.562500
4873		-97.656250
4874		-101.562500
4875		-97.656250
4876		-99.609375
4877		-95.703125
4878		-99.609375
4879		-95.703125
4880		-99.609375
4881		-93.750000
4882		-97.656250
4883		-95.703125
4884		-97.656250
4885		-93.750000
4886		-97.656250
4887		-93.750000
4888		-95.703125
4889		-91.796875
4890		-95.703125
4891		-91.796875
4892		-93.750000
4893		-89.843750
4894		-93.750000
4895		-89.843750
4896		-91.796875
4897		-87.890625
4898		-91.796875
4899		-87.890625
4900		-89.843750
4901		-85.937500
4902		-89.843750
4903		-83.984375
4904		-87.890625
4905		-83.984375
4906		-85.937500
4907		-82.031250
4908		-83.984375
4909		-80.078125
4910		-82.031250
4911		-78.125000
4912		-82.031250
4913		-78.125000
4914		-80.078125
4915		-76.171875
4916		-78.125000
4917		-74.218750
4918		-76.171875
4919		-72.265625
4920		-76.171875
4921		-70.312500
4922		-74.218750
4923		-68.359375
4924		-72.265625
4925		-66.406250
4926		-70.312500
4927		-64.453125
4928		-68.359375
4929		-64.453125
4930		-66.406250
4931		-62.500000
4932		-64.453125
4933		-60.546875
4934		-62.500000
4935		-56.640625
4936		-60.546875
4937		-54.687500
4938		-58.593750
4939		-52.734375
4940		-56.640625
4941		-50.781250
4942		-52.734375
4943		-48.828125
4944		-50.781250
4945		-46.875000
4946		-50.781250
4947		-44.921875
4948		-46.875000
4949		-42.968750
4950		-44.921875
4951		-41.015625
4952		-42.968750
4953		-37.109375
4954		-41.015625
4955		-35.156250
4956		-39.062500
4957		-33.203125
4958		-35.156250
4959		-31.250000
4960		-33.203125
4961		-29.296875
4962		-31.250000
4963		-25.390625
4964		-29.296875
4965		-23.437500
4966		-25.390625
4967		-21.484375
4968		-23.437500
4969		-19.531250
4970		-23.437500
4971		-17.578125
4972		-19.531250
4973		-15.625000
4974		-17.578125
4975		-11.718750
4976		-15.625000
4977		-9.765625
4978		-13.671875
4979		-7.812500
4980		-9.765625
4981		-5.859375
4982		-7.812500
4983		-3.906250
4984		-5.859375
4985		-1.953125
4986		-3.906250
4987		1.953125
4988		-1.953125
4989		3.906250
4990		1.953125
4991		5.859375
4992		3.906250
4993		7.812500
4994		5.859375
4995		11.718750
4996		7.812500
4997		11.718750
4998		9.765625
4999		15.625000
5000		11.718750
5001		17.578125
5002		13.671875
5003		19.531250
5004		15.625000
5005		21.484375
5006		19.531250
5007		23.437500
5008		21.484375
5009		25.390625
5010		23.437500
5011		27.343750
5012		25.390625
5013		29.296875
5014		27.343750
5015		31.250000
5016		27.343750
5017		33.203125
5018		31.250000
5019		35.156250
5020		33.203125
5021		37.109375
5022		35.156250
5023		39.062500
5024		37.109375
5025		41.015625
5026		37.109375
5027		42.968750
5028		39.062500
5029		44.921875
5030		41.015625
5031		46.875000
5032		42.968750
5033		46.875000
5034		44.921875
5035		48.828125
5036		46.875000
5037		50.781250
5038		46.875000
5039		52.734375
5040		48.828125
5041		54.687500
5042		50.781250
5043		54.687500
5044		52.734375
5045		56.640625
5046		52.734375
5047		58.593750
5048		54.687500
5049		60.546875
5050		56.640625
5051		60.546875
5052		58.593750
5053		62.500000
5054		56.640625
5055		62.500000
5056		60.546875
5057		64.453125
5058		60.546875
5059		66.406250
5060		62.500000
5061		66.406250
5062		62.500000
5063		66.406250
5064		64.453125
5065		68.359375
5066		64.453125
5067		68.359375
5068		66.406250
5069		70.312500
5070		66.406250
5071		70.312500
5072		68.359375
5073		70.312500
5074		68.359375
5075		72.265625
5076		68.359375
5077		72.265625
5078		70.312500
5079		72.265625
5080		70.312500
5081		74.218750
5082		70.312500
5083		74.218750
5084		70.312500
5085		74.218750
5086		72.265625
5087		74.218750
5088		70.312500
5089		76.171875
5090		72.265625
5091		76.171875
5092		72.265625
5093		76.171875
5094		72.265625
5095		76.171875
5096		72.265625
5097		76.171875
5098		72.265625
5099		76.171875
5100		72.265625
5101		76.171875
5102		72.265625
5103		76.171875
5104		72.265625
5105		76.171875
5106		72.265625
5107		76.171875
5108		72.265625
5109		76.171875
5110		72.265625
5111		76.171875
5112		72.265625
5113		74.218750
5114		70.312500
5115		74.218750
5116		70.312500
5117		74.218750
5118		70.312500
5119		74.218750
5120		70.312500
5121		74.218750
5122		68.359375
5123		72.265625
5124		68.359375
5125		72.265625
5126		66.406250
5127		72.265625
5128		68.359375
5129		70.312500
5130		66.406250
5131		70.312500
5132		64.453125
5133		68.359375
5134		64.453125
5135		68.359375
5136		64.453125
5137		68.359375
5138		62.500000
5139		68.359375
5140		62.500000
5141		66.406250
5142		60.546875
5143		64.453125
5144		58.593750
5145		62.500000
5146		58.593750
5147		62.500000
5148		56.640625
5149		60.546875
5150		54.687500
5151		60.546875
5152		54.687500
5153		58.593750
5154		52.734375
5155		56.640625
5156		50.781250
5157		56.640625
5158		48.828125
5159		54.687500
5160		48.828125
5161		52.734375
5162		46.875000
5163		50.781250
5164		44.921875
5165		48.828125
5166		42.968750
5167		46.875000
5168		42.968750
5169		46.875000
5170		41.015625
5171		44.921875
5172		39.062500
5173		42.968750
5174		37.109375
5175		41.015625
5176		35.156250
5177		39.062500
5178		33.203125
5179		37.109375
5180		31.250000
5181		35.156250
5182		29.296875
5183		33.203125
5184		27.343750
5185		31.250000
5186		25.390625
5187		29.296875
5188		23.437500
5189		27.343750
5190		19.531250
5191		25.390625
5192		17.578125
5193		23.437500
5194		15.625000
5195		21.484375
5196		13.671875
5197		19.531250
5198		11.718750
5199		17.578125
5200		9.765625
5201		15.625000
5202		7.812500
5203		11.718750
5204		3.906250
5205		9.765625
5206		3.906250
5207		7.812500
5208		0.000000
5209		5.859375
5210		-1.953125
5211		3.906250
5212		-3.906250
5213		0.000000
5214		-5.859375
5215		-1.953125
5216		-9.765625
5217		-3.906250
5218		-9.765625
5219		-5.859375
5220		-13.671875
5221		-7.812500
5222		-15.625000
5223		-11.718750
5224		-17.578125
5225		-13.671875
5226		-19.531250
5227		-15.625000
5228		-23.437500
5229		-17.578125
5230		-25.390625
5231		-19.531250
5232		-27.343750
5233		-21.484375
5234		-29.296875
5235		-25.390625
5236		-31.250000
5237		-27.343750
5238		-33.203125
5239		-29.296875
5240		-37.109375
5241		-31.250000
5242		-39.062500
5243		-33.203125
5244		-41.015625
5245		-37.109375
5246		-42.968750
5247		-39.062500
5248		-44.921875
5249		-41.015625
5250		-46.875000
5251		-42.968750
5252		-50.781250
5253		-44.921875
5254		-52.734375
5255		-46.875000
5256		-54.687500
5257		-48.828125
5258		-56.640625
5259		-52.734375
5260		-58.593750
5261		-52.734375
5262		-60.546875
5263		-56.640625
5264		-62.500000
5265		-58.593750
5266		-64.453125
5267		-60.546875
5268		-66.406250
5269		-62.500000
5270		-68.359375
5271		-64.453125
5272		-70.312500
5273		-66.406250
5274		-72.265625
5275		-68.359375
5276		-74.218750
5277		-68.359375
5278		-76.171875
5279		-70.312500
5280		-78.125000
5281		-72.265625
5282		-80.078125
5283		-74.218750
5284		-80.078125
5285		-76.171875
5286		-82.031250
5287		-78.125000
5288		-83.984375
5289		-80.078125
5290		-83.984375
5291		-80.078125
5292		-87.890625
5293		-82.031250
5294		-87.890625
5295		-83.984375
5296		-87.890625
5297		-85.937500
5298		-89.843750
5299		-85.937500
5300		-91.796875
5301		-87.890625
5302		-91.796875
5303		-87.890625
5304		-93.750000
5305		-89.843750
5306		-93.750000
5307		-89.843750
5308		-95.703125
5309		-91.796875
5310		-95.703125
5311		-91.796875
5312		-97.656250
5313		-93.750000
5314		-97.656250
5315		-93.750000
5316		-97.656250
5317		-95.703125
5318		-99.609375
5319		-95.703125
5320		-99.609375
5321		-95.703125
5322		-101.562500
5323		-95.703125
5324		-99.609375
5325		-95.703125
5326		-99.609375
5327		-97.656250
5328		-99.609375
5329		-97.656250
5330		-101.562500
5331		-97.656250
5332		-101.562500
5333		-97.656250
5334		-101.562500
5335		-97.656250
5336		-99.609375
5337		-97.656250
5338		-99.609375
5339		-97.656250
5340		-101.562500
5341		-97.656250
5342		-99.609375
5343		-97.656250
5344		-99.609375
5345		-95.703125
5346		-99.609375
5347		-95.703125
5348		-99.609375
5349		-95.703125
5350		-97.656250
5351		-95.703125
5352		-97.656250
5353		-93.750000
5354		-97.656250
5355		-93.750000
5356		-97.656250
5357		-91.796875
5358		-95.703125
5359		-91.796875
5360		-95.703125
5361		-91.796875
5362		-93.750000
5363		-89.843750
5364		-93.750000
5365		-89.843750
5366		-91.796875
5367		-87.890625
5368		-91.796875
5369		-87.890625
5370		-89.843750
5371		-85.937500
5372		-89.843750
5373		-85.937500
5374		-87.890625
5375		-83.984375
5376		-85.937500
5377		-82.031250
5378		-85.937500
5379		-82.031250
5380		-83.984375
5381		-80.078125
5382		-82.031250
5383		-78.125000
5384		-80.078125
5385		-76.171875
5386		-80.078125
5387		-74.218750
5388		-78.125000
5389		-74.218750
5390		-76.171875
5391		-72.265625
5392		-74.218750
5393		-68.359375
5394		-72.265625
5395		-68.359375
5396		-70.312500
5397		-66.406250
5398		-68.359375
5399		-62.500000
5400		-66.406250
5401		-62.500000
5402		-64.453125
5403		-60.546875
5404		-62.500000
5405		-58.593750
5406		-60.546875
5407		-56.640625
5408		-58.593750
5409		-54.687500
5410		-56.640625
5411		-52.734375
5412		-54.687500
5413		-50.781250
5414		-52.734375
5415		-46.875000
5416		-50.781250
5417		-44.921875
5418		-46.875000
5419		-42.968750
5420		-44.921875
5421		-41.015625
5422		-42.968750
5423		-39.062500
5424		-41.015625
5425		-37.109375
5426		-39.062500
5427		-35.156250
5428		-37.109375
5429		-31.250000
5430		-33.203125
5431		-29.296875
5432		-31.250000
5433		-27.343750
5434		-29.296875
5435		-25.390625
5436		-29.296875
5437		-23.437500
5438		-25.390625
5439		-21.484375
5440		-23.437500
5441		-17.578125
5442		-19.531250
5443		-15.625000
5444		-17.578125
5445		-13.671875
5446		-15.625000
5447		-11.718750
5448		-13.671875
5449		-7.812500
5450		-11.718750
5451		-5.859375
5452		-7.812500
5453		-3.906250
5454		-5.859375
5455		-1.953125
5456		-3.906250
5457		0.000000
5458		-1.953125
5459		3.906250
5460		0.000000
5461		3.906250
5462		3.906250
5463		7.812500
5464		5.859375
5465		9.765625
5466		7.812500
5467		11.718750
5468		9.765625
5469		13.671875
5470		11.718750
5471		15.625000
5472		13.671875
5473		17.578125
5474		15.625000
5475		19.531250
5476		17.578125
5477		23.437500
5478		19.531250
5479		23.437500
5480		21.484375
5481		27.343750
5482		23.437500
5483		29.296875
5484		25.390625
5485		31.250000
5486		27.343750
5487		33.203125
5488		29.296875
5489		35.156250
5490		31.250000
5491		37.109375
5492		33.203125
5493		39.062500
5494		35.156250
5495		41.015625
5496		37.109375
5497		41.015625
5498		39.062500
5499		42.968750
5500		41.015625
5501		44.921875
5502		42.968750
5503		46.875000
5504		44.921875
5505		48.828125
5506		46.875000
5507		50.781250
5508		46.875000
5509		52.734375
5510		48.828125
5511		52.734375
5512		50.781250
5513		54.687500
5514		52.734375
5515		56.640625
5516		52.734375
5517		56.640625
5518		54.687500
5519		58.593750
5520		56.640625
5521		60.546875
5522		56.640625
5523		60.546875
5524		58.593750
5525		62.500000
5526		60.546875
5527		64.453125
5528		60.546875
5529		64.453125
5530		62.500000
5531		66.406250
5532		62.500000
5533		66.406250
5534		64.453125
5535		68.359375
5536		64.453125
5537		70.312500
5538		66.406250
5539		68.359375
5540		66.406250
5541		70.312500
5542		66.406250
5543		70.312500
5544		68.359375
5545		72.265625
5546		68.359375
5547		72.265625
5548		70.312500
5549		74.218750
5550		70.312500
5551		74.218750
5552		70.312500
5553		74.218750
5554		70.312500
5555		74.218750
5556		72.265625
5557		74.218750
5558		72.265625
5559		76.171875
5560		72.265625
5561		76.171875
5562		72.265625
5563		76.171875
5564		72.265625
5565		76.171875
5566		74.218750
5567		76.171875
5568		72.265625
5569		76.171875
5570		72.265625
5571		76.171875
5572		74.218750
5573		76.171875
5574		72.265625
5575		76.171875
5576		72.265625
5577		76.171875
5578		72.265625
5579		76.171875
5580		72.265625
5581		76.171875
5582		72.265625
5583		76.171875
5584		70.312500
5585		76.171875
5586		70.312500
5587		76.171875
5588		72.265625
5589		74.218750
5590		70.312500
5591		74.218750
5592		68.359375
5593		74.218750
5594		68.359375
5595		72.265625
5596		68.359375
5597		72.265625
5598		68.359375
5599		72.265625
5600		66.406250
5601		72.265625
5602		66.406250
5603		70.312500
5604		64.453125
5605		70.312500
5606		64.453125
5607		68.359375
5608		62.500000
5609		68.359375
5610		62.500000
5611		68.359375
5612		62.500000
5613		66.406250
5614		60.546875
5615		64.453125
5616		58.593750
5617		64.453125
5618		56.640625
5619		62.500000
5620		56.640625
5621		60.546875
5622		56.640625
5623		60.546875
5624		54.687500
5625		58.593750
5626		52.734375
5627		56.640625
5628		50.781250
5629		56.640625
5630		48.828125
5631		54.687500
5632		46.875000
5633		52.734375
5634		46.875000
5635		50.781250
5636		44.921875
5637		48.828125
5638		42.968750
5639		48.828125
5640		41.015625
5641		44.921875
5642		39.062500
5643		44.921875
5644		37.109375
5645		42.968750
5646		35.156250
5647		41.015625
5648		33.203125
5649		39.062500
5650		31.250000
5651		37.109375
5652		31.250000
5653		37.109375
5654		29.296875
5655		33.203125
5656		27.343750
5657		31.250000
5658		25.390625
5659		29.296875
5660		21.484375
5661		27.343750
5662		19.531250
5663		25.390625
5664		17.578125
5665		23.437500
5666		15.625000
5667		21.484375
5668		11.718750
5669		19.531250
5670		11.718750
5671		17.578125
5672		9.765625
5673		13.671875
5674		7.812500
5675		11.718750
5676		3.906250
5677		9.765625
5678		1.953125
5679		7.812500
5680		0.000000
5681		5.859375
5682		-1.953125
5683		3.906250
5684		-3.906250
5685		1.953125
5686		-5.859375
5687		0.000000
5688		-7.812500
5689		-3.906250
5690		-11.718750
5691		-5.859375
5692		-13.671875
5693		-9.765625
5694		-15.625000
5695		-11.718750
5696		-17.578125
5697		-13.671875
5698		-19.531250
5699		-15.625000
5700		-23.437500
5701		-17.578125
5702		-25.390625
5703		-19.531250
5704		-27.343750
5705		-23.437500
5706		-29.296875
5707		-25.390625
5708		-33.203125
5709		-27.343750
5710		-35.156250
5711		-29.296875
5712		-37.109375
5713		-31.250000
5714		-39.062500
5715		-35.156250
5716		-41.015625
5717		-37.109375
5718		-42.968750
5719		-39.062500
5720		-44.921875
5721		-41.015625
5722		-48.828125
5723		-42.968750
5724		-50.781250
5725		-46.875000
5726		-52.734375
5727		-48.828125
5728		-54.687500
5729		-50.781250
5730		-56.640625
5731		-50.781250
5732		-58.593750
5733		-54.687500
5734		-60.546875
5735		-56.640625
5736		-62.500000
5737		-58.593750
5738		-64.453125
5739		-60.546875
5740		-66.406250
5741		-62.500000
5742		-68.359375
5743		-64.453125
5744		-70.312500
5745		-66.406250
5746		-72.265625
5747		-68.359375
5748		-74.218750
5749		-70.312500
5750		-76.171875
5751		-72.265625
5752		-76.171875
5753		-72.265625
5754		-78.125000
5755		-74.218750
5756		-80.078125
5757		-76.171875
5758		-82.031250
5759		-78.125000
5760		-83.984375
5761		-80.078125
5762		-85.937500
5763		-80.078125
5764		-85.937500
5765		-82.031250
5766		-87.890625
5767		-83.984375
5768		-87.890625
5769		-83.984375
5770		-89.843750
5771		-85.937500
5772		-91.796875
5773		-87.890625
5774		-91.796875
5775		-87.890625
5776		-91.796875
5777		-89.843750
5778		-93.750000
5779		-89.843750
5780		-93.750000
5781		-91.796875
5782		-95.703125
5783		-91.796875
5784		-95.703125
5785		-91.796875
5786		-97.656250
5787		-93.750000
5788		-97.656250
5789		-93.750000
5790		-97.656250
5791		-95.703125
5792		-99.609375
5793		-95.703125
5794		-101.562500
5795		-91.796875
5796		-101.562500
5797		-91.796875
5798		-101.562500
5799		-93.750000
5800		-99.609375
5801		-97.656250
5802		-99.609375
5803		-95.703125
5804		-99.609375
5805		-97.656250
5806		-99.609375
5807		-97.656250
5808		-99.609375
5809		-97.656250
5810		-103.515625
5811		-93.750000
5812		-103.515625
5813		-93.750000
5814		-101.562500
5815		-93.750000
5816		-99.609375
5817		-95.703125
5818		-99.609375
5819		-95.703125
5820		-97.656250
5821		-95.703125
5822		-97.656250
5823		-93.750000
5824		-97.656250
5825		-93.750000
5826		-95.703125
5827		-89.843750
5828		-99.609375
5829		-89.843750
5830		-97.656250
5831		-89.843750
5832		-97.656250
5833		-87.890625
5834		-93.750000
5835		-89.843750
5836		-91.796875
5837		-89.843750
5838		-91.796875
5839		-87.890625
5840		-89.843750
5841		-85.937500
5842		-87.890625
5843		-85.937500
5844		-91.796875
5845		-80.078125
5846		-89.843750
5847		-80.078125
5848		-87.890625
5849		-80.078125
5850		-83.984375
5851		-80.078125
5852		-82.031250
5853		-78.125000
5854		-80.078125
5855		-76.171875
5856		-78.125000
5857		-76.171875
5858		-78.125000
5859		-74.218750
5860		-78.125000
5861		-68.359375
5862		-76.171875
5863		-68.359375
5864		-76.171875
5865		-66.406250
5866		-72.265625
5867		-64.453125
5868		-68.359375
5869		-64.453125
5870		-66.406250
5871		-62.500000
5872		-66.406250
5873		-60.546875
5874		-62.500000
5875		-58.593750
5876		-60.546875
5877		-56.640625
5878		-62.500000
5879		-52.734375
5880		-60.546875
5881		-50.781250
5882		-58.593750
5883		-48.828125
5884		-52.734375
5885		-48.828125
5886		-50.781250
5887		-46.875000
5888		-48.828125
5889		-44.921875
5890		-46.875000
5891		-42.968750
5892		-44.921875
5893		-39.062500
5894		-42.968750
5895		-35.156250
5896		-42.968750
5897		-33.203125
5898		-41.015625
5899		-29.296875
5900		-35.156250
5901		-31.250000
5902		-33.203125
5903		-29.296875
5904		-31.250000
5905		-25.390625
5906		-29.296875
5907		-23.437500
5908		-25.390625
5909		-21.484375
5910		-23.437500
5911		-19.531250
5912		-23.437500
5913		-13.671875
5914		-21.484375
5915		-11.718750
5916		-19.531250
5917		-9.765625
5918		-13.671875
5919		-9.765625
5920		-11.718750
5921		-7.812500
5922		-9.765625
5923		-3.906250
5924		-7.812500
5925		-1.953125
5926		-5.859375
5927		0.000000
5928		-5.859375
5929		3.906250
5930		-1.953125
5931		7.812500
5932		0.000000
5933		7.812500
5934		3.906250
5935		7.812500
5936		5.859375
5937		9.765625
5938		7.812500
5939		11.718750
5940		9.765625
5941		15.625000
5942		13.671875
5943		17.578125
5944		13.671875
5945		21.484375
5946		13.671875
5947		25.390625
5948		15.625000
5949		27.343750
5950		17.578125
5951		27.343750
5952		23.437500
5953		27.343750
5954		25.390625
5955		29.296875
5956		27.343750
5957		31.250000
5958		29.296875
5959		33.203125
5960		31.250000
5961		35.156250
5962		31.250000
5963		39.062500
5964		31.250000
5965		41.015625
5966		35.156250
5967		42.968750
5968		39.062500
5969		42.968750
5970		39.062500
5971		44.921875
5972		41.015625
5973		46.875000
5974		42.968750
5975		46.875000
5976		44.921875
5977		48.828125
5978		46.875000
5979		50.781250
5980		48.828125
5981		54.687500
5982		48.828125
5983		54.687500
5984		50.781250
5985		54.687500
5986		52.734375
5987		56.640625
5988		54.687500
5989		58.593750
5990		56.640625
5991		60.546875
5992		56.640625
5993		60.546875
5994		58.593750
5995		62.500000
5996		60.546875
5997		66.406250
5998		58.593750
5999		66.406250
6000		58.593750
6001		66.406250
6002		62.500000
6003		66.406250
6004		64.453125
6005		66.406250
6006		64.453125
6007		68.359375
6008		66.406250
6009		68.359375
6010		66.406250
6011		70.312500
6012		66.406250
6013		70.312500
6014		66.406250
6015		72.265625
6016		68.359375
6017		74.218750
6018		70.312500
6019		72.265625
6020		70.312500
6021		74.218750
6022		70.312500
6023		74.218750
6024		72.265625
6025		74.218750
6026		72.265625
6027		74.218750
6028		70.312500
6029		76.171875
6030		72.265625
6031		74.218750
6032		72.265625
6033		76.171875
6034		72.265625
6035		76.171875
6036		72.265625
6037		76.171875
6038		74.218750
6039		76.171875
6040		72.265625
6041		76.171875
6042		74.218750
6043		76.171875
6044		72.265625
6045		76.171875
6046		72.265625
6047		76.171875
6048		72.265625
6049		76.171875
6050		72.265625
6051		76.171875
6052		72.265625
6053		76.171875
6054		72.265625
6055		76.171875
6056		72.265625
6057		76.171875
6058		72.265625
6059		74.218750
6060		70.312500
6061		74.218750
6062		70.312500
6063		74.218750
6064		70.312500
6065		74.218750
6066		70.312500
6067		72.265625
6068		68.359375
6069		72.265625
6070		68.359375
6071		72.265625
6072		66.406250
6073		70.312500
6074		66.406250
6075		70.312500
6076		66.406250
6077		68.359375
6078		64.453125
6079		68.359375
6080		62.500000
6081		68.359375
6082		62.500000
6083		66.406250
6084		60.546875
6085		64.453125
6086		60.546875
6087		64.453125
6088		58.593750
6089		62.500000
6090		56.640625
6091		62.500000
6092		56.640625
6093		60.546875
6094		54.687500
6095		58.593750
6096		52.734375
6097		58.593750
6098		52.734375
6099		56.640625
6100		50.781250
6101		54.687500
6102		48.828125
6103		52.734375
6104		46.875000
6105		52.734375
6106		46.875000
6107		50.781250
6108		44.921875
6109		48.828125
6110		42.968750
6111		46.875000
6112		39.062500
6113		44.921875
6114		39.062500
6115		42.968750
6116		37.109375
6117		41.015625
6118		35.156250
6119		39.062500
6120		33.203125
6121		39.062500
6122		31.250000
6123		37.109375
6124		29.296875
6125		35.156250
6126		27.343750
6127		33.203125
6128		25.390625
6129		29.296875
6130		23.437500
6131		29.296875
6132		21.484375
6133		27.343750
6134		19.531250
6135		23.437500
6136		17.578125
6137		21.484375
6138		15.625000
6139		19.531250
6140		13.671875
6141		17.578125
6142		11.718750
6143		15.625000
6144		7.812500
6145		13.671875
6146		5.859375
6147		11.718750
6148		3.906250
6149		7.812500
6150		1.953125
6151		5.859375
6152		-1.953125
6153		3.906250
6154		-3.906250
6155		1.953125
6156		-5.859375
6157		0.000000
6158		-7.812500
6159		-1.953125
6160		-9.765625
6161		-5.859375
6162		-11.718750
6163		-7.812500
6164		-13.671875
6165		-7.812500
6166		-17.578125
6167		-11.718750
6168		-19.531250
6169		-13.671875
6170		-21.484375
6171		-17.578125
6172		-23.437500
6173		-19.531250
6174		-25.390625
6175		-21.484375
6176		-29.296875
6177		-23.437500
6178		-31.250000
6179		-27.343750
6180		-33.203125
6181		-27.343750
6182		-35.156250
6183		-31.250000
6184		-37.109375
6185		-33.203125
6186		-41.015625
6187		-35.156250
6188		-42.968750
6189		-37.109375
6190		-44.921875
6191		-41.015625
6192		-46.875000
6193		-42.968750
6194		-48.828125
6195		-44.921875
6196		-52.734375
6197		-46.875000
6198		-54.687500
6199		-48.828125
6200		-54.687500
6201		-50.781250
6202		-56.640625
6203		-52.734375
6204		-60.546875
6205		-54.687500
6206		-60.546875
6207		-56.640625
6208		-64.453125
6209		-58.593750
6210		-64.453125
6211		-60.546875
6212		-66.406250
6213		-62.500000
6214		-70.312500
6215		-64.453125
6216		-70.312500
6217		-66.406250
6218		-72.265625
6219		-68.359375
6220		-76.171875
6221		-70.312500
6222		-76.171875
6223		-70.312500
6224		-78.125000
6225		-74.218750
6226		-80.078125
6227		-76.171875
6228		-80.078125
6229		-76.171875
6230		-82.031250
6231		-78.125000
6232		-83.984375
6233		-80.078125
6234		-85.937500
6235		-82.031250
6236		-85.937500
6237		-82.031250
6238		-89.843750
6239		-83.984375
6240		-89.843750
6241		-85.937500
6242		-89.843750
6243		-85.937500
6244		-91.796875
6245		-87.890625
6246		-91.796875
6247		-87.890625
6248		-93.750000
6249		-87.890625
6250		-93.750000
6251		-89.843750
6252		-95.703125
6253		-91.796875
6254		-95.703125
6255		-91.796875
6256		-95.703125
6257		-91.796875
6258		-97.656250
6259		-93.750000
6260		-97.656250
6261		-93.750000
6262		-97.656250
6263		-93.750000
6264		-99.609375
6265		-95.703125
6266		-99.609375
6267		-95.703125
6268		-99.609375
6269		-95.703125
6270		-99.609375
6271		-97.656250
6272		-99.609375
6273		-95.703125
6274		-99.609375
6275		-95.703125
6276		-99.609375
6277		-97.656250
6278		-99.609375
6279		-97.656250
6280		-99.609375
6281		-97.656250
6282		-99.609375
6283		-95.703125
6284		-99.609375
6285		-95.703125
6286		-99.609375
6287		-95.703125
6288		-99.609375
6289		-95.703125
6290		-97.656250
6291		-95.703125
6292		-97.656250
6293		-93.750000
6294		-97.656250
6295		-93.750000
6296		-97.656250
6297		-91.796875
6298		-95.703125
6299		-93.750000
6300		-95.703125
6301		-91.796875
6302		-93.750000
6303		-91.796875
6304		-93.750000
6305		-89.843750
6306		-91.796875
6307		-89.843750
6308		-91.796875
6309		-87.890625
6310		-89.843750
6311		-87.890625
6312		-89.843750
6313		-85.937500
6314		-87.890625
6315		-83.984375
6316		-85.937500
6317		-83.984375
6318		-85.937500
6319		-82.031250
6320		-83.984375
6321		-80.078125
6322		-82.031250
6323		-80.078125
6324		-82.031250
6325		-78.125000
6326		-80.078125
6327		-76.171875
6328		-78.125000
6329		-74.218750
6330		-76.171875
6331		-72.265625
6332		-76.171875
6333		-70.312500
6334		-74.218750
6335		-70.312500
6336		-72.265625
6337		-68.359375
6338		-70.312500
6339		-66.406250
6340		-68.359375
6341		-64.453125
6342		-66.406250
6343		-62.500000
6344		-64.453125
6345		-60.546875
6346		-62.500000
6347		-58.593750
6348		-60.546875
6349		-56.640625
6350		-58.593750
6351		-54.687500
6352		-56.640625
6353		-52.734375
6354		-54.687500
6355		-48.828125
6356		-52.734375
6357		-46.875000
6358		-48.828125
6359		-44.921875
6360		-46.875000
6361		-42.968750
6362		-44.921875
6363		-41.015625
6364		-42.968750
6365		-39.062500
6366		-41.015625
6367		-37.109375
6368		-39.062500
6369		-33.203125
6370		-37.109375
6371		-31.250000
6372		-33.203125
6373		-29.296875
6374		-31.250000
6375		-27.343750
6376		-29.296875
6377		-25.390625
6378		-27.343750
6379		-23.437500
6380		-25.390625
6381		-19.531250
6382		-23.437500
6383		-17.578125
6384		-19.531250
6385		-15.625000
6386		-17.578125
6387		-13.671875
6388		-15.625000
6389		-11.718750
6390		-13.671875
6391		-9.765625
6392		-11.718750
6393		-5.859375
6394		-7.812500
6395		-3.906250
6396		-5.859375
6397		-1.953125
6398		-3.906250
6399		0.000000
6400		-1.953125
6401		1.953125
6402		0.000000
6403		5.859375
6404		1.953125
6405		7.812500
6406		5.859375
6407		9.765625
6408		7.812500
6409		11.718750
6410		9.765625
6411		13.671875
6412		9.765625
6413		15.625000
6414		13.671875
6415		17.578125
6416		13.671875
6417		21.484375
6418		17.578125
6419		23.437500
6420		19.531250
6421		25.390625
6422		23.437500
6423		27.343750
6424		25.390625
6425		29.296875
6426		27.343750
6427		31.250000
6428		29.296875
6429		33.203125
6430		31.250000
6431		35.156250
6432		31.250000
6433		37.109375
6434		33.203125
6435		39.062500
6436		35.156250
6437		39.062500
6438		37.109375
6439		41.015625
6440		39.062500
6441		42.968750
6442		41.015625
6443		44.921875
6444		42.968750
6445		46.875000
6446		44.921875
6447		48.828125
6448		44.921875
6449		52.734375
6450		46.875000
6451		52.734375
6452		46.875000
6453		52.734375
6454		50.781250
6455		54.687500
6456		52.734375
6457		56.640625
6458		52.734375
6459		56.640625
6460		54.687500
6461		58.593750
6462		56.640625
6463		60.546875
6464		58.593750
6465		60.546875
6466		58.593750
6467		62.500000
6468		58.593750
6469		64.453125
6470		60.546875
6471		64.453125
6472		62.500000
6473		66.406250
6474		62.500000
6475		66.406250
6476		64.453125
6477		68.359375
6478		66.406250
6479		68.359375
6480		66.406250
6481		70.312500
6482		66.406250
6483		72.265625
6484		66.406250
6485		72.265625
6486		68.359375
6487		72.265625
6488		70.312500
6489		72.265625
6490		70.312500
6491		72.265625
6492		70.312500
6493		74.218750
6494		70.312500
6495		74.218750
6496		72.265625
6497		74.218750
6498		72.265625
6499		74.218750
6500		70.312500
6501		78.125000
6502		72.265625
6503		76.171875
6504		72.265625
6505		76.171875
6506		74.218750
6507		76.171875
6508		74.218750
6509		76.171875
6510		74.218750
6511		76.171875
6512		74.218750
6513		76.171875
6514		74.218750
6515		76.171875
6516		72.265625
6517		78.125000
6518		72.265625
6519		78.125000
6520		74.218750
6521		76.171875
6522		72.265625
6523		76.171875
6524		72.265625
6525		76.171875
6526		72.265625
6527		76.171875
6528		72.265625
6529		76.171875
6530		72.265625
6531		74.218750
6532		68.359375
6533		76.171875
6534		70.312500
6535		76.171875
6536		70.312500
6537		74.218750
6538		70.312500
6539		72.265625
6540		68.359375
6541		72.265625
6542		68.359375
6543		72.265625
6544		66.406250
6545		70.312500
6546		66.406250
6547		70.312500
6548		66.406250
6549		70.312500
6550		62.500000
6551		70.312500
6552		62.500000
6553		68.359375
6554		62.500000
6555		66.406250
6556		60.546875
6557		64.453125
6558		60.546875
6559		64.453125
6560		58.593750
6561		62.500000
6562		58.593750
6563		60.546875
6564		56.640625
6565		60.546875
6566		52.734375
6567		60.546875
6568		52.734375
6569		58.593750
6570		50.781250
6571		56.640625
6572		50.781250
6573		54.687500
6574		48.828125
6575		52.734375
6576		46.875000
6577		50.781250
6578		46.875000
6579		50.781250
6580		44.921875
6581		48.828125
6582		42.968750
6583		46.875000
6584		39.062500
6585		46.875000
6586		39.062500
6587		44.921875
6588		37.109375
6589		41.015625
6590		35.156250
6591		39.062500
6592		33.203125
6593		37.109375
6594		31.250000
6595		37.109375
6596		29.296875
6597		33.203125
6598		27.343750
6599		31.250000
6600		25.390625
6601		29.296875
6602		23.437500
6603		29.296875
6604		21.484375
6605		25.390625
6606		19.531250
6607		23.437500
6608		17.578125
6609		21.484375
6610		15.625000
6611		19.531250
6612		13.671875
6613		17.578125
6614		9.765625
6615		15.625000
6616		7.812500
6617		13.671875
6618		5.859375
6619		11.718750
6620		3.906250
6621		7.812500
6622		1.953125
6623		5.859375
6624		0.000000
6625		3.906250
6626		-1.953125
6627		1.953125
6628		-5.859375
6629		0.000000
6630		-7.812500
6631		-3.906250
6632		-9.765625
6633		-5.859375
6634		-11.718750
6635		-7.812500
6636		-13.671875
6637		-9.765625
6638		-17.578125
6639		-11.718750
6640		-19.531250
6641		-15.625000
6642		-21.484375
6643		-17.578125
6644		-23.437500
6645		-19.531250
6646		-25.390625
6647		-21.484375
6648		-29.296875
6649		-23.437500
6650		-31.250000
6651		-27.343750
6652		-33.203125
6653		-29.296875
6654		-35.156250
6655		-31.250000
6656		-37.109375
6657		-33.203125
6658		-39.062500
6659		-35.156250
6660		-42.968750
6661		-37.109375
6662		-44.921875
6663		-41.015625
6664		-46.875000
6665		-42.968750
6666		-48.828125
6667		-44.921875
6668		-50.781250
6669		-46.875000
6670		-52.734375
6671		-48.828125
6672		-54.687500
6673		-50.781250
6674		-56.640625
6675		-52.734375
6676		-58.593750
6677		-54.687500
6678		-60.546875
6679		-56.640625
6680		-64.453125
6681		-58.593750
6682		-66.406250
6683		-60.546875
6684		-66.406250
6685		-62.500000
6686		-68.359375
6687		-64.453125
6688		-70.312500
6689		-66.406250
6690		-72.265625
6691		-68.359375
6692		-74.218750
6693		-70.312500
6694		-76.171875
6695		-72.265625
6696		-78.125000
6697		-74.218750
6698		-80.078125
6699		-76.171875
6700		-82.031250
6701		-76.171875
6702		-82.031250
6703		-78.125000
6704		-83.984375
6705		-80.078125
6706		-83.984375
6707		-82.031250
6708		-85.937500
6709		-82.031250
6710		-87.890625
6711		-83.984375
6712		-87.890625
6713		-85.937500
6714		-89.843750
6715		-85.937500
6716		-91.796875
6717		-87.890625
6718		-91.796875
6719		-87.890625
6720		-93.750000
6721		-89.843750
6722		-93.750000
6723		-89.843750
6724		-93.750000
6725		-91.796875
6726		-95.703125
6727		-91.796875
6728		-95.703125
6729		-91.796875
6730		-97.656250
6731		-93.750000
6732		-97.656250
6733		-93.750000
6734		-97.656250
6735		-95.703125
6736		-97.656250
6737		-95.703125
6738		-99.609375
6739		-95.703125
6740		-99.609375
6741		-95.703125
6742		-99.609375
6743		-95.703125
6744		-99.609375
6745		-97.656250
6746		-99.609375
6747		-95.703125
6748		-99.609375
6749		-95.703125
6750		-99.609375
6751		-95.703125
6752		-99.609375
6753		-95.703125
6754		-99.609375
6755		-95.703125
6756		-99.609375
6757		-95.703125
6758		-99.609375
6759		-95.703125
6760		-97.656250
6761		-95.703125
6762		-97.656250
6763		-93.750000
6764		-97.656250
6765		-93.750000
6766		-97.656250
6767		-93.750000
6768		-95.703125
6769		-93.750000
6770		-95.703125
6771		-91.796875
6772		-95.703125
6773		-91.796875
6774		-93.750000
6775		-89.843750
6776		-93.750000
6777		-89.843750
6778		-91.796875
6779		-87.890625
6780		-91.796875
6781		-87.890625
6782		-89.843750
6783		-85.937500
6784		-87.890625
6785		-85.937500
6786		-87.890625
6787		-83.984375
6788		-85.937500
6789		-82.031250
6790		-85.937500
6791		-82.031250
6792		-83.984375
6793		-80.078125
6794		-82.031250
6795		-78.125000
6796		-80.078125
6797		-76.171875
6798		-80.078125
6799		-76.171875
6800		-78.125000
6801		-74.218750
6802		-76.171875
6803		-72.265625
6804		-74.218750
6805		-70.312500
6806		-72.265625
6807		-68.359375
6808		-70.312500
6809		-66.406250
6810		-68.359375
6811		-64.453125
6812		-66.406250
6813		-62.500000
6814		-64.453125
6815		-60.546875
6816		-64.453125
6817		-58.593750
6818		-60.546875
6819		-56.640625
6820		-58.593750
6821		-54.687500
6822		-56.640625
6823		-52.734375
6824		-54.687500
6825		-50.781250
6826		-52.734375
6827		-48.828125
6828		-50.781250
6829		-46.875000
6830		-48.828125
6831		-44.921875
6832		-46.875000
6833		-42.968750
6834		-44.921875
6835		-41.015625
6836		-42.968750
6837		-37.109375
6838		-41.015625
6839		-35.156250
6840		-37.109375
6841		-33.203125
6842		-35.156250
6843		-31.250000
6844		-33.203125
6845		-29.296875
6846		-31.250000
6847		-25.390625
6848		-29.296875
6849		-23.437500
6850		-25.390625
6851		-21.484375
6852		-23.437500
6853		-19.531250
6854		-21.484375
6855		-17.578125
6856		-19.531250
6857		-15.625000
6858		-17.578125
6859		-11.718750
6860		-15.625000
6861		-9.765625
6862		-11.718750
6863		-7.812500
6864		-9.765625
6865		-5.859375
6866		-7.812500
6867		-3.906250
6868		-5.859375
6869		0.000000
6870		-3.906250
6871		3.906250
6872		0.000000
6873		3.906250
6874		1.953125
6875		5.859375
6876		3.906250
6877		7.812500
6878		5.859375
6879		9.765625
6880		7.812500
6881		13.671875
6882		9.765625
6883		15.625000
6884		11.718750
6885		17.578125
6886		15.625000
6887		19.531250
6888		17.578125
6889		21.484375
6890		19.531250
6891		23.437500
6892		21.484375
6893		25.390625
6894		23.437500
6895		27.343750
6896		25.390625
6897		29.296875
6898		27.343750
6899		31.250000
6900		29.296875
6901		33.203125
6902		31.250000
6903		35.156250
6904		33.203125
6905		37.109375
6906		35.156250
6907		39.062500
6908		37.109375
6909		41.015625
6910		39.062500
6911		42.968750
6912		41.015625
6913		44.921875
6914		42.968750
6915		46.875000
6916		42.968750
6917		46.875000
6918		44.921875
6919		48.828125
6920		46.875000
6921		50.781250
6922		48.828125
6923		52.734375
6924		50.781250
6925		54.687500
6926		50.781250
6927		54.687500
6928		52.734375
6929		56.640625
6930		54.687500
6931		58.593750
6932		54.687500
6933		60.546875
6934		56.640625
6935		60.546875
6936		58.593750
6937		62.500000
6938		58.593750
6939		62.500000
6940		60.546875
6941		64.453125
6942		62.500000
6943		66.406250
6944		62.500000
6945		66.406250
6946		64.453125
6947		68.359375
6948		64.453125
6949		68.359375
6950		66.406250
6951		70.312500
6952		66.406250
6953		70.312500
6954		68.359375
6955		70.312500
6956		68.359375
6957		72.265625
6958		68.359375
6959		72.265625
6960		70.312500
6961		72.265625
6962		70.312500
6963		74.218750
6964		70.312500
6965		74.218750
6966		70.312500
6967		76.171875
6968		72.265625
6969		74.218750
6970		72.265625
6971		76.171875
6972		72.265625
6973		76.171875
6974		72.265625
6975		76.171875
6976		74.218750
6977		76.171875
6978		74.218750
6979		76.171875
6980		74.218750
6981		76.171875
6982		74.218750
6983		78.125000
6984		74.218750
6985		78.125000
6986		74.218750
6987		76.171875
6988		74.218750
6989		76.171875
6990		74.218750
6991		76.171875
6992		74.218750
6993		76.171875
6994		72.265625
6995		78.125000
6996		72.265625
6997		76.171875
6998		72.265625
6999		76.171875
7000		72.265625
7001		76.171875
7002		72.265625
7003		74.218750
7004		72.265625
7005		74.218750
7006		70.312500
7007		74.218750
7008		70.312500
7009		74.218750
7010		68.359375
7011		72.265625
7012		68.359375
7013		72.265625
7014		68.359375
7015		72.265625
7016		66.406250
7017		70.312500
7018		66.406250
7019		70.312500
7020		66.406250
7021		68.359375
7022		64.453125
7023		68.359375
7024		62.500000
7025		68.359375
7026		62.500000
7027		66.406250
7028		60.546875
7029		64.453125
7030		60.546875
7031		62.500000
7032		58.593750
7033		62.500000
7034		58.593750
7035		62.500000
7036		56.640625
7037		60.546875
7038		54.687500
7039		58.593750
7040		52.734375
7041		56.640625
7042		52.734375
7043		56.640625
7044		50.781250
7045		54.687500
7046		48.828125
7047		52.734375
7048		46.875000
7049		50.781250
7050		46.875000
7051		48.828125
7052		42.968750
7053		48.828125
7054		42.968750
7055		46.875000
7056		41.015625
7057		44.921875
7058		39.062500
7059		42.968750
7060		37.109375
7061		41.015625
7062		35.156250
7063		39.062500
7064		33.203125
7065		37.109375
7066		31.250000
7067		35.156250
7068		27.343750
7069		33.203125
7070		27.343750
7071		31.250000
7072		25.390625
7073		29.296875
7074		23.437500
7075		27.343750
7076		21.484375
7077		25.390625
7078		19.531250
7079		23.437500
7080		17.578125
7081		21.484375
7082		13.671875
7083		19.531250
7084		11.718750
7085		17.578125
7086		9.765625
7087		15.625000
7088		7.812500
7089		11.718750
7090		5.859375
7091		9.765625
7092		3.906250
7093		7.812500
7094		1.953125
7095		5.859375
7096		0.000000
7097		3.906250
7098		-3.906250
7099		1.953125
7100		-5.859375
7101		-1.953125
7102		-7.812500
7103		-3.906250
7104		-9.765625
7105		-5.859375
7106		-13.671875
7107		-7.812500
7108		-15.625000
7109		-9.765625
7110		-17.578125
7111		-13.671875
7112		-19.531250
7113		-13.671875
7114		-21.484375
7115		-17.578125
7116		-25.390625
7117		-19.531250
7118		-27.343750
7119		-21.484375
7120		-29.296875
7121		-23.437500
7122		-31.250000
7123		-27.343750
7124		-33.203125
7125		-29.296875
7126		-35.156250
7127		-31.250000
7128		-39.062500
7129		-33.203125
7130		-41.015625
7131		-35.156250
7132		-42.968750
7133		-37.109375
7134		-44.921875
7135		-41.015625
7136		-46.875000
7137		-42.968750
7138		-48.828125
7139		-44.921875
7140		-50.781250
7141		-46.875000
7142		-52.734375
7143		-48.828125
7144		-54.687500
7145		-50.781250
7146		-56.640625
7147		-52.734375
7148		-60.546875
7149		-54.687500
7150		-62.500000
7151		-56.640625
7152		-64.453125
7153		-58.593750
7154		-66.406250
7155		-60.546875
7156		-68.359375
7157		-62.500000
7158		-68.359375
7159		-64.453125
7160		-70.312500
7161		-66.406250
7162		-72.265625
7163		-68.359375
7164		-74.218750
7165		-70.312500
7166		-76.171875
7167		-72.265625
7168		-78.125000
7169		-74.218750
7170		-80.078125
7171		-76.171875
7172		-80.078125
7173		-76.171875
7174		-82.031250
7175		-78.125000
7176		-83.984375
7177		-80.078125
7178		-83.984375
7179		-80.078125
7180		-85.937500
7181		-82.031250
7182		-87.890625
7183		-83.984375
7184		-87.890625
7185		-85.937500
7186		-89.843750
7187		-85.937500
7188		-89.843750
7189		-87.890625
7190		-91.796875
7191		-87.890625
7192		-91.796875
7193		-89.843750
7194		-93.750000
7195		-89.843750
7196		-93.750000
7197		-91.796875
7198		-95.703125
7199		-91.796875
7200		-95.703125
7201		-91.796875
7202		-95.703125
7203		-93.750000
7204		-95.703125
7205		-93.750000
7206		-97.656250
7207		-93.750000
7208		-97.656250
7209		-93.750000
7210		-97.656250
7211		-93.750000
7212		-97.656250
7213		-95.703125
7214		-97.656250
7215		-95.703125
7216		-99.609375
7217		-95.703125
7218		-97.656250
7219		-95.703125
7220		-97.656250
7221		-95.703125
7222		-99.609375
7223		-95.703125
7224		-97.656250
7225		-95.703125
7226		-97.656250
7227		-95.703125
7228		-97.656250
7229		-93.750000
7230		-97.656250
7231		-93.750000
7232		-97.656250
7233		-93.750000
7234		-95.703125
7235		-93.750000
7236		-95.703125
7237		-93.750000
7238		-95.703125
7239		-91.796875
7240		-95.703125
7241		-91.796875
7242		-93.750000
7243		-91.796875
7244		-93.750000
7245		-89.843750
7246		-91.796875
7247		-89.843750
7248		-91.796875
7249		-87.890625
7250		-89.843750
7251		-87.890625
7252		-89.843750
7253		-85.937500
7254		-87.890625
7255		-83.984375
7256		-87.890625
7257		-83.984375
7258		-85.937500
7259		-82.031250
7260		-85.937500
7261		-80.078125
7262		-83.984375
7263		-80.078125
7264		-82.031250
7265		-78.125000
7266		-80.078125
7267		-76.171875
7268		-78.125000
7269		-76.171875
7270		-78.125000
7271		-74.218750
7272		-76.171875
7273		-72.265625
7274		-74.218750
7275		-70.312500
7276		-72.265625
7277		-68.359375
7278		-70.312500
7279		-66.406250
7280		-70.312500
7281		-64.453125
7282		-66.406250
7283		-62.500000
7284		-64.453125
7285		-60.546875
7286		-64.453125
7287		-58.593750
7288		-60.546875
7289		-56.640625
7290		-58.593750
7291		-54.687500
7292		-58.593750
7293		-52.734375
7294		-56.640625
7295		-50.781250
7296		-52.734375
7297		-48.828125
7298		-50.781250
7299		-46.875000
7300		-48.828125
7301		-44.921875
7302		-46.875000
7303		-42.968750
7304		-44.921875
7305		-41.015625
7306		-42.968750
7307		-37.109375
7308		-41.015625
7309		-35.156250
7310		-37.109375
7311		-33.203125
7312		-35.156250
7313		-31.250000
7314		-33.203125
7315		-29.296875
7316		-31.250000
7317		-27.343750
7318		-29.296875
7319		-23.437500
7320		-27.343750
7321		-21.484375
7322		-25.390625
7323		-19.531250
7324		-21.484375
7325		-17.578125
7326		-19.531250
7327		-15.625000
7328		-17.578125
7329		-13.671875
7330		-15.625000
7331		-9.765625
7332		-11.718750
7333		-7.812500
7334		-9.765625
7335		-5.859375
7336		-7.812500
7337		-3.906250
7338		-5.859375
7339		0.000000
7340		-3.906250
7341		1.953125
7342		-1.953125
7343		3.906250
7344		1.953125
7345		5.859375
7346		3.906250
7347		7.812500
7348		5.859375
7349		9.765625
7350		7.812500
7351		11.718750
7352		9.765625
7353		15.625000
7354		11.718750
7355		17.578125
7356		15.625000
7357		19.531250
7358		15.625000
7359		21.484375
7360		19.531250
7361		23.437500
7362		19.531250
7363		25.390625
7364		23.437500
7365		27.343750
7366		25.390625
7367		29.296875
7368		27.343750
7369		31.250000
7370		29.296875
7371		33.203125
7372		31.250000
7373		35.156250
7374		33.203125
7375		37.109375
7376		35.156250
7377		39.062500
7378		37.109375
7379		41.015625
7380		39.062500
7381		42.968750
7382		41.015625
7383		44.921875
7384		41.015625
7385		46.875000
7386		44.921875
7387		46.875000
7388		44.921875
7389		48.828125
7390		46.875000
7391		50.781250
7392		48.828125
7393		52.734375
7394		50.781250
7395		54.687500
7396		52.734375
7397		54.687500
7398		52.734375
7399		56.640625
7400		54.687500
7401		58.593750
7402		56.640625
7403		60.546875
7404		56.640625
7405		60.546875
7406		58.593750
7407		62.500000
7408		60.546875
7409		62.500000
7410		60.546875
7411		64.453125
7412		62.500000
7413		66.406250
7414		62.500000
7415		68.359375
7416		64.453125
7417		68.359375
7418		66.406250
7419		68.359375
7420		66.406250
7421		70.312500
7422		68.359375
7423		70.312500
7424		68.359375
7425		72.265625
7426		68.359375
7427		72.265625
7428		70.312500
7429		74.218750
7430		70.312500
7431		74.218750
7432		72.265625
7433		74.218750
7434		72.265625
7435		76.171875
7436		72.265625
7437		76.171875
7438		74.218750
7439		76.171875
7440		72.265625
7441		78.125000
7442		74.218750
7443		76.171875
7444		72.265625
7445		78.125000
7446		74.218750
7447		78.125000
7448		74.218750
7449		78.125000
7450		72.265625
7451		80.078125
7452		74.218750
7453		78.125000
7454		76.171875
7455		78.125000
7456		74.218750
7457		78.125000
7458		74.218750
7459		78.125000
7460		74.218750
7461		78.125000
7462		74.218750
7463		80.078125
7464		74.218750
7465		78.125000
7466		72.265625
7467		78.125000
7468		74.218750
7469		78.125000
7470		72.265625
7471		78.125000
7472		72.265625
7473		76.171875
7474		72.265625
7475		76.171875
7476		72.265625
7477		76.171875
7478		70.312500
7479		76.171875
7480		70.312500
7481		74.218750
7482		70.312500
7483		74.218750
7484		70.312500
7485		72.265625
7486		68.359375
7487		74.218750
7488		68.359375
7489		72.265625
7490		68.359375
7491		70.312500
7492		64.453125
7493		70.312500
7494		64.453125
7495		68.359375
7496		64.453125
7497		68.359375
7498		62.500000
7499		68.359375
7500		62.500000
7501		66.406250
7502		60.546875
7503		64.453125
7504		60.546875
7505		62.500000
7506		58.593750
7507		62.500000
7508		56.640625
7509		62.500000
7510		52.734375
7511		60.546875
7512		52.734375
7513		58.593750
7514		52.734375
7515		56.640625
7516		48.828125
7517		56.640625
7518		48.828125
7519		52.734375
7520		46.875000
7521		54.687500
7522		46.875000
7523		50.781250
7524		44.921875
7525		48.828125
7526		41.015625
7527		48.828125
7528		41.015625
7529		46.875000
7530		39.062500
7531		44.921875
7532		37.109375
7533		42.968750
7534		33.203125
7535		42.968750
7536		31.250000
7537		39.062500
7538		31.250000
7539		37.109375
7540		29.296875
7541		35.156250
7542		27.343750
7543		33.203125
7544		25.390625
7545		31.250000
7546		23.437500
7547		29.296875
7548		21.484375
7549		27.343750
7550		15.625000
7551		25.390625
7552		17.578125
7553		21.484375
7554		13.671875
7555		21.484375
7556		13.671875
7557		17.578125
7558		9.765625
7559		15.625000
7560		5.859375
7561		15.625000
7562		5.859375
7563		9.765625
7564		3.906250
7565		9.765625
7566		0.000000
7567		5.859375
7568		-1.953125
7569		5.859375
7570		-3.906250
7571		3.906250
7572		-5.859375
7573		0.000000
7574		-7.812500
7575		-3.906250
7576		-9.765625
7577		-5.859375
7578		-13.671875
7579		-3.906250
7580		-13.671875
7581		-9.765625
7582		-17.578125
7583		-11.718750
7584		-23.437500
7585		-11.718750
7586		-25.390625
7587		-15.625000
7588		-23.437500
7589		-19.531250
7590		-25.390625
7591		-21.484375
7592		-31.250000
7593		-23.437500
7594		-33.203125
7595		-23.437500
7596		-33.203125
7597		-27.343750
7598		-35.156250
7599		-31.250000
7600		-41.015625
7601		-31.250000
7602		-41.015625
7603		-33.203125
7604		-44.921875
7605		-35.156250
7606		-44.921875
7607		-39.062500
7608		-46.875000
7609		-42.968750
7610		-48.828125
7611		-42.968750
7612		-52.734375
7613		-42.968750
7614		-52.734375
7615		-48.828125
7616		-54.687500
7617		-50.781250
7618		-60.546875
7619		-50.781250
7620		-60.546875
7621		-52.734375
7622		-60.546875
7623		-56.640625
7624		-62.500000
7625		-58.593750
7626		-66.406250
7627		-60.546875
7628		-68.359375
7629		-60.546875
7630		-68.359375
7631		-64.453125
7632		-70.312500
7633		-66.406250
7634		-76.171875
7635		-66.406250
7636		-74.218750
7637		-66.406250
7638		-76.171875
7639		-68.359375
7640		-78.125000
7641		-74.218750
7642		-80.078125
7643		-74.218750
7644		-82.031250
7645		-74.218750
7646		-82.031250
7647		-78.125000
7648		-82.031250
7649		-78.125000
7650		-85.937500
7651		-80.078125
7652		-87.890625
7653		-78.125000
7654		-85.937500
7655		-82.031250
7656		-87.890625
7657		-83.984375
7658		-87.890625
7659		-85.937500
7660		-91.796875
7661		-85.937500
7662		-93.750000
7663		-83.984375
7664		-91.796875
7665		-87.890625
7666		-91.796875
7667		-89.843750
7668		-97.656250
7669		-85.937500
7670		-97.656250
7671		-87.890625
7672		-93.750000
7673		-89.843750
7674		-95.703125
7675		-91.796875
7676		-97.656250
7677		-91.796875
7678		-97.656250
7679		-89.843750
7680		-97.656250
7681		-91.796875
7682		-97.656250
7683		-93.750000
7684		-99.609375
7685		-91.796875
7686		-99.609375
7687		-91.796875
7688		-99.609375
7689		-91.796875
7690		-97.656250
7691		-93.750000
7692		-97.656250
7693		-93.750000
7694		-99.609375
7695		-93.750000
7696		-99.609375
7697		-91.796875
7698		-97.656250
7699		-93.750000
7700		-97.656250
7701		-93.750000
7702		-99.609375
7703		-89.843750
7704		-97.656250
7705		-89.843750
7706		-95.703125
7707		-91.796875
7708		-93.750000
7709		-91.796875
7710		-95.703125
7711		-89.843750
7712		-95.703125
7713		-87.890625
7714		-93.750000
7715		-87.890625
7716		-91.796875
7717		-89.843750
7718		-91.796875
7719		-87.890625
7720		-89.843750
7721		-85.937500
7722		-91.796875
7723		-83.984375
7724		-87.890625
7725		-83.984375
7726		-85.937500
7727		-83.984375
7728		-87.890625
7729		-80.078125
7730		-85.937500
7731		-80.078125
7732		-83.984375
7733		-80.078125
7734		-82.031250
7735		-76.171875
7736		-80.078125
7737		-76.171875
7738		-80.078125
7739		-74.218750
7740		-78.125000
7741		-74.218750
7742		-76.171875
7743		-72.265625
7744		-74.218750
7745		-70.312500
7746		-72.265625
7747		-68.359375
7748		-72.265625
7749		-66.406250
7750		-68.359375
7751		-64.453125
7752		-70.312500
7753		-62.500000
7754		-66.406250
7755		-60.546875
7756		-64.453125
7757		-60.546875
7758		-62.500000
7759		-56.640625
7760		-60.546875
7761		-56.640625
7762		-58.593750
7763		-52.734375
7764		-56.640625
7765		-50.781250
7766		-52.734375
7767		-48.828125
7768		-52.734375
7769		-46.875000
7770		-48.828125
7771		-44.921875
7772		-46.875000
7773		-42.968750
7774		-44.921875
7775		-41.015625
7776		-42.968750
7777		-39.062500
7778		-41.015625
7779		-37.109375
7780		-39.062500
7781		-35.156250
7782		-37.109375
7783		-31.250000
7784		-35.156250
7785		-29.296875
7786		-31.250000
7787		-27.343750
7788		-29.296875
7789		-23.437500
7790		-27.343750
7791		-21.484375
7792		-25.390625
7793		-19.531250
7794		-23.437500
7795		-17.578125
7796		-21.484375
7797		-15.625000
7798		-19.531250
7799		-11.718750
7800		-15.625000
7801		-9.765625
7802		-13.671875
7803		-7.812500
7804		-11.718750
7805		-5.859375
7806		-9.765625
7807		-3.906250
7808		-5.859375
7809		0.000000
7810		-3.906250
7811		1.953125
7812		-3.906250
7813		3.906250
7814		0.000000
7815		5.859375
7816		0.000000
7817		7.812500
7818		3.906250
7819		9.765625
7820		5.859375
7821		11.718750
7822		9.765625
7823		15.625000
7824		11.718750
7825		15.625000
7826		13.671875
7827		17.578125
7828		15.625000
7829		21.484375
7830		17.578125
7831		23.437500
7832		19.531250
7833		25.390625
7834		21.484375
7835		27.343750
7836		21.484375
7837		29.296875
7838		25.390625
7839		31.250000
7840		27.343750
7841		33.203125
7842		31.250000
7843		35.156250
7844		33.203125
7845		37.109375
7846		33.203125
7847		39.062500
7848		35.156250
7849		41.015625
7850		37.109375
7851		42.968750
7852		39.062500
7853		44.921875
7854		41.015625
7855		46.875000
7856		41.015625
7857		46.875000
7858		44.921875
7859		48.828125
7860		46.875000
7861		50.781250
7862		46.875000
7863		52.734375
7864		48.828125
7865		54.687500
7866		50.781250
7867		56.640625
7868		50.781250
7869		56.640625
7870		52.734375
7871		58.593750
7872		54.687500
7873		58.593750
7874		56.640625
7875		60.546875
7876		58.593750
7877		62.500000
7878		58.593750
7879		62.500000
7880		60.546875
7881		64.453125
7882		62.500000
7883		66.406250
7884		60.546875
7885		68.359375
7886		64.453125
7887		68.359375
7888		64.453125
7889		68.359375
7890		66.406250
7891		70.312500
7892		66.406250
7893		70.312500
7894		68.359375
7895		72.265625
7896		68.359375
7897		74.218750
7898		68.359375
7899		72.265625
7900		68.359375
7901		74.218750
7902		70.312500
7903		74.218750
7904		70.312500
7905		76.171875
7906		70.312500
7907		76.171875
7908		72.265625
7909		76.171875
7910		74.218750
7911		76.171875
7912		72.265625
7913		76.171875
7914		72.265625
7915		78.125000
7916		74.218750
7917		78.125000
7918		72.265625
7919		78.125000
7920		74.218750
7921		78.125000
7922		74.218750
7923		78.125000
7924		74.218750
7925		78.125000
7926		74.218750
7927		78.125000
7928		74.218750
7929		78.125000
7930		74.218750
7931		78.125000
7932		74.218750
7933		78.125000
7934		72.265625
7935		80.078125
7936		74.218750
7937		78.125000
7938		74.218750
7939		78.125000
7940		74.218750
7941		78.125000
7942		74.218750
7943		76.171875
7944		72.265625
7945		76.171875
7946		72.265625
7947		76.171875
7948		72.265625
7949		76.171875
7950		72.265625
7951		76.171875
7952		70.312500
7953		76.171875
7954		70.312500
7955		74.218750
7956		70.312500
7957		72.265625
7958		68.359375
7959		72.265625
7960		68.359375
7961		70.312500
7962		66.406250
7963		70.312500
7964		66.406250
7965		70.312500
7966		64.453125
7967		68.359375
7968		62.500000
7969		68.359375
7970		62.500000
7971		66.406250
7972		60.546875
7973		66.406250
7974		60.546875
7975		64.453125
7976		58.593750
7977		62.500000
7978		56.640625
7979		60.546875
7980		56.640625
7981		60.546875
7982		54.687500
7983		58.593750
7984		52.734375
7985		58.593750
7986		50.781250
7987		56.640625
7988		50.781250
7989		54.687500
7990		48.828125
7991		52.734375
7992		46.875000
7993		50.781250
7994		44.921875
7995		50.781250
7996		42.968750
7997		48.828125
7998		41.015625
7999		46.875000
8000		39.062500
8001		44.921875
8002		39.062500
8003		42.968750
8004		37.109375
8005		41.015625
8006		35.156250
8007		39.062500
8008		33.203125
8009		37.109375
8010		31.250000
8011		35.156250
8012		29.296875
8013		33.203125
8014		27.343750
8015		31.250000
8016		25.390625
8017		29.296875
8018		21.484375
8019		27.343750
8020		19.531250
8021		25.390625
8022		17.578125
8023		23.437500
8024		15.625000
8025		21.484375
8026		13.671875
8027		19.531250
8028		11.718750
8029		15.625000
8030		9.765625
8031		13.671875
8032		7.812500
8033		11.718750
8034		5.859375
8035		9.765625
8036		1.953125
8037		7.812500
8038		0.000000
8039		5.859375
8040		-1.953125
8041		3.906250
8042		-3.906250
8043		1.953125
8044		-5.859375
8045		-1.953125
8046		-9.765625
8047		-3.906250
8048		-11.718750
8049		-5.859375
8050		-13.671875
8051		-9.765625
8052		-15.625000
8053		-11.718750
8054		-17.578125
8055		-13.671875
8056		-21.484375
8057		-15.625000
8058		-23.437500
8059		-17.578125
8060		-25.390625
8061		-19.531250
8062		-29.296875
8063		-23.437500
8064		-29.296875
8065		-25.390625
8066		-31.250000
8067		-27.343750
8068		-35.156250
8069		-29.296875
8070		-37.109375
8071		-31.250000
8072		-39.062500
8073		-33.203125
8074		-41.015625
8075		-37.109375
8076		-42.968750
8077		-39.062500
8078		-46.875000
8079		-41.015625
8080		-48.828125
8081		-42.968750
8082		-48.828125
8083		-44.921875
8084		-52.734375
8085		-48.828125
8086		-54.687500
8087		-50.781250
8088		-56.640625
8089		-50.781250
8090		-58.593750
8091		-54.687500
8092		-60.546875
8093		-54.687500
8094		-62.500000
8095		-58.593750
8096		-64.453125
8097		-60.546875
8098		-66.406250
8099		-62.500000
8100		-68.359375
8101		-62.500000
8102		-70.312500
8103		-66.406250
8104		-72.265625
8105		-66.406250
8106		-74.218750
8107		-68.359375
8108		-76.171875
8109		-70.312500
8110		-76.171875
8111		-72.265625
8112		-78.125000
8113		-74.218750
8114		-80.078125
8115		-76.171875
8116		-80.078125
8117		-76.171875
8118		-82.031250
8119		-78.125000
8120		-83.984375
8121		-80.078125
8122		-85.937500
8123		-82.031250
8124		-85.937500
8125		-82.031250
8126		-87.890625
8127		-83.984375
8128		-87.890625
8129		-83.984375
8130		-89.843750
8131		-85.937500
8132		-89.843750
8133		-87.890625
8134		-91.796875
8135		-87.890625
8136		-93.750000
8137		-87.890625
8138		-93.750000
8139		-89.843750
8140		-93.750000
8141		-91.796875
8142		-95.703125
8143		-91.796875
8144		-95.703125
8145		-91.796875
8146		-97.656250
8147		-91.796875
8148		-95.703125
8149		-93.750000
8150		-97.656250
8151		-93.750000
8152		-97.656250
8153		-93.750000
8154		-97.656250
8155		-93.750000
8156		-97.656250
8157		-93.750000
8158		-97.656250
8159		-93.750000
8160		-99.609375
8161		-95.703125
8162		-97.656250
8163		-95.703125
8164		-99.609375
8165		-93.750000
8166		-97.656250
8167		-93.750000
8168		-99.609375
8169		-93.750000
8170		-97.656250
8171		-93.750000
8172		-97.656250
8173		-93.750000
8174		-97.656250
8175		-93.750000
8176		-97.656250
8177		-91.796875
8178		-95.703125
8179		-91.796875
8180		-95.703125
8181		-91.796875
8182		-95.703125
8183		-91.796875
8184		-93.750000
8185		-89.843750
8186		-93.750000
8187		-89.843750
8188		-91.796875
8189		-87.890625
8190		-91.796875
8191		-87.890625
8192		-89.843750
8193		-85.937500
8194		-89.843750
8195		-85.937500
8196		-87.890625
8197		-85.937500
8198		-87.890625
8199		-83.984375
8200		-85.937500
8201		-82.031250
8202		-83.984375
8203		-80.078125
8204		-83.984375
8205		-80.078125
8206		-82.031250
8207		-78.125000
8208		-82.031250
8209		-76.171875
8210		-80.078125
8211		-76.171875
8212		-78.125000
8213		-74.218750
8214		-76.171875
8215		-72.265625
8216		-74.218750
8217		-70.312500
8218		-72.265625
8219		-68.359375
8220		-70.312500
8221		-66.406250
8222		-68.359375
8223		-64.453125
8224		-68.359375
8225		-62.500000
8226		-66.406250
8227		-62.500000
8228		-64.453125
8229		-60.546875
8230		-62.500000
8231		-56.640625
8232		-60.546875
8233		-54.687500
8234		-58.593750
8235		-52.734375
8236		-56.640625
8237		-50.781250
8238		-54.687500
8239		-48.828125
8240		-50.781250
8241		-46.875000
8242		-48.828125
8243		-44.921875
8244		-46.875000
8245		-42.968750
8246		-44.921875
8247		-41.015625
8248		-42.968750
8249		-39.062500
8250		-41.015625
8251		-35.156250
8252		-39.062500
8253		-33.203125
8254		-37.109375
8255		-31.250000
8256		-33.203125
8257		-29.296875
8258		-31.250000
8259		-27.343750
8260		-29.296875
8261		-25.390625
8262		-27.343750
8263		-23.437500
8264		-25.390625
8265		-19.531250
8266		-23.437500
8267		-17.578125
8268		-19.531250
8269		-15.625000
8270		-17.578125
8271		-13.671875
8272		-15.625000
8273		-11.718750
8274		-13.671875
8275		-7.812500
8276		-11.718750
8277		-5.859375
8278		-7.812500
8279		-3.906250
8280		-5.859375
8281		-1.953125
8282		-5.859375
8283		0.000000
8284		-1.953125
8285		1.953125
8286		0.000000
8287		5.859375
8288		3.906250
8289		7.812500
8290		5.859375
8291		9.765625
8292		7.812500
8293		11.718750
8294		9.765625
8295		13.671875
8296		11.718750
8297		15.625000
8298		13.671875
8299		19.531250
8300		15.625000
8301		21.484375
8302		17.578125
8303		23.437500
8304		19.531250
8305		25.390625
8306		21.484375
8307		27.343750
8308		23.437500
8309		29.296875
8310		27.343750
8311		31.250000
8312		29.296875
8313		33.203125
8314		31.250000
8315		35.156250
8316		31.250000
8317		37.109375
8318		33.203125
8319		39.062500
8320		35.156250
8321		41.015625
8322		37.109375
8323		42.968750
8324		39.062500
8325		44.921875
8326		41.015625
8327		46.875000
8328		42.968750
8329		46.875000
8330		44.921875
8331		48.828125
8332		46.875000
8333		50.781250
8334		48.828125
8335		52.734375
8336		48.828125
8337		52.734375
8338		50.781250
8339		54.687500
8340		52.734375
8341		56.640625
8342		54.687500
8343		58.593750
8344		54.687500
8345		58.593750
8346		56.640625
8347		60.546875
8348		58.593750
8349		62.500000
8350		58.593750
8351		62.500000
8352		60.546875
8353		64.453125
8354		60.546875
8355		64.453125
8356		62.500000
8357		66.406250
8358		64.453125
8359		68.359375
8360		64.453125
8361		68.359375
8362		66.406250
8363		70.312500
8364		66.406250
8365		70.312500
8366		66.406250
8367		70.312500
8368		68.359375
8369		72.265625
8370		68.359375
8371		72.265625
8372		70.312500
8373		74.218750
8374		70.312500
8375		74.218750
8376		72.265625
8377		74.218750
8378		72.265625
8379		76.171875
8380		72.265625
8381		76.171875
8382		72.265625
8383		76.171875
8384		74.218750
8385		76.171875
8386		74.218750
8387		78.125000
8388		74.218750
8389		78.125000
8390		74.218750
8391		78.125000
8392		74.218750
8393		78.125000
8394		74.218750
8395		78.125000
8396		74.218750
8397		78.125000
8398		74.218750
8399		78.125000
8400		74.218750
8401		78.125000
8402		74.218750
8403		78.125000
8404		74.218750
8405		78.125000
8406		74.218750
8407		78.125000
8408		74.218750
8409		78.125000
8410		74.218750
8411		76.171875
8412		74.218750
8413		76.171875
8414		72.265625
8415		76.171875
8416		72.265625
8417		76.171875
8418		72.265625
8419		74.218750
8420		70.312500
8421		74.218750
8422		70.312500
8423		74.218750
8424		70.312500
8425		74.218750
8426		70.312500
8427		72.265625
8428		68.359375
8429		72.265625
8430		68.359375
8431		70.312500
8432		66.406250
8433		70.312500
8434		66.406250
8435		70.312500
8436		64.453125
8437		68.359375
8438		64.453125
8439		68.359375
8440		62.500000
8441		66.406250
8442		60.546875
8443		66.406250
8444		58.593750
8445		64.453125
8446		58.593750
8447		62.500000
8448		58.593750
8449		60.546875
8450		54.687500
8451		60.546875
8452		54.687500
8453		58.593750
8454		54.687500
8455		58.593750
8456		52.734375
8457		56.640625
8458		50.781250
8459		54.687500
8460		48.828125
8461		54.687500
8462		46.875000
8463		52.734375
8464		46.875000
8465		50.781250
8466		44.921875
8467		48.828125
8468		42.968750
8469		46.875000
8470		41.015625
8471		44.921875
8472		39.062500
8473		42.968750
8474		37.109375
8475		42.968750
8476		35.156250
8477		39.062500
8478		33.203125
8479		37.109375
8480		31.250000
8481		35.156250
8482		29.296875
8483		33.203125
8484		27.343750
8485		33.203125
8486		25.390625
8487		29.296875
8488		23.437500
8489		27.343750
8490		21.484375
8491		25.390625
8492		19.531250
8493		23.437500
8494		17.578125
8495		21.484375
8496		15.625000
8497		19.531250
8498		13.671875
8499		17.578125
8500		9.765625
8501		13.671875
8502		7.812500
8503		11.718750
8504		5.859375
8505		9.765625
8506		3.906250
8507		7.812500
8508		0.000000
8509		5.859375
8510		0.000000
8511		3.906250
8512		-3.906250
8513		1.953125
8514		-5.859375
8515		-1.953125
8516		-7.812500
8517		-3.906250
8518		-11.718750
8519		-5.859375
8520		-11.718750
8521		-7.812500
8522		-15.625000
8523		-9.765625
8524		-17.578125
8525		-13.671875
8526		-19.531250
8527		-15.625000
8528		-23.437500
8529		-17.578125
8530		-23.437500
8531		-19.531250
8532		-27.343750
8533		-21.484375
8534		-29.296875
8535		-25.390625
8536		-31.250000
8537		-27.343750
8538		-33.203125
8539		-29.296875
8540		-35.156250
8541		-31.250000
8542		-39.062500
8543		-33.203125
8544		-41.015625
8545		-35.156250
8546		-42.968750
8547		-39.062500
8548		-44.921875
8549		-41.015625
8550		-46.875000
8551		-42.968750
8552		-48.828125
8553		-44.921875
8554		-50.781250
8555		-46.875000
8556		-52.734375
8557		-48.828125
8558		-56.640625
8559		-50.781250
8560		-58.593750
8561		-54.687500
8562		-58.593750
8563		-54.687500
8564		-60.546875
8565		-56.640625
8566		-64.453125
8567		-60.546875
8568		-66.406250
8569		-60.546875
8570		-68.359375
8571		-62.500000
8572		-68.359375
8573		-64.453125
8574		-70.312500
8575		-66.406250
8576		-72.265625
8577		-68.359375
8578		-74.218750
8579		-70.312500
8580		-76.171875
8581		-72.265625
8582		-78.125000
8583		-74.218750
8584		-78.125000
8585		-74.218750
8586		-80.078125
8587		-76.171875
8588		-82.031250
8589		-78.125000
8590		-83.984375
8591		-80.078125
8592		-83.984375
8593		-82.031250
8594		-85.937500
8595		-82.031250
8596		-87.890625
8597		-83.984375
8598		-87.890625
8599		-85.937500
8600		-89.843750
8601		-85.937500
8602		-91.796875
8603		-87.890625
8604		-91.796875
8605		-87.890625
8606		-93.750000
8607		-89.843750
8608		-93.750000
8609		-89.843750
8610		-93.750000
8611		-91.796875
8612		-95.703125
8613		-91.796875
8614		-95.703125
8615		-91.796875
8616		-95.703125
8617		-93.750000
8618		-97.656250
8619		-93.750000
8620		-97.656250
8621		-93.750000
8622		-97.656250
8623		-93.750000
8624		-97.656250
8625		-95.703125
8626		-99.609375
8627		-95.703125
8628		-99.609375
8629		-95.703125
8630		-99.609375
8631		-95.703125
8632		-99.609375
8633		-95.703125
8634		-99.609375
8635		-95.703125
8636		-99.609375
8637		-95.703125
8638		-97.656250
8639		-95.703125
8640		-97.656250
8641		-95.703125
8642		-97.656250
8643		-95.703125
8644		-97.656250
8645		-93.750000
8646		-97.656250
8647		-93.750000
8648		-97.656250
8649		-93.750000
8650		-95.703125
8651		-93.750000
8652		-95.703125
8653		-91.796875
8654		-95.703125
8655		-91.796875
8656		-93.750000
8657		-91.796875
8658		-93.750000
8659		-89.843750
8660		-93.750000
8661		-89.843750
8662		-93.750000
8663		-87.890625
8664		-91.796875
8665		-87.890625
8666		-89.843750
8667		-85.937500
8668		-89.843750
8669		-85.937500
8670		-87.890625
8671		-83.984375
8672		-85.937500
8673		-82.031250
8674		-85.937500
8675		-80.078125
8676		-83.984375
8677		-80.078125
8678		-82.031250
8679		-78.125000
8680		-82.031250
8681		-78.125000
8682		-80.078125
8683		-76.171875
8684		-78.125000
8685		-74.218750
8686		-76.171875
8687		-72.265625
8688		-76.171875
8689		-70.312500
8690		-74.218750
8691		-68.359375
8692		-72.265625
8693		-68.359375
8694		-70.312500
8695		-66.406250
8696		-68.359375
8697		-64.453125
8698		-66.406250
8699		-62.500000
8700		-64.453125
8701		-60.546875
8702		-62.500000
8703		-56.640625
8704		-60.546875
8705		-56.640625
8706		-58.593750
8707		-52.734375
8708		-56.640625
8709		-52.734375
8710		-54.687500
8711		-48.828125
8712		-52.734375
8713		-46.875000
8714		-50.781250
8715		-44.921875
8716		-46.875000
8717		-42.968750
8718		-44.921875
8719		-41.015625
8720		-42.968750
8721		-39.062500
8722		-41.015625
8723		-37.109375
8724		-39.062500
8725		-35.156250
8726		-37.109375
8727		-31.250000
8728		-35.156250
8729		-29.296875
8730		-31.250000
8731		-27.343750
8732		-29.296875
8733		-25.390625
8734		-27.343750
8735		-23.437500
8736		-25.390625
8737		-19.531250
8738		-23.437500
8739		-17.578125
8740		-19.531250
8741		-15.625000
8742		-17.578125
8743		-13.671875
8744		-15.625000
8745		-11.718750
8746		-13.671875
8747		-7.812500
8748		-11.718750
8749		-5.859375
8750		-7.812500
8751		-3.906250
8752		-5.859375
8753		-1.953125
8754		-3.906250
8755		0.000000
8756		-1.953125
8757		3.906250
8758		0.000000
8759		3.906250
8760		1.953125
8761		7.812500
8762		3.906250
8763		9.765625
8764		7.812500
8765		11.718750
8766		9.765625
8767		13.671875
8768		11.718750
8769		15.625000
8770		11.718750
8771		19.531250
8772		15.625000
8773		19.531250
8774		17.578125
8775		21.484375
8776		19.531250
8777		25.390625
8778		21.484375
8779		27.343750
8780		23.437500
8781		29.296875
8782		27.343750
8783		31.250000
8784		27.343750
8785		33.203125
8786		29.296875
8787		35.156250
8788		31.250000
8789		37.109375
8790		33.203125
8791		39.062500
8792		35.156250
8793		39.062500
8794		37.109375
8795		41.015625
8796		39.062500
8797		42.968750
8798		41.015625
8799		44.921875
8800		42.968750
8801		46.875000
8802		44.921875
8803		48.828125
8804		46.875000
8805		50.781250
8806		46.875000
8807		50.781250
8808		48.828125
8809		52.734375
8810		50.781250
8811		54.687500
8812		52.734375
8813		56.640625
8814		52.734375
8815		58.593750
8816		54.687500
8817		58.593750
8818		56.640625
8819		60.546875
8820		56.640625
8821		62.500000
8822		58.593750
8823		62.500000
8824		60.546875
8825		64.453125
8826		60.546875
8827		66.406250
8828		62.500000
8829		66.406250
8830		62.500000
8831		66.406250
8832		64.453125
8833		68.359375
8834		66.406250
8835		68.359375
8836		66.406250
8837		70.312500
8838		66.406250
8839		70.312500
8840		68.359375
8841		72.265625
8842		68.359375
8843		72.265625
8844		68.359375
8845		72.265625
8846		70.312500
8847		74.218750
8848		70.312500
8849		74.218750
8850		72.265625
8851		74.218750
8852		70.312500
8853		76.171875
8854		72.265625
8855		76.171875
8856		72.265625
8857		76.171875
8858		72.265625
8859		76.171875
8860		74.218750
8861		76.171875
8862		72.265625
8863		76.171875
8864		72.265625
8865		78.125000
8866		74.218750
8867		76.171875
8868		74.218750
8869		76.171875
8870		74.218750
8871		78.125000
8872		74.218750
8873		78.125000
8874		72.265625
8875		78.125000
8876		72.265625
8877		76.171875
8878		72.265625
8879		78.125000
8880		72.265625
8881		76.171875
8882		72.265625
8883		76.171875
8884		72.265625
8885		76.171875
8886		70.312500
8887		76.171875
8888		70.312500
8889		74.218750
8890		70.312500
8891		74.218750
8892		70.312500
8893		74.218750
8894		70.312500
8895		74.218750
8896		68.359375
8897		72.265625
8898		68.359375
8899		72.265625
8900		68.359375
8901		70.312500
8902		66.406250
8903		70.312500
8904		66.406250
8905		70.312500
8906		64.453125
8907		68.359375
8908		64.453125
8909		68.359375
8910		62.500000
8911		66.406250
8912		60.546875
8913		66.406250
8914		60.546875
8915		64.453125
8916		58.593750
8917		62.500000
8918		58.593750
8919		62.500000
8920		56.640625
8921		60.546875
8922		54.687500
8923		60.546875
8924		52.734375
8925		58.593750
8926		52.734375
8927		56.640625
8928		50.781250
8929		54.687500
8930		48.828125
8931		54.687500
8932		46.875000
8933		52.734375
8934		46.875000
8935		50.781250
8936		44.921875
8937		48.828125
8938		42.968750
8939		48.828125
8940		41.015625
8941		46.875000
8942		39.062500
8943		42.968750
8944		37.109375
8945		42.968750
8946		35.156250
8947		41.015625
8948		33.203125
8949		39.062500
8950		31.250000
8951		37.109375
8952		29.296875
8953		35.156250
8954		27.343750
8955		33.203125
8956		25.390625
8957		31.250000
8958		23.437500
8959		29.296875
8960		21.484375
8961		27.343750
8962		19.531250
8963		25.390625
8964		17.578125
8965		21.484375
8966		15.625000
8967		19.531250
8968		13.671875
8969		17.578125
8970		9.765625
8971		15.625000
8972		7.812500
8973		13.671875
8974		5.859375
8975		11.718750
8976		3.906250
8977		9.765625
8978		1.953125
8979		7.812500
8980		0.000000
8981		3.906250
8982		-3.906250
8983		1.953125
8984		-3.906250
8985		0.000000
8986		-7.812500
8987		-1.953125
8988		-9.765625
8989		-3.906250
8990		-11.718750
8991		-7.812500
8992		-13.671875
8993		-9.765625
8994		-15.625000
8995		-11.718750
8996		-19.531250
8997		-13.671875
8998		-21.484375
8999		-15.625000
9000		-23.437500
9001		-17.578125
9002		-25.390625
9003		-21.484375
9004		-29.296875
9005		-23.437500
9006		-29.296875
9007		-25.390625
9008		-33.203125
9009		-27.343750
9010		-35.156250
9011		-29.296875
9012		-37.109375
9013		-31.250000
9014		-39.062500
9015		-35.156250
9016		-42.968750
9017		-37.109375
9018		-42.968750
9019		-39.062500
9020		-46.875000
9021		-42.968750
9022		-48.828125
9023		-42.968750
9024		-50.781250
9025		-44.921875
9026		-52.734375
9027		-46.875000
9028		-54.687500
9029		-50.781250
9030		-58.593750
9031		-52.734375
9032		-58.593750
9033		-54.687500
9034		-60.546875
9035		-56.640625
9036		-62.500000
9037		-58.593750
9038		-64.453125
9039		-60.546875
9040		-66.406250
9041		-62.500000
9042		-68.359375
9043		-64.453125
9044		-70.312500
9045		-66.406250
9046		-72.265625
9047		-68.359375
9048		-74.218750
9049		-68.359375
9050		-76.171875
9051		-70.312500
9052		-76.171875
9053		-72.265625
9054		-80.078125
9055		-74.218750
9056		-80.078125
9057		-76.171875
9058		-82.031250
9059		-78.125000
9060		-83.984375
9061		-80.078125
9062		-83.984375
9063		-80.078125
9064		-85.937500
9065		-82.031250
9066		-87.890625
9067		-82.031250
9068		-87.890625
9069		-83.984375
9070		-89.843750
9071		-85.937500
9072		-89.843750
9073		-85.937500
9074		-91.796875
9075		-87.890625
9076		-93.750000
9077		-89.843750
9078		-93.750000
9079		-89.843750
9080		-93.750000
9081		-91.796875
9082		-95.703125
9083		-91.796875
9084		-95.703125
9085		-91.796875
9086		-95.703125
9087		-93.750000
9088		-97.656250
9089		-93.750000
9090		-97.656250
9091		-93.750000
9092		-97.656250
9093		-93.750000
9094		-97.656250
9095		-95.703125
9096		-99.609375
9097		-95.703125
9098		-99.609375
9099		-95.703125
9100		-99.609375
9101		-95.703125
9102		-99.609375
9103		-95.703125
9104		-99.609375
9105		-95.703125
9106		-99.609375
9107		-95.703125
9108		-99.609375
9109		-95.703125
9110		-99.609375
9111		-95.703125
9112		-99.609375
9113		-95.703125
9114		-99.609375
9115		-95.703125
9116		-97.656250
9117		-93.750000
9118		-97.656250
9119		-93.750000
9120		-97.656250
9121		-93.750000
9122		-97.656250
9123		-93.750000
9124		-97.656250
9125		-91.796875
9126		-95.703125
9127		-91.796875
9128		-95.703125
9129		-91.796875
9130		-93.750000
9131		-89.843750
9132		-93.750000
9133		-89.843750
9134		-91.796875
9135		-87.890625
9136		-89.843750
9137		-87.890625
9138		-89.843750
9139		-85.937500
9140		-87.890625
9141		-83.984375
9142		-87.890625
9143		-83.984375
9144		-87.890625
9145		-80.078125
9146		-83.984375
9147		-80.078125
9148		-83.984375
9149		-80.078125
9150		-82.031250
9151		-78.125000
9152		-80.078125
9153		-76.171875
9154		-78.125000
9155		-76.171875
9156		-78.125000
9157		-74.218750
9158		-76.171875
9159		-72.265625
9160		-74.218750
9161		-70.312500
9162		-72.265625
9163		-68.359375
9164		-72.265625
9165		-66.406250
9166		-68.359375
9167		-64.453125
9168		-66.406250
9169		-62.500000
9170		-64.453125
9171		-60.546875
9172		-64.453125
9173		-58.593750
9174		-60.546875
9175		-56.640625
9176		-60.546875
9177		-54.687500
9178		-58.593750
9179		-52.734375
9180		-56.640625
9181		-50.781250
9182		-52.734375
9183		-48.828125
9184		-50.781250
9185		-46.875000
9186		-48.828125
9187		-44.921875
9188		-46.875000
9189		-42.968750
9190		-44.921875
9191		-41.015625
9192		-42.968750
9193		-37.109375
9194		-41.015625
9195		-35.156250
9196		-37.109375
9197		-33.203125
9198		-35.156250
9199		-31.250000
9200		-33.203125
9201		-29.296875
9202		-31.250000
9203		-27.343750
9204		-29.296875
9205		-23.437500
9206		-27.343750
9207		-21.484375
9208		-25.390625
9209		-19.531250
9210		-21.484375
9211		-17.578125
9212		-19.531250
9213		-15.625000
9214		-17.578125
9215		-13.671875
9216		-15.625000
9217		-9.765625
9218		-11.718750
9219		-7.812500
9220		-9.765625
9221		-5.859375
9222		-7.812500
9223		-3.906250
9224		-5.859375
9225		0.000000
9226		-3.906250
9227		1.953125
9228		-1.953125
9229		3.906250
9230		1.953125
9231		5.859375
9232		3.906250
9233		7.812500
9234		5.859375
9235		11.718750
9236		7.812500
9237		13.671875
9238		9.765625
9239		13.671875
9240		11.718750
9241		17.578125
9242		13.671875
9243		19.531250
9244		17.578125
9245		21.484375
9246		19.531250
9247		23.437500
9248		21.484375
9249		25.390625
9250		23.437500
9251		27.343750
9252		25.390625
9253		29.296875
9254		27.343750
9255		31.250000
9256		29.296875
9257		33.203125
9258		31.250000
9259		35.156250
9260		33.203125
9261		37.109375
9262		35.156250
9263		39.062500
9264		37.109375
9265		41.015625
9266		39.062500
9267		42.968750
9268		39.062500
9269		44.921875
9270		41.015625
9271		44.921875
9272		42.968750
9273		46.875000
9274		44.921875
9275		48.828125
9276		46.875000
9277		50.781250
9278		48.828125
9279		52.734375
9280		48.828125
9281		54.687500
9282		50.781250
9283		54.687500
9284		52.734375
9285		56.640625
9286		52.734375
9287		58.593750
9288		54.687500
9289		60.546875
9290		56.640625
9291		60.546875
9292		58.593750
9293		62.500000
9294		58.593750
9295		62.500000
9296		60.546875
9297		64.453125
9298		60.546875
9299		64.453125
9300		62.500000
9301		66.406250
9302		64.453125
9303		68.359375
9304		64.453125
9305		68.359375
9306		64.453125
9307		70.312500
9308		66.406250
9309		70.312500
9310		66.406250
9311		70.312500
9312		68.359375
9313		72.265625
9314		68.359375
9315		72.265625
9316		70.312500
9317		72.265625
9318		70.312500
9319		74.218750
9320		70.312500
9321		74.218750
9322		72.265625
9323		74.218750
9324		70.312500
9325		76.171875
9326		72.265625
9327		76.171875
9328		72.265625
9329		76.171875
9330		72.265625
9331		76.171875
9332		74.218750
9333		76.171875
9334		72.265625
9335		76.171875
9336		72.265625
9337		78.125000
9338		74.218750
9339		76.171875
9340		74.218750
9341		78.125000
9342		74.218750
9343		76.171875
9344		74.218750
9345		78.125000
9346		74.218750
9347		76.171875
9348		72.265625
9349		76.171875
9350		72.265625
9351		76.171875
9352		72.265625
9353		76.171875
9354		72.265625
9355		76.171875
9356		72.265625
9357		76.171875
9358		72.265625
9359		76.171875
9360		70.312500
9361		74.218750
9362		70.312500
9363		74.218750
9364		68.359375
9365		74.218750
9366		68.359375
9367		72.265625
9368		68.359375
9369		72.265625
9370		68.359375
9371		72.265625
9372		66.406250
9373		70.312500
9374		66.406250
9375		70.312500
9376		64.453125
9377		68.359375
9378		64.453125
9379		68.359375
9380		62.500000
9381		68.359375
9382		62.500000
9383		66.406250
9384		60.546875
9385		64.453125
9386		60.546875
9387		64.453125
9388		58.593750
9389		62.500000
9390		56.640625
9391		60.546875
9392		56.640625
9393		60.546875
9394		54.687500
9395		58.593750
9396		52.734375
9397		56.640625
9398		52.734375
9399		56.640625
9400		50.781250
9401		54.687500
9402		48.828125
9403		52.734375
9404		46.875000
9405		50.781250
9406		44.921875
9407		50.781250
9408		44.921875
9409		48.828125
9410		42.968750
9411		46.875000
9412		41.015625
9413		44.921875
9414		39.062500
9415		42.968750
9416		37.109375
9417		41.015625
9418		35.156250
9419		39.062500
9420		33.203125
9421		37.109375
9422		31.250000
9423		35.156250
9424		29.296875
9425		33.203125
9426		27.343750
9427		31.250000
9428		25.390625
9429		29.296875
9430		23.437500
9431		27.343750
9432		21.484375
9433		25.390625
9434		17.578125
9435		23.437500
9436		15.625000
9437		21.484375
9438		13.671875
9439		19.531250
9440		11.718750
9441		17.578125
9442		9.765625
9443		15.625000
9444		7.812500
9445		11.718750
9446		5.859375
9447		9.765625
9448		3.906250
9449		7.812500
9450		1.953125
9451		5.859375
9452		-1.953125
9453		3.906250
9454		-3.906250
9455		1.953125
9456		-5.859375
9457		-1.953125
9458		-7.812500
9459		-3.906250
9460		-11.718750
9461		-5.859375
9462		-13.671875
9463		-7.812500
9464		-15.625000
9465		-9.765625
9466		-17.578125
9467		-13.671875
9468		-19.531250
9469		-15.625000
9470		-21.484375
9471		-17.578125
9472		-25.390625
9473		-19.531250
9474		-29.296875
9475		-21.484375
9476		-29.296875
9477		-25.390625
9478		-31.250000
9479		-27.343750
9480		-33.203125
9481		-29.296875
9482		-35.156250
9483		-31.250000
9484		-39.062500
9485		-33.203125
9486		-42.968750
9487		-35.156250
9488		-42.968750
9489		-39.062500
9490		-44.921875
9491		-41.015625
9492		-46.875000
9493		-42.968750
9494		-50.781250
9495		-44.921875
9496		-50.781250
9497		-46.875000
9498		-54.687500
9499		-48.828125
9500		-56.640625
9501		-50.781250
9502		-58.593750
9503		-52.734375
9504		-60.546875
9505		-54.687500
9506		-62.500000
9507		-58.593750
9508		-64.453125
9509		-60.546875
9510		-66.406250
9511		-62.500000
9512		-68.359375
9513		-62.500000
9514		-70.312500
9515		-64.453125
9516		-72.265625
9517		-66.406250
9518		-72.265625
9519		-68.359375
9520		-74.218750
9521		-70.312500
9522		-76.171875
9523		-72.265625
9524		-78.125000
9525		-74.218750
9526		-80.078125
9527		-76.171875
9528		-82.031250
9529		-76.171875
9530		-82.031250
9531		-78.125000
9532		-83.984375
9533		-80.078125
9534		-85.937500
9535		-82.031250
9536		-85.937500
9537		-82.031250
9538		-87.890625
9539		-83.984375
9540		-89.843750
9541		-85.937500
9542		-91.796875
9543		-85.937500
9544		-89.843750
9545		-87.890625
9546		-91.796875
9547		-87.890625
9548		-93.750000
9549		-89.843750
9550		-93.750000
9551		-89.843750
9552		-95.703125
9553		-91.796875
9554		-95.703125
9555		-91.796875
9556		-95.703125
9557		-93.750000
9558		-97.656250
9559		-93.750000
9560		-97.656250
9561		-93.750000
9562		-97.656250
9563		-93.750000
9564		-97.656250
9565		-95.703125
9566		-99.609375
9567		-95.703125
9568		-99.609375
9569		-95.703125
9570		-99.609375
9571		-95.703125
9572		-99.609375
9573		-95.703125
9574		-99.609375
9575		-95.703125
9576		-99.609375
9577		-95.703125
9578		-99.609375
9579		-95.703125
9580		-99.609375
9581		-95.703125
9582		-99.609375
9583		-95.703125
9584		-99.609375
9585		-95.703125
9586		-97.656250
9587		-95.703125
9588		-99.609375
9589		-93.750000
9590		-97.656250
9591		-95.703125
9592		-97.656250
9593		-93.750000
9594		-97.656250
9595		-93.750000
9596		-95.703125
9597		-91.796875
9598		-95.703125
9599		-91.796875
9600		-93.750000
9601		-91.796875
9602		-93.750000
9603		-89.843750
9604		-93.750000
9605		-89.843750
9606		-91.796875
9607		-87.890625
9608		-91.796875
9609		-87.890625
9610		-89.843750
9611		-85.937500
9612		-89.843750
9613		-83.984375
9614		-87.890625
9615		-83.984375
9616		-85.937500
9617		-82.031250
9618		-83.984375
9619		-80.078125
9620		-83.984375
9621		-80.078125
9622		-82.031250
9623		-78.125000
9624		-80.078125
9625		-76.171875
9626		-78.125000
9627		-74.218750
9628		-78.125000
9629		-74.218750
9630		-76.171875
9631		-72.265625
9632		-74.218750
9633		-70.312500
9634		-72.265625
9635		-68.359375
9636		-70.312500
9637		-66.406250
9638		-68.359375
9639		-64.453125
9640		-66.406250
9641		-62.500000
9642		-64.453125
9643		-60.546875
9644		-64.453125
9645		-58.593750
9646		-62.500000
9647		-56.640625
9648		-58.593750
9649		-54.687500
9650		-58.593750
9651		-52.734375
9652		-54.687500
9653		-50.781250
9654		-52.734375
9655		-46.875000
9656		-50.781250
9657		-46.875000
9658		-48.828125
9659		-42.968750
9660		-46.875000
9661		-41.015625
9662		-44.921875
9663		-39.062500
9664		-41.015625
9665		-37.109375
9666		-39.062500
9667		-35.156250
9668		-37.109375
9669		-33.203125
9670		-35.156250
9671		-29.296875
9672		-33.203125
9673		-27.343750
9674		-29.296875
9675		-25.390625
9676		-27.343750
9677		-23.437500
9678		-27.343750
9679		-21.484375
9680		-23.437500
9681		-19.531250
9682		-21.484375
9683		-17.578125
9684		-19.531250
9685		-13.671875
9686		-17.578125
9687		-11.718750
9688		-13.671875
9689		-9.765625
9690		-11.718750
9691		-7.812500
9692		-9.765625
9693		-5.859375
9694		-7.812500
9695		-1.953125
9696		-5.859375
9697		0.000000
9698		-1.953125
9699		1.953125
9700		0.000000
9701		3.906250
9702		1.953125
9703		7.812500
9704		3.906250
9705		9.765625
9706		5.859375
9707		9.765625
9708		9.765625
9709		13.671875
9710		11.718750
9711		15.625000
9712		11.718750
9713		17.578125
9714		13.671875
9715		19.531250
9716		17.578125
9717		21.484375
9718		19.531250
9719		23.437500
9720		21.484375
9721		25.390625
9722		23.437500
9723		27.343750
9724		25.390625
9725		29.296875
9726		27.343750
9727		31.250000
9728		29.296875
9729		33.203125
9730		31.250000
9731		35.156250
9732		33.203125
9733		37.109375
9734		35.156250
9735		39.062500
9736		37.109375
9737		41.015625
9738		37.109375
9739		42.968750
9740		39.062500
9741		44.921875
9742		42.968750
9743		46.875000
9744		42.968750
9745		48.828125
9746		44.921875
9747		48.828125
9748		46.875000
9749		50.781250
9750		48.828125
9751		52.734375
9752		50.781250
9753		54.687500
9754		50.781250
9755		56.640625
9756		52.734375
9757		56.640625
9758		54.687500
9759		58.593750
9760		56.640625
9761		60.546875
9762		56.640625
9763		60.546875
9764		58.593750
9765		62.500000
9766		58.593750
9767		62.500000
9768		60.546875
9769		64.453125
9770		60.546875
9771		64.453125
9772		62.500000
9773		66.406250
9774		64.453125
9775		68.359375
9776		64.453125
9777		68.359375
9778		66.406250
9779		70.312500
9780		66.406250
9781		70.312500
9782		68.359375
9783		72.265625
9784		68.359375
9785		72.265625
9786		68.359375
9787		72.265625
9788		70.312500
9789		72.265625
9790		70.312500
9791		74.218750
9792		70.312500
9793		74.218750
9794		70.312500
9795		74.218750
9796		70.312500
9797		76.171875
9798		70.312500
9799		76.171875
9800		72.265625
9801		76.171875
9802		70.312500
9803		76.171875
9804		72.265625
9805		76.171875
9806		72.265625
9807		78.125000
9808		72.265625
9809		76.171875
9810		72.265625
9811		76.171875
9812		72.265625
9813		78.125000
9814		70.312500
9815		78.125000
9816		72.265625
9817		78.125000
9818		72.265625
9819		78.125000
9820		70.312500
9821		76.171875
9822		72.265625
9823		76.171875
9824		72.265625
9825		76.171875
9826		72.265625
9827		74.218750
9828		68.359375
9829		76.171875
9830		70.312500
9831		76.171875
9832		68.359375
9833		76.171875
9834		68.359375
9835		76.171875
9836		68.359375
9837		74.218750
9838		66.406250
9839		72.265625
9840		66.406250
9841		72.265625
9842		66.406250
9843		70.312500
9844		66.406250
9845		70.312500
9846		62.500000
9847		70.312500
9848		62.500000
9849		70.312500
9850		60.546875
9851		68.359375
9852		60.546875
9853		68.359375
9854		58.593750
9855		66.406250
9856		58.593750
9857		64.453125
9858		58.593750
9859		62.500000
9860		56.640625
9861		60.546875
9862		54.687500
9863		60.546875
9864		52.734375
9865		60.546875
9866		50.781250
9867		58.593750
9868		50.781250
9869		58.593750
9870		48.828125
9871		56.640625
9872		46.875000
9873		54.687500
9874		46.875000
9875		52.734375
9876		46.875000
9877		50.781250
9878		42.968750
9879		48.828125
9880		41.015625
9881		48.828125
9882		41.015625
9883		46.875000
9884		37.109375
9885		44.921875
9886		35.156250
9887		42.968750
9888		33.203125
9889		41.015625
9890		33.203125
9891		39.062500
9892		31.250000
9893		35.156250
9894		29.296875
9895		35.156250
9896		25.390625
9897		33.203125
9898		23.437500
9899		33.203125
9900		21.484375
9901		29.296875
9902		19.531250
9903		27.343750
9904		17.578125
9905		25.390625
9906		15.625000
9907		23.437500
9908		15.625000
9909		19.531250
9910		13.671875
9911		17.578125
9912		7.812500
9913		15.625000
9914		5.859375
9915		15.625000
9916		3.906250
9917		11.718750
9918		1.953125
9919		9.765625
9920		0.000000
9921		7.812500
9922		-1.953125
9923		5.859375
9924		-3.906250
9925		3.906250
9926		-5.859375
9927		0.000000
9928		-7.812500
9929		-1.953125
9930		-11.718750
9931		-3.906250
9932		-13.671875
9933		-5.859375
9934		-17.578125
9935		-7.812500
9936		-17.578125
9937		-9.765625
9938		-21.484375
9939		-11.718750
9940		-23.437500
9941		-15.625000
9942		-23.437500
9943		-19.531250
9944		-25.390625
9945		-21.484375
9946		-29.296875
9947		-23.437500
9948		-33.203125
9949		-25.390625
9950		-35.156250
9951		-27.343750
9952		-39.062500
9953		-29.296875
9954		-39.062500
9955		-31.250000
9956		-42.968750
9957		-33.203125
9958		-42.968750
9959		-37.109375
9960		-44.921875
9961		-41.015625
9962		-48.828125
9963		-42.968750
9964		-50.781250
9965		-42.968750
9966		-52.734375
9967		-44.921875
9968		-54.687500
9969		-48.828125
9970		-56.640625
9971		-48.828125
9972		-60.546875
9973		-52.734375
9974		-60.546875
9975		-52.734375
9976		-60.546875
9977		-56.640625
9978		-64.453125
9979		-58.593750
9980		-68.359375
9981		-58.593750
9982		-70.312500
9983		-60.546875
9984		-70.312500
9985		-62.500000
9986		-74.218750
9987		-66.406250
9988		-74.218750
9989		-68.359375
9990		-76.171875
9991		-68.359375
9992		-76.171875
9993		-72.265625
9994		-78.125000
9995		-74.218750
9996		-82.031250
9997		-74.218750
9998		-83.984375
9999		-74.218750
10000		-83.984375
