Channel              :		CH1
Frequency            :		681.2Hz
Period               :		1.468ms
PK-PK                :		132.8mV
Probe attenuation    :		1X
Voltage per ADC value:		0.122070mV
Time interval        :		2.00000us

index		CH1_Voltage(mV)
1		56.640625
2		56.640625
3		52.734375
4		56.640625
5		52.734375
6		56.640625
7		52.734375
8		56.640625
9		54.687500
10		56.640625
11		54.687500
12		56.640625
13		54.687500
14		58.593750
15		54.687500
16		58.593750
17		54.687500
18		58.593750
19		56.640625
20		58.593750
21		56.640625
22		58.593750
23		56.640625
24		58.593750
25		56.640625
26		60.546875
27		56.640625
28		60.546875
29		56.640625
30		60.546875
31		56.640625
32		60.546875
33		58.593750
34		60.546875
35		58.593750
36		62.500000
37		58.593750
38		60.546875
39		58.593750
40		60.546875
41		58.593750
42		62.500000
43		58.593750
44		62.500000
45		58.593750
46		60.546875
47		58.593750
48		62.500000
49		58.593750
50		62.500000
51		58.593750
52		62.500000
53		56.640625
54		62.500000
55		58.593750
56		62.500000
57		58.593750
58		62.500000
59		56.640625
60		62.500000
61		58.593750
62		62.500000
63		58.593750
64		60.546875
65		58.593750
66		62.500000
67		58.593750
68		62.500000
69		58.593750
70		62.500000
71		58.593750
72		60.546875
73		58.593750
74		60.546875
75		58.593750
76		62.500000
77		58.593750
78		60.546875
79		56.640625
80		60.546875
81		56.640625
82		60.546875
83		56.640625
84		60.546875
85		56.640625
86		60.546875
87		56.640625
88		60.546875
89		56.640625
90		60.546875
91		56.640625
92		60.546875
93		54.687500
94		58.593750
95		56.640625
96		58.593750
97		54.687500
98		58.593750
99		54.687500
100		58.593750
101		54.687500
102		58.593750
103		54.687500
104		56.640625
105		52.734375
106		58.593750
107		52.734375
108		56.640625
109		52.734375
110		56.640625
111		52.734375
112		56.640625
113		52.734375
114		54.687500
115		52.734375
116		54.687500
117		50.781250
118		54.687500
119		50.781250
120		52.734375
121		50.781250
122		52.734375
123		48.828125
124		52.734375
125		48.828125
126		52.734375
127		46.875000
128		52.734375
129		48.828125
130		50.781250
131		46.875000
132		50.781250
133		44.921875
134		50.781250
135		46.875000
136		48.828125
137		44.921875
138		48.828125
139		44.921875
140		48.828125
141		44.921875
142		46.875000
143		42.968750
144		46.875000
145		42.968750
146		44.921875
147		41.015625
148		44.921875
149		41.015625
150		44.921875
151		41.015625
152		42.968750
153		39.062500
154		42.968750
155		39.062500
156		42.968750
157		37.109375
158		41.015625
159		37.109375
160		41.015625
161		35.156250
162		39.062500
163		35.156250
164		39.062500
165		35.156250
166		37.109375
167		33.203125
168		39.062500
169		33.203125
170		37.109375
171		33.203125
172		35.156250
173		31.250000
174		35.156250
175		31.250000
176		35.156250
177		29.296875
178		33.203125
179		29.296875
180		33.203125
181		27.343750
182		31.250000
183		27.343750
184		31.250000
185		25.390625
186		29.296875
187		25.390625
188		29.296875
189		23.437500
190		27.343750
191		23.437500
192		27.343750
193		21.484375
194		27.343750
195		21.484375
196		25.390625
197		19.531250
198		23.437500
199		17.578125
200		23.437500
201		17.578125
202		21.484375
203		15.625000
204		21.484375
205		15.625000
206		19.531250
207		15.625000
208		19.531250
209		13.671875
210		17.578125
211		13.671875
212		17.578125
213		11.718750
214		15.625000
215		11.718750
216		13.671875
217		9.765625
218		13.671875
219		7.812500
220		11.718750
221		7.812500
222		11.718750
223		5.859375
224		11.718750
225		5.859375
226		9.765625
227		3.906250
228		7.812500
229		3.906250
230		7.812500
231		1.953125
232		7.812500
233		1.953125
234		5.859375
235		0.000000
236		3.906250
237		0.000000
238		3.906250
239		-1.953125
240		1.953125
241		-1.953125
242		0.000000
243		-3.906250
244		0.000000
245		-5.859375
246		-1.953125
247		-5.859375
248		-1.953125
249		-7.812500
250		-3.906250
251		-7.812500
252		-3.906250
253		-9.765625
254		-5.859375
255		-11.718750
256		-7.812500
257		-11.718750
258		-7.812500
259		-13.671875
260		-9.765625
261		-15.625000
262		-9.765625
263		-13.671875
264		-9.765625
265		-15.625000
266		-13.671875
267		-17.578125
268		-13.671875
269		-17.578125
270		-13.671875
271		-19.531250
272		-15.625000
273		-19.531250
274		-15.625000
275		-21.484375
276		-17.578125
277		-23.437500
278		-17.578125
279		-23.437500
280		-19.531250
281		-23.437500
282		-21.484375
283		-27.343750
284		-21.484375
285		-25.390625
286		-23.437500
287		-27.343750
288		-23.437500
289		-27.343750
290		-25.390625
291		-29.296875
292		-25.390625
293		-29.296875
294		-27.343750
295		-33.203125
296		-27.343750
297		-31.250000
298		-29.296875
299		-33.203125
300		-29.296875
301		-35.156250
302		-29.296875
303		-35.156250
304		-31.250000
305		-37.109375
306		-31.250000
307		-37.109375
308		-33.203125
309		-39.062500
310		-35.156250
311		-39.062500
312		-35.156250
313		-41.015625
314		-35.156250
315		-39.062500
316		-37.109375
317		-41.015625
318		-37.109375
319		-41.015625
320		-39.062500
321		-42.968750
322		-39.062500
323		-44.921875
324		-39.062500
325		-44.921875
326		-41.015625
327		-44.921875
328		-42.968750
329		-46.875000
330		-42.968750
331		-46.875000
332		-44.921875
333		-46.875000
334		-44.921875
335		-48.828125
336		-44.921875
337		-48.828125
338		-44.921875
339		-50.781250
340		-46.875000
341		-50.781250
342		-46.875000
343		-50.781250
344		-46.875000
345		-52.734375
346		-48.828125
347		-52.734375
348		-48.828125
349		-52.734375
350		-50.781250
351		-54.687500
352		-50.781250
353		-54.687500
354		-50.781250
355		-54.687500
356		-52.734375
357		-56.640625
358		-52.734375
359		-56.640625
360		-52.734375
361		-58.593750
362		-52.734375
363		-56.640625
364		-54.687500
365		-56.640625
366		-54.687500
367		-58.593750
368		-54.687500
369		-58.593750
370		-54.687500
371		-60.546875
372		-56.640625
373		-60.546875
374		-54.687500
375		-60.546875
376		-56.640625
377		-60.546875
378		-56.640625
379		-62.500000
380		-56.640625
381		-60.546875
382		-58.593750
383		-62.500000
384		-58.593750
385		-62.500000
386		-58.593750
387		-62.500000
388		-58.593750
389		-62.500000
390		-58.593750
391		-62.500000
392		-60.546875
393		-62.500000
394		-60.546875
395		-64.453125
396		-60.546875
397		-64.453125
398		-60.546875
399		-64.453125
400		-60.546875
401		-66.406250
402		-60.546875
403		-64.453125
404		-62.500000
405		-64.453125
406		-60.546875
407		-64.453125
408		-60.546875
409		-64.453125
410		-62.500000
411		-66.406250
412		-60.546875
413		-66.406250
414		-60.546875
415		-64.453125
416		-62.500000
417		-64.453125
418		-62.500000
419		-66.406250
420		-62.500000
421		-66.406250
422		-62.500000
423		-66.406250
424		-62.500000
425		-64.453125
426		-62.500000
427		-66.406250
428		-62.500000
429		-66.406250
430		-62.500000
431		-66.406250
432		-62.500000
433		-66.406250
434		-62.500000
435		-66.406250
436		-60.546875
437		-64.453125
438		-62.500000
439		-66.406250
440		-62.500000
441		-64.453125
442		-62.500000
443		-64.453125
444		-60.546875
445		-64.453125
446		-60.546875
447		-64.453125
448		-60.546875
449		-64.453125
450		-58.593750
451		-62.500000
452		-60.546875
453		-62.500000
454		-60.546875
455		-64.453125
456		-60.546875
457		-62.500000
458		-58.593750
459		-62.500000
460		-58.593750
461		-62.500000
462		-58.593750
463		-62.500000
464		-56.640625
465		-60.546875
466		-58.593750
467		-60.546875
468		-56.640625
469		-60.546875
470		-56.640625
471		-58.593750
472		-54.687500
473		-58.593750
474		-54.687500
475		-58.593750
476		-54.687500
477		-58.593750
478		-54.687500
479		-56.640625
480		-54.687500
481		-56.640625
482		-54.687500
483		-56.640625
484		-52.734375
485		-56.640625
486		-50.781250
487		-54.687500
488		-52.734375
489		-54.687500
490		-50.781250
491		-54.687500
492		-50.781250
493		-52.734375
494		-50.781250
495		-52.734375
496		-48.828125
497		-52.734375
498		-48.828125
499		-52.734375
500		-46.875000
501		-50.781250
502		-46.875000
503		-50.781250
504		-46.875000
505		-48.828125
506		-44.921875
507		-48.828125
508		-44.921875
509		-46.875000
510		-44.921875
511		-46.875000
512		-42.968750
513		-46.875000
514		-42.968750
515		-46.875000
516		-41.015625
517		-44.921875
518		-41.015625
519		-42.968750
520		-39.062500
521		-42.968750
522		-39.062500
523		-42.968750
524		-39.062500
525		-41.015625
526		-37.109375
527		-41.015625
528		-37.109375
529		-41.015625
530		-35.156250
531		-39.062500
532		-35.156250
533		-37.109375
534		-35.156250
535		-37.109375
536		-33.203125
537		-35.156250
538		-33.203125
539		-35.156250
540		-31.250000
541		-33.203125
542		-29.296875
543		-33.203125
544		-29.296875
545		-31.250000
546		-27.343750
547		-31.250000
548		-25.390625
549		-29.296875
550		-27.343750
551		-29.296875
552		-25.390625
553		-29.296875
554		-23.437500
555		-27.343750
556		-23.437500
557		-25.390625
558		-21.484375
559		-25.390625
560		-21.484375
561		-23.437500
562		-19.531250
563		-23.437500
564		-19.531250
565		-23.437500
566		-17.578125
567		-21.484375
568		-17.578125
569		-19.531250
570		-15.625000
571		-19.531250
572		-15.625000
573		-17.578125
574		-13.671875
575		-17.578125
576		-13.671875
577		-15.625000
578		-11.718750
579		-13.671875
580		-11.718750
581		-13.671875
582		-9.765625
583		-13.671875
584		-9.765625
585		-11.718750
586		-7.812500
587		-9.765625
588		-5.859375
589		-9.765625
590		-5.859375
591		-7.812500
592		-3.906250
593		-7.812500
594		-3.906250
595		-5.859375
596		-1.953125
597		-5.859375
598		-1.953125
599		-5.859375
600		0.000000
601		-3.906250
602		0.000000
603		-1.953125
604		1.953125
605		-1.953125
606		1.953125
607		0.000000
608		3.906250
609		1.953125
610		5.859375
611		1.953125
612		5.859375
613		3.906250
614		7.812500
615		5.859375
616		7.812500
617		5.859375
618		9.765625
619		7.812500
620		9.765625
621		5.859375
622		11.718750
623		7.812500
624		11.718750
625		9.765625
626		13.671875
627		11.718750
628		15.625000
629		11.718750
630		15.625000
631		13.671875
632		15.625000
633		13.671875
634		17.578125
635		15.625000
636		17.578125
637		15.625000
638		19.531250
639		15.625000
640		21.484375
641		17.578125
642		21.484375
643		19.531250
644		23.437500
645		19.531250
646		23.437500
647		21.484375
648		25.390625
649		21.484375
650		25.390625
651		23.437500
652		25.390625
653		23.437500
654		29.296875
655		25.390625
656		27.343750
657		25.390625
658		29.296875
659		27.343750
660		31.250000
661		27.343750
662		31.250000
663		27.343750
664		33.203125
665		29.296875
666		33.203125
667		31.250000
668		33.203125
669		31.250000
670		35.156250
671		31.250000
672		35.156250
673		33.203125
674		35.156250
675		33.203125
676		37.109375
677		35.156250
678		39.062500
679		35.156250
680		39.062500
681		35.156250
682		39.062500
683		37.109375
684		41.015625
685		37.109375
686		41.015625
687		39.062500
688		41.015625
689		39.062500
690		42.968750
691		39.062500
692		42.968750
693		41.015625
694		42.968750
695		41.015625
696		44.921875
697		42.968750
698		44.921875
699		42.968750
700		46.875000
701		42.968750
702		46.875000
703		44.921875
704		48.828125
705		44.921875
706		48.828125
707		44.921875
708		48.828125
709		46.875000
710		50.781250
711		46.875000
712		50.781250
713		46.875000
714		50.781250
715		46.875000
716		50.781250
717		48.828125
718		50.781250
719		48.828125
720		52.734375
721		48.828125
722		54.687500
723		48.828125
724		54.687500
725		50.781250
726		54.687500
727		50.781250
728		54.687500
729		50.781250
730		54.687500
731		52.734375
732		56.640625
733		52.734375
734		56.640625
735		52.734375
736		56.640625
737		52.734375
738		56.640625
739		52.734375
740		56.640625
741		54.687500
742		56.640625
743		52.734375
744		58.593750
745		54.687500
746		58.593750
747		54.687500
748		58.593750
749		54.687500
750		60.546875
751		56.640625
752		58.593750
753		54.687500
754		60.546875
755		56.640625
756		60.546875
757		56.640625
758		60.546875
759		56.640625
760		60.546875
761		58.593750
762		60.546875
763		56.640625
764		62.500000
765		56.640625
766		62.500000
767		56.640625
768		62.500000
769		58.593750
770		60.546875
771		56.640625
772		62.500000
773		58.593750
774		62.500000
775		58.593750
776		62.500000
777		58.593750
778		62.500000
779		58.593750
780		62.500000
781		58.593750
782		62.500000
783		58.593750
784		62.500000
785		58.593750
786		62.500000
787		58.593750
788		62.500000
789		58.593750
790		62.500000
791		58.593750
792		62.500000
793		58.593750
794		62.500000
795		58.593750
796		62.500000
797		58.593750
798		62.500000
799		58.593750
800		62.500000
801		58.593750
802		62.500000
803		58.593750
804		62.500000
805		58.593750
806		62.500000
807		56.640625
808		62.500000
809		58.593750
810		60.546875
811		58.593750
812		62.500000
813		56.640625
814		62.500000
815		56.640625
816		60.546875
817		56.640625
818		60.546875
819		56.640625
820		60.546875
821		56.640625
822		60.546875
823		56.640625
824		60.546875
825		56.640625
826		58.593750
827		56.640625
828		58.593750
829		54.687500
830		58.593750
831		54.687500
832		58.593750
833		54.687500
834		58.593750
835		54.687500
836		56.640625
837		54.687500
838		58.593750
839		52.734375
840		58.593750
841		52.734375
842		56.640625
843		52.734375
844		56.640625
845		52.734375
846		54.687500
847		50.781250
848		54.687500
849		50.781250
850		54.687500
851		50.781250
852		54.687500
853		50.781250
854		54.687500
855		48.828125
856		52.734375
857		48.828125
858		52.734375
859		48.828125
860		52.734375
861		48.828125
862		52.734375
863		46.875000
864		50.781250
865		46.875000
866		50.781250
867		44.921875
868		50.781250
869		46.875000
870		48.828125
871		44.921875
872		48.828125
873		44.921875
874		48.828125
875		42.968750
876		46.875000
877		42.968750
878		46.875000
879		42.968750
880		46.875000
881		41.015625
882		44.921875
883		41.015625
884		44.921875
885		41.015625
886		44.921875
887		39.062500
888		42.968750
889		39.062500
890		41.015625
891		37.109375
892		41.015625
893		37.109375
894		39.062500
895		35.156250
896		39.062500
897		35.156250
898		39.062500
899		35.156250
900		37.109375
901		33.203125
902		37.109375
903		33.203125
904		37.109375
905		31.250000
906		35.156250
907		31.250000
908		35.156250
909		31.250000
910		33.203125
911		29.296875
912		33.203125
913		29.296875
914		31.250000
915		27.343750
916		31.250000
917		25.390625
918		31.250000
919		25.390625
920		29.296875
921		23.437500
922		29.296875
923		23.437500
924		27.343750
925		21.484375
926		27.343750
927		21.484375
928		25.390625
929		21.484375
930		23.437500
931		19.531250
932		23.437500
933		19.531250
934		23.437500
935		17.578125
936		21.484375
937		17.578125
938		19.531250
939		15.625000
940		19.531250
941		13.671875
942		17.578125
943		13.671875
944		17.578125
945		13.671875
946		17.578125
947		11.718750
948		15.625000
949		11.718750
950		13.671875
951		9.765625
952		13.671875
953		9.765625
954		11.718750
955		5.859375
956		11.718750
957		5.859375
958		11.718750
959		5.859375
960		9.765625
961		5.859375
962		9.765625
963		3.906250
964		7.812500
965		1.953125
966		5.859375
967		1.953125
968		5.859375
969		0.000000
970		3.906250
971		0.000000
972		3.906250
973		-3.906250
974		1.953125
975		-3.906250
976		1.953125
977		-3.906250
978		1.953125
979		-3.906250
980		-1.953125
981		-5.859375
982		-1.953125
983		-7.812500
984		-1.953125
985		-9.765625
986		-3.906250
987		-9.765625
988		-5.859375
989		-9.765625
990		-7.812500
991		-11.718750
992		-5.859375
993		-11.718750
994		-7.812500
995		-13.671875
996		-9.765625
997		-13.671875
998		-11.718750
999		-15.625000
1000		-9.765625
1001		-17.578125
1002		-13.671875
1003		-17.578125
1004		-15.625000
1005		-19.531250
1006		-15.625000
1007		-21.484375
1008		-15.625000
1009		-21.484375
1010		-15.625000
1011		-23.437500
1012		-15.625000
1013		-25.390625
1014		-17.578125
1015		-25.390625
1016		-19.531250
1017		-27.343750
1018		-19.531250
1019		-25.390625
1020		-21.484375
1021		-27.343750
1022		-23.437500
1023		-29.296875
1024		-25.390625
1025		-29.296875
1026		-23.437500
1027		-31.250000
1028		-25.390625
1029		-31.250000
1030		-25.390625
1031		-33.203125
1032		-27.343750
1033		-35.156250
1034		-27.343750
1035		-35.156250
1036		-29.296875
1037		-35.156250
1038		-31.250000
1039		-35.156250
1040		-33.203125
1041		-39.062500
1042		-33.203125
1043		-39.062500
1044		-33.203125
1045		-41.015625
1046		-33.203125
1047		-41.015625
1048		-33.203125
1049		-41.015625
1050		-35.156250
1051		-42.968750
1052		-37.109375
1053		-41.015625
1054		-37.109375
1055		-42.968750
1056		-39.062500
1057		-44.921875
1058		-39.062500
1059		-46.875000
1060		-41.015625
1061		-46.875000
1062		-41.015625
1063		-46.875000
1064		-41.015625
1065		-48.828125
1066		-41.015625
1067		-48.828125
1068		-42.968750
1069		-48.828125
1070		-44.921875
1071		-48.828125
1072		-44.921875
1073		-48.828125
1074		-46.875000
1075		-52.734375
1076		-44.921875
1077		-52.734375
1078		-44.921875
1079		-52.734375
1080		-48.828125
1081		-54.687500
1082		-48.828125
1083		-54.687500
1084		-46.875000
1085		-54.687500
1086		-48.828125
1087		-54.687500
1088		-50.781250
1089		-54.687500
1090		-52.734375
1091		-56.640625
1092		-50.781250
1093		-58.593750
1094		-50.781250
1095		-58.593750
1096		-50.781250
1097		-58.593750
1098		-52.734375
1099		-58.593750
1100		-54.687500
1101		-58.593750
1102		-54.687500
1103		-58.593750
1104		-54.687500
1105		-58.593750
1106		-56.640625
1107		-60.546875
1108		-54.687500
1109		-60.546875
1110		-54.687500
1111		-62.500000
1112		-54.687500
1113		-62.500000
1114		-56.640625
1115		-62.500000
1116		-56.640625
1117		-62.500000
1118		-56.640625
1119		-62.500000
1120		-56.640625
1121		-62.500000
1122		-58.593750
1123		-62.500000
1124		-60.546875
1125		-64.453125
1126		-58.593750
1127		-64.453125
1128		-58.593750
1129		-64.453125
1130		-58.593750
1131		-66.406250
1132		-58.593750
1133		-66.406250
1134		-58.593750
1135		-66.406250
1136		-60.546875
1137		-66.406250
1138		-60.546875
1139		-64.453125
1140		-60.546875
1141		-66.406250
1142		-60.546875
1143		-66.406250
1144		-60.546875
1145		-66.406250
1146		-60.546875
1147		-66.406250
1148		-58.593750
1149		-66.406250
1150		-60.546875
1151		-66.406250
1152		-58.593750
1153		-66.406250
1154		-60.546875
1155		-64.453125
1156		-62.500000
1157		-66.406250
1158		-62.500000
1159		-66.406250
1160		-60.546875
1161		-66.406250
1162		-60.546875
1163		-66.406250
1164		-60.546875
1165		-66.406250
1166		-60.546875
1167		-68.359375
1168		-60.546875
1169		-66.406250
1170		-60.546875
1171		-64.453125
1172		-62.500000
1173		-64.453125
1174		-60.546875
1175		-64.453125
1176		-58.593750
1177		-66.406250
1178		-58.593750
1179		-64.453125
1180		-58.593750
1181		-64.453125
1182		-58.593750
1183		-64.453125
1184		-58.593750
1185		-64.453125
1186		-58.593750
1187		-62.500000
1188		-58.593750
1189		-62.500000
1190		-58.593750
1191		-62.500000
1192		-58.593750
1193		-64.453125
1194		-56.640625
1195		-62.500000
1196		-56.640625
1197		-62.500000
1198		-56.640625
1199		-62.500000
1200		-54.687500
1201		-62.500000
1202		-54.687500
1203		-60.546875
1204		-54.687500
1205		-58.593750
1206		-56.640625
1207		-58.593750
1208		-54.687500
1209		-58.593750
1210		-52.734375
1211		-60.546875
1212		-52.734375
1213		-56.640625
1214		-50.781250
1215		-56.640625
1216		-50.781250
1217		-56.640625
1218		-50.781250
1219		-56.640625
1220		-50.781250
1221		-54.687500
1222		-50.781250
1223		-54.687500
1224		-50.781250
1225		-54.687500
1226		-48.828125
1227		-52.734375
1228		-48.828125
1229		-52.734375
1230		-48.828125
1231		-52.734375
1232		-46.875000
1233		-50.781250
1234		-46.875000
1235		-50.781250
1236		-46.875000
1237		-48.828125
1238		-44.921875
1239		-48.828125
1240		-44.921875
1241		-46.875000
1242		-44.921875
1243		-46.875000
1244		-41.015625
1245		-48.828125
1246		-41.015625
1247		-46.875000
1248		-41.015625
1249		-46.875000
1250		-39.062500
1251		-44.921875
1252		-39.062500
1253		-44.921875
1254		-39.062500
1255		-41.015625
1256		-39.062500
1257		-42.968750
1258		-37.109375
1259		-41.015625
1260		-35.156250
1261		-41.015625
1262		-35.156250
1263		-41.015625
1264		-33.203125
1265		-39.062500
1266		-33.203125
1267		-39.062500
1268		-31.250000
1269		-37.109375
1270		-31.250000
1271		-35.156250
1272		-31.250000
1273		-33.203125
1274		-29.296875
1275		-33.203125
1276		-29.296875
1277		-33.203125
1278		-27.343750
1279		-31.250000
1280		-25.390625
1281		-31.250000
1282		-25.390625
1283		-31.250000
1284		-23.437500
1285		-29.296875
1286		-23.437500
1287		-27.343750
1288		-21.484375
1289		-25.390625
1290		-23.437500
1291		-25.390625
1292		-21.484375
1293		-25.390625
1294		-19.531250
1295		-25.390625
1296		-17.578125
1297		-23.437500
1298		-17.578125
1299		-23.437500
1300		-15.625000
1301		-21.484375
1302		-15.625000
1303		-21.484375
1304		-13.671875
1305		-19.531250
1306		-13.671875
1307		-15.625000
1308		-13.671875
1309		-17.578125
1310		-9.765625
1311		-15.625000
1312		-9.765625
1313		-13.671875
1314		-9.765625
1315		-15.625000
1316		-7.812500
1317		-13.671875
1318		-5.859375
1319		-13.671875
1320		-5.859375
1321		-11.718750
1322		-3.906250
1323		-7.812500
1324		-5.859375
1325		-7.812500
1326		-3.906250
1327		-7.812500
1328		-1.953125
1329		-7.812500
1330		0.000000
1331		-5.859375
1332		0.000000
1333		-3.906250
1334		1.953125
1335		-3.906250
1336		3.906250
1337		-1.953125
1338		3.906250
1339		0.000000
1340		3.906250
1341		1.953125
1342		3.906250
1343		1.953125
1344		7.812500
1345		1.953125
1346		9.765625
1347		3.906250
1348		9.765625
1349		3.906250
1350		9.765625
1351		3.906250
1352		11.718750
1353		5.859375
1354		11.718750
1355		7.812500
1356		11.718750
1357		9.765625
1358		13.671875
1359		11.718750
1360		13.671875
1361		9.765625
1362		15.625000
1363		11.718750
1364		17.578125
1365		11.718750
1366		17.578125
1367		11.718750
1368		19.531250
1369		13.671875
1370		19.531250
1371		15.625000
1372		21.484375
1373		17.578125
1374		21.484375
1375		19.531250
1376		21.484375
1377		17.578125
1378		25.390625
1379		19.531250
1380		25.390625
1381		19.531250
1382		25.390625
1383		21.484375
1384		27.343750
1385		21.484375
1386		29.296875
1387		23.437500
1388		29.296875
1389		23.437500
1390		29.296875
1391		25.390625
1392		29.296875
1393		27.343750
1394		31.250000
1395		25.390625
1396		33.203125
1397		27.343750
1398		35.156250
1399		27.343750
1400		35.156250
1401		31.250000
1402		35.156250
1403		31.250000
1404		37.109375
1405		31.250000
1406		37.109375
1407		33.203125
1408		37.109375
1409		33.203125
1410		37.109375
1411		33.203125
1412		41.015625
1413		33.203125
1414		41.015625
1415		33.203125
1416		41.015625
1417		35.156250
1418		42.968750
1419		37.109375
1420		42.968750
1421		39.062500
1422		44.921875
1423		39.062500
1424		42.968750
1425		41.015625
1426		42.968750
1427		41.015625
1428		46.875000
1429		41.015625
1430		46.875000
1431		41.015625
1432		46.875000
1433		41.015625
1434		48.828125
1435		42.968750
1436		48.828125
1437		42.968750
1438		48.828125
1439		44.921875
1440		50.781250
1441		42.968750
1442		52.734375
1443		42.968750
1444		52.734375
1445		44.921875
1446		52.734375
1447		46.875000
1448		52.734375
1449		46.875000
1450		52.734375
1451		46.875000
1452		52.734375
1453		48.828125
1454		54.687500
1455		46.875000
1456		54.687500
1457		50.781250
1458		52.734375
1459		50.781250
1460		54.687500
1461		50.781250
1462		56.640625
1463		50.781250
1464		56.640625
1465		50.781250
1466		56.640625
1467		52.734375
1468		56.640625
1469		52.734375
1470		58.593750
1471		52.734375
1472		58.593750
1473		52.734375
1474		58.593750
1475		54.687500
1476		58.593750
1477		52.734375
1478		58.593750
1479		52.734375
1480		60.546875
1481		54.687500
1482		60.546875
1483		54.687500
1484		60.546875
1485		54.687500
1486		60.546875
1487		54.687500
1488		62.500000
1489		56.640625
1490		62.500000
1491		56.640625
1492		60.546875
1493		56.640625
1494		60.546875
1495		56.640625
1496		62.500000
1497		56.640625
1498		62.500000
1499		56.640625
1500		62.500000
1501		56.640625
1502		62.500000
1503		54.687500
1504		62.500000
1505		56.640625
1506		64.453125
1507		58.593750
1508		62.500000
1509		58.593750
1510		62.500000
1511		56.640625
1512		64.453125
1513		58.593750
1514		64.453125
1515		56.640625
1516		64.453125
1517		58.593750
1518		64.453125
1519		56.640625
1520		64.453125
1521		58.593750
1522		64.453125
1523		58.593750
1524		64.453125
1525		58.593750
1526		62.500000
1527		58.593750
1528		62.500000
1529		58.593750
1530		64.453125
1531		58.593750
1532		64.453125
1533		58.593750
1534		64.453125
1535		58.593750
1536		64.453125
1537		58.593750
1538		64.453125
1539		56.640625
1540		64.453125
1541		58.593750
1542		62.500000
1543		58.593750
1544		60.546875
1545		56.640625
1546		62.500000
1547		56.640625
1548		64.453125
1549		56.640625
1550		62.500000
1551		56.640625
1552		62.500000
1553		54.687500
1554		62.500000
1555		56.640625
1556		62.500000
1557		56.640625
1558		60.546875
1559		56.640625
1560		60.546875
1561		54.687500
1562		60.546875
1563		54.687500
1564		60.546875
1565		54.687500
1566		60.546875
1567		52.734375
1568		60.546875
1569		52.734375
1570		60.546875
1571		52.734375
1572		58.593750
1573		52.734375
1574		58.593750
1575		54.687500
1576		56.640625
1577		54.687500
1578		56.640625
1579		50.781250
1580		58.593750
1581		50.781250
1582		58.593750
1583		50.781250
1584		56.640625
1585		48.828125
1586		56.640625
1587		48.828125
1588		56.640625
1589		48.828125
1590		54.687500
1591		48.828125
1592		54.687500
1593		48.828125
1594		52.734375
1595		46.875000
1596		54.687500
1597		46.875000
1598		52.734375
1599		46.875000
1600		52.734375
1601		44.921875
1602		50.781250
1603		44.921875
1604		50.781250
1605		42.968750
1606		50.781250
1607		42.968750
1608		48.828125
1609		44.921875
1610		46.875000
1611		42.968750
1612		46.875000
1613		41.015625
1614		46.875000
1615		39.062500
1616		46.875000
1617		39.062500
1618		44.921875
1619		39.062500
1620		44.921875
1621		37.109375
1622		44.921875
1623		37.109375
1624		42.968750
1625		39.062500
1626		41.015625
1627		37.109375
1628		41.015625
1629		35.156250
1630		41.015625
1631		35.156250
1632		42.968750
1633		33.203125
1634		39.062500
1635		31.250000
1636		39.062500
1637		31.250000
1638		39.062500
1639		29.296875
1640		37.109375
1641		29.296875
1642		35.156250
1643		31.250000
1644		35.156250
1645		29.296875
1646		33.203125
1647		27.343750
1648		35.156250
1649		25.390625
1650		33.203125
1651		25.390625
1652		31.250000
1653		25.390625
1654		31.250000
1655		23.437500
1656		29.296875
1657		23.437500
1658		29.296875
1659		23.437500
1660		25.390625
1661		23.437500
1662		25.390625
1663		19.531250
1664		27.343750
1665		19.531250
1666		25.390625
1667		17.578125
1668		23.437500
1669		15.625000
1670		23.437500
1671		15.625000
1672		21.484375
1673		15.625000
1674		21.484375
1675		13.671875
1676		19.531250
1677		13.671875
1678		17.578125
1679		11.718750
1680		17.578125
1681		11.718750
1682		17.578125
1683		9.765625
1684		17.578125
1685		7.812500
1686		15.625000
1687		7.812500
1688		13.671875
1689		5.859375
1690		13.671875
1691		5.859375
1692		11.718750
1693		5.859375
1694		9.765625
1695		3.906250
1696		7.812500
1697		1.953125
1698		7.812500
1699		1.953125
1700		7.812500
1701		0.000000
1702		5.859375
1703		0.000000
1704		5.859375
1705		-1.953125
1706		3.906250
1707		-3.906250
1708		3.906250
1709		-1.953125
1710		0.000000
1711		-3.906250
1712		0.000000
1713		-5.859375
1714		0.000000
1715		-7.812500
1716		0.000000
1717		-9.765625
1718		-1.953125
1719		-9.765625
1720		-3.906250
1721		-11.718750
1722		-3.906250
1723		-11.718750
1724		-3.906250
1725		-11.718750
1726		-5.859375
1727		-11.718750
1728		-7.812500
1729		-15.625000
1730		-9.765625
1731		-15.625000
1732		-9.765625
1733		-17.578125
1734		-11.718750
1735		-17.578125
1736		-11.718750
1737		-19.531250
1738		-13.671875
1739		-19.531250
1740		-13.671875
1741		-21.484375
1742		-15.625000
1743		-21.484375
1744		-17.578125
1745		-23.437500
1746		-17.578125
1747		-23.437500
1748		-17.578125
1749		-25.390625
1750		-19.531250
1751		-25.390625
1752		-19.531250
1753		-27.343750
1754		-21.484375
1755		-29.296875
1756		-21.484375
1757		-29.296875
1758		-23.437500
1759		-29.296875
1760		-23.437500
1761		-29.296875
1762		-25.390625
1763		-33.203125
1764		-27.343750
1765		-33.203125
1766		-27.343750
1767		-33.203125
1768		-27.343750
1769		-35.156250
1770		-29.296875
1771		-37.109375
1772		-29.296875
1773		-37.109375
1774		-31.250000
1775		-37.109375
1776		-31.250000
1777		-37.109375
1778		-33.203125
1779		-39.062500
1780		-33.203125
1781		-41.015625
1782		-33.203125
1783		-41.015625
1784		-35.156250
1785		-42.968750
1786		-37.109375
1787		-42.968750
1788		-37.109375
1789		-42.968750
1790		-37.109375
1791		-44.921875
1792		-39.062500
1793		-44.921875
1794		-41.015625
1795		-44.921875
1796		-41.015625
1797		-46.875000
1798		-41.015625
1799		-48.828125
1800		-41.015625
1801		-48.828125
1802		-42.968750
1803		-48.828125
1804		-42.968750
1805		-50.781250
1806		-42.968750
1807		-50.781250
1808		-44.921875
1809		-50.781250
1810		-44.921875
1811		-50.781250
1812		-46.875000
1813		-52.734375
1814		-48.828125
1815		-52.734375
1816		-46.875000
1817		-52.734375
1818		-46.875000
1819		-54.687500
1820		-48.828125
1821		-54.687500
1822		-48.828125
1823		-56.640625
1824		-48.828125
1825		-56.640625
1826		-50.781250
1827		-54.687500
1828		-52.734375
1829		-56.640625
1830		-52.734375
1831		-58.593750
1832		-52.734375
1833		-58.593750
1834		-52.734375
1835		-58.593750
1836		-52.734375
1837		-58.593750
1838		-52.734375
1839		-60.546875
1840		-54.687500
1841		-60.546875
1842		-54.687500
1843		-60.546875
1844		-54.687500
1845		-60.546875
1846		-56.640625
1847		-62.500000
1848		-54.687500
1849		-62.500000
1850		-56.640625
1851		-62.500000
1852		-56.640625
1853		-62.500000
1854		-56.640625
1855		-62.500000
1856		-56.640625
1857		-62.500000
1858		-56.640625
1859		-64.453125
1860		-58.593750
1861		-62.500000
1862		-58.593750
1863		-62.500000
1864		-58.593750
1865		-64.453125
1866		-58.593750
1867		-64.453125
1868		-58.593750
1869		-66.406250
1870		-58.593750
1871		-66.406250
1872		-58.593750
1873		-66.406250
1874		-58.593750
1875		-64.453125
1876		-58.593750
1877		-64.453125
1878		-60.546875
1879		-64.453125
1880		-60.546875
1881		-66.406250
1882		-58.593750
1883		-66.406250
1884		-60.546875
1885		-66.406250
1886		-60.546875
1887		-66.406250
1888		-60.546875
1889		-66.406250
1890		-60.546875
1891		-66.406250
1892		-60.546875
1893		-66.406250
1894		-60.546875
1895		-64.453125
1896		-62.500000
1897		-66.406250
1898		-60.546875
1899		-66.406250
1900		-58.593750
1901		-64.453125
1902		-58.593750
1903		-66.406250
1904		-60.546875
1905		-66.406250
1906		-58.593750
1907		-66.406250
1908		-58.593750
1909		-66.406250
1910		-58.593750
1911		-62.500000
1912		-60.546875
1913		-64.453125
1914		-58.593750
1915		-64.453125
1916		-58.593750
1917		-64.453125
1918		-58.593750
1919		-64.453125
1920		-58.593750
1921		-62.500000
1922		-56.640625
1923		-62.500000
1924		-56.640625
1925		-62.500000
1926		-56.640625
1927		-62.500000
1928		-56.640625
1929		-60.546875
1930		-56.640625
1931		-60.546875
1932		-54.687500
1933		-60.546875
1934		-54.687500
1935		-62.500000
1936		-54.687500
1937		-60.546875
1938		-54.687500
1939		-60.546875
1940		-52.734375
1941		-60.546875
1942		-52.734375
1943		-58.593750
1944		-52.734375
1945		-56.640625
1946		-52.734375
1947		-54.687500
1948		-52.734375
1949		-56.640625
1950		-50.781250
1951		-56.640625
1952		-50.781250
1953		-54.687500
1954		-48.828125
1955		-56.640625
1956		-46.875000
1957		-54.687500
1958		-48.828125
1959		-54.687500
1960		-46.875000
1961		-52.734375
1962		-48.828125
1963		-50.781250
1964		-46.875000
1965		-50.781250
1966		-44.921875
1967		-50.781250
1968		-44.921875
1969		-50.781250
1970		-44.921875
1971		-48.828125
1972		-42.968750
1973		-48.828125
1974		-42.968750
1975		-48.828125
1976		-41.015625
1977		-48.828125
1978		-41.015625
1979		-44.921875
1980		-42.968750
1981		-44.921875
1982		-39.062500
1983		-44.921875
1984		-39.062500
1985		-44.921875
1986		-37.109375
1987		-42.968750
1988		-37.109375
1989		-42.968750
1990		-37.109375
1991		-41.015625
1992		-35.156250
1993		-41.015625
1994		-35.156250
1995		-37.109375
1996		-35.156250
1997		-39.062500
1998		-33.203125
1999		-37.109375
2000		-31.250000
2001		-37.109375
2002		-31.250000
2003		-37.109375
2004		-29.296875
2005		-35.156250
2006		-29.296875
2007		-35.156250
2008		-27.343750
2009		-33.203125
2010		-27.343750
2011		-33.203125
2012		-27.343750
2013		-29.296875
2014		-27.343750
2015		-31.250000
2016		-23.437500
2017		-29.296875
2018		-23.437500
2019		-29.296875
2020		-21.484375
2021		-27.343750
2022		-21.484375
2023		-27.343750
2024		-19.531250
2025		-25.390625
2026		-19.531250
2027		-25.390625
2028		-19.531250
2029		-23.437500
2030		-19.531250
2031		-21.484375
2032		-17.578125
2033		-21.484375
2034		-15.625000
2035		-21.484375
2036		-13.671875
2037		-19.531250
2038		-13.671875
2039		-19.531250
2040		-11.718750
2041		-17.578125
2042		-11.718750
2043		-17.578125
2044		-9.765625
2045		-15.625000
2046		-9.765625
2047		-13.671875
2048		-9.765625
2049		-13.671875
2050		-7.812500
2051		-11.718750
2052		-5.859375
2053		-11.718750
2054		-5.859375
2055		-11.718750
2056		-3.906250
2057		-9.765625
2058		-3.906250
2059		-9.765625
2060		-1.953125
2061		-7.812500
2062		-1.953125
2063		-3.906250
2064		-1.953125
2065		-5.859375
2066		1.953125
2067		-3.906250
2068		1.953125
2069		-3.906250
2070		3.906250
2071		-1.953125
2072		3.906250
2073		-1.953125
2074		5.859375
2075		0.000000
2076		7.812500
2077		0.000000
2078		7.812500
2079		3.906250
2080		7.812500
2081		3.906250
2082		7.812500
2083		3.906250
2084		11.718750
2085		5.859375
2086		11.718750
2087		5.859375
2088		13.671875
2089		7.812500
2090		13.671875
2091		7.812500
2092		15.625000
2093		9.765625
2094		17.578125
2095		11.718750
2096		15.625000
2097		13.671875
2098		15.625000
2099		13.671875
2100		19.531250
2101		13.671875
2102		19.531250
2103		13.671875
2104		21.484375
2105		15.625000
2106		21.484375
2107		17.578125
2108		23.437500
2109		17.578125
2110		25.390625
2111		19.531250
2112		25.390625
2113		21.484375
2114		23.437500
2115		21.484375
2116		25.390625
2117		21.484375
2118		29.296875
2119		23.437500
2120		29.296875
2121		23.437500
2122		29.296875
2123		25.390625
2124		31.250000
2125		25.390625
2126		31.250000
2127		25.390625
2128		33.203125
2129		29.296875
2130		31.250000
2131		29.296875
2132		33.203125
2133		29.296875
2134		35.156250
2135		29.296875
2136		37.109375
2137		29.296875
2138		37.109375
2139		31.250000
2140		37.109375
2141		33.203125
2142		39.062500
2143		33.203125
2144		39.062500
2145		33.203125
2146		41.015625
2147		37.109375
2148		39.062500
2149		37.109375
2150		41.015625
2151		35.156250
2152		42.968750
2153		37.109375
2154		42.968750
2155		37.109375
2156		44.921875
2157		39.062500
2158		44.921875
2159		39.062500
2160		46.875000
2161		39.062500
2162		46.875000
2163		41.015625
2164		44.921875
2165		42.968750
2166		46.875000
2167		42.968750
2168		48.828125
2169		42.968750
2170		48.828125
2171		42.968750
2172		50.781250
2173		42.968750
2174		50.781250
2175		44.921875
2176		50.781250
2177		44.921875
2178		52.734375
2179		46.875000
2180		52.734375
2181		46.875000
2182		50.781250
2183		48.828125
2184		52.734375
2185		48.828125
2186		54.687500
2187		48.828125
2188		54.687500
2189		48.828125
2190		54.687500
2191		48.828125
2192		56.640625
2193		50.781250
2194		56.640625
2195		50.781250
2196		56.640625
2197		52.734375
2198		54.687500
2199		52.734375
2200		56.640625
2201		52.734375
2202		58.593750
2203		52.734375
2204		58.593750
2205		52.734375
2206		60.546875
2207		52.734375
2208		60.546875
2209		54.687500
2210		60.546875
2211		52.734375
2212		60.546875
2213		56.640625
2214		58.593750
2215		56.640625
2216		58.593750
2217		54.687500
2218		60.546875
2219		54.687500
2220		62.500000
2221		54.687500
2222		62.500000
2223		56.640625
2224		62.500000
2225		56.640625
2226		62.500000
2227		56.640625
2228		62.500000
2229		56.640625
2230		62.500000
2231		58.593750
2232		60.546875
2233		58.593750
2234		62.500000
2235		56.640625
2236		64.453125
2237		56.640625
2238		62.500000
2239		56.640625
2240		64.453125
2241		58.593750
2242		64.453125
2243		58.593750
2244		64.453125
2245		58.593750
2246		64.453125
2247		60.546875
2248		62.500000
2249		60.546875
2250		62.500000
2251		58.593750
2252		64.453125
2253		58.593750
2254		64.453125
2255		58.593750
2256		64.453125
2257		58.593750
2258		64.453125
2259		58.593750
2260		64.453125
2261		58.593750
2262		64.453125
2263		58.593750
2264		64.453125
2265		60.546875
2266		62.500000
2267		58.593750
2268		64.453125
2269		58.593750
2270		64.453125
2271		58.593750
2272		64.453125
2273		58.593750
2274		64.453125
2275		56.640625
2276		64.453125
2277		56.640625
2278		64.453125
2279		56.640625
2280		64.453125
2281		58.593750
2282		62.500000
2283		58.593750
2284		60.546875
2285		56.640625
2286		62.500000
2287		56.640625
2288		62.500000
2289		56.640625
2290		62.500000
2291		56.640625
2292		62.500000
2293		56.640625
2294		62.500000
2295		54.687500
2296		62.500000
2297		56.640625
2298		60.546875
2299		56.640625
2300		58.593750
2301		54.687500
2302		60.546875
2303		52.734375
2304		60.546875
2305		52.734375
2306		58.593750
2307		52.734375
2308		58.593750
2309		52.734375
2310		58.593750
2311		52.734375
2312		58.593750
2313		52.734375
2314		58.593750
2315		52.734375
2316		56.640625
2317		52.734375
2318		54.687500
2319		50.781250
2320		56.640625
2321		48.828125
2322		56.640625
2323		48.828125
2324		56.640625
2325		48.828125
2326		54.687500
2327		46.875000
2328		54.687500
2329		46.875000
2330		52.734375
2331		48.828125
2332		52.734375
2333		48.828125
2334		50.781250
2335		46.875000
2336		50.781250
2337		46.875000
2338		50.781250
2339		44.921875
2340		50.781250
2341		42.968750
2342		48.828125
2343		42.968750
2344		48.828125
2345		41.015625
2346		48.828125
2347		41.015625
2348		46.875000
2349		42.968750
2350		44.921875
2351		39.062500
2352		44.921875
2353		39.062500
2354		44.921875
2355		39.062500
2356		44.921875
2357		39.062500
2358		44.921875
2359		37.109375
2360		42.968750
2361		35.156250
2362		42.968750
2363		33.203125
2364		41.015625
2365		37.109375
2366		39.062500
2367		35.156250
2368		39.062500
2369		33.203125
2370		39.062500
2371		31.250000
2372		39.062500
2373		31.250000
2374		37.109375
2375		29.296875
2376		37.109375
2377		29.296875
2378		35.156250
2379		29.296875
2380		35.156250
2381		27.343750
2382		33.203125
2383		29.296875
2384		31.250000
2385		27.343750
2386		31.250000
2387		25.390625
2388		31.250000
2389		23.437500
2390		29.296875
2391		23.437500
2392		29.296875
2393		21.484375
2394		27.343750
2395		21.484375
2396		27.343750
2397		19.531250
2398		25.390625
2399		21.484375
2400		23.437500
2401		19.531250
2402		23.437500
2403		17.578125
2404		23.437500
2405		17.578125
2406		21.484375
2407		15.625000
2408		21.484375
2409		13.671875
2410		19.531250
2411		11.718750
2412		19.531250
2413		11.718750
2414		17.578125
2415		11.718750
2416		15.625000
2417		11.718750
2418		13.671875
2419		7.812500
2420		15.625000
2421		7.812500
2422		13.671875
2423		5.859375
2424		13.671875
2425		5.859375
2426		11.718750
2427		3.906250
2428		11.718750
2429		3.906250
2430		9.765625
2431		1.953125
2432		9.765625
2433		3.906250
2434		5.859375
2435		0.000000
2436		5.859375
2437		-1.953125
2438		5.859375
2439		-1.953125
2440		5.859375
2441		-3.906250
2442		1.953125
2443		-3.906250
2444		1.953125
2445		-3.906250
2446		1.953125
2447		-5.859375
2448		0.000000
2449		-7.812500
2450		-1.953125
2451		-7.812500
2452		-3.906250
2453		-9.765625
2454		-3.906250
2455		-11.718750
2456		-3.906250
2457		-11.718750
2458		-5.859375
2459		-11.718750
2460		-5.859375
2461		-13.671875
2462		-5.859375
2463		-13.671875
2464		-7.812500
2465		-15.625000
2466		-7.812500
2467		-15.625000
2468		-11.718750
2469		-15.625000
2470		-11.718750
2471		-19.531250
2472		-11.718750
2473		-21.484375
2474		-13.671875
2475		-21.484375
2476		-15.625000
2477		-21.484375
2478		-15.625000
2479		-23.437500
2480		-15.625000
2481		-23.437500
2482		-17.578125
2483		-23.437500
2484		-19.531250
2485		-25.390625
2486		-21.484375
2487		-27.343750
2488		-21.484375
2489		-29.296875
2490		-21.484375
2491		-29.296875
2492		-23.437500
2493		-29.296875
2494		-23.437500
2495		-31.250000
2496		-25.390625
2497		-33.203125
2498		-25.390625
2499		-33.203125
2500		-29.296875
2501		-33.203125
2502		-29.296875
2503		-35.156250
2504		-29.296875
2505		-37.109375
2506		-29.296875
2507		-37.109375
2508		-31.250000
2509		-39.062500
2510		-31.250000
2511		-39.062500
2512		-31.250000
2513		-39.062500
2514		-33.203125
2515		-41.015625
2516		-35.156250
2517		-39.062500
2518		-37.109375
2519		-42.968750
2520		-37.109375
2521		-42.968750
2522		-37.109375
2523		-44.921875
2524		-37.109375
2525		-44.921875
2526		-39.062500
2527		-44.921875
2528		-39.062500
2529		-46.875000
2530		-41.015625
2531		-46.875000
2532		-41.015625
2533		-46.875000
2534		-42.968750
2535		-46.875000
2536		-42.968750
2537		-48.828125
2538		-42.968750
2539		-50.781250
2540		-42.968750
2541		-50.781250
2542		-44.921875
2543		-52.734375
2544		-44.921875
2545		-52.734375
2546		-46.875000
2547		-52.734375
2548		-46.875000
2549		-52.734375
2550		-46.875000
2551		-52.734375
2552		-48.828125
2553		-54.687500
2554		-48.828125
2555		-56.640625
2556		-48.828125
2557		-56.640625
2558		-50.781250
2559		-56.640625
2560		-50.781250
2561		-56.640625
2562		-50.781250
2563		-58.593750
2564		-50.781250
2565		-56.640625
2566		-52.734375
2567		-56.640625
2568		-54.687500
2569		-58.593750
2570		-54.687500
2571		-58.593750
2572		-52.734375
2573		-60.546875
2574		-54.687500
2575		-60.546875
2576		-54.687500
2577		-60.546875
2578		-54.687500
2579		-62.500000
2580		-54.687500
2581		-62.500000
2582		-56.640625
2583		-60.546875
2584		-56.640625
2585		-60.546875
2586		-58.593750
2587		-62.500000
2588		-56.640625
2589		-64.453125
2590		-56.640625
2591		-62.500000
2592		-56.640625
2593		-64.453125
2594		-56.640625
2595		-64.453125
2596		-56.640625
2597		-64.453125
2598		-58.593750
2599		-64.453125
2600		-58.593750
2601		-64.453125
2602		-60.546875
2603		-64.453125
2604		-58.593750
2605		-66.406250
2606		-58.593750
2607		-66.406250
2608		-58.593750
2609		-66.406250
2610		-58.593750
2611		-66.406250
2612		-58.593750
2613		-64.453125
2614		-60.546875
2615		-66.406250
2616		-60.546875
2617		-64.453125
2618		-60.546875
2619		-64.453125
2620		-62.500000
2621		-66.406250
2622		-60.546875
2623		-66.406250
2624		-60.546875
2625		-66.406250
2626		-58.593750
2627		-66.406250
2628		-58.593750
2629		-66.406250
2630		-58.593750
2631		-64.453125
2632		-58.593750
2633		-64.453125
2634		-58.593750
2635		-62.500000
2636		-60.546875
2637		-64.453125
2638		-58.593750
2639		-66.406250
2640		-58.593750
2641		-64.453125
2642		-58.593750
2643		-64.453125
2644		-58.593750
2645		-64.453125
2646		-58.593750
2647		-64.453125
2648		-58.593750
2649		-62.500000
2650		-58.593750
2651		-62.500000
2652		-58.593750
2653		-62.500000
2654		-58.593750
2655		-64.453125
2656		-56.640625
2657		-62.500000
2658		-56.640625
2659		-62.500000
2660		-56.640625
2661		-62.500000
2662		-54.687500
2663		-62.500000
2664		-54.687500
2665		-62.500000
2666		-54.687500
2667		-60.546875
2668		-54.687500
2669		-58.593750
2670		-56.640625
2671		-60.546875
2672		-52.734375
2673		-60.546875
2674		-52.734375
2675		-58.593750
2676		-52.734375
2677		-58.593750
2678		-52.734375
2679		-58.593750
2680		-50.781250
2681		-58.593750
2682		-50.781250
2683		-56.640625
2684		-50.781250
2685		-54.687500
2686		-50.781250
2687		-54.687500
2688		-48.828125
2689		-54.687500
2690		-48.828125
2691		-54.687500
2692		-46.875000
2693		-54.687500
2694		-46.875000
2695		-52.734375
2696		-46.875000
2697		-52.734375
2698		-44.921875
2699		-50.781250
2700		-44.921875
2701		-48.828125
2702		-46.875000
2703		-50.781250
2704		-44.921875
2705		-48.828125
2706		-42.968750
2707		-46.875000
2708		-42.968750
2709		-48.828125
2710		-42.968750
2711		-48.828125
2712		-41.015625
2713		-46.875000
2714		-39.062500
2715		-46.875000
2716		-39.062500
2717		-44.921875
2718		-39.062500
2719		-42.968750
2720		-39.062500
2721		-42.968750
2722		-37.109375
2723		-42.968750
2724		-35.156250
2725		-41.015625
2726		-35.156250
2727		-39.062500
2728		-35.156250
2729		-39.062500
2730		-33.203125
2731		-39.062500
2732		-33.203125
2733		-39.062500
2734		-33.203125
2735		-35.156250
2736		-31.250000
2737		-35.156250
2738		-31.250000
2739		-35.156250
2740		-29.296875
2741		-35.156250
2742		-27.343750
2743		-33.203125
2744		-27.343750
2745		-31.250000
2746		-27.343750
2747		-29.296875
2748		-25.390625
2749		-31.250000
2750		-23.437500
2751		-29.296875
2752		-25.390625
2753		-27.343750
2754		-23.437500
2755		-27.343750
2756		-21.484375
2757		-27.343750
2758		-19.531250
2759		-25.390625
2760		-19.531250
2761		-25.390625
2762		-17.578125
2763		-23.437500
2764		-17.578125
2765		-21.484375
2766		-15.625000
2767		-21.484375
2768		-15.625000
2769		-19.531250
2770		-15.625000
2771		-17.578125
2772		-11.718750
2773		-17.578125
2774		-11.718750
2775		-17.578125
2776		-11.718750
2777		-17.578125
2778		-9.765625
2779		-15.625000
2780		-7.812500
2781		-13.671875
2782		-7.812500
2783		-13.671875
2784		-7.812500
2785		-9.765625
2786		-7.812500
2787		-9.765625
2788		-5.859375
2789		-9.765625
2790		-3.906250
2791		-9.765625
2792		-1.953125
2793		-7.812500
2794		-1.953125
2795		-5.859375
2796		0.000000
2797		-5.859375
2798		1.953125
2799		-3.906250
2800		1.953125
2801		-3.906250
2802		1.953125
2803		-1.953125
2804		1.953125
2805		0.000000
2806		5.859375
2807		0.000000
2808		5.859375
2809		0.000000
2810		7.812500
2811		1.953125
2812		7.812500
2813		3.906250
2814		9.765625
2815		3.906250
2816		9.765625
2817		5.859375
2818		11.718750
2819		7.812500
2820		11.718750
2821		7.812500
2822		11.718750
2823		7.812500
2824		13.671875
2825		9.765625
2826		15.625000
2827		9.765625
2828		15.625000
2829		11.718750
2830		17.578125
2831		11.718750
2832		19.531250
2833		13.671875
2834		19.531250
2835		15.625000
2836		19.531250
2837		17.578125
2838		19.531250
2839		17.578125
2840		21.484375
2841		17.578125
2842		23.437500
2843		19.531250
2844		25.390625
2845		19.531250
2846		25.390625
2847		19.531250
2848		27.343750
2849		21.484375
2850		27.343750
2851		21.484375
2852		29.296875
2853		25.390625
2854		27.343750
2855		25.390625
2856		31.250000
2857		25.390625
2858		31.250000
2859		27.343750
2860		31.250000
2861		25.390625
2862		33.203125
2863		27.343750
2864		35.156250
2865		29.296875
2866		35.156250
2867		29.296875
2868		35.156250
2869		31.250000
2870		35.156250
2871		33.203125
2872		35.156250
2873		33.203125
2874		39.062500
2875		33.203125
2876		39.062500
2877		33.203125
2878		39.062500
2879		35.156250
2880		41.015625
2881		35.156250
2882		41.015625
2883		37.109375
2884		42.968750
2885		37.109375
2886		42.968750
2887		39.062500
2888		42.968750
2889		39.062500
2890		44.921875
2891		39.062500
2892		44.921875
2893		39.062500
2894		46.875000
2895		41.015625
2896		46.875000
2897		41.015625
2898		48.828125
2899		42.968750
2900		48.828125
2901		42.968750
2902		48.828125
2903		44.921875
2904		48.828125
2905		46.875000
2906		48.828125
2907		44.921875
2908		50.781250
2909		44.921875
2910		50.781250
2911		46.875000
2912		50.781250
2913		46.875000
2914		52.734375
2915		46.875000
2916		52.734375
2917		48.828125
2918		52.734375
2919		48.828125
2920		52.734375
2921		50.781250
2922		52.734375
2923		48.828125
2924		56.640625
2925		48.828125
2926		56.640625
2927		48.828125
2928		56.640625
2929		50.781250
2930		58.593750
2931		50.781250
2932		58.593750
2933		50.781250
2934		58.593750
2935		52.734375
2936		58.593750
2937		54.687500
2938		56.640625
2939		52.734375
2940		58.593750
2941		52.734375
2942		60.546875
2943		52.734375
2944		60.546875
2945		54.687500
2946		60.546875
2947		54.687500
2948		60.546875
2949		54.687500
2950		60.546875
2951		54.687500
2952		62.500000
2953		56.640625
2954		60.546875
2955		56.640625
2956		60.546875
2957		56.640625
2958		62.500000
2959		56.640625
2960		62.500000
2961		56.640625
2962		62.500000
2963		56.640625
2964		64.453125
2965		56.640625
2966		62.500000
2967		56.640625
2968		64.453125
2969		56.640625
2970		62.500000
2971		58.593750
2972		62.500000
2973		58.593750
2974		64.453125
2975		56.640625
2976		64.453125
2977		58.593750
2978		64.453125
2979		58.593750
2980		64.453125
2981		58.593750
2982		64.453125
2983		58.593750
2984		64.453125
2985		58.593750
2986		64.453125
2987		60.546875
2988		62.500000
2989		60.546875
2990		64.453125
2991		58.593750
2992		64.453125
2993		58.593750
2994		64.453125
2995		58.593750
2996		64.453125
2997		58.593750
2998		64.453125
2999		58.593750
3000		64.453125
3001		58.593750
3002		64.453125
3003		58.593750
3004		62.500000
3005		60.546875
3006		62.500000
3007		58.593750
3008		64.453125
3009		58.593750
3010		64.453125
3011		56.640625
3012		64.453125
3013		56.640625
3014		62.500000
3015		56.640625
3016		62.500000
3017		56.640625
3018		62.500000
3019		56.640625
3020		64.453125
3021		56.640625
3022		60.546875
3023		58.593750
3024		60.546875
3025		56.640625
3026		62.500000
3027		56.640625
3028		62.500000
3029		54.687500
3030		60.546875
3031		52.734375
3032		60.546875
3033		54.687500
3034		60.546875
3035		54.687500
3036		60.546875
3037		54.687500
3038		58.593750
3039		54.687500
3040		56.640625
3041		52.734375
3042		58.593750
3043		52.734375
3044		58.593750
3045		52.734375
3046		58.593750
3047		50.781250
3048		58.593750
3049		50.781250
3050		56.640625
3051		50.781250
3052		56.640625
3053		50.781250
3054		56.640625
3055		50.781250
3056		54.687500
3057		48.828125
3058		52.734375
3059		48.828125
3060		54.687500
3061		46.875000
3062		52.734375
3063		46.875000
3064		54.687500
3065		46.875000
3066		52.734375
3067		46.875000
3068		52.734375
3069		46.875000
3070		50.781250
3071		46.875000
3072		48.828125
3073		44.921875
3074		48.828125
3075		44.921875
3076		48.828125
3077		42.968750
3078		48.828125
3079		41.015625
3080		48.828125
3081		41.015625
3082		46.875000
3083		41.015625
3084		46.875000
3085		41.015625
3086		44.921875
3087		39.062500
3088		44.921875
3089		39.062500
3090		42.968750
3091		39.062500
3092		42.968750
3093		37.109375
3094		42.968750
3095		35.156250
3096		42.968750
3097		35.156250
3098		41.015625
3099		33.203125
3100		41.015625
3101		33.203125
3102		41.015625
3103		33.203125
3104		39.062500
3105		33.203125
3106		37.109375
3107		33.203125
3108		35.156250
3109		29.296875
3110		37.109375
3111		29.296875
3112		35.156250
3113		27.343750
3114		35.156250
3115		27.343750
3116		33.203125
3117		27.343750
3118		33.203125
3119		25.390625
3120		33.203125
3121		25.390625
3122		31.250000
3123		25.390625
3124		29.296875
3125		23.437500
3126		27.343750
3127		21.484375
3128		29.296875
3129		21.484375
3130		27.343750
3131		19.531250
3132		27.343750
3133		17.578125
3134		23.437500
3135		17.578125
3136		23.437500
3137		17.578125
3138		21.484375
3139		17.578125
3140		21.484375
3141		15.625000
3142		19.531250
3143		13.671875
3144		19.531250
3145		13.671875
3146		19.531250
3147		11.718750
3148		17.578125
3149		9.765625
3150		17.578125
3151		9.765625
3152		15.625000
3153		7.812500
3154		13.671875
3155		9.765625
3156		11.718750
3157		7.812500
3158		11.718750
3159		5.859375
3160		11.718750
3161		3.906250
3162		9.765625
3163		3.906250
3164		9.765625
3165		1.953125
3166		9.765625
3167		1.953125
3168		7.812500
3169		0.000000
3170		5.859375
3171		0.000000
3172		3.906250
3173		0.000000
3174		1.953125
3175		-1.953125
3176		1.953125
3177		-3.906250
3178		1.953125
3179		-5.859375
3180		1.953125
3181		-5.859375
3182		0.000000
3183		-5.859375
3184		0.000000
3185		-7.812500
3186		-1.953125
3187		-7.812500
3188		-3.906250
3189		-9.765625
3190		-5.859375
3191		-9.765625
3192		-5.859375
3193		-11.718750
3194		-5.859375
3195		-13.671875
3196		-7.812500
3197		-15.625000
3198		-9.765625
3199		-15.625000
3200		-11.718750
3201		-15.625000
3202		-11.718750
3203		-17.578125
3204		-13.671875
3205		-17.578125
3206		-13.671875
3207		-17.578125
3208		-15.625000
3209		-21.484375
3210		-15.625000
3211		-21.484375
3212		-15.625000
3213		-21.484375
3214		-17.578125
3215		-23.437500
3216		-17.578125
3217		-23.437500
3218		-21.484375
3219		-25.390625
3220		-19.531250
3221		-25.390625
3222		-21.484375
3223		-27.343750
3224		-23.437500
3225		-27.343750
3226		-25.390625
3227		-29.296875
3228		-25.390625
3229		-29.296875
3230		-25.390625
3231		-31.250000
3232		-27.343750
3233		-33.203125
3234		-25.390625
3235		-33.203125
3236		-29.296875
3237		-33.203125
3238		-29.296875
3239		-35.156250
3240		-31.250000
3241		-35.156250
3242		-31.250000
3243		-37.109375
3244		-33.203125
3245		-39.062500
3246		-33.203125
3247		-37.109375
3248		-35.156250
3249		-41.015625
3250		-33.203125
3251		-39.062500
3252		-35.156250
3253		-41.015625
3254		-37.109375
3255		-42.968750
3256		-37.109375
3257		-42.968750
3258		-39.062500
3259		-44.921875
3260		-41.015625
3261		-44.921875
3262		-39.062500
3263		-44.921875
3264		-41.015625
3265		-44.921875
3266		-42.968750
3267		-46.875000
3268		-42.968750
3269		-46.875000
3270		-42.968750
3271		-48.828125
3272		-42.968750
3273		-48.828125
3274		-44.921875
3275		-48.828125
3276		-44.921875
3277		-48.828125
3278		-46.875000
3279		-50.781250
3280		-46.875000
3281		-50.781250
3282		-46.875000
3283		-52.734375
3284		-48.828125
3285		-52.734375
3286		-48.828125
3287		-52.734375
3288		-48.828125
3289		-54.687500
3290		-48.828125
3291		-54.687500
3292		-50.781250
3293		-54.687500
3294		-52.734375
3295		-54.687500
3296		-50.781250
3297		-56.640625
3298		-52.734375
3299		-58.593750
3300		-52.734375
3301		-56.640625
3302		-52.734375
3303		-56.640625
3304		-54.687500
3305		-58.593750
3306		-54.687500
3307		-58.593750
3308		-54.687500
3309		-58.593750
3310		-56.640625
3311		-58.593750
3312		-54.687500
3313		-60.546875
3314		-56.640625
3315		-60.546875
3316		-56.640625
3317		-60.546875
3318		-56.640625
3319		-60.546875
3320		-56.640625
3321		-62.500000
3322		-56.640625
3323		-60.546875
3324		-58.593750
3325		-62.500000
3326		-58.593750
3327		-62.500000
3328		-58.593750
3329		-62.500000
3330		-58.593750
3331		-62.500000
3332		-58.593750
3333		-62.500000
3334		-60.546875
3335		-62.500000
3336		-60.546875
3337		-62.500000
3338		-60.546875
3339		-64.453125
3340		-60.546875
3341		-62.500000
3342		-60.546875
3343		-64.453125
3344		-58.593750
3345		-64.453125
3346		-60.546875
3347		-64.453125
3348		-60.546875
3349		-64.453125
3350		-60.546875
3351		-64.453125
3352		-60.546875
3353		-64.453125
3354		-60.546875
3355		-64.453125
3356		-60.546875
3357		-64.453125
3358		-60.546875
3359		-64.453125
3360		-60.546875
3361		-64.453125
3362		-60.546875
3363		-64.453125
3364		-60.546875
3365		-64.453125
3366		-60.546875
3367		-64.453125
3368		-60.546875
3369		-64.453125
3370		-60.546875
3371		-64.453125
3372		-60.546875
3373		-64.453125
3374		-58.593750
3375		-62.500000
3376		-60.546875
3377		-64.453125
3378		-60.546875
3379		-62.500000
3380		-60.546875
3381		-62.500000
3382		-58.593750
3383		-62.500000
3384		-58.593750
3385		-62.500000
3386		-58.593750
3387		-62.500000
3388		-58.593750
3389		-62.500000
3390		-58.593750
3391		-60.546875
3392		-58.593750
3393		-60.546875
3394		-56.640625
3395		-60.546875
3396		-56.640625
3397		-60.546875
3398		-56.640625
3399		-60.546875
3400		-56.640625
3401		-60.546875
3402		-56.640625
3403		-58.593750
3404		-54.687500
3405		-58.593750
3406		-54.687500
3407		-58.593750
3408		-54.687500
3409		-56.640625
3410		-54.687500
3411		-56.640625
3412		-52.734375
3413		-56.640625
3414		-52.734375
3415		-56.640625
3416		-52.734375
3417		-56.640625
3418		-50.781250
3419		-54.687500
3420		-50.781250
3421		-54.687500
3422		-50.781250
3423		-54.687500
3424		-50.781250
3425		-52.734375
3426		-48.828125
3427		-52.734375
3428		-48.828125
3429		-50.781250
3430		-46.875000
3431		-50.781250
3432		-46.875000
3433		-50.781250
3434		-46.875000
3435		-50.781250
3436		-46.875000
3437		-48.828125
3438		-44.921875
3439		-48.828125
3440		-44.921875
3441		-46.875000
3442		-42.968750
3443		-46.875000
3444		-42.968750
3445		-46.875000
3446		-42.968750
3447		-44.921875
3448		-41.015625
3449		-44.921875
3450		-41.015625
3451		-42.968750
3452		-39.062500
3453		-42.968750
3454		-39.062500
3455		-42.968750
3456		-39.062500
3457		-42.968750
3458		-37.109375
3459		-39.062500
3460		-37.109375
3461		-39.062500
3462		-35.156250
3463		-39.062500
3464		-35.156250
3465		-37.109375
3466		-35.156250
3467		-37.109375
3468		-33.203125
3469		-37.109375
3470		-31.250000
3471		-35.156250
3472		-31.250000
3473		-35.156250
3474		-31.250000
3475		-33.203125
3476		-29.296875
3477		-31.250000
3478		-27.343750
3479		-31.250000
3480		-27.343750
3481		-29.296875
3482		-25.390625
3483		-29.296875
3484		-25.390625
3485		-27.343750
3486		-25.390625
3487		-29.296875
3488		-23.437500
3489		-25.390625
3490		-21.484375
3491		-25.390625
3492		-21.484375
3493		-23.437500
3494		-21.484375
3495		-23.437500
3496		-19.531250
3497		-21.484375
3498		-19.531250
3499		-21.484375
3500		-17.578125
3501		-19.531250
3502		-15.625000
3503		-19.531250
3504		-15.625000
3505		-17.578125
3506		-13.671875
3507		-17.578125
3508		-13.671875
3509		-15.625000
3510		-11.718750
3511		-15.625000
3512		-9.765625
3513		-13.671875
3514		-9.765625
3515		-11.718750
3516		-9.765625
3517		-11.718750
3518		-7.812500
3519		-9.765625
3520		-5.859375
3521		-9.765625
3522		-5.859375
3523		-7.812500
3524		-3.906250
3525		-7.812500
3526		-3.906250
3527		-5.859375
3528		-1.953125
3529		-5.859375
3530		-1.953125
3531		-3.906250
3532		0.000000
3533		-3.906250
3534		0.000000
3535		-1.953125
3536		1.953125
3537		0.000000
3538		1.953125
3539		0.000000
3540		3.906250
3541		0.000000
3542		3.906250
3543		1.953125
3544		5.859375
3545		3.906250
3546		7.812500
3547		3.906250
3548		7.812500
3549		5.859375
3550		9.765625
3551		5.859375
3552		9.765625
3553		7.812500
3554		11.718750
3555		7.812500
3556		11.718750
3557		9.765625
3558		13.671875
3559		11.718750
3560		13.671875
3561		11.718750
3562		15.625000
3563		11.718750
3564		15.625000
3565		13.671875
3566		17.578125
3567		13.671875
3568		19.531250
3569		15.625000
3570		19.531250
3571		17.578125
3572		21.484375
3573		17.578125
3574		21.484375
3575		19.531250
3576		21.484375
3577		19.531250
3578		23.437500
3579		19.531250
3580		23.437500
3581		21.484375
3582		25.390625
3583		23.437500
3584		25.390625
3585		23.437500
3586		27.343750
3587		25.390625
3588		27.343750
3589		25.390625
3590		29.296875
3591		25.390625
3592		29.296875
3593		27.343750
3594		31.250000
3595		27.343750
3596		33.203125
3597		29.296875
3598		33.203125
3599		29.296875
3600		33.203125
3601		31.250000
3602		33.203125
3603		31.250000
3604		35.156250
3605		31.250000
3606		37.109375
3607		33.203125
3608		37.109375
3609		35.156250
3610		37.109375
3611		35.156250
3612		39.062500
3613		35.156250
3614		39.062500
3615		37.109375
3616		41.015625
3617		37.109375
3618		41.015625
3619		37.109375
3620		41.015625
3621		39.062500
3622		42.968750
3623		41.015625
3624		42.968750
3625		39.062500
3626		44.921875
3627		41.015625
3628		44.921875
3629		42.968750
3630		44.921875
3631		42.968750
3632		46.875000
3633		42.968750
3634		46.875000
3635		44.921875
3636		48.828125
3637		44.921875
3638		48.828125
3639		44.921875
3640		48.828125
3641		46.875000
3642		50.781250
3643		46.875000
3644		50.781250
3645		46.875000
3646		50.781250
3647		48.828125
3648		50.781250
3649		48.828125
3650		52.734375
3651		48.828125
3652		52.734375
3653		48.828125
3654		52.734375
3655		50.781250
3656		54.687500
3657		50.781250
3658		54.687500
3659		50.781250
3660		54.687500
3661		52.734375
3662		56.640625
3663		52.734375
3664		56.640625
3665		52.734375
3666		56.640625
3667		52.734375
3668		56.640625
3669		54.687500
3670		56.640625
3671		54.687500
3672		58.593750
3673		54.687500
3674		58.593750
3675		54.687500
3676		58.593750
3677		56.640625
3678		58.593750
3679		56.640625
3680		60.546875
3681		56.640625
3682		60.546875
3683		56.640625
3684		60.546875
3685		56.640625
3686		60.546875
3687		58.593750
3688		60.546875
3689		58.593750
3690		60.546875
3691		58.593750
3692		62.500000
3693		58.593750
3694		60.546875
3695		58.593750
3696		62.500000
3697		58.593750
3698		62.500000
3699		58.593750
3700		62.500000
3701		58.593750
3702		62.500000
3703		58.593750
3704		62.500000
3705		60.546875
3706		62.500000
3707		60.546875
3708		64.453125
3709		58.593750
3710		64.453125
3711		60.546875
3712		62.500000
3713		58.593750
3714		64.453125
3715		60.546875
3716		62.500000
3717		60.546875
3718		62.500000
3719		58.593750
3720		64.453125
3721		60.546875
3722		64.453125
3723		60.546875
3724		64.453125
3725		60.546875
3726		64.453125
3727		60.546875
3728		62.500000
3729		58.593750
3730		62.500000
3731		60.546875
3732		64.453125
3733		60.546875
3734		64.453125
3735		58.593750
3736		64.453125
3737		60.546875
3738		62.500000
3739		60.546875
3740		62.500000
3741		58.593750
3742		62.500000
3743		58.593750
3744		62.500000
3745		58.593750
3746		62.500000
3747		58.593750
3748		62.500000
3749		58.593750
3750		62.500000
3751		58.593750
3752		62.500000
3753		58.593750
3754		60.546875
3755		58.593750
3756		60.546875
3757		56.640625
3758		60.546875
3759		56.640625
3760		60.546875
3761		56.640625
3762		60.546875
3763		54.687500
3764		60.546875
3765		56.640625
3766		60.546875
3767		56.640625
3768		58.593750
3769		56.640625
3770		58.593750
3771		54.687500
3772		58.593750
3773		54.687500
3774		58.593750
3775		54.687500
3776		58.593750
3777		54.687500
3778		56.640625
3779		54.687500
3780		56.640625
3781		52.734375
3782		56.640625
3783		52.734375
3784		56.640625
3785		50.781250
3786		56.640625
3787		50.781250
3788		54.687500
3789		50.781250
3790		54.687500
3791		50.781250
3792		54.687500
3793		48.828125
3794		54.687500
3795		48.828125
3796		52.734375
3797		48.828125
3798		52.734375
3799		46.875000
3800		50.781250
3801		46.875000
3802		50.781250
3803		46.875000
3804		50.781250
3805		46.875000
3806		48.828125
3807		44.921875
3808		48.828125
3809		42.968750
3810		48.828125
3811		44.921875
3812		46.875000
3813		42.968750
3814		46.875000
3815		41.015625
3816		46.875000
3817		41.015625
3818		44.921875
3819		41.015625
3820		44.921875
3821		41.015625
3822		42.968750
3823		39.062500
3824		42.968750
3825		39.062500
3826		42.968750
3827		37.109375
3828		41.015625
3829		37.109375
3830		41.015625
3831		37.109375
3832		39.062500
3833		35.156250
3834		41.015625
3835		35.156250
3836		39.062500
3837		33.203125
3838		37.109375
3839		33.203125
3840		37.109375
3841		33.203125
3842		35.156250
3843		31.250000
3844		35.156250
3845		31.250000
3846		33.203125
3847		29.296875
3848		33.203125
3849		27.343750
3850		31.250000
3851		27.343750
3852		31.250000
3853		27.343750
3854		31.250000
3855		25.390625
3856		29.296875
3857		23.437500
3858		29.296875
3859		23.437500
3860		27.343750
3861		23.437500
3862		25.390625
3863		21.484375
3864		25.390625
3865		21.484375
3866		25.390625
3867		19.531250
3868		23.437500
3869		17.578125
3870		23.437500
3871		17.578125
3872		21.484375
3873		17.578125
3874		19.531250
3875		15.625000
3876		19.531250
3877		15.625000
3878		19.531250
3879		13.671875
3880		17.578125
3881		11.718750
3882		15.625000
3883		11.718750
3884		15.625000
3885		9.765625
3886		15.625000
3887		9.765625
3888		13.671875
3889		7.812500
3890		11.718750
3891		7.812500
3892		11.718750
3893		5.859375
3894		9.765625
3895		3.906250
3896		7.812500
3897		5.859375
3898		7.812500
3899		3.906250
3900		7.812500
3901		1.953125
3902		5.859375
3903		1.953125
3904		3.906250
3905		0.000000
3906		3.906250
3907		-1.953125
3908		1.953125
3909		-1.953125
3910		1.953125
3911		-3.906250
3912		1.953125
3913		-5.859375
3914		0.000000
3915		-5.859375
3916		-1.953125
3917		-5.859375
3918		-1.953125
3919		-9.765625
3920		-3.906250
3921		-7.812500
3922		-3.906250
3923		-9.765625
3924		-5.859375
3925		-9.765625
3926		-7.812500
3927		-13.671875
3928		-7.812500
3929		-11.718750
3930		-9.765625
3931		-15.625000
3932		-9.765625
3933		-15.625000
3934		-11.718750
3935		-15.625000
3936		-11.718750
3937		-17.578125
3938		-13.671875
3939		-19.531250
3940		-13.671875
3941		-19.531250
3942		-15.625000
3943		-19.531250
3944		-17.578125
3945		-21.484375
3946		-17.578125
3947		-21.484375
3948		-19.531250
3949		-23.437500
3950		-19.531250
3951		-23.437500
3952		-21.484375
3953		-25.390625
3954		-21.484375
3955		-27.343750
3956		-21.484375
3957		-27.343750
3958		-23.437500
3959		-29.296875
3960		-25.390625
3961		-29.296875
3962		-25.390625
3963		-31.250000
3964		-27.343750
3965		-31.250000
3966		-27.343750
3967		-31.250000
3968		-29.296875
3969		-33.203125
3970		-29.296875
3971		-33.203125
3972		-29.296875
3973		-35.156250
3974		-31.250000
3975		-35.156250
3976		-31.250000
3977		-37.109375
3978		-33.203125
3979		-37.109375
3980		-35.156250
3981		-39.062500
3982		-35.156250
3983		-39.062500
3984		-35.156250
3985		-41.015625
3986		-37.109375
3987		-41.015625
3988		-37.109375
3989		-41.015625
3990		-39.062500
3991		-42.968750
3992		-39.062500
3993		-44.921875
3994		-39.062500
3995		-44.921875
3996		-41.015625
3997		-44.921875
3998		-41.015625
3999		-46.875000
4000		-41.015625
4001		-46.875000
4002		-42.968750
4003		-46.875000
4004		-42.968750
4005		-48.828125
4006		-44.921875
4007		-48.828125
4008		-44.921875
4009		-48.828125
4010		-44.921875
4011		-48.828125
4012		-46.875000
4013		-50.781250
4014		-46.875000
4015		-52.734375
4016		-48.828125
4017		-52.734375
4018		-48.828125
4019		-52.734375
4020		-48.828125
4021		-52.734375
4022		-50.781250
4023		-54.687500
4024		-50.781250
4025		-54.687500
4026		-50.781250
4027		-56.640625
4028		-50.781250
4029		-56.640625
4030		-52.734375
4031		-56.640625
4032		-52.734375
4033		-56.640625
4034		-52.734375
4035		-56.640625
4036		-52.734375
4037		-58.593750
4038		-54.687500
4039		-58.593750
4040		-54.687500
4041		-58.593750
4042		-54.687500
4043		-58.593750
4044		-54.687500
4045		-60.546875
4046		-56.640625
4047		-60.546875
4048		-56.640625
4049		-60.546875
4050		-56.640625
4051		-60.546875
4052		-56.640625
4053		-60.546875
4054		-56.640625
4055		-60.546875
4056		-58.593750
4057		-60.546875
4058		-58.593750
4059		-62.500000
4060		-58.593750
4061		-62.500000
4062		-58.593750
4063		-62.500000
4064		-58.593750
4065		-62.500000
4066		-58.593750
4067		-64.453125
4068		-60.546875
4069		-62.500000
4070		-58.593750
4071		-64.453125
4072		-60.546875
4073		-62.500000
4074		-60.546875
4075		-64.453125
4076		-60.546875
4077		-64.453125
4078		-60.546875
4079		-64.453125
4080		-60.546875
4081		-64.453125
4082		-60.546875
4083		-64.453125
4084		-60.546875
4085		-64.453125
4086		-60.546875
4087		-64.453125
4088		-60.546875
4089		-64.453125
4090		-60.546875
4091		-64.453125
4092		-60.546875
4093		-64.453125
4094		-60.546875
4095		-64.453125
4096		-60.546875
4097		-64.453125
4098		-60.546875
4099		-64.453125
4100		-60.546875
4101		-64.453125
4102		-60.546875
4103		-64.453125
4104		-60.546875
4105		-64.453125
4106		-60.546875
4107		-64.453125
4108		-60.546875
4109		-62.500000
4110		-58.593750
4111		-64.453125
4112		-58.593750
4113		-62.500000
4114		-60.546875
4115		-62.500000
4116		-58.593750
4117		-62.500000
4118		-58.593750
4119		-62.500000
4120		-58.593750
4121		-62.500000
4122		-58.593750
4123		-60.546875
4124		-58.593750
4125		-62.500000
4126		-56.640625
4127		-60.546875
4128		-56.640625
4129		-60.546875
4130		-56.640625
4131		-60.546875
4132		-56.640625
4133		-60.546875
4134		-56.640625
4135		-60.546875
4136		-54.687500
4137		-58.593750
4138		-54.687500
4139		-58.593750
4140		-54.687500
4141		-58.593750
4142		-54.687500
4143		-56.640625
4144		-54.687500
4145		-56.640625
4146		-52.734375
4147		-56.640625
4148		-52.734375
4149		-54.687500
4150		-52.734375
4151		-56.640625
4152		-50.781250
4153		-54.687500
4154		-50.781250
4155		-54.687500
4156		-50.781250
4157		-54.687500
4158		-48.828125
4159		-52.734375
4160		-48.828125
4161		-52.734375
4162		-48.828125
4163		-50.781250
4164		-46.875000
4165		-50.781250
4166		-46.875000
4167		-50.781250
4168		-46.875000
4169		-48.828125
4170		-44.921875
4171		-48.828125
4172		-44.921875
4173		-46.875000
4174		-44.921875
4175		-46.875000
4176		-42.968750
4177		-46.875000
4178		-42.968750
4179		-44.921875
4180		-42.968750
4181		-44.921875
4182		-41.015625
4183		-42.968750
4184		-39.062500
4185		-42.968750
4186		-39.062500
4187		-42.968750
4188		-39.062500
4189		-41.015625
4190		-37.109375
4191		-41.015625
4192		-37.109375
4193		-39.062500
4194		-35.156250
4195		-39.062500
4196		-33.203125
4197		-37.109375
4198		-35.156250
4199		-37.109375
4200		-33.203125
4201		-37.109375
4202		-33.203125
4203		-35.156250
4204		-31.250000
4205		-35.156250
4206		-31.250000
4207		-33.203125
4208		-29.296875
4209		-33.203125
4210		-29.296875
4211		-31.250000
4212		-27.343750
4213		-31.250000
4214		-27.343750
4215		-29.296875
4216		-27.343750
4217		-29.296875
4218		-25.390625
4219		-27.343750
4220		-23.437500
4221		-27.343750
4222		-23.437500
4223		-25.390625
4224		-21.484375
4225		-25.390625
4226		-21.484375
4227		-23.437500
4228		-19.531250
4229		-23.437500
4230		-19.531250
4231		-21.484375
4232		-17.578125
4233		-21.484375
4234		-17.578125
4235		-19.531250
4236		-15.625000
4237		-17.578125
4238		-13.671875
4239		-17.578125
4240		-13.671875
4241		-15.625000
4242		-11.718750
4243		-15.625000
4244		-11.718750
4245		-13.671875
4246		-9.765625
4247		-13.671875
4248		-9.765625
4249		-11.718750
4250		-7.812500
4251		-11.718750
4252		-7.812500
4253		-9.765625
4254		-5.859375
4255		-9.765625
4256		-5.859375
4257		-7.812500
4258		-3.906250
4259		-7.812500
4260		-3.906250
4261		-5.859375
4262		-1.953125
4263		-5.859375
4264		-1.953125
4265		-3.906250
4266		0.000000
4267		-1.953125
4268		0.000000
4269		-1.953125
4270		1.953125
4271		0.000000
4272		3.906250
4273		0.000000
4274		3.906250
4275		1.953125
4276		5.859375
4277		1.953125
4278		5.859375
4279		3.906250
4280		7.812500
4281		3.906250
4282		7.812500
4283		5.859375
4284		9.765625
4285		5.859375
4286		11.718750
4287		7.812500
4288		11.718750
4289		7.812500
4290		11.718750
4291		9.765625
4292		13.671875
4293		11.718750
4294		15.625000
4295		11.718750
4296		15.625000
4297		11.718750
4298		15.625000
4299		13.671875
4300		17.578125
4301		15.625000
4302		19.531250
4303		15.625000
4304		19.531250
4305		17.578125
4306		21.484375
4307		17.578125
4308		21.484375
4309		19.531250
4310		23.437500
4311		17.578125
4312		23.437500
4313		19.531250
4314		23.437500
4315		21.484375
4316		25.390625
4317		21.484375
4318		25.390625
4319		23.437500
4320		27.343750
4321		23.437500
4322		29.296875
4323		25.390625
4324		29.296875
4325		25.390625
4326		29.296875
4327		27.343750
4328		31.250000
4329		29.296875
4330		33.203125
4331		29.296875
4332		33.203125
4333		29.296875
4334		33.203125
4335		31.250000
4336		35.156250
4337		31.250000
4338		35.156250
4339		33.203125
4340		37.109375
4341		33.203125
4342		39.062500
4343		33.203125
4344		37.109375
4345		35.156250
4346		39.062500
4347		35.156250
4348		39.062500
4349		37.109375
4350		39.062500
4351		37.109375
4352		41.015625
4353		39.062500
4354		41.015625
4355		39.062500
4356		42.968750
4357		39.062500
4358		42.968750
4359		41.015625
4360		44.921875
4361		41.015625
4362		44.921875
4363		42.968750
4364		44.921875
4365		42.968750
4366		46.875000
4367		44.921875
4368		46.875000
4369		42.968750
4370		48.828125
4371		44.921875
4372		48.828125
4373		44.921875
4374		48.828125
4375		46.875000
4376		48.828125
4377		44.921875
4378		50.781250
4379		48.828125
4380		50.781250
4381		46.875000
4382		52.734375
4383		48.828125
4384		50.781250
4385		48.828125
4386		52.734375
4387		48.828125
4388		52.734375
4389		50.781250
4390		52.734375
4391		50.781250
4392		54.687500
4393		50.781250
4394		54.687500
4395		52.734375
4396		54.687500
4397		52.734375
4398		56.640625
4399		52.734375
4400		56.640625
4401		52.734375
4402		56.640625
4403		54.687500
4404		56.640625
4405		54.687500
4406		58.593750
4407		54.687500
4408		58.593750
4409		54.687500
4410		58.593750
4411		54.687500
4412		58.593750
4413		54.687500
4414		58.593750
4415		56.640625
4416		60.546875
4417		56.640625
4418		60.546875
4419		56.640625
4420		60.546875
4421		56.640625
4422		60.546875
4423		56.640625
4424		60.546875
4425		56.640625
4426		60.546875
4427		56.640625
4428		60.546875
4429		58.593750
4430		62.500000
4431		56.640625
4432		62.500000
4433		58.593750
4434		60.546875
4435		58.593750
4436		62.500000
4437		58.593750
4438		62.500000
4439		58.593750
4440		62.500000
4441		58.593750
4442		62.500000
4443		58.593750
4444		62.500000
4445		58.593750
4446		62.500000
4447		58.593750
4448		62.500000
4449		58.593750
4450		62.500000
4451		58.593750
4452		64.453125
4453		60.546875
4454		64.453125
4455		60.546875
4456		62.500000
4457		58.593750
4458		64.453125
4459		60.546875
4460		62.500000
4461		60.546875
4462		62.500000
4463		58.593750
4464		64.453125
4465		58.593750
4466		62.500000
4467		60.546875
4468		62.500000
4469		60.546875
4470		62.500000
4471		58.593750
4472		62.500000
4473		58.593750
4474		62.500000
4475		58.593750
4476		62.500000
4477		58.593750
4478		62.500000
4479		58.593750
4480		62.500000
4481		58.593750
4482		62.500000
4483		58.593750
4484		62.500000
4485		58.593750
4486		60.546875
4487		56.640625
4488		60.546875
4489		58.593750
4490		60.546875
4491		56.640625
4492		60.546875
4493		56.640625
4494		60.546875
4495		56.640625
4496		60.546875
4497		56.640625
4498		60.546875
4499		56.640625
4500		60.546875
4501		54.687500
4502		58.593750
4503		54.687500
4504		58.593750
4505		54.687500
4506		58.593750
4507		54.687500
4508		58.593750
4509		54.687500
4510		58.593750
4511		52.734375
4512		56.640625
4513		52.734375
4514		58.593750
4515		52.734375
4516		56.640625
4517		50.781250
4518		56.640625
4519		50.781250
4520		54.687500
4521		50.781250
4522		54.687500
4523		50.781250
4524		54.687500
4525		50.781250
4526		52.734375
4527		48.828125
4528		52.734375
4529		48.828125
4530		52.734375
4531		48.828125
4532		50.781250
4533		46.875000
4534		52.734375
4535		46.875000
4536		50.781250
4537		46.875000
4538		50.781250
4539		44.921875
4540		48.828125
4541		44.921875
4542		48.828125
4543		44.921875
4544		48.828125
4545		44.921875
4546		46.875000
4547		42.968750
4548		46.875000
4549		42.968750
4550		46.875000
4551		41.015625
4552		44.921875
4553		39.062500
4554		44.921875
4555		41.015625
4556		42.968750
4557		39.062500
4558		42.968750
4559		39.062500
4560		42.968750
4561		39.062500
4562		41.015625
4563		37.109375
4564		41.015625
4565		35.156250
4566		39.062500
4567		33.203125
4568		39.062500
4569		35.156250
4570		37.109375
4571		33.203125
4572		37.109375
4573		31.250000
4574		37.109375
4575		31.250000
4576		35.156250
4577		31.250000
4578		33.203125
4579		29.296875
4580		33.203125
4581		29.296875
4582		33.203125
4583		27.343750
4584		31.250000
4585		27.343750
4586		31.250000
4587		25.390625
4588		29.296875
4589		25.390625
4590		29.296875
4591		25.390625
4592		27.343750
4593		23.437500
4594		27.343750
4595		21.484375
4596		25.390625
4597		21.484375
4598		25.390625
4599		19.531250
4600		23.437500
4601		19.531250
4602		23.437500
4603		19.531250
4604		21.484375
4605		15.625000
4606		21.484375
4607		17.578125
4608		21.484375
4609		15.625000
4610		19.531250
4611		13.671875
4612		17.578125
4613		13.671875
4614		17.578125
4615		11.718750
4616		15.625000
4617		11.718750
4618		15.625000
4619		9.765625
4620		13.671875
4621		7.812500
4622		13.671875
4623		7.812500
4624		11.718750
4625		7.812500
4626		9.765625
4627		5.859375
4628		9.765625
4629		3.906250
4630		7.812500
4631		3.906250
4632		7.812500
4633		3.906250
4634		5.859375
4635		1.953125
4636		3.906250
4637		0.000000
4638		3.906250
4639		0.000000
4640		3.906250
4641		-1.953125
4642		1.953125
4643		-1.953125
4644		1.953125
4645		-3.906250
4646		0.000000
4647		-5.859375
4648		-1.953125
4649		-7.812500
4650		-1.953125
4651		-5.859375
4652		-3.906250
4653		-9.765625
4654		-3.906250
4655		-9.765625
4656		-5.859375
4657		-9.765625
4658		-7.812500
4659		-11.718750
4660		-7.812500
4661		-13.671875
4662		-9.765625
4663		-13.671875
4664		-9.765625
4665		-15.625000
4666		-9.765625
4667		-15.625000
4668		-11.718750
4669		-17.578125
4670		-13.671875
4671		-17.578125
4672		-13.671875
4673		-19.531250
4674		-15.625000
4675		-21.484375
4676		-15.625000
4677		-21.484375
4678		-17.578125
4679		-21.484375
4680		-19.531250
4681		-23.437500
4682		-19.531250
4683		-25.390625
4684		-19.531250
4685		-25.390625
4686		-21.484375
4687		-27.343750
4688		-21.484375
4689		-27.343750
4690		-23.437500
4691		-29.296875
4692		-25.390625
4693		-29.296875
4694		-25.390625
4695		-31.250000
4696		-27.343750
4697		-31.250000
4698		-27.343750
4699		-31.250000
4700		-29.296875
4701		-33.203125
4702		-29.296875
4703		-33.203125
4704		-31.250000
4705		-35.156250
4706		-31.250000
4707		-37.109375
4708		-31.250000
4709		-37.109375
4710		-33.203125
4711		-37.109375
4712		-33.203125
4713		-39.062500
4714		-35.156250
4715		-39.062500
4716		-35.156250
4717		-41.015625
4718		-37.109375
4719		-41.015625
4720		-37.109375
4721		-42.968750
4722		-39.062500
4723		-44.921875
4724		-39.062500
4725		-42.968750
4726		-39.062500
4727		-44.921875
4728		-41.015625
4729		-44.921875
4730		-41.015625
4731		-44.921875
4732		-42.968750
4733		-46.875000
4734		-42.968750
4735		-46.875000
4736		-42.968750
4737		-48.828125
4738		-44.921875
4739		-48.828125
4740		-44.921875
4741		-48.828125
4742		-46.875000
4743		-50.781250
4744		-46.875000
4745		-50.781250
4746		-46.875000
4747		-52.734375
4748		-48.828125
4749		-52.734375
4750		-48.828125
4751		-54.687500
4752		-48.828125
4753		-52.734375
4754		-50.781250
4755		-54.687500
4756		-50.781250
4757		-54.687500
4758		-50.781250
4759		-56.640625
4760		-50.781250
4761		-56.640625
4762		-52.734375
4763		-56.640625
4764		-52.734375
4765		-56.640625
4766		-54.687500
4767		-58.593750
4768		-54.687500
4769		-58.593750
4770		-54.687500
4771		-58.593750
4772		-56.640625
4773		-60.546875
4774		-54.687500
4775		-60.546875
4776		-56.640625
4777		-60.546875
4778		-56.640625
4779		-60.546875
4780		-56.640625
4781		-60.546875
4782		-56.640625
4783		-62.500000
4784		-56.640625
4785		-62.500000
4786		-58.593750
4787		-62.500000
4788		-58.593750
4789		-62.500000
4790		-58.593750
4791		-62.500000
4792		-58.593750
4793		-62.500000
4794		-60.546875
4795		-62.500000
4796		-58.593750
4797		-62.500000
4798		-60.546875
4799		-62.500000
4800		-60.546875
4801		-64.453125
4802		-60.546875
4803		-62.500000
4804		-60.546875
4805		-64.453125
4806		-60.546875
4807		-64.453125
4808		-60.546875
4809		-64.453125
4810		-60.546875
4811		-64.453125
4812		-60.546875
4813		-64.453125
4814		-60.546875
4815		-64.453125
4816		-60.546875
4817		-66.406250
4818		-60.546875
4819		-64.453125
4820		-62.500000
4821		-64.453125
4822		-62.500000
4823		-64.453125
4824		-60.546875
4825		-64.453125
4826		-60.546875
4827		-64.453125
4828		-62.500000
4829		-64.453125
4830		-60.546875
4831		-64.453125
4832		-60.546875
4833		-64.453125
4834		-60.546875
4835		-64.453125
4836		-60.546875
4837		-64.453125
4838		-62.500000
4839		-64.453125
4840		-60.546875
4841		-64.453125
4842		-60.546875
4843		-64.453125
4844		-60.546875
4845		-64.453125
4846		-60.546875
4847		-64.453125
4848		-60.546875
4849		-62.500000
4850		-60.546875
4851		-62.500000
4852		-58.593750
4853		-62.500000
4854		-58.593750
4855		-62.500000
4856		-58.593750
4857		-62.500000
4858		-58.593750
4859		-60.546875
4860		-58.593750
4861		-60.546875
4862		-56.640625
4863		-60.546875
4864		-56.640625
4865		-60.546875
4866		-56.640625
4867		-60.546875
4868		-56.640625
4869		-60.546875
4870		-56.640625
4871		-58.593750
4872		-54.687500
4873		-58.593750
4874		-54.687500
4875		-58.593750
4876		-54.687500
4877		-56.640625
4878		-54.687500
4879		-56.640625
4880		-54.687500
4881		-56.640625
4882		-52.734375
4883		-56.640625
4884		-52.734375
4885		-54.687500
4886		-50.781250
4887		-54.687500
4888		-52.734375
4889		-54.687500
4890		-50.781250
4891		-52.734375
4892		-50.781250
4893		-52.734375
4894		-48.828125
4895		-52.734375
4896		-48.828125
4897		-50.781250
4898		-46.875000
4899		-50.781250
4900		-46.875000
4901		-50.781250
4902		-46.875000
4903		-48.828125
4904		-46.875000
4905		-48.828125
4906		-44.921875
4907		-48.828125
4908		-44.921875
4909		-46.875000
4910		-42.968750
4911		-46.875000
4912		-42.968750
4913		-46.875000
4914		-42.968750
4915		-44.921875
4916		-41.015625
4917		-44.921875
4918		-41.015625
4919		-42.968750
4920		-39.062500
4921		-42.968750
4922		-39.062500
4923		-42.968750
4924		-37.109375
4925		-41.015625
4926		-37.109375
4927		-41.015625
4928		-35.156250
4929		-39.062500
4930		-35.156250
4931		-39.062500
4932		-35.156250
4933		-37.109375
4934		-33.203125
4935		-37.109375
4936		-33.203125
4937		-35.156250
4938		-33.203125
4939		-35.156250
4940		-31.250000
4941		-33.203125
4942		-31.250000
4943		-33.203125
4944		-29.296875
4945		-33.203125
4946		-27.343750
4947		-31.250000
4948		-27.343750
4949		-29.296875
4950		-25.390625
4951		-29.296875
4952		-23.437500
4953		-29.296875
4954		-25.390625
4955		-27.343750
4956		-23.437500
4957		-27.343750
4958		-21.484375
4959		-25.390625
4960		-21.484375
4961		-23.437500
4962		-19.531250
4963		-23.437500
4964		-19.531250
4965		-21.484375
4966		-17.578125
4967		-21.484375
4968		-17.578125
4969		-19.531250
4970		-15.625000
4971		-19.531250
4972		-15.625000
4973		-17.578125
4974		-15.625000
4975		-17.578125
4976		-13.671875
4977		-17.578125
4978		-11.718750
4979		-15.625000
4980		-11.718750
4981		-13.671875
4982		-9.765625
4983		-11.718750
4984		-9.765625
4985		-11.718750
4986		-7.812500
4987		-11.718750
4988		-7.812500
4989		-9.765625
4990		-5.859375
4991		-9.765625
4992		-3.906250
4993		-9.765625
4994		-3.906250
4995		-5.859375
4996		-3.906250
4997		-5.859375
4998		-1.953125
4999		-3.906250
5000		-1.953125
5001		-1.953125
5002		0.000000
5003		-1.953125
5004		1.953125
5005		0.000000
5006		1.953125
5007		0.000000
5008		3.906250
5009		0.000000
5010		5.859375
5011		1.953125
5012		5.859375
5013		1.953125
5014		5.859375
5015		3.906250
5016		7.812500
5017		3.906250
5018		9.765625
5019		5.859375
5020		9.765625
5021		7.812500
5022		9.765625
5023		7.812500
5024		11.718750
5025		9.765625
5026		13.671875
5027		9.765625
5028		13.671875
5029		11.718750
5030		15.625000
5031		13.671875
5032		15.625000
5033		13.671875
5034		17.578125
5035		13.671875
5036		17.578125
5037		15.625000
5038		19.531250
5039		15.625000
5040		19.531250
5041		17.578125
5042		21.484375
5043		19.531250
5044		21.484375
5045		19.531250
5046		23.437500
5047		19.531250
5048		23.437500
5049		21.484375
5050		25.390625
5051		21.484375
5052		25.390625
5053		23.437500
5054		27.343750
5055		25.390625
5056		27.343750
5057		25.390625
5058		29.296875
5059		25.390625
5060		29.296875
5061		27.343750
5062		31.250000
5063		27.343750
5064		31.250000
5065		29.296875
5066		33.203125
5067		29.296875
5068		33.203125
5069		31.250000
5070		33.203125
5071		31.250000
5072		35.156250
5073		31.250000
5074		35.156250
5075		33.203125
5076		37.109375
5077		33.203125
5078		37.109375
5079		35.156250
5080		39.062500
5081		35.156250
5082		39.062500
5083		37.109375
5084		41.015625
5085		37.109375
5086		41.015625
5087		37.109375
5088		41.015625
5089		39.062500
5090		42.968750
5091		39.062500
5092		42.968750
5093		41.015625
5094		42.968750
5095		41.015625
5096		44.921875
5097		41.015625
5098		44.921875
5099		42.968750
5100		44.921875
5101		42.968750
5102		46.875000
5103		42.968750
5104		46.875000
5105		44.921875
5106		46.875000
5107		44.921875
5108		48.828125
5109		44.921875
5110		48.828125
5111		46.875000
5112		48.828125
5113		46.875000
5114		50.781250
5115		46.875000
5116		50.781250
5117		48.828125
5118		50.781250
5119		48.828125
5120		52.734375
5121		48.828125
5122		52.734375
5123		50.781250
5124		52.734375
5125		48.828125
5126		54.687500
5127		50.781250
5128		54.687500
5129		50.781250
5130		54.687500
5131		50.781250
5132		54.687500
5133		52.734375
5134		56.640625
5135		52.734375
5136		56.640625
5137		52.734375
5138		56.640625
5139		54.687500
5140		56.640625
5141		54.687500
5142		58.593750
5143		54.687500
5144		58.593750
5145		54.687500
5146		58.593750
5147		54.687500
5148		58.593750
5149		56.640625
5150		58.593750
5151		56.640625
5152		58.593750
5153		56.640625
5154		60.546875
5155		56.640625
5156		60.546875
5157		56.640625
5158		60.546875
5159		56.640625
5160		60.546875
5161		56.640625
5162		60.546875
5163		58.593750
5164		60.546875
5165		58.593750
5166		60.546875
5167		56.640625
5168		62.500000
5169		58.593750
5170		62.500000
5171		58.593750
5172		62.500000
5173		58.593750
5174		60.546875
5175		58.593750
5176		62.500000
5177		58.593750
5178		62.500000
5179		58.593750
5180		62.500000
5181		58.593750
5182		62.500000
5183		58.593750
5184		62.500000
5185		58.593750
5186		62.500000
5187		58.593750
5188		62.500000
5189		58.593750
5190		62.500000
5191		60.546875
5192		62.500000
5193		56.640625
5194		62.500000
5195		58.593750
5196		62.500000
5197		58.593750
5198		62.500000
5199		58.593750
5200		62.500000
5201		58.593750
5202		62.500000
5203		58.593750
5204		62.500000
5205		58.593750
5206		62.500000
5207		58.593750
5208		60.546875
5209		58.593750
5210		62.500000
5211		58.593750
5212		62.500000
5213		58.593750
5214		62.500000
5215		58.593750
5216		60.546875
5217		56.640625
5218		60.546875
5219		58.593750
5220		60.546875
5221		56.640625
5222		60.546875
5223		56.640625
5224		60.546875
5225		56.640625
5226		58.593750
5227		54.687500
5228		60.546875
5229		56.640625
5230		58.593750
5231		56.640625
5232		58.593750
5233		54.687500
5234		58.593750
5235		54.687500
5236		58.593750
5237		54.687500
5238		58.593750
5239		54.687500
5240		58.593750
5241		54.687500
5242		56.640625
5243		52.734375
5244		56.640625
5245		52.734375
5246		56.640625
5247		52.734375
5248		54.687500
5249		52.734375
5250		56.640625
5251		50.781250
5252		54.687500
5253		50.781250
5254		54.687500
5255		50.781250
5256		54.687500
5257		50.781250
5258		52.734375
5259		48.828125
5260		52.734375
5261		48.828125
5262		52.734375
5263		46.875000
5264		50.781250
5265		46.875000
5266		50.781250
5267		46.875000
5268		50.781250
5269		46.875000
5270		48.828125
5271		44.921875
5272		48.828125
5273		44.921875
5274		48.828125
5275		44.921875
5276		46.875000
5277		42.968750
5278		46.875000
5279		42.968750
5280		46.875000
5281		42.968750
5282		44.921875
5283		41.015625
5284		44.921875
5285		41.015625
5286		44.921875
5287		41.015625
5288		42.968750
5289		39.062500
5290		42.968750
5291		39.062500
5292		41.015625
5293		37.109375
5294		41.015625
5295		35.156250
5296		41.015625
5297		35.156250
5298		39.062500
5299		35.156250
5300		39.062500
5301		33.203125
5302		39.062500
5303		33.203125
5304		37.109375
5305		31.250000
5306		37.109375
5307		31.250000
5308		35.156250
5309		29.296875
5310		33.203125
5311		29.296875
5312		33.203125
5313		29.296875
5314		33.203125
5315		27.343750
5316		31.250000
5317		27.343750
5318		31.250000
5319		25.390625
5320		29.296875
5321		25.390625
5322		29.296875
5323		25.390625
5324		29.296875
5325		23.437500
5326		27.343750
5327		21.484375
5328		25.390625
5329		21.484375
5330		25.390625
5331		19.531250
5332		23.437500
5333		19.531250
5334		23.437500
5335		17.578125
5336		21.484375
5337		17.578125
5338		21.484375
5339		15.625000
5340		19.531250
5341		15.625000
5342		19.531250
5343		13.671875
5344		17.578125
5345		13.671875
5346		17.578125
5347		11.718750
5348		17.578125
5349		9.765625
5350		15.625000
5351		9.765625
5352		13.671875
5353		7.812500
5354		13.671875
5355		7.812500
5356		13.671875
5357		7.812500
5358		11.718750
5359		5.859375
5360		9.765625
5361		3.906250
5362		9.765625
5363		3.906250
5364		7.812500
5365		1.953125
5366		7.812500
5367		1.953125
5368		5.859375
5369		0.000000
5370		3.906250
5371		0.000000
5372		3.906250
5373		-1.953125
5374		1.953125
5375		-1.953125
5376		1.953125
5377		-3.906250
5378		0.000000
5379		-5.859375
5380		0.000000
5381		-7.812500
5382		-1.953125
5383		-7.812500
5384		-1.953125
5385		-7.812500
5386		-3.906250
5387		-9.765625
5388		-3.906250
5389		-9.765625
5390		-5.859375
5391		-11.718750
5392		-7.812500
5393		-11.718750
5394		-9.765625
5395		-13.671875
5396		-9.765625
5397		-15.625000
5398		-9.765625
5399		-15.625000
5400		-11.718750
5401		-17.578125
5402		-11.718750
5403		-17.578125
5404		-13.671875
5405		-19.531250
5406		-13.671875
5407		-19.531250
5408		-15.625000
5409		-19.531250
5410		-17.578125
5411		-23.437500
5412		-17.578125
5413		-23.437500
5414		-17.578125
5415		-23.437500
5416		-19.531250
5417		-25.390625
5418		-21.484375
5419		-27.343750
5420		-21.484375
5421		-27.343750
5422		-23.437500
5423		-29.296875
5424		-23.437500
5425		-29.296875
5426		-25.390625
5427		-29.296875
5428		-25.390625
5429		-31.250000
5430		-27.343750
5431		-31.250000
5432		-29.296875
5433		-31.250000
5434		-29.296875
5435		-33.203125
5436		-29.296875
5437		-35.156250
5438		-31.250000
5439		-37.109375
5440		-31.250000
5441		-37.109375
5442		-33.203125
5443		-37.109375
5444		-33.203125
5445		-39.062500
5446		-35.156250
5447		-39.062500
5448		-35.156250
5449		-39.062500
5450		-37.109375
5451		-41.015625
5452		-37.109375
5453		-41.015625
5454		-39.062500
5455		-42.968750
5456		-39.062500
5457		-42.968750
5458		-41.015625
5459		-44.921875
5460		-41.015625
5461		-44.921875
5462		-42.968750
5463		-46.875000
5464		-42.968750
5465		-46.875000
5466		-42.968750
5467		-46.875000
5468		-44.921875
5469		-48.828125
5470		-44.921875
5471		-48.828125
5472		-46.875000
5473		-48.828125
5474		-46.875000
5475		-50.781250
5476		-46.875000
5477		-50.781250
5478		-48.828125
5479		-52.734375
5480		-48.828125
5481		-52.734375
5482		-48.828125
5483		-52.734375
5484		-50.781250
5485		-52.734375
5486		-50.781250
5487		-54.687500
5488		-50.781250
5489		-54.687500
5490		-52.734375
5491		-56.640625
5492		-52.734375
5493		-56.640625
5494		-52.734375
5495		-56.640625
5496		-54.687500
5497		-58.593750
5498		-54.687500
5499		-58.593750
5500		-54.687500
5501		-58.593750
5502		-54.687500
5503		-60.546875
5504		-54.687500
5505		-58.593750
5506		-56.640625
5507		-60.546875
5508		-56.640625
5509		-60.546875
5510		-56.640625
5511		-60.546875
5512		-58.593750
5513		-62.500000
5514		-58.593750
5515		-62.500000
5516		-58.593750
5517		-62.500000
5518		-58.593750
5519		-62.500000
5520		-60.546875
5521		-62.500000
5522		-60.546875
5523		-62.500000
5524		-60.546875
5525		-64.453125
5526		-60.546875
5527		-64.453125
5528		-60.546875
5529		-66.406250
5530		-58.593750
5531		-66.406250
5532		-58.593750
5533		-66.406250
5534		-58.593750
5535		-64.453125
5536		-62.500000
5537		-66.406250
5538		-60.546875
5539		-64.453125
5540		-62.500000
5541		-66.406250
5542		-60.546875
5543		-66.406250
5544		-62.500000
5545		-68.359375
5546		-60.546875
5547		-68.359375
5548		-58.593750
5549		-68.359375
5550		-60.546875
5551		-68.359375
5552		-60.546875
5553		-66.406250
5554		-62.500000
5555		-66.406250
5556		-62.500000
5557		-66.406250
5558		-62.500000
5559		-66.406250
5560		-62.500000
5561		-66.406250
5562		-62.500000
5563		-68.359375
5564		-58.593750
5565		-68.359375
5566		-60.546875
5567		-68.359375
5568		-60.546875
5569		-66.406250
5570		-60.546875
5571		-64.453125
5572		-62.500000
5573		-66.406250
5574		-62.500000
5575		-64.453125
5576		-62.500000
5577		-64.453125
5578		-62.500000
5579		-66.406250
5580		-58.593750
5581		-68.359375
5582		-58.593750
5583		-68.359375
5584		-58.593750
5585		-64.453125
5586		-58.593750
5587		-64.453125
5588		-60.546875
5589		-62.500000
5590		-60.546875
5591		-62.500000
5592		-60.546875
5593		-62.500000
5594		-58.593750
5595		-62.500000
5596		-58.593750
5597		-64.453125
5598		-54.687500
5599		-64.453125
5600		-54.687500
5601		-64.453125
5602		-54.687500
5603		-60.546875
5604		-56.640625
5605		-58.593750
5606		-56.640625
5607		-60.546875
5608		-54.687500
5609		-58.593750
5610		-56.640625
5611		-58.593750
5612		-56.640625
5613		-60.546875
5614		-50.781250
5615		-60.546875
5616		-50.781250
5617		-58.593750
5618		-50.781250
5619		-56.640625
5620		-52.734375
5621		-54.687500
5622		-52.734375
5623		-54.687500
5624		-52.734375
5625		-54.687500
5626		-50.781250
5627		-52.734375
5628		-50.781250
5629		-54.687500
5630		-46.875000
5631		-56.640625
5632		-44.921875
5633		-54.687500
5634		-44.921875
5635		-52.734375
5636		-44.921875
5637		-50.781250
5638		-46.875000
5639		-48.828125
5640		-44.921875
5641		-48.828125
5642		-44.921875
5643		-48.828125
5644		-44.921875
5645		-46.875000
5646		-42.968750
5647		-48.828125
5648		-39.062500
5649		-48.828125
5650		-39.062500
5651		-46.875000
5652		-39.062500
5653		-42.968750
5654		-41.015625
5655		-44.921875
5656		-39.062500
5657		-41.015625
5658		-39.062500
5659		-41.015625
5660		-37.109375
5661		-42.968750
5662		-37.109375
5663		-42.968750
5664		-33.203125
5665		-41.015625
5666		-33.203125
5667		-41.015625
5668		-31.250000
5669		-39.062500
5670		-31.250000
5671		-35.156250
5672		-33.203125
5673		-37.109375
5674		-31.250000
5675		-33.203125
5676		-31.250000
5677		-33.203125
5678		-29.296875
5679		-33.203125
5680		-29.296875
5681		-35.156250
5682		-25.390625
5683		-33.203125
5684		-23.437500
5685		-31.250000
5686		-23.437500
5687		-27.343750
5688		-25.390625
5689		-27.343750
5690		-23.437500
5691		-25.390625
5692		-23.437500
5693		-25.390625
5694		-21.484375
5695		-23.437500
5696		-21.484375
5697		-25.390625
5698		-15.625000
5699		-23.437500
5700		-15.625000
5701		-23.437500
5702		-13.671875
5703		-19.531250
5704		-17.578125
5705		-19.531250
5706		-15.625000
5707		-17.578125
5708		-13.671875
5709		-15.625000
5710		-13.671875
5711		-15.625000
5712		-11.718750
5713		-13.671875
5714		-11.718750
5715		-15.625000
5716		-7.812500
5717		-13.671875
5718		-5.859375
5719		-11.718750
5720		-7.812500
5721		-9.765625
5722		-7.812500
5723		-9.765625
5724		-5.859375
5725		-7.812500
5726		-5.859375
5727		-7.812500
5728		-3.906250
5729		-7.812500
5730		-1.953125
5731		-5.859375
5732		-1.953125
5733		-5.859375
5734		1.953125
5735		-3.906250
5736		1.953125
5737		-1.953125
5738		1.953125
5739		0.000000
5740		1.953125
5741		0.000000
5742		3.906250
5743		1.953125
5744		3.906250
5745		1.953125
5746		5.859375
5747		1.953125
5748		7.812500
5749		3.906250
5750		9.765625
5751		3.906250
5752		11.718750
5753		5.859375
5754		9.765625
5755		7.812500
5756		11.718750
5757		9.765625
5758		11.718750
5759		9.765625
5760		13.671875
5761		11.718750
5762		13.671875
5763		9.765625
5764		15.625000
5765		13.671875
5766		15.625000
5767		13.671875
5768		17.578125
5769		15.625000
5770		17.578125
5771		15.625000
5772		19.531250
5773		15.625000
5774		19.531250
5775		15.625000
5776		21.484375
5777		19.531250
5778		21.484375
5779		19.531250
5780		23.437500
5781		19.531250
5782		23.437500
5783		21.484375
5784		23.437500
5785		21.484375
5786		25.390625
5787		23.437500
5788		27.343750
5789		23.437500
5790		27.343750
5791		25.390625
5792		29.296875
5793		27.343750
5794		29.296875
5795		27.343750
5796		29.296875
5797		27.343750
5798		31.250000
5799		29.296875
5800		31.250000
5801		29.296875
5802		33.203125
5803		31.250000
5804		33.203125
5805		31.250000
5806		35.156250
5807		31.250000
5808		37.109375
5809		33.203125
5810		35.156250
5811		33.203125
5812		39.062500
5813		35.156250
5814		39.062500
5815		35.156250
5816		39.062500
5817		35.156250
5818		39.062500
5819		35.156250
5820		41.015625
5821		37.109375
5822		41.015625
5823		39.062500
5824		41.015625
5825		39.062500
5826		42.968750
5827		41.015625
5828		42.968750
5829		41.015625
5830		44.921875
5831		41.015625
5832		44.921875
5833		41.015625
5834		44.921875
5835		42.968750
5836		44.921875
5837		42.968750
5838		46.875000
5839		42.968750
5840		48.828125
5841		44.921875
5842		46.875000
5843		44.921875
5844		48.828125
5845		46.875000
5846		48.828125
5847		46.875000
5848		48.828125
5849		46.875000
5850		50.781250
5851		46.875000
5852		50.781250
5853		48.828125
5854		50.781250
5855		48.828125
5856		52.734375
5857		48.828125
5858		52.734375
5859		50.781250
5860		52.734375
5861		48.828125
5862		52.734375
5863		50.781250
5864		54.687500
5865		50.781250
5866		54.687500
5867		50.781250
5868		54.687500
5869		52.734375
5870		54.687500
5871		52.734375
5872		56.640625
5873		52.734375
5874		56.640625
5875		52.734375
5876		56.640625
5877		54.687500
5878		56.640625
5879		54.687500
5880		58.593750
5881		54.687500
5882		58.593750
5883		54.687500
5884		58.593750
5885		54.687500
5886		58.593750
5887		54.687500
5888		58.593750
5889		56.640625
5890		58.593750
5891		56.640625
5892		58.593750
5893		56.640625
5894		58.593750
5895		56.640625
5896		60.546875
5897		56.640625
5898		60.546875
5899		54.687500
5900		62.500000
5901		56.640625
5902		60.546875
5903		58.593750
5904		60.546875
5905		56.640625
5906		60.546875
5907		56.640625
5908		60.546875
5909		58.593750
5910		60.546875
5911		58.593750
5912		62.500000
5913		58.593750
5914		62.500000
5915		56.640625
5916		62.500000
5917		58.593750
5918		62.500000
5919		58.593750
5920		60.546875
5921		58.593750
5922		62.500000
5923		58.593750
5924		62.500000
5925		58.593750
5926		60.546875
5927		58.593750
5928		62.500000
5929		58.593750
5930		62.500000
5931		58.593750
5932		60.546875
5933		58.593750
5934		62.500000
5935		58.593750
5936		62.500000
5937		58.593750
5938		60.546875
5939		56.640625
5940		62.500000
5941		58.593750
5942		60.546875
5943		58.593750
5944		60.546875
5945		56.640625
5946		62.500000
5947		58.593750
5948		60.546875
5949		56.640625
5950		62.500000
5951		56.640625
5952		60.546875
5953		56.640625
5954		60.546875
5955		56.640625
5956		60.546875
5957		56.640625
5958		60.546875
5959		56.640625
5960		58.593750
5961		56.640625
5962		58.593750
5963		54.687500
5964		58.593750
5965		54.687500
5966		60.546875
5967		54.687500
5968		58.593750
5969		54.687500
5970		58.593750
5971		54.687500
5972		58.593750
5973		52.734375
5974		56.640625
5975		52.734375
5976		56.640625
5977		52.734375
5978		56.640625
5979		52.734375
5980		56.640625
5981		52.734375
5982		54.687500
5983		50.781250
5984		54.687500
5985		50.781250
5986		54.687500
5987		50.781250
5988		54.687500
5989		48.828125
5990		54.687500
5991		48.828125
5992		52.734375
5993		48.828125
5994		52.734375
5995		48.828125
5996		50.781250
5997		48.828125
5998		50.781250
5999		46.875000
6000		50.781250
6001		46.875000
6002		48.828125
6003		46.875000
6004		48.828125
6005		44.921875
6006		48.828125
6007		42.968750
6008		46.875000
6009		44.921875
6010		46.875000
6011		42.968750
6012		46.875000
6013		42.968750
6014		44.921875
6015		41.015625
6016		44.921875
6017		41.015625
6018		44.921875
6019		41.015625
6020		42.968750
6021		39.062500
6022		42.968750
6023		39.062500
6024		42.968750
6025		39.062500
6026		41.015625
6027		37.109375
6028		41.015625
6029		37.109375
6030		39.062500
6031		35.156250
6032		39.062500
6033		35.156250
6034		39.062500
6035		35.156250
6036		37.109375
6037		33.203125
6038		37.109375
6039		33.203125
6040		35.156250
6041		31.250000
6042		35.156250
6043		29.296875
6044		35.156250
6045		29.296875
6046		33.203125
6047		29.296875
6048		31.250000
6049		27.343750
6050		31.250000
6051		27.343750
6052		29.296875
6053		25.390625
6054		29.296875
6055		25.390625
6056		27.343750
6057		23.437500
6058		27.343750
6059		23.437500
6060		27.343750
6061		21.484375
6062		25.390625
6063		21.484375
6064		23.437500
6065		19.531250
6066		25.390625
6067		19.531250
6068		21.484375
6069		17.578125
6070		21.484375
6071		15.625000
6072		21.484375
6073		15.625000
6074		19.531250
6075		15.625000
6076		17.578125
6077		13.671875
6078		17.578125
6079		13.671875
6080		15.625000
6081		11.718750
6082		15.625000
6083		11.718750
6084		15.625000
6085		9.765625
6086		13.671875
6087		7.812500
6088		11.718750
6089		7.812500
6090		11.718750
6091		5.859375
6092		9.765625
6093		5.859375
6094		7.812500
6095		3.906250
6096		9.765625
6097		3.906250
6098		5.859375
6099		1.953125
6100		5.859375
6101		1.953125
6102		5.859375
6103		0.000000
6104		3.906250
6105		-1.953125
6106		1.953125
6107		-1.953125
6108		1.953125
6109		-3.906250
6110		0.000000
6111		-5.859375
6112		0.000000
6113		-5.859375
6114		-1.953125
6115		-5.859375
6116		-3.906250
6117		-7.812500
6118		-3.906250
6119		-7.812500
6120		-5.859375
6121		-9.765625
6122		-5.859375
6123		-9.765625
6124		-7.812500
6125		-11.718750
6126		-9.765625
6127		-13.671875
6128		-9.765625
6129		-13.671875
6130		-11.718750
6131		-13.671875
6132		-11.718750
6133		-17.578125
6134		-11.718750
6135		-17.578125
6136		-13.671875
6137		-17.578125
6138		-15.625000
6139		-19.531250
6140		-15.625000
6141		-19.531250
6142		-17.578125
6143		-21.484375
6144		-17.578125
6145		-21.484375
6146		-19.531250
6147		-23.437500
6148		-19.531250
6149		-25.390625
6150		-21.484375
6151		-27.343750
6152		-21.484375
6153		-27.343750
6154		-21.484375
6155		-27.343750
6156		-23.437500
6157		-29.296875
6158		-25.390625
6159		-29.296875
6160		-27.343750
6161		-31.250000
6162		-27.343750
6163		-31.250000
6164		-29.296875
6165		-33.203125
6166		-29.296875
6167		-35.156250
6168		-29.296875
6169		-35.156250
6170		-29.296875
6171		-35.156250
6172		-33.203125
6173		-37.109375
6174		-33.203125
6175		-37.109375
6176		-33.203125
6177		-37.109375
6178		-35.156250
6179		-39.062500
6180		-35.156250
6181		-39.062500
6182		-37.109375
6183		-41.015625
6184		-37.109375
6185		-42.968750
6186		-37.109375
6187		-42.968750
6188		-37.109375
6189		-42.968750
6190		-41.015625
6191		-44.921875
6192		-41.015625
6193		-44.921875
6194		-41.015625
6195		-44.921875
6196		-42.968750
6197		-46.875000
6198		-42.968750
6199		-46.875000
6200		-44.921875
6201		-48.828125
6202		-42.968750
6203		-50.781250
6204		-44.921875
6205		-48.828125
6206		-46.875000
6207		-50.781250
6208		-46.875000
6209		-50.781250
6210		-46.875000
6211		-50.781250
6212		-48.828125
6213		-52.734375
6214		-48.828125
6215		-52.734375
6216		-50.781250
6217		-54.687500
6218		-48.828125
6219		-56.640625
6220		-48.828125
6221		-56.640625
6222		-50.781250
6223		-56.640625
6224		-50.781250
6225		-56.640625
6226		-52.734375
6227		-56.640625
6228		-54.687500
6229		-58.593750
6230		-54.687500
6231		-56.640625
6232		-54.687500
6233		-58.593750
6234		-54.687500
6235		-60.546875
6236		-54.687500
6237		-60.546875
6238		-54.687500
6239		-58.593750
6240		-56.640625
6241		-60.546875
6242		-56.640625
6243		-60.546875
6244		-58.593750
6245		-60.546875
6246		-58.593750
6247		-62.500000
6248		-58.593750
6249		-62.500000
6250		-58.593750
6251		-64.453125
6252		-58.593750
6253		-64.453125
6254		-58.593750
6255		-62.500000
6256		-60.546875
6257		-62.500000
6258		-60.546875
6259		-64.453125
6260		-58.593750
6261		-64.453125
6262		-60.546875
6263		-64.453125
6264		-62.500000
6265		-64.453125
6266		-60.546875
6267		-64.453125
6268		-62.500000
6269		-66.406250
6270		-60.546875
6271		-66.406250
6272		-60.546875
6273		-64.453125
6274		-62.500000
6275		-64.453125
6276		-62.500000
6277		-66.406250
6278		-60.546875
6279		-66.406250
6280		-62.500000
6281		-66.406250
6282		-62.500000
6283		-66.406250
6284		-62.500000
6285		-66.406250
6286		-62.500000
6287		-66.406250
6288		-62.500000
6289		-66.406250
6290		-62.500000
6291		-66.406250
6292		-62.500000
6293		-66.406250
6294		-62.500000
6295		-66.406250
6296		-62.500000
6297		-66.406250
6298		-62.500000
6299		-66.406250
6300		-62.500000
6301		-66.406250
6302		-62.500000
6303		-66.406250
6304		-60.546875
6305		-66.406250
6306		-62.500000
6307		-64.453125
6308		-62.500000
6309		-64.453125
6310		-62.500000
6311		-66.406250
6312		-60.546875
6313		-64.453125
6314		-62.500000
6315		-64.453125
6316		-60.546875
6317		-66.406250
6318		-60.546875
6319		-64.453125
6320		-58.593750
6321		-64.453125
6322		-58.593750
6323		-64.453125
6324		-58.593750
6325		-62.500000
6326		-60.546875
6327		-62.500000
6328		-58.593750
6329		-62.500000
6330		-58.593750
6331		-60.546875
6332		-58.593750
6333		-60.546875
6334		-58.593750
6335		-62.500000
6336		-56.640625
6337		-60.546875
6338		-56.640625
6339		-60.546875
6340		-56.640625
6341		-60.546875
6342		-56.640625
6343		-58.593750
6344		-56.640625
6345		-58.593750
6346		-54.687500
6347		-58.593750
6348		-54.687500
6349		-56.640625
6350		-54.687500
6351		-58.593750
6352		-54.687500
6353		-56.640625
6354		-52.734375
6355		-54.687500
6356		-52.734375
6357		-54.687500
6358		-52.734375
6359		-54.687500
6360		-50.781250
6361		-54.687500
6362		-50.781250
6363		-54.687500
6364		-48.828125
6365		-52.734375
6366		-48.828125
6367		-50.781250
6368		-48.828125
6369		-50.781250
6370		-46.875000
6371		-50.781250
6372		-46.875000
6373		-48.828125
6374		-46.875000
6375		-48.828125
6376		-44.921875
6377		-48.828125
6378		-44.921875
6379		-46.875000
6380		-44.921875
6381		-46.875000
6382		-42.968750
6383		-46.875000
6384		-42.968750
6385		-44.921875
6386		-42.968750
6387		-42.968750
6388		-41.015625
6389		-44.921875
6390		-41.015625
6391		-42.968750
6392		-39.062500
6393		-42.968750
6394		-37.109375
6395		-41.015625
6396		-37.109375
6397		-39.062500
6398		-37.109375
6399		-41.015625
6400		-35.156250
6401		-39.062500
6402		-33.203125
6403		-37.109375
6404		-33.203125
6405		-35.156250
6406		-33.203125
6407		-35.156250
6408		-31.250000
6409		-35.156250
6410		-31.250000
6411		-33.203125
6412		-29.296875
6413		-33.203125
6414		-29.296875
6415		-31.250000
6416		-27.343750
6417		-29.296875
6418		-25.390625
6419		-29.296875
6420		-25.390625
6421		-27.343750
6422		-25.390625
6423		-27.343750
6424		-23.437500
6425		-27.343750
6426		-23.437500
6427		-25.390625
6428		-21.484375
6429		-23.437500
6430		-21.484375
6431		-25.390625
6432		-19.531250
6433		-21.484375
6434		-19.531250
6435		-21.484375
6436		-17.578125
6437		-19.531250
6438		-17.578125
6439		-19.531250
6440		-15.625000
6441		-17.578125
6442		-15.625000
6443		-17.578125
6444		-13.671875
6445		-17.578125
6446		-11.718750
6447		-13.671875
6448		-11.718750
6449		-13.671875
6450		-9.765625
6451		-11.718750
6452		-9.765625
6453		-11.718750
6454		-7.812500
6455		-11.718750
6456		-5.859375
6457		-9.765625
6458		-5.859375
6459		-7.812500
6460		-5.859375
6461		-7.812500
6462		-3.906250
6463		-5.859375
6464		-3.906250
6465		-5.859375
6466		0.000000
6467		-3.906250
6468		-1.953125
6469		-1.953125
6470		0.000000
6471		-1.953125
6472		1.953125
6473		0.000000
6474		1.953125
6475		0.000000
6476		3.906250
6477		0.000000
6478		3.906250
6479		1.953125
6480		5.859375
6481		3.906250
6482		5.859375
6483		3.906250
6484		7.812500
6485		3.906250
6486		9.765625
6487		5.859375
6488		9.765625
6489		7.812500
6490		11.718750
6491		7.812500
6492		11.718750
6493		9.765625
6494		11.718750
6495		9.765625
6496		13.671875
6497		9.765625
6498		15.625000
6499		13.671875
6500		15.625000
6501		13.671875
6502		17.578125
6503		13.671875
6504		17.578125
6505		15.625000
6506		19.531250
6507		17.578125
6508		19.531250
6509		15.625000
6510		21.484375
6511		19.531250
6512		21.484375
6513		19.531250
6514		23.437500
6515		21.484375
6516		25.390625
6517		21.484375
6518		25.390625
6519		23.437500
6520		25.390625
6521		23.437500
6522		27.343750
6523		25.390625
6524		27.343750
6525		25.390625
6526		29.296875
6527		25.390625
6528		29.296875
6529		27.343750
6530		31.250000
6531		27.343750
6532		33.203125
6533		29.296875
6534		31.250000
6535		31.250000
6536		33.203125
6537		29.296875
6538		35.156250
6539		33.203125
6540		35.156250
6541		33.203125
6542		37.109375
6543		33.203125
6544		37.109375
6545		33.203125
6546		39.062500
6547		35.156250
6548		37.109375
6549		37.109375
6550		39.062500
6551		37.109375
6552		41.015625
6553		37.109375
6554		41.015625
6555		37.109375
6556		41.015625
6557		39.062500
6558		41.015625
6559		39.062500
6560		42.968750
6561		39.062500
6562		44.921875
6563		41.015625
6564		42.968750
6565		42.968750
6566		44.921875
6567		42.968750
6568		46.875000
6569		42.968750
6570		46.875000
6571		44.921875
6572		46.875000
6573		44.921875
6574		46.875000
6575		44.921875
6576		46.875000
6577		46.875000
6578		48.828125
6579		44.921875
6580		50.781250
6581		46.875000
6582		48.828125
6583		46.875000
6584		50.781250
6585		48.828125
6586		52.734375
6587		48.828125
6588		52.734375
6589		48.828125
6590		50.781250
6591		50.781250
6592		52.734375
6593		50.781250
6594		52.734375
6595		50.781250
6596		54.687500
6597		50.781250
6598		54.687500
6599		52.734375
6600		54.687500
6601		52.734375
6602		54.687500
6603		52.734375
6604		54.687500
6605		52.734375
6606		56.640625
6607		54.687500
6608		56.640625
6609		54.687500
6610		56.640625
6611		54.687500
6612		56.640625
6613		54.687500
6614		56.640625
6615		54.687500
6616		58.593750
6617		54.687500
6618		58.593750
6619		54.687500
6620		60.546875
6621		56.640625
6622		58.593750
6623		56.640625
6624		58.593750
6625		56.640625
6626		60.546875
6627		56.640625
6628		58.593750
6629		56.640625
6630		58.593750
6631		56.640625
6632		60.546875
6633		56.640625
6634		60.546875
6635		58.593750
6636		60.546875
6637		56.640625
6638		60.546875
6639		58.593750
6640		60.546875
6641		58.593750
6642		60.546875
6643		58.593750
6644		60.546875
6645		56.640625
6646		60.546875
6647		58.593750
6648		60.546875
6649		58.593750
6650		62.500000
6651		58.593750
6652		60.546875
6653		58.593750
6654		60.546875
6655		58.593750
6656		62.500000
6657		58.593750
6658		62.500000
6659		58.593750
6660		62.500000
6661		58.593750
6662		60.546875
6663		58.593750
6664		60.546875
6665		56.640625
6666		62.500000
6667		58.593750
6668		60.546875
6669		58.593750
6670		60.546875
6671		58.593750
6672		60.546875
6673		58.593750
6674		62.500000
6675		58.593750
6676		60.546875
6677		58.593750
6678		60.546875
6679		56.640625
6680		60.546875
6681		56.640625
6682		60.546875
6683		56.640625
6684		60.546875
6685		56.640625
6686		58.593750
6687		56.640625
6688		58.593750
6689		54.687500
6690		58.593750
6691		56.640625
6692		58.593750
6693		54.687500
6694		58.593750
6695		54.687500
6696		58.593750
6697		54.687500
6698		58.593750
6699		54.687500
6700		56.640625
6701		52.734375
6702		58.593750
6703		54.687500
6704		56.640625
6705		52.734375
6706		56.640625
6707		52.734375
6708		56.640625
6709		52.734375
6710		54.687500
6711		52.734375
6712		54.687500
6713		50.781250
6714		54.687500
6715		50.781250
6716		54.687500
6717		50.781250
6718		52.734375
6719		50.781250
6720		54.687500
6721		48.828125
6722		52.734375
6723		48.828125
6724		52.734375
6725		48.828125
6726		50.781250
6727		46.875000
6728		50.781250
6729		48.828125
6730		50.781250
6731		46.875000
6732		50.781250
6733		46.875000
6734		48.828125
6735		44.921875
6736		48.828125
6737		44.921875
6738		46.875000
6739		44.921875
6740		46.875000
6741		42.968750
6742		48.828125
6743		42.968750
6744		46.875000
6745		41.015625
6746		44.921875
6747		41.015625
6748		44.921875
6749		41.015625
6750		44.921875
6751		39.062500
6752		44.921875
6753		39.062500
6754		42.968750
6755		39.062500
6756		41.015625
6757		37.109375
6758		41.015625
6759		37.109375
6760		41.015625
6761		37.109375
6762		39.062500
6763		35.156250
6764		39.062500
6765		35.156250
6766		37.109375
6767		33.203125
6768		37.109375
6769		33.203125
6770		35.156250
6771		33.203125
6772		35.156250
6773		29.296875
6774		35.156250
6775		31.250000
6776		33.203125
6777		29.296875
6778		33.203125
6779		27.343750
6780		33.203125
6781		27.343750
6782		31.250000
6783		27.343750
6784		31.250000
6785		25.390625
6786		29.296875
6787		25.390625
6788		29.296875
6789		23.437500
6790		27.343750
6791		23.437500
6792		25.390625
6793		21.484375
6794		25.390625
6795		21.484375
6796		25.390625
6797		21.484375
6798		23.437500
6799		19.531250
6800		23.437500
6801		19.531250
6802		21.484375
6803		17.578125
6804		21.484375
6805		17.578125
6806		19.531250
6807		15.625000
6808		19.531250
6809		15.625000
6810		17.578125
6811		11.718750
6812		17.578125
6813		13.671875
6814		15.625000
6815		11.718750
6816		13.671875
6817		9.765625
6818		13.671875
6819		9.765625
6820		11.718750
6821		7.812500
6822		11.718750
6823		7.812500
6824		11.718750
6825		5.859375
6826		9.765625
6827		3.906250
6828		7.812500
6829		3.906250
6830		7.812500
6831		3.906250
6832		5.859375
6833		0.000000
6834		5.859375
6835		1.953125
6836		3.906250
6837		0.000000
6838		3.906250
6839		-1.953125
6840		3.906250
6841		-1.953125
6842		1.953125
6843		-3.906250
6844		0.000000
6845		-3.906250
6846		0.000000
6847		-5.859375
6848		-1.953125
6849		-7.812500
6850		-1.953125
6851		-7.812500
6852		-3.906250
6853		-9.765625
6854		-5.859375
6855		-9.765625
6856		-5.859375
6857		-9.765625
6858		-7.812500
6859		-13.671875
6860		-7.812500
6861		-13.671875
6862		-9.765625
6863		-15.625000
6864		-11.718750
6865		-15.625000
6866		-11.718750
6867		-15.625000
6868		-11.718750
6869		-17.578125
6870		-13.671875
6871		-19.531250
6872		-15.625000
6873		-19.531250
6874		-15.625000
6875		-19.531250
6876		-17.578125
6877		-21.484375
6878		-17.578125
6879		-23.437500
6880		-19.531250
6881		-23.437500
6882		-19.531250
6883		-23.437500
6884		-21.484375
6885		-25.390625
6886		-23.437500
6887		-27.343750
6888		-21.484375
6889		-27.343750
6890		-25.390625
6891		-29.296875
6892		-25.390625
6893		-29.296875
6894		-25.390625
6895		-31.250000
6896		-27.343750
6897		-33.203125
6898		-27.343750
6899		-33.203125
6900		-29.296875
6901		-33.203125
6902		-31.250000
6903		-37.109375
6904		-31.250000
6905		-35.156250
6906		-33.203125
6907		-37.109375
6908		-33.203125
6909		-37.109375
6910		-33.203125
6911		-39.062500
6912		-35.156250
6913		-39.062500
6914		-37.109375
6915		-41.015625
6916		-37.109375
6917		-41.015625
6918		-39.062500
6919		-42.968750
6920		-39.062500
6921		-42.968750
6922		-39.062500
6923		-42.968750
6924		-41.015625
6925		-44.921875
6926		-41.015625
6927		-44.921875
6928		-42.968750
6929		-46.875000
6930		-42.968750
6931		-46.875000
6932		-44.921875
6933		-46.875000
6934		-44.921875
6935		-48.828125
6936		-44.921875
6937		-48.828125
6938		-46.875000
6939		-50.781250
6940		-46.875000
6941		-50.781250
6942		-48.828125
6943		-50.781250
6944		-48.828125
6945		-52.734375
6946		-48.828125
6947		-52.734375
6948		-50.781250
6949		-54.687500
6950		-50.781250
6951		-54.687500
6952		-50.781250
6953		-54.687500
6954		-52.734375
6955		-54.687500
6956		-52.734375
6957		-56.640625
6958		-52.734375
6959		-56.640625
6960		-52.734375
6961		-56.640625
6962		-54.687500
6963		-58.593750
6964		-54.687500
6965		-60.546875
6966		-54.687500
6967		-58.593750
6968		-56.640625
6969		-60.546875
6970		-56.640625
6971		-60.546875
6972		-56.640625
6973		-60.546875
6974		-58.593750
6975		-60.546875
6976		-58.593750
6977		-60.546875
6978		-58.593750
6979		-62.500000
6980		-58.593750
6981		-62.500000
6982		-60.546875
6983		-62.500000
6984		-60.546875
6985		-64.453125
6986		-60.546875
6987		-64.453125
6988		-60.546875
6989		-64.453125
6990		-60.546875
6991		-64.453125
6992		-60.546875
6993		-64.453125
6994		-62.500000
6995		-64.453125
6996		-62.500000
6997		-64.453125
6998		-60.546875
6999		-64.453125
7000		-62.500000
7001		-66.406250
7002		-62.500000
7003		-66.406250
7004		-62.500000
7005		-66.406250
7006		-62.500000
7007		-66.406250
7008		-62.500000
7009		-66.406250
7010		-64.453125
7011		-66.406250
7012		-64.453125
7013		-66.406250
7014		-62.500000
7015		-66.406250
7016		-64.453125
7017		-66.406250
7018		-64.453125
7019		-66.406250
7020		-62.500000
7021		-66.406250
7022		-64.453125
7023		-66.406250
7024		-64.453125
7025		-66.406250
7026		-64.453125
7027		-66.406250
7028		-64.453125
7029		-68.359375
7030		-62.500000
7031		-66.406250
7032		-64.453125
7033		-66.406250
7034		-62.500000
7035		-66.406250
7036		-64.453125
7037		-66.406250
7038		-64.453125
7039		-66.406250
7040		-62.500000
7041		-66.406250
7042		-62.500000
7043		-66.406250
7044		-62.500000
7045		-64.453125
7046		-62.500000
7047		-64.453125
7048		-62.500000
7049		-66.406250
7050		-62.500000
7051		-64.453125
7052		-62.500000
7053		-66.406250
7054		-60.546875
7055		-64.453125
7056		-62.500000
7057		-64.453125
7058		-60.546875
7059		-64.453125
7060		-58.593750
7061		-62.500000
7062		-60.546875
7063		-62.500000
7064		-60.546875
7065		-62.500000
7066		-58.593750
7067		-62.500000
7068		-58.593750
7069		-60.546875
7070		-58.593750
7071		-60.546875
7072		-58.593750
7073		-60.546875
7074		-58.593750
7075		-60.546875
7076		-56.640625
7077		-62.500000
7078		-56.640625
7079		-58.593750
7080		-56.640625
7081		-58.593750
7082		-54.687500
7083		-58.593750
7084		-54.687500
7085		-56.640625
7086		-54.687500
7087		-56.640625
7088		-52.734375
7089		-56.640625
7090		-52.734375
7091		-56.640625
7092		-52.734375
7093		-54.687500
7094		-50.781250
7095		-54.687500
7096		-50.781250
7097		-52.734375
7098		-50.781250
7099		-52.734375
7100		-48.828125
7101		-52.734375
7102		-48.828125
7103		-52.734375
7104		-46.875000
7105		-50.781250
7106		-46.875000
7107		-50.781250
7108		-46.875000
7109		-50.781250
7110		-46.875000
7111		-48.828125
7112		-44.921875
7113		-48.828125
7114		-42.968750
7115		-46.875000
7116		-44.921875
7117		-44.921875
7118		-42.968750
7119		-44.921875
7120		-41.015625
7121		-44.921875
7122		-41.015625
7123		-42.968750
7124		-41.015625
7125		-42.968750
7126		-39.062500
7127		-41.015625
7128		-39.062500
7129		-41.015625
7130		-37.109375
7131		-39.062500
7132		-37.109375
7133		-39.062500
7134		-37.109375
7135		-39.062500
7136		-35.156250
7137		-37.109375
7138		-35.156250
7139		-37.109375
7140		-33.203125
7141		-37.109375
7142		-31.250000
7143		-35.156250
7144		-31.250000
7145		-33.203125
7146		-31.250000
7147		-33.203125
7148		-29.296875
7149		-31.250000
7150		-29.296875
7151		-31.250000
7152		-27.343750
7153		-29.296875
7154		-27.343750
7155		-29.296875
7156		-25.390625
7157		-27.343750
7158		-23.437500
7159		-27.343750
7160		-23.437500
7161		-25.390625
7162		-21.484375
7163		-25.390625
7164		-21.484375
7165		-23.437500
7166		-19.531250
7167		-21.484375
7168		-19.531250
7169		-21.484375
7170		-17.578125
7171		-21.484375
7172		-17.578125
7173		-19.531250
7174		-15.625000
7175		-19.531250
7176		-13.671875
7177		-17.578125
7178		-13.671875
7179		-17.578125
7180		-11.718750
7181		-15.625000
7182		-11.718750
7183		-13.671875
7184		-11.718750
7185		-13.671875
7186		-9.765625
7187		-11.718750
7188		-9.765625
7189		-11.718750
7190		-7.812500
7191		-11.718750
7192		-7.812500
7193		-7.812500
7194		-5.859375
7195		-7.812500
7196		-3.906250
7197		-7.812500
7198		-1.953125
7199		-5.859375
7200		-1.953125
7201		-5.859375
7202		0.000000
7203		-3.906250
7204		0.000000
7205		-3.906250
7206		1.953125
7207		-1.953125
7208		1.953125
7209		0.000000
7210		1.953125
7211		0.000000
7212		3.906250
7213		0.000000
7214		5.859375
7215		1.953125
7216		5.859375
7217		3.906250
7218		7.812500
7219		3.906250
7220		9.765625
7221		3.906250
7222		11.718750
7223		5.859375
7224		9.765625
7225		7.812500
7226		11.718750
7227		7.812500
7228		13.671875
7229		9.765625
7230		13.671875
7231		9.765625
7232		15.625000
7233		11.718750
7234		15.625000
7235		11.718750
7236		17.578125
7237		13.671875
7238		17.578125
7239		11.718750
7240		19.531250
7241		15.625000
7242		19.531250
7243		17.578125
7244		21.484375
7245		15.625000
7246		23.437500
7247		19.531250
7248		23.437500
7249		21.484375
7250		23.437500
7251		19.531250
7252		25.390625
7253		21.484375
7254		25.390625
7255		23.437500
7256		27.343750
7257		23.437500
7258		27.343750
7259		25.390625
7260		27.343750
7261		25.390625
7262		31.250000
7263		23.437500
7264		33.203125
7265		25.390625
7266		31.250000
7267		27.343750
7268		31.250000
7269		27.343750
7270		35.156250
7271		29.296875
7272		37.109375
7273		27.343750
7274		37.109375
7275		33.203125
7276		35.156250
7277		33.203125
7278		37.109375
7279		31.250000
7280		39.062500
7281		33.203125
7282		39.062500
7283		35.156250
7284		39.062500
7285		35.156250
7286		42.968750
7287		35.156250
7288		42.968750
7289		33.203125
7290		44.921875
7291		39.062500
7292		41.015625
7293		39.062500
7294		42.968750
7295		39.062500
7296		42.968750
7297		37.109375
7298		46.875000
7299		41.015625
7300		44.921875
7301		41.015625
7302		46.875000
7303		39.062500
7304		48.828125
7305		41.015625
7306		50.781250
7307		44.921875
7308		46.875000
7309		44.921875
7310		48.828125
7311		44.921875
7312		48.828125
7313		42.968750
7314		50.781250
7315		46.875000
7316		50.781250
7317		46.875000
7318		50.781250
7319		46.875000
7320		54.687500
7321		44.921875
7322		54.687500
7323		44.921875
7324		54.687500
7325		50.781250
7326		52.734375
7327		48.828125
7328		54.687500
7329		48.828125
7330		56.640625
7331		50.781250
7332		54.687500
7333		50.781250
7334		54.687500
7335		50.781250
7336		56.640625
7337		48.828125
7338		58.593750
7339		50.781250
7340		58.593750
7341		52.734375
7342		56.640625
7343		54.687500
7344		56.640625
7345		52.734375
7346		58.593750
7347		50.781250
7348		58.593750
7349		52.734375
7350		58.593750
7351		54.687500
7352		58.593750
7353		52.734375
7354		62.500000
7355		54.687500
7356		58.593750
7357		52.734375
7358		60.546875
7359		56.640625
7360		60.546875
7361		54.687500
7362		60.546875
7363		54.687500
7364		62.500000
7365		54.687500
7366		62.500000
7367		56.640625
7368		60.546875
7369		54.687500
7370		62.500000
7371		54.687500
7372		64.453125
7373		54.687500
7374		62.500000
7375		58.593750
7376		60.546875
7377		56.640625
7378		60.546875
7379		56.640625
7380		62.500000
7381		54.687500
7382		64.453125
7383		56.640625
7384		62.500000
7385		58.593750
7386		60.546875
7387		54.687500
7388		64.453125
7389		56.640625
7390		64.453125
7391		58.593750
7392		60.546875
7393		58.593750
7394		60.546875
7395		58.593750
7396		62.500000
7397		54.687500
7398		64.453125
7399		56.640625
7400		62.500000
7401		56.640625
7402		60.546875
7403		54.687500
7404		62.500000
7405		54.687500
7406		62.500000
7407		56.640625
7408		62.500000
7409		56.640625
7410		60.546875
7411		56.640625
7412		60.546875
7413		54.687500
7414		62.500000
7415		54.687500
7416		62.500000
7417		56.640625
7418		60.546875
7419		54.687500
7420		60.546875
7421		52.734375
7422		62.500000
7423		52.734375
7424		60.546875
7425		54.687500
7426		58.593750
7427		54.687500
7428		58.593750
7429		54.687500
7430		58.593750
7431		54.687500
7432		58.593750
7433		52.734375
7434		58.593750
7435		54.687500
7436		58.593750
7437		50.781250
7438		58.593750
7439		52.734375
7440		56.640625
7441		50.781250
7442		58.593750
7443		52.734375
7444		54.687500
7445		50.781250
7446		54.687500
7447		48.828125
7448		56.640625
7449		48.828125
7450		54.687500
7451		50.781250
7452		52.734375
7453		48.828125
7454		54.687500
7455		48.828125
7456		52.734375
7457		46.875000
7458		54.687500
7459		48.828125
7460		52.734375
7461		48.828125
7462		50.781250
7463		46.875000
7464		50.781250
7465		44.921875
7466		52.734375
7467		46.875000
7468		48.828125
7469		42.968750
7470		48.828125
7471		42.968750
7472		48.828125
7473		44.921875
7474		46.875000
7475		42.968750
7476		46.875000
7477		42.968750
7478		46.875000
7479		41.015625
7480		44.921875
7481		41.015625
7482		42.968750
7483		39.062500
7484		44.921875
7485		39.062500
7486		42.968750
7487		37.109375
7488		42.968750
7489		37.109375
7490		41.015625
7491		37.109375
7492		41.015625
7493		37.109375
7494		39.062500
7495		35.156250
7496		39.062500
7497		35.156250
7498		37.109375
7499		33.203125
7500		37.109375
7501		33.203125
7502		37.109375
7503		33.203125
7504		35.156250
7505		31.250000
7506		35.156250
7507		29.296875
7508		35.156250
7509		29.296875
7510		33.203125
7511		29.296875
7512		33.203125
7513		27.343750
7514		31.250000
7515		27.343750
7516		29.296875
7517		27.343750
7518		29.296875
7519		25.390625
7520		29.296875
7521		25.390625
7522		27.343750
7523		23.437500
7524		27.343750
7525		23.437500
7526		25.390625
7527		21.484375
7528		25.390625
7529		19.531250
7530		25.390625
7531		17.578125
7532		23.437500
7533		17.578125
7534		23.437500
7535		15.625000
7536		21.484375
7537		15.625000
7538		21.484375
7539		13.671875
7540		19.531250
7541		13.671875
7542		19.531250
7543		13.671875
7544		17.578125
7545		13.671875
7546		15.625000
7547		9.765625
7548		15.625000
7549		9.765625
7550		15.625000
7551		7.812500
7552		13.671875
7553		7.812500
7554		13.671875
7555		7.812500
7556		11.718750
7557		5.859375
7558		11.718750
7559		5.859375
7560		9.765625
7561		3.906250
7562		7.812500
7563		1.953125
7564		7.812500
7565		1.953125
7566		5.859375
7567		0.000000
7568		5.859375
7569		0.000000
7570		3.906250
7571		-1.953125
7572		3.906250
7573		-3.906250
7574		1.953125
7575		-3.906250
7576		1.953125
7577		-3.906250
7578		0.000000
7579		-5.859375
7580		-1.953125
7581		-7.812500
7582		-1.953125
7583		-9.765625
7584		-3.906250
7585		-9.765625
7586		-3.906250
7587		-9.765625
7588		-5.859375
7589		-11.718750
7590		-5.859375
7591		-13.671875
7592		-7.812500
7593		-11.718750
7594		-9.765625
7595		-13.671875
7596		-9.765625
7597		-15.625000
7598		-11.718750
7599		-15.625000
7600		-11.718750
7601		-17.578125
7602		-11.718750
7603		-19.531250
7604		-13.671875
7605		-19.531250
7606		-15.625000
7607		-21.484375
7608		-15.625000
7609		-21.484375
7610		-17.578125
7611		-21.484375
7612		-19.531250
7613		-23.437500
7614		-17.578125
7615		-23.437500
7616		-19.531250
7617		-25.390625
7618		-21.484375
7619		-27.343750
7620		-21.484375
7621		-27.343750
7622		-23.437500
7623		-29.296875
7624		-25.390625
7625		-29.296875
7626		-25.390625
7627		-31.250000
7628		-27.343750
7629		-33.203125
7630		-27.343750
7631		-33.203125
7632		-29.296875
7633		-33.203125
7634		-29.296875
7635		-35.156250
7636		-29.296875
7637		-37.109375
7638		-31.250000
7639		-37.109375
7640		-31.250000
7641		-37.109375
7642		-33.203125
7643		-39.062500
7644		-33.203125
7645		-39.062500
7646		-35.156250
7647		-39.062500
7648		-37.109375
7649		-41.015625
7650		-37.109375
7651		-41.015625
7652		-37.109375
7653		-42.968750
7654		-37.109375
7655		-42.968750
7656		-39.062500
7657		-44.921875
7658		-39.062500
7659		-44.921875
7660		-41.015625
7661		-44.921875
7662		-42.968750
7663		-46.875000
7664		-42.968750
7665		-46.875000
7666		-44.921875
7667		-48.828125
7668		-44.921875
7669		-50.781250
7670		-44.921875
7671		-48.828125
7672		-46.875000
7673		-50.781250
7674		-46.875000
7675		-50.781250
7676		-46.875000
7677		-50.781250
7678		-48.828125
7679		-52.734375
7680		-48.828125
7681		-52.734375
7682		-48.828125
7683		-54.687500
7684		-50.781250
7685		-54.687500
7686		-50.781250
7687		-56.640625
7688		-50.781250
7689		-56.640625
7690		-52.734375
7691		-56.640625
7692		-52.734375
7693		-56.640625
7694		-52.734375
7695		-56.640625
7696		-54.687500
7697		-58.593750
7698		-54.687500
7699		-58.593750
7700		-54.687500
7701		-58.593750
7702		-54.687500
7703		-60.546875
7704		-54.687500
7705		-60.546875
7706		-56.640625
7707		-60.546875
7708		-56.640625
7709		-62.500000
7710		-56.640625
7711		-62.500000
7712		-58.593750
7713		-62.500000
7714		-58.593750
7715		-62.500000
7716		-58.593750
7717		-64.453125
7718		-58.593750
7719		-62.500000
7720		-60.546875
7721		-64.453125
7722		-60.546875
7723		-64.453125
7724		-60.546875
7725		-64.453125
7726		-60.546875
7727		-64.453125
7728		-60.546875
7729		-64.453125
7730		-62.500000
7731		-66.406250
7732		-62.500000
7733		-66.406250
7734		-60.546875
7735		-66.406250
7736		-62.500000
7737		-66.406250
7738		-60.546875
7739		-68.359375
7740		-60.546875
7741		-66.406250
7742		-62.500000
7743		-66.406250
7744		-62.500000
7745		-66.406250
7746		-62.500000
7747		-68.359375
7748		-62.500000
7749		-68.359375
7750		-62.500000
7751		-66.406250
7752		-64.453125
7753		-66.406250
7754		-62.500000
7755		-68.359375
7756		-62.500000
7757		-66.406250
7758		-62.500000
7759		-66.406250
7760		-62.500000
7761		-66.406250
7762		-62.500000
7763		-66.406250
7764		-64.453125
7765		-66.406250
7766		-62.500000
7767		-66.406250
7768		-64.453125
7769		-66.406250
7770		-62.500000
7771		-68.359375
7772		-62.500000
7773		-66.406250
7774		-62.500000
7775		-66.406250
7776		-62.500000
7777		-66.406250
7778		-62.500000
7779		-66.406250
7780		-62.500000
7781		-66.406250
7782		-62.500000
7783		-66.406250
7784		-60.546875
7785		-64.453125
7786		-62.500000
7787		-64.453125
7788		-62.500000
7789		-64.453125
7790		-60.546875
7791		-64.453125
7792		-60.546875
7793		-64.453125
7794		-60.546875
7795		-62.500000
7796		-60.546875
7797		-62.500000
7798		-60.546875
7799		-62.500000
7800		-58.593750
7801		-62.500000
7802		-58.593750
7803		-62.500000
7804		-58.593750
7805		-60.546875
7806		-56.640625
7807		-60.546875
7808		-58.593750
7809		-60.546875
7810		-56.640625
7811		-60.546875
7812		-56.640625
7813		-58.593750
7814		-56.640625
7815		-60.546875
7816		-54.687500
7817		-58.593750
7818		-54.687500
7819		-58.593750
7820		-54.687500
7821		-56.640625
7822		-54.687500
7823		-56.640625
7824		-52.734375
7825		-56.640625
7826		-52.734375
7827		-54.687500
7828		-52.734375
7829		-54.687500
7830		-52.734375
7831		-54.687500
7832		-50.781250
7833		-52.734375
7834		-50.781250
7835		-52.734375
7836		-48.828125
7837		-52.734375
7838		-48.828125
7839		-50.781250
7840		-46.875000
7841		-50.781250
7842		-46.875000
7843		-50.781250
7844		-44.921875
7845		-48.828125
7846		-44.921875
7847		-48.828125
7848		-44.921875
7849		-46.875000
7850		-42.968750
7851		-46.875000
7852		-42.968750
7853		-44.921875
7854		-41.015625
7855		-44.921875
7856		-41.015625
7857		-42.968750
7858		-39.062500
7859		-42.968750
7860		-39.062500
7861		-42.968750
7862		-39.062500
7863		-41.015625
7864		-37.109375
7865		-41.015625
7866		-37.109375
7867		-39.062500
7868		-37.109375
7869		-39.062500
7870		-35.156250
7871		-37.109375
7872		-33.203125
7873		-37.109375
7874		-33.203125
7875		-35.156250
7876		-31.250000
7877		-35.156250
7878		-31.250000
7879		-33.203125
7880		-29.296875
7881		-33.203125
7882		-29.296875
7883		-33.203125
7884		-27.343750
7885		-31.250000
7886		-27.343750
7887		-29.296875
7888		-27.343750
7889		-29.296875
7890		-25.390625
7891		-27.343750
7892		-25.390625
7893		-27.343750
7894		-23.437500
7895		-27.343750
7896		-21.484375
7897		-25.390625
7898		-21.484375
7899		-23.437500
7900		-19.531250
7901		-23.437500
7902		-17.578125
7903		-21.484375
7904		-17.578125
7905		-21.484375
7906		-15.625000
7907		-19.531250
7908		-15.625000
7909		-19.531250
7910		-15.625000
7911		-19.531250
7912		-13.671875
7913		-15.625000
7914		-13.671875
7915		-15.625000
7916		-11.718750
7917		-15.625000
7918		-9.765625
7919		-13.671875
7920		-9.765625
7921		-11.718750
7922		-7.812500
7923		-13.671875
7924		-7.812500
7925		-9.765625
7926		-5.859375
7927		-9.765625
7928		-3.906250
7929		-7.812500
7930		-3.906250
7931		-5.859375
7932		-3.906250
7933		-5.859375
7934		-1.953125
7935		-3.906250
7936		-1.953125
7937		-3.906250
7938		0.000000
7939		-3.906250
7940		0.000000
7941		-1.953125
7942		1.953125
7943		0.000000
7944		3.906250
7945		0.000000
7946		3.906250
7947		1.953125
7948		5.859375
7949		1.953125
7950		7.812500
7951		3.906250
7952		7.812500
7953		3.906250
7954		9.765625
7955		5.859375
7956		9.765625
7957		7.812500
7958		11.718750
7959		7.812500
7960		11.718750
7961		7.812500
7962		13.671875
7963		9.765625
7964		13.671875
7965		11.718750
7966		15.625000
7967		11.718750
7968		15.625000
7969		13.671875
7970		17.578125
7971		13.671875
7972		17.578125
7973		15.625000
7974		19.531250
7975		17.578125
7976		19.531250
7977		17.578125
7978		21.484375
7979		15.625000
7980		21.484375
7981		19.531250
7982		23.437500
7983		19.531250
7984		25.390625
7985		21.484375
7986		25.390625
7987		23.437500
7988		25.390625
7989		23.437500
7990		27.343750
7991		23.437500
7992		27.343750
7993		25.390625
7994		29.296875
7995		25.390625
7996		31.250000
7997		27.343750
7998		29.296875
7999		27.343750
8000		31.250000
8001		27.343750
8002		33.203125
8003		29.296875
8004		33.203125
8005		31.250000
8006		35.156250
8007		31.250000
8008		35.156250
8009		31.250000
8010		35.156250
8011		33.203125
8012		37.109375
8013		35.156250
8014		37.109375
8015		35.156250
8016		39.062500
8017		35.156250
8018		39.062500
8019		37.109375
8020		39.062500
8021		37.109375
8022		41.015625
8023		37.109375
8024		41.015625
8025		39.062500
8026		42.968750
8027		39.062500
8028		42.968750
8029		39.062500
8030		42.968750
8031		39.062500
8032		42.968750
8033		41.015625
8034		44.921875
8035		41.015625
8036		44.921875
8037		42.968750
8038		46.875000
8039		42.968750
8040		48.828125
8041		42.968750
8042		48.828125
8043		44.921875
8044		48.828125
8045		44.921875
8046		48.828125
8047		46.875000
8048		48.828125
8049		46.875000
8050		48.828125
8051		46.875000
8052		50.781250
8053		48.828125
8054		50.781250
8055		48.828125
8056		52.734375
8057		48.828125
8058		52.734375
8059		50.781250
8060		52.734375
8061		48.828125
8062		54.687500
8063		48.828125
8064		52.734375
8065		50.781250
8066		54.687500
8067		52.734375
8068		54.687500
8069		50.781250
8070		56.640625
8071		50.781250
8072		56.640625
8073		52.734375
8074		56.640625
8075		52.734375
8076		56.640625
8077		54.687500
8078		56.640625
8079		54.687500
8080		58.593750
8081		54.687500
8082		58.593750
8083		54.687500
8084		56.640625
8085		54.687500
8086		58.593750
8087		54.687500
8088		58.593750
8089		54.687500
8090		60.546875
8091		56.640625
8092		58.593750
8093		56.640625
8094		60.546875
8095		56.640625
8096		60.546875
8097		56.640625
8098		60.546875
8099		56.640625
8100		60.546875
8101		56.640625
8102		60.546875
8103		56.640625
8104		60.546875
8105		56.640625
8106		60.546875
8107		58.593750
8108		60.546875
8109		56.640625
8110		62.500000
8111		58.593750
8112		60.546875
8113		58.593750
8114		62.500000
8115		56.640625
8116		62.500000
8117		58.593750
8118		62.500000
8119		58.593750
8120		62.500000
8121		58.593750
8122		62.500000
8123		58.593750
8124		62.500000
8125		58.593750
8126		62.500000
8127		58.593750
8128		62.500000
8129		56.640625
8130		62.500000
8131		58.593750
8132		60.546875
8133		58.593750
8134		62.500000
8135		58.593750
8136		62.500000
8137		58.593750
8138		62.500000
8139		58.593750
8140		60.546875
8141		58.593750
8142		60.546875
8143		56.640625
8144		60.546875
8145		56.640625
8146		60.546875
8147		56.640625
8148		60.546875
8149		56.640625
8150		60.546875
8151		56.640625
8152		60.546875
8153		56.640625
8154		60.546875
8155		56.640625
8156		58.593750
8157		54.687500
8158		58.593750
8159		56.640625
8160		60.546875
8161		54.687500
8162		58.593750
8163		54.687500
8164		58.593750
8165		54.687500
8166		58.593750
8167		54.687500
8168		58.593750
8169		54.687500
8170		58.593750
8171		52.734375
8172		56.640625
8173		52.734375
8174		56.640625
8175		52.734375
8176		56.640625
8177		50.781250
8178		56.640625
8179		52.734375
8180		54.687500
8181		50.781250
8182		54.687500
8183		50.781250
8184		54.687500
8185		50.781250
8186		54.687500
8187		48.828125
8188		52.734375
8189		48.828125
8190		52.734375
8191		48.828125
8192		52.734375
8193		46.875000
8194		50.781250
8195		46.875000
8196		50.781250
8197		44.921875
8198		50.781250
8199		46.875000
8200		48.828125
8201		44.921875
8202		48.828125
8203		44.921875
8204		48.828125
8205		44.921875
8206		46.875000
8207		42.968750
8208		46.875000
8209		41.015625
8210		46.875000
8211		42.968750
8212		46.875000
8213		41.015625
8214		44.921875
8215		41.015625
8216		44.921875
8217		41.015625
8218		42.968750
8219		39.062500
8220		42.968750
8221		39.062500
8222		42.968750
8223		37.109375
8224		41.015625
8225		37.109375
8226		41.015625
8227		37.109375
8228		41.015625
8229		35.156250
8230		39.062500
8231		35.156250
8232		39.062500
8233		35.156250
8234		37.109375
8235		31.250000
8236		37.109375
8237		31.250000
8238		35.156250
8239		31.250000
8240		35.156250
8241		29.296875
8242		33.203125
8243		29.296875
8244		33.203125
8245		29.296875
8246		31.250000
8247		27.343750
8248		31.250000
8249		27.343750
8250		29.296875
8251		25.390625
8252		29.296875
8253		23.437500
8254		29.296875
8255		23.437500
8256		27.343750
8257		23.437500
8258		27.343750
8259		21.484375
8260		25.390625
8261		21.484375
8262		25.390625
8263		19.531250
8264		23.437500
8265		19.531250
8266		23.437500
8267		19.531250
8268		21.484375
8269		17.578125
8270		19.531250
8271		15.625000
8272		19.531250
8273		15.625000
8274		19.531250
8275		13.671875
8276		17.578125
8277		13.671875
8278		17.578125
8279		11.718750
8280		15.625000
8281		11.718750
8282		15.625000
8283		9.765625
8284		13.671875
8285		9.765625
8286		11.718750
8287		7.812500
8288		11.718750
8289		7.812500
8290		11.718750
8291		5.859375
8292		9.765625
8293		3.906250
8294		7.812500
8295		3.906250
8296		7.812500
8297		1.953125
8298		5.859375
8299		1.953125
8300		5.859375
8301		0.000000
8302		3.906250
8303		0.000000
8304		1.953125
8305		-1.953125
8306		1.953125
8307		-3.906250
8308		0.000000
8309		-3.906250
8310		0.000000
8311		-3.906250
8312		0.000000
8313		-5.859375
8314		-1.953125
8315		-7.812500
8316		-1.953125
8317		-7.812500
8318		-3.906250
8319		-9.765625
8320		-5.859375
8321		-9.765625
8322		-5.859375
8323		-11.718750
8324		-7.812500
8325		-13.671875
8326		-9.765625
8327		-13.671875
8328		-9.765625
8329		-13.671875
8330		-11.718750
8331		-15.625000
8332		-11.718750
8333		-15.625000
8334		-13.671875
8335		-17.578125
8336		-13.671875
8337		-19.531250
8338		-13.671875
8339		-19.531250
8340		-15.625000
8341		-21.484375
8342		-15.625000
8343		-21.484375
8344		-17.578125
8345		-23.437500
8346		-19.531250
8347		-23.437500
8348		-19.531250
8349		-25.390625
8350		-21.484375
8351		-25.390625
8352		-23.437500
8353		-27.343750
8354		-23.437500
8355		-27.343750
8356		-23.437500
8357		-31.250000
8358		-25.390625
8359		-31.250000
8360		-25.390625
8361		-31.250000
8362		-27.343750
8363		-33.203125
8364		-27.343750
8365		-33.203125
8366		-29.296875
8367		-33.203125
8368		-31.250000
8369		-35.156250
8370		-31.250000
8371		-35.156250
8372		-31.250000
8373		-35.156250
8374		-33.203125
8375		-37.109375
8376		-33.203125
8377		-37.109375
8378		-35.156250
8379		-39.062500
8380		-37.109375
8381		-41.015625
8382		-37.109375
8383		-41.015625
8384		-37.109375
8385		-42.968750
8386		-39.062500
8387		-42.968750
8388		-39.062500
8389		-44.921875
8390		-39.062500
8391		-44.921875
8392		-41.015625
8393		-44.921875
8394		-41.015625
8395		-44.921875
8396		-42.968750
8397		-46.875000
8398		-42.968750
8399		-46.875000
8400		-42.968750
8401		-46.875000
8402		-44.921875
8403		-48.828125
8404		-44.921875
8405		-48.828125
8406		-44.921875
8407		-50.781250
8408		-46.875000
8409		-50.781250
8410		-48.828125
8411		-52.734375
8412		-48.828125
8413		-52.734375
8414		-46.875000
8415		-54.687500
8416		-48.828125
8417		-54.687500
8418		-50.781250
8419		-54.687500
8420		-50.781250
8421		-54.687500
8422		-50.781250
8423		-54.687500
8424		-52.734375
8425		-56.640625
8426		-52.734375
8427		-56.640625
8428		-52.734375
8429		-56.640625
8430		-52.734375
8431		-58.593750
8432		-54.687500
8433		-58.593750
8434		-54.687500
8435		-58.593750
8436		-54.687500
8437		-60.546875
8438		-56.640625
8439		-60.546875
8440		-56.640625
8441		-60.546875
8442		-56.640625
8443		-60.546875
8444		-56.640625
8445		-62.500000
8446		-58.593750
8447		-60.546875
8448		-58.593750
8449		-62.500000
8450		-58.593750
8451		-62.500000
8452		-58.593750
8453		-64.453125
8454		-58.593750
8455		-62.500000
8456		-58.593750
8457		-62.500000
8458		-60.546875
8459		-64.453125
8460		-60.546875
8461		-64.453125
8462		-60.546875
8463		-64.453125
8464		-60.546875
8465		-64.453125
8466		-60.546875
8467		-64.453125
8468		-62.500000
8469		-64.453125
8470		-60.546875
8471		-64.453125
8472		-62.500000
8473		-64.453125
8474		-62.500000
8475		-64.453125
8476		-62.500000
8477		-64.453125
8478		-62.500000
8479		-66.406250
8480		-62.500000
8481		-64.453125
8482		-62.500000
8483		-66.406250
8484		-62.500000
8485		-66.406250
8486		-62.500000
8487		-66.406250
8488		-62.500000
8489		-66.406250
8490		-62.500000
8491		-66.406250
8492		-62.500000
8493		-66.406250
8494		-62.500000
8495		-66.406250
8496		-62.500000
8497		-66.406250
8498		-62.500000
8499		-66.406250
8500		-62.500000
8501		-64.453125
8502		-62.500000
8503		-64.453125
8504		-62.500000
8505		-66.406250
8506		-62.500000
8507		-64.453125
8508		-60.546875
8509		-64.453125
8510		-62.500000
8511		-64.453125
8512		-62.500000
8513		-66.406250
8514		-60.546875
8515		-64.453125
8516		-60.546875
8517		-64.453125
8518		-60.546875
8519		-64.453125
8520		-60.546875
8521		-64.453125
8522		-60.546875
8523		-64.453125
8524		-58.593750
8525		-62.500000
8526		-60.546875
8527		-62.500000
8528		-58.593750
8529		-62.500000
8530		-58.593750
8531		-62.500000
8532		-58.593750
8533		-60.546875
8534		-58.593750
8535		-62.500000
8536		-58.593750
8537		-60.546875
8538		-56.640625
8539		-60.546875
8540		-56.640625
8541		-60.546875
8542		-56.640625
8543		-58.593750
8544		-54.687500
8545		-58.593750
8546		-54.687500
8547		-58.593750
8548		-54.687500
8549		-58.593750
8550		-52.734375
8551		-56.640625
8552		-54.687500
8553		-56.640625
8554		-52.734375
8555		-56.640625
8556		-52.734375
8557		-56.640625
8558		-52.734375
8559		-54.687500
8560		-50.781250
8561		-52.734375
8562		-50.781250
8563		-52.734375
8564		-50.781250
8565		-54.687500
8566		-48.828125
8567		-52.734375
8568		-48.828125
8569		-50.781250
8570		-48.828125
8571		-50.781250
8572		-46.875000
8573		-50.781250
8574		-46.875000
8575		-50.781250
8576		-46.875000
8577		-48.828125
8578		-44.921875
8579		-46.875000
8580		-42.968750
8581		-46.875000
8582		-42.968750
8583		-46.875000
8584		-42.968750
8585		-44.921875
8586		-41.015625
8587		-44.921875
8588		-41.015625
8589		-44.921875
8590		-41.015625
8591		-44.921875
8592		-39.062500
8593		-42.968750
8594		-39.062500
8595		-41.015625
8596		-37.109375
8597		-41.015625
8598		-37.109375
8599		-39.062500
8600		-35.156250
8601		-39.062500
8602		-35.156250
8603		-39.062500
8604		-33.203125
8605		-37.109375
8606		-33.203125
8607		-37.109375
8608		-33.203125
8609		-35.156250
8610		-31.250000
8611		-33.203125
8612		-31.250000
8613		-33.203125
8614		-29.296875
8615		-33.203125
8616		-27.343750
8617		-31.250000
8618		-27.343750
8619		-29.296875
8620		-27.343750
8621		-29.296875
8622		-25.390625
8623		-29.296875
8624		-25.390625
8625		-27.343750
8626		-23.437500
8627		-27.343750
8628		-21.484375
8629		-25.390625
8630		-21.484375
8631		-23.437500
8632		-21.484375
8633		-23.437500
8634		-19.531250
8635		-21.484375
8636		-19.531250
8637		-21.484375
8638		-17.578125
8639		-21.484375
8640		-17.578125
8641		-19.531250
8642		-15.625000
8643		-19.531250
8644		-13.671875
8645		-17.578125
8646		-13.671875
8647		-15.625000
8648		-11.718750
8649		-15.625000
8650		-11.718750
8651		-13.671875
8652		-9.765625
8653		-13.671875
8654		-9.765625
8655		-11.718750
8656		-7.812500
8657		-11.718750
8658		-7.812500
8659		-9.765625
8660		-5.859375
8661		-9.765625
8662		-5.859375
8663		-7.812500
8664		-3.906250
8665		-5.859375
8666		-3.906250
8667		-5.859375
8668		-1.953125
8669		-3.906250
8670		-1.953125
8671		-3.906250
8672		0.000000
8673		-3.906250
8674		1.953125
8675		-1.953125
8676		1.953125
8677		0.000000
8678		3.906250
8679		0.000000
8680		5.859375
8681		1.953125
8682		5.859375
8683		1.953125
8684		7.812500
8685		3.906250
8686		9.765625
8687		5.859375
8688		7.812500
8689		5.859375
8690		9.765625
8691		5.859375
8692		11.718750
8693		7.812500
8694		11.718750
8695		9.765625
8696		11.718750
8697		9.765625
8698		13.671875
8699		11.718750
8700		15.625000
8701		11.718750
8702		15.625000
8703		13.671875
8704		17.578125
8705		15.625000
8706		17.578125
8707		15.625000
8708		19.531250
8709		15.625000
8710		19.531250
8711		17.578125
8712		21.484375
8713		17.578125
8714		23.437500
8715		19.531250
8716		23.437500
8717		19.531250
8718		25.390625
8719		21.484375
8720		25.390625
8721		23.437500
8722		25.390625
8723		23.437500
8724		27.343750
8725		23.437500
8726		27.343750
8727		25.390625
8728		29.296875
8729		25.390625
8730		29.296875
8731		27.343750
8732		31.250000
8733		27.343750
8734		31.250000
8735		29.296875
8736		33.203125
8737		29.296875
8738		33.203125
8739		31.250000
8740		35.156250
8741		31.250000
8742		35.156250
8743		33.203125
8744		35.156250
8745		33.203125
8746		37.109375
8747		35.156250
8748		37.109375
8749		35.156250
8750		39.062500
8751		35.156250
8752		39.062500
8753		37.109375
8754		39.062500
8755		37.109375
8756		41.015625
8757		39.062500
8758		42.968750
8759		39.062500
8760		42.968750
8761		39.062500
8762		42.968750
8763		41.015625
8764		42.968750
8765		41.015625
8766		44.921875
8767		41.015625
8768		44.921875
8769		41.015625
8770		44.921875
8771		42.968750
8772		46.875000
8773		42.968750
8774		48.828125
8775		44.921875
8776		46.875000
8777		44.921875
8778		48.828125
8779		46.875000
8780		48.828125
8781		46.875000
8782		50.781250
8783		46.875000
8784		50.781250
8785		46.875000
8786		50.781250
8787		48.828125
8788		52.734375
8789		48.828125
8790		50.781250
8791		48.828125
8792		52.734375
8793		48.828125
8794		54.687500
8795		50.781250
8796		54.687500
8797		50.781250
8798		54.687500
8799		50.781250
8800		54.687500
8801		50.781250
8802		54.687500
8803		52.734375
8804		54.687500
8805		52.734375
8806		56.640625
8807		52.734375
8808		56.640625
8809		54.687500
8810		56.640625
8811		54.687500
8812		58.593750
8813		54.687500
8814		56.640625
8815		54.687500
8816		58.593750
8817		54.687500
8818		58.593750
8819		54.687500
8820		58.593750
8821		56.640625
8822		58.593750
8823		56.640625
8824		60.546875
8825		56.640625
8826		60.546875
8827		56.640625
8828		60.546875
8829		56.640625
8830		60.546875
8831		56.640625
8832		60.546875
8833		56.640625
8834		60.546875
8835		56.640625
8836		62.500000
8837		58.593750
8838		60.546875
8839		58.593750
8840		60.546875
8841		58.593750
8842		62.500000
8843		58.593750
8844		62.500000
8845		58.593750
8846		62.500000
8847		56.640625
8848		62.500000
8849		58.593750
8850		62.500000
8851		58.593750
8852		62.500000
8853		58.593750
8854		62.500000
8855		58.593750
8856		62.500000
8857		58.593750
8858		62.500000
8859		58.593750
8860		62.500000
8861		58.593750
8862		62.500000
8863		58.593750
8864		62.500000
8865		58.593750
8866		62.500000
8867		58.593750
8868		62.500000
8869		58.593750
8870		62.500000
8871		58.593750
8872		60.546875
8873		56.640625
8874		62.500000
8875		56.640625
8876		62.500000
8877		58.593750
8878		60.546875
8879		56.640625
8880		60.546875
8881		56.640625
8882		60.546875
8883		58.593750
8884		60.546875
8885		56.640625
8886		60.546875
8887		56.640625
8888		60.546875
8889		56.640625
8890		60.546875
8891		54.687500
8892		60.546875
8893		54.687500
8894		60.546875
8895		56.640625
8896		58.593750
8897		54.687500
8898		58.593750
8899		54.687500
8900		58.593750
8901		54.687500
8902		58.593750
8903		52.734375
8904		58.593750
8905		54.687500
8906		56.640625
8907		52.734375
8908		56.640625
8909		52.734375
8910		56.640625
8911		52.734375
8912		56.640625
8913		50.781250
8914		56.640625
8915		52.734375
8916		54.687500
8917		50.781250
8918		54.687500
8919		48.828125
8920		54.687500
8921		50.781250
8922		52.734375
8923		48.828125
8924		52.734375
8925		48.828125
8926		52.734375
8927		48.828125
8928		52.734375
8929		46.875000
8930		50.781250
8931		46.875000
8932		50.781250
8933		46.875000
8934		50.781250
8935		44.921875
8936		50.781250
8937		44.921875
8938		48.828125
8939		44.921875
8940		48.828125
8941		42.968750
8942		46.875000
8943		42.968750
8944		46.875000
8945		42.968750
8946		46.875000
8947		42.968750
8948		44.921875
8949		39.062500
8950		44.921875
8951		41.015625
8952		44.921875
8953		39.062500
8954		42.968750
8955		39.062500
8956		42.968750
8957		39.062500
8958		41.015625
8959		37.109375
8960		41.015625
8961		35.156250
8962		41.015625
8963		35.156250
8964		39.062500
8965		35.156250
8966		39.062500
8967		35.156250
8968		37.109375
8969		33.203125
8970		37.109375
8971		33.203125
8972		37.109375
8973		31.250000
8974		35.156250
8975		31.250000
8976		33.203125
8977		29.296875
8978		33.203125
8979		29.296875
8980		33.203125
8981		27.343750
8982		31.250000
8983		27.343750
8984		31.250000
8985		27.343750
8986		29.296875
8987		25.390625
8988		29.296875
8989		25.390625
8990		29.296875
8991		21.484375
8992		25.390625
8993		21.484375
8994		25.390625
8995		21.484375
8996		25.390625
8997		19.531250
8998		23.437500
8999		19.531250
9000		23.437500
9001		17.578125
9002		21.484375
9003		17.578125
9004		21.484375
9005		17.578125
9006		19.531250
9007		15.625000
9008		19.531250
9009		13.671875
9010		17.578125
9011		13.671875
9012		17.578125
9013		11.718750
9014		15.625000
9015		11.718750
9016		15.625000
9017		9.765625
9018		13.671875
9019		9.765625
9020		13.671875
9021		7.812500
9022		11.718750
9023		7.812500
9024		9.765625
9025		3.906250
9026		9.765625
9027		5.859375
9028		7.812500
9029		3.906250
9030		7.812500
9031		1.953125
9032		5.859375
9033		1.953125
9034		5.859375
9035		0.000000
9036		3.906250
9037		0.000000
9038		3.906250
9039		-1.953125
9040		1.953125
9041		-1.953125
9042		0.000000
9043		-3.906250
9044		0.000000
9045		-5.859375
9046		-1.953125
9047		-5.859375
9048		-1.953125
9049		-7.812500
9050		-1.953125
9051		-7.812500
9052		-3.906250
9053		-9.765625
9054		-5.859375
9055		-9.765625
9056		-5.859375
9057		-11.718750
9058		-7.812500
9059		-13.671875
9060		-9.765625
9061		-13.671875
9062		-9.765625
9063		-15.625000
9064		-11.718750
9065		-15.625000
9066		-11.718750
9067		-15.625000
9068		-13.671875
9069		-19.531250
9070		-13.671875
9071		-19.531250
9072		-15.625000
9073		-19.531250
9074		-17.578125
9075		-21.484375
9076		-17.578125
9077		-21.484375
9078		-19.531250
9079		-23.437500
9080		-19.531250
9081		-23.437500
9082		-19.531250
9083		-25.390625
9084		-21.484375
9085		-27.343750
9086		-23.437500
9087		-29.296875
9088		-23.437500
9089		-27.343750
9090		-25.390625
9091		-29.296875
9092		-25.390625
9093		-31.250000
9094		-27.343750
9095		-31.250000
9096		-27.343750
9097		-33.203125
9098		-27.343750
9099		-33.203125
9100		-29.296875
9101		-35.156250
9102		-31.250000
9103		-35.156250
9104		-31.250000
9105		-37.109375
9106		-33.203125
9107		-37.109375
9108		-33.203125
9109		-37.109375
9110		-35.156250
9111		-41.015625
9112		-35.156250
9113		-39.062500
9114		-37.109375
9115		-41.015625
9116		-37.109375
9117		-42.968750
9118		-37.109375
9119		-42.968750
9120		-39.062500
9121		-42.968750
9122		-41.015625
9123		-44.921875
9124		-41.015625
9125		-44.921875
9126		-42.968750
9127		-46.875000
9128		-41.015625
9129		-46.875000
9130		-42.968750
9131		-46.875000
9132		-42.968750
9133		-48.828125
9134		-44.921875
9135		-48.828125
9136		-44.921875
9137		-48.828125
9138		-44.921875
9139		-50.781250
9140		-46.875000
9141		-50.781250
9142		-48.828125
9143		-52.734375
9144		-48.828125
9145		-52.734375
9146		-48.828125
9147		-52.734375
9148		-50.781250
9149		-52.734375
9150		-50.781250
9151		-54.687500
9152		-50.781250
9153		-54.687500
9154		-50.781250
9155		-56.640625
9156		-52.734375
9157		-56.640625
9158		-52.734375
9159		-56.640625
9160		-52.734375
9161		-58.593750
9162		-52.734375
9163		-58.593750
9164		-54.687500
9165		-58.593750
9166		-54.687500
9167		-58.593750
9168		-56.640625
9169		-58.593750
9170		-56.640625
9171		-60.546875
9172		-56.640625
9173		-60.546875
9174		-56.640625
9175		-60.546875
9176		-58.593750
9177		-60.546875
9178		-58.593750
9179		-62.500000
9180		-56.640625
9181		-62.500000
9182		-58.593750
9183		-62.500000
9184		-58.593750
9185		-62.500000
9186		-58.593750
9187		-62.500000
9188		-60.546875
9189		-64.453125
9190		-60.546875
9191		-62.500000
9192		-60.546875
9193		-64.453125
9194		-60.546875
9195		-66.406250
9196		-60.546875
9197		-64.453125
9198		-62.500000
9199		-64.453125
9200		-60.546875
9201		-66.406250
9202		-60.546875
9203		-64.453125
9204		-62.500000
9205		-64.453125
9206		-62.500000
9207		-66.406250
9208		-62.500000
9209		-64.453125
9210		-62.500000
9211		-66.406250
9212		-62.500000
9213		-64.453125
9214		-62.500000
9215		-66.406250
9216		-60.546875
9217		-64.453125
9218		-62.500000
9219		-66.406250
9220		-62.500000
9221		-64.453125
9222		-62.500000
9223		-66.406250
9224		-62.500000
9225		-64.453125
9226		-62.500000
9227		-66.406250
9228		-62.500000
9229		-66.406250
9230		-62.500000
9231		-66.406250
9232		-62.500000
9233		-66.406250
9234		-62.500000
9235		-66.406250
9236		-62.500000
9237		-66.406250
9238		-60.546875
9239		-66.406250
9240		-60.546875
9241		-64.453125
9242		-62.500000
9243		-64.453125
9244		-62.500000
9245		-66.406250
9246		-60.546875
9247		-64.453125
9248		-60.546875
9249		-64.453125
9250		-60.546875
9251		-64.453125
9252		-60.546875
9253		-62.500000
9254		-60.546875
9255		-64.453125
9256		-60.546875
9257		-62.500000
9258		-58.593750
9259		-62.500000
9260		-58.593750
9261		-62.500000
9262		-58.593750
9263		-60.546875
9264		-58.593750
9265		-62.500000
9266		-58.593750
9267		-60.546875
9268		-56.640625
9269		-60.546875
9270		-56.640625
9271		-60.546875
9272		-56.640625
9273		-60.546875
9274		-56.640625
9275		-58.593750
9276		-54.687500
9277		-58.593750
9278		-54.687500
9279		-58.593750
9280		-54.687500
9281		-58.593750
9282		-52.734375
9283		-56.640625
9284		-54.687500
9285		-56.640625
9286		-52.734375
9287		-54.687500
9288		-52.734375
9289		-54.687500
9290		-50.781250
9291		-54.687500
9292		-50.781250
9293		-54.687500
9294		-50.781250
9295		-54.687500
9296		-50.781250
9297		-52.734375
9298		-48.828125
9299		-52.734375
9300		-48.828125
9301		-50.781250
9302		-48.828125
9303		-52.734375
9304		-46.875000
9305		-48.828125
9306		-46.875000
9307		-50.781250
9308		-44.921875
9309		-48.828125
9310		-44.921875
9311		-46.875000
9312		-42.968750
9313		-46.875000
9314		-42.968750
9315		-46.875000
9316		-42.968750
9317		-46.875000
9318		-42.968750
9319		-44.921875
9320		-41.015625
9321		-42.968750
9322		-41.015625
9323		-42.968750
9324		-39.062500
9325		-42.968750
9326		-39.062500
9327		-41.015625
9328		-39.062500
9329		-41.015625
9330		-37.109375
9331		-41.015625
9332		-35.156250
9333		-39.062500
9334		-35.156250
9335		-37.109375
9336		-33.203125
9337		-37.109375
9338		-33.203125
9339		-35.156250
9340		-33.203125
9341		-35.156250
9342		-31.250000
9343		-33.203125
9344		-31.250000
9345		-35.156250
9346		-29.296875
9347		-33.203125
9348		-29.296875
9349		-31.250000
9350		-27.343750
9351		-31.250000
9352		-27.343750
9353		-29.296875
9354		-25.390625
9355		-29.296875
9356		-25.390625
9357		-27.343750
9358		-23.437500
9359		-27.343750
9360		-23.437500
9361		-25.390625
9362		-21.484375
9363		-25.390625
9364		-19.531250
9365		-23.437500
9366		-19.531250
9367		-21.484375
9368		-19.531250
9369		-21.484375
9370		-17.578125
9371		-21.484375
9372		-17.578125
9373		-19.531250
9374		-15.625000
9375		-19.531250
9376		-15.625000
9377		-17.578125
9378		-13.671875
9379		-17.578125
9380		-11.718750
9381		-15.625000
9382		-11.718750
9383		-13.671875
9384		-9.765625
9385		-13.671875
9386		-9.765625
9387		-11.718750
9388		-7.812500
9389		-11.718750
9390		-7.812500
9391		-11.718750
9392		-5.859375
9393		-7.812500
9394		-5.859375
9395		-7.812500
9396		-3.906250
9397		-7.812500
9398		-3.906250
9399		-5.859375
9400		-1.953125
9401		-3.906250
9402		0.000000
9403		-3.906250
9404		0.000000
9405		-1.953125
9406		0.000000
9407		-1.953125
9408		1.953125
9409		0.000000
9410		1.953125
9411		0.000000
9412		3.906250
9413		1.953125
9414		5.859375
9415		1.953125
9416		5.859375
9417		3.906250
9418		7.812500
9419		3.906250
9420		7.812500
9421		5.859375
9422		9.765625
9423		5.859375
9424		9.765625
9425		7.812500
9426		11.718750
9427		9.765625
9428		11.718750
9429		9.765625
9430		13.671875
9431		11.718750
9432		15.625000
9433		11.718750
9434		15.625000
9435		11.718750
9436		15.625000
9437		13.671875
9438		17.578125
9439		15.625000
9440		17.578125
9441		15.625000
9442		19.531250
9443		15.625000
9444		19.531250
9445		17.578125
9446		21.484375
9447		17.578125
9448		23.437500
9449		19.531250
9450		23.437500
9451		21.484375
9452		23.437500
9453		21.484375
9454		25.390625
9455		21.484375
9456		25.390625
9457		23.437500
9458		27.343750
9459		25.390625
9460		27.343750
9461		25.390625
9462		29.296875
9463		25.390625
9464		29.296875
9465		27.343750
9466		29.296875
9467		27.343750
9468		31.250000
9469		27.343750
9470		31.250000
9471		29.296875
9472		33.203125
9473		31.250000
9474		33.203125
9475		31.250000
9476		37.109375
9477		33.203125
9478		35.156250
9479		33.203125
9480		37.109375
9481		33.203125
9482		37.109375
9483		35.156250
9484		39.062500
9485		35.156250
9486		39.062500
9487		35.156250
9488		39.062500
9489		37.109375
9490		41.015625
9491		37.109375
9492		42.968750
9493		39.062500
9494		41.015625
9495		39.062500
9496		42.968750
9497		39.062500
9498		44.921875
9499		41.015625
9500		44.921875
9501		41.015625
9502		44.921875
9503		41.015625
9504		46.875000
9505		42.968750
9506		46.875000
9507		42.968750
9508		48.828125
9509		42.968750
9510		46.875000
9511		44.921875
9512		48.828125
9513		44.921875
9514		48.828125
9515		44.921875
9516		48.828125
9517		46.875000
9518		50.781250
9519		46.875000
9520		50.781250
9521		48.828125
9522		50.781250
9523		48.828125
9524		52.734375
9525		48.828125
9526		52.734375
9527		48.828125
9528		52.734375
9529		50.781250
9530		52.734375
9531		50.781250
9532		54.687500
9533		50.781250
9534		54.687500
9535		50.781250
9536		54.687500
9537		50.781250
9538		56.640625
9539		52.734375
9540		54.687500
9541		52.734375
9542		56.640625
9543		52.734375
9544		56.640625
9545		54.687500
9546		56.640625
9547		52.734375
9548		58.593750
9549		54.687500
9550		58.593750
9551		54.687500
9552		58.593750
9553		54.687500
9554		58.593750
9555		54.687500
9556		58.593750
9557		56.640625
9558		58.593750
9559		56.640625
9560		58.593750
9561		56.640625
9562		60.546875
9563		56.640625
9564		60.546875
9565		56.640625
9566		60.546875
9567		56.640625
9568		60.546875
9569		56.640625
9570		60.546875
9571		56.640625
9572		60.546875
9573		58.593750
9574		60.546875
9575		56.640625
9576		62.500000
9577		58.593750
9578		62.500000
9579		58.593750
9580		60.546875
9581		58.593750
9582		62.500000
9583		56.640625
9584		62.500000
9585		58.593750
9586		62.500000
9587		58.593750
9588		62.500000
9589		58.593750
9590		62.500000
9591		58.593750
9592		62.500000
9593		58.593750
9594		62.500000
9595		58.593750
9596		62.500000
9597		58.593750
9598		62.500000
9599		58.593750
9600		62.500000
9601		58.593750
9602		62.500000
9603		58.593750
9604		62.500000
9605		58.593750
9606		62.500000
9607		58.593750
9608		62.500000
9609		58.593750
9610		62.500000
9611		58.593750
9612		60.546875
9613		56.640625
9614		60.546875
9615		58.593750
9616		60.546875
9617		56.640625
9618		60.546875
9619		56.640625
9620		60.546875
9621		56.640625
9622		60.546875
9623		56.640625
9624		60.546875
9625		56.640625
9626		60.546875
9627		56.640625
9628		58.593750
9629		56.640625
9630		58.593750
9631		54.687500
9632		58.593750
9633		54.687500
9634		58.593750
9635		54.687500
9636		58.593750
9637		54.687500
9638		58.593750
9639		54.687500
9640		58.593750
9641		54.687500
9642		56.640625
9643		52.734375
9644		56.640625
9645		52.734375
9646		54.687500
9647		50.781250
9648		56.640625
9649		52.734375
9650		54.687500
9651		50.781250
9652		54.687500
9653		50.781250
9654		54.687500
9655		50.781250
9656		54.687500
9657		50.781250
9658		52.734375
9659		48.828125
9660		54.687500
9661		48.828125
9662		52.734375
9663		48.828125
9664		50.781250
9665		46.875000
9666		52.734375
9667		46.875000
9668		50.781250
9669		44.921875
9670		50.781250
9671		44.921875
9672		48.828125
9673		44.921875
9674		48.828125
9675		42.968750
9676		48.828125
9677		42.968750
9678		48.828125
9679		42.968750
9680		46.875000
9681		42.968750
9682		46.875000
9683		41.015625
9684		44.921875
9685		41.015625
9686		44.921875
9687		41.015625
9688		42.968750
9689		39.062500
9690		42.968750
9691		37.109375
9692		42.968750
9693		39.062500
9694		41.015625
9695		37.109375
9696		41.015625
9697		35.156250
9698		41.015625
9699		35.156250
9700		39.062500
9701		35.156250
9702		37.109375
9703		33.203125
9704		37.109375
9705		33.203125
9706		35.156250
9707		31.250000
9708		35.156250
9709		31.250000
9710		35.156250
9711		31.250000
9712		33.203125
9713		29.296875
9714		33.203125
9715		29.296875
9716		33.203125
9717		27.343750
9718		31.250000
9719		27.343750
9720		31.250000
9721		25.390625
9722		29.296875
9723		25.390625
9724		27.343750
9725		23.437500
9726		27.343750
9727		23.437500
9728		27.343750
9729		21.484375
9730		25.390625
9731		21.484375
9732		25.390625
9733		19.531250
9734		23.437500
9735		19.531250
9736		21.484375
9737		17.578125
9738		21.484375
9739		17.578125
9740		19.531250
9741		15.625000
9742		19.531250
9743		13.671875
9744		17.578125
9745		13.671875
9746		17.578125
9747		13.671875
9748		15.625000
9749		11.718750
9750		15.625000
9751		9.765625
9752		13.671875
9753		7.812500
9754		13.671875
9755		7.812500
9756		11.718750
9757		7.812500
9758		11.718750
9759		5.859375
9760		9.765625
9761		5.859375
9762		9.765625
9763		3.906250
9764		7.812500
9765		1.953125
9766		7.812500
9767		1.953125
9768		5.859375
9769		0.000000
9770		5.859375
9771		0.000000
9772		3.906250
9773		-1.953125
9774		1.953125
9775		-1.953125
9776		1.953125
9777		-3.906250
9778		0.000000
9779		-3.906250
9780		-1.953125
9781		-5.859375
9782		-1.953125
9783		-5.859375
9784		-1.953125
9785		-7.812500
9786		-3.906250
9787		-9.765625
9788		-3.906250
9789		-9.765625
9790		-5.859375
9791		-11.718750
9792		-7.812500
9793		-13.671875
9794		-7.812500
9795		-13.671875
9796		-9.765625
9797		-13.671875
9798		-11.718750
9799		-15.625000
9800		-11.718750
9801		-17.578125
9802		-11.718750
9803		-17.578125
9804		-13.671875
9805		-19.531250
9806		-15.625000
9807		-19.531250
9808		-15.625000
9809		-21.484375
9810		-15.625000
9811		-21.484375
9812		-17.578125
9813		-23.437500
9814		-17.578125
9815		-25.390625
9816		-21.484375
9817		-25.390625
9818		-19.531250
9819		-25.390625
9820		-21.484375
9821		-27.343750
9822		-23.437500
9823		-29.296875
9824		-23.437500
9825		-31.250000
9826		-25.390625
9827		-29.296875
9828		-25.390625
9829		-31.250000
9830		-27.343750
9831		-31.250000
9832		-29.296875
9833		-35.156250
9834		-29.296875
9835		-35.156250
9836		-29.296875
9837		-35.156250
9838		-29.296875
9839		-37.109375
9840		-31.250000
9841		-39.062500
9842		-31.250000
9843		-39.062500
9844		-33.203125
9845		-39.062500
9846		-35.156250
9847		-39.062500
9848		-37.109375
9849		-42.968750
9850		-37.109375
9851		-42.968750
9852		-37.109375
9853		-42.968750
9854		-37.109375
9855		-44.921875
9856		-37.109375
9857		-44.921875
9858		-39.062500
9859		-46.875000
9860		-39.062500
9861		-46.875000
9862		-41.015625
9863		-46.875000
9864		-42.968750
9865		-46.875000
9866		-42.968750
9867		-48.828125
9868		-42.968750
9869		-50.781250
9870		-44.921875
9871		-50.781250
9872		-44.921875
9873		-50.781250
9874		-44.921875
9875		-52.734375
9876		-46.875000
9877		-52.734375
9878		-46.875000
9879		-50.781250
9880		-48.828125
9881		-52.734375
9882		-48.828125
9883		-54.687500
9884		-48.828125
9885		-56.640625
9886		-48.828125
9887		-56.640625
9888		-50.781250
9889		-56.640625
9890		-50.781250
9891		-58.593750
9892		-52.734375
9893		-58.593750
9894		-50.781250
9895		-58.593750
9896		-52.734375
9897		-58.593750
9898		-54.687500
9899		-58.593750
9900		-54.687500
9901		-60.546875
9902		-54.687500
9903		-62.500000
9904		-54.687500
9905		-62.500000
9906		-54.687500
9907		-62.500000
9908		-54.687500
9909		-62.500000
9910		-56.640625
9911		-60.546875
9912		-56.640625
9913		-62.500000
9914		-58.593750
9915		-62.500000
9916		-58.593750
9917		-62.500000
9918		-58.593750
9919		-64.453125
9920		-58.593750
9921		-64.453125
9922		-58.593750
9923		-66.406250
9924		-58.593750
9925		-64.453125
9926		-60.546875
9927		-66.406250
9928		-60.546875
9929		-66.406250
9930		-60.546875
9931		-64.453125
9932		-62.500000
9933		-66.406250
9934		-60.546875
9935		-66.406250
9936		-60.546875
9937		-66.406250
9938		-60.546875
9939		-66.406250
9940		-60.546875
9941		-68.359375
9942		-60.546875
9943		-66.406250
9944		-60.546875
9945		-68.359375
9946		-60.546875
9947		-66.406250
9948		-64.453125
9949		-66.406250
9950		-62.500000
9951		-68.359375
9952		-62.500000
9953		-68.359375
9954		-60.546875
9955		-68.359375
9956		-62.500000
9957		-68.359375
9958		-60.546875
9959		-68.359375
9960		-60.546875
9961		-68.359375
9962		-62.500000
9963		-68.359375
9964		-62.500000
9965		-66.406250
9966		-64.453125
9967		-66.406250
9968		-62.500000
9969		-68.359375
9970		-60.546875
9971		-68.359375
9972		-60.546875
9973		-68.359375
9974		-60.546875
9975		-68.359375
9976		-60.546875
9977		-66.406250
9978		-60.546875
9979		-66.406250
9980		-60.546875
9981		-64.453125
9982		-62.500000
9983		-64.453125
9984		-60.546875
9985		-66.406250
9986		-58.593750
9987		-66.406250
9988		-58.593750
9989		-66.406250
9990		-58.593750
9991		-66.406250
9992		-58.593750
9993		-66.406250
9994		-58.593750
9995		-64.453125
9996		-58.593750
9997		-62.500000
9998		-60.546875
9999		-62.500000
10000		-58.593750
