Channel              :		CH1
Frequency            :		681.2Hz
Period               :		1.468ms
PK-PK                :		140.6mV
Probe attenuation    :		1X
Voltage per ADC value:		0.122070mV
Time interval        :		2.00000us

index		CH1_Voltage(mV)
1		58.593750
2		58.593750
3		54.687500
4		58.593750
5		54.687500
6		58.593750
7		56.640625
8		58.593750
9		56.640625
10		58.593750
11		56.640625
12		60.546875
13		56.640625
14		60.546875
15		56.640625
16		60.546875
17		56.640625
18		60.546875
19		58.593750
20		62.500000
21		58.593750
22		62.500000
23		58.593750
24		62.500000
25		58.593750
26		62.500000
27		58.593750
28		62.500000
29		58.593750
30		62.500000
31		58.593750
32		62.500000
33		58.593750
34		62.500000
35		60.546875
36		62.500000
37		58.593750
38		64.453125
39		60.546875
40		62.500000
41		58.593750
42		64.453125
43		60.546875
44		62.500000
45		60.546875
46		64.453125
47		60.546875
48		64.453125
49		60.546875
50		62.500000
51		58.593750
52		64.453125
53		60.546875
54		64.453125
55		60.546875
56		62.500000
57		60.546875
58		64.453125
59		60.546875
60		64.453125
61		60.546875
62		64.453125
63		58.593750
64		64.453125
65		60.546875
66		62.500000
67		58.593750
68		64.453125
69		58.593750
70		62.500000
71		58.593750
72		62.500000
73		58.593750
74		62.500000
75		58.593750
76		62.500000
77		58.593750
78		62.500000
79		58.593750
80		62.500000
81		58.593750
82		62.500000
83		58.593750
84		60.546875
85		56.640625
86		62.500000
87		58.593750
88		60.546875
89		56.640625
90		60.546875
91		56.640625
92		60.546875
93		56.640625
94		60.546875
95		56.640625
96		60.546875
97		54.687500
98		60.546875
99		56.640625
100		58.593750
101		54.687500
102		58.593750
103		54.687500
104		58.593750
105		54.687500
106		56.640625
107		52.734375
108		58.593750
109		52.734375
110		56.640625
111		52.734375
112		56.640625
113		52.734375
114		56.640625
115		52.734375
116		54.687500
117		50.781250
118		54.687500
119		50.781250
120		54.687500
121		50.781250
122		54.687500
123		48.828125
124		52.734375
125		48.828125
126		52.734375
127		48.828125
128		50.781250
129		46.875000
130		50.781250
131		46.875000
132		50.781250
133		46.875000
134		48.828125
135		44.921875
136		48.828125
137		44.921875
138		48.828125
139		44.921875
140		46.875000
141		42.968750
142		46.875000
143		42.968750
144		46.875000
145		41.015625
146		46.875000
147		41.015625
148		44.921875
149		41.015625
150		44.921875
151		39.062500
152		42.968750
153		39.062500
154		42.968750
155		39.062500
156		42.968750
157		37.109375
158		41.015625
159		37.109375
160		41.015625
161		35.156250
162		39.062500
163		35.156250
164		39.062500
165		33.203125
166		37.109375
167		33.203125
168		37.109375
169		31.250000
170		37.109375
171		31.250000
172		35.156250
173		29.296875
174		33.203125
175		29.296875
176		33.203125
177		27.343750
178		33.203125
179		27.343750
180		31.250000
181		25.390625
182		31.250000
183		25.390625
184		29.296875
185		23.437500
186		29.296875
187		23.437500
188		27.343750
189		23.437500
190		25.390625
191		21.484375
192		25.390625
193		19.531250
194		23.437500
195		19.531250
196		23.437500
197		17.578125
198		23.437500
199		17.578125
200		21.484375
201		15.625000
202		21.484375
203		15.625000
204		19.531250
205		13.671875
206		17.578125
207		13.671875
208		17.578125
209		11.718750
210		15.625000
211		9.765625
212		13.671875
213		9.765625
214		13.671875
215		9.765625
216		13.671875
217		7.812500
218		11.718750
219		5.859375
220		11.718750
221		5.859375
222		9.765625
223		3.906250
224		9.765625
225		3.906250
226		7.812500
227		1.953125
228		7.812500
229		1.953125
230		5.859375
231		0.000000
232		3.906250
233		0.000000
234		3.906250
235		-1.953125
236		1.953125
237		-3.906250
238		0.000000
239		-3.906250
240		0.000000
241		-5.859375
242		-1.953125
243		-5.859375
244		-3.906250
245		-7.812500
246		-3.906250
247		-9.765625
248		-3.906250
249		-9.765625
250		-5.859375
251		-11.718750
252		-7.812500
253		-11.718750
254		-7.812500
255		-13.671875
256		-9.765625
257		-15.625000
258		-9.765625
259		-15.625000
260		-11.718750
261		-15.625000
262		-13.671875
263		-17.578125
264		-13.671875
265		-17.578125
266		-15.625000
267		-19.531250
268		-15.625000
269		-21.484375
270		-15.625000
271		-21.484375
272		-17.578125
273		-23.437500
274		-19.531250
275		-23.437500
276		-21.484375
277		-25.390625
278		-21.484375
279		-25.390625
280		-21.484375
281		-27.343750
282		-23.437500
283		-29.296875
284		-25.390625
285		-29.296875
286		-25.390625
287		-29.296875
288		-25.390625
289		-31.250000
290		-27.343750
291		-33.203125
292		-29.296875
293		-33.203125
294		-29.296875
295		-35.156250
296		-29.296875
297		-35.156250
298		-31.250000
299		-35.156250
300		-33.203125
301		-37.109375
302		-33.203125
303		-39.062500
304		-33.203125
305		-39.062500
306		-35.156250
307		-41.015625
308		-37.109375
309		-41.015625
310		-37.109375
311		-42.968750
312		-39.062500
313		-42.968750
314		-39.062500
315		-44.921875
316		-39.062500
317		-44.921875
318		-41.015625
319		-44.921875
320		-42.968750
321		-46.875000
322		-42.968750
323		-46.875000
324		-42.968750
325		-48.828125
326		-44.921875
327		-48.828125
328		-44.921875
329		-50.781250
330		-46.875000
331		-50.781250
332		-46.875000
333		-52.734375
334		-48.828125
335		-52.734375
336		-48.828125
337		-54.687500
338		-48.828125
339		-54.687500
340		-48.828125
341		-54.687500
342		-50.781250
343		-54.687500
344		-52.734375
345		-56.640625
346		-50.781250
347		-56.640625
348		-52.734375
349		-56.640625
350		-52.734375
351		-56.640625
352		-54.687500
353		-58.593750
354		-54.687500
355		-60.546875
356		-54.687500
357		-60.546875
358		-56.640625
359		-60.546875
360		-56.640625
361		-60.546875
362		-56.640625
363		-62.500000
364		-58.593750
365		-62.500000
366		-56.640625
367		-62.500000
368		-58.593750
369		-62.500000
370		-60.546875
371		-64.453125
372		-60.546875
373		-64.453125
374		-60.546875
375		-64.453125
376		-60.546875
377		-64.453125
378		-60.546875
379		-64.453125
380		-62.500000
381		-66.406250
382		-62.500000
383		-66.406250
384		-62.500000
385		-66.406250
386		-62.500000
387		-66.406250
388		-62.500000
389		-66.406250
390		-62.500000
391		-68.359375
392		-62.500000
393		-68.359375
394		-64.453125
395		-68.359375
396		-64.453125
397		-68.359375
398		-64.453125
399		-68.359375
400		-64.453125
401		-68.359375
402		-64.453125
403		-68.359375
404		-64.453125
405		-68.359375
406		-64.453125
407		-68.359375
408		-66.406250
409		-70.312500
410		-64.453125
411		-68.359375
412		-66.406250
413		-68.359375
414		-66.406250
415		-68.359375
416		-66.406250
417		-68.359375
418		-66.406250
419		-68.359375
420		-66.406250
421		-68.359375
422		-66.406250
423		-68.359375
424		-66.406250
425		-70.312500
426		-64.453125
427		-68.359375
428		-66.406250
429		-68.359375
430		-66.406250
431		-68.359375
432		-64.453125
433		-68.359375
434		-64.453125
435		-68.359375
436		-64.453125
437		-68.359375
438		-64.453125
439		-68.359375
440		-64.453125
441		-68.359375
442		-64.453125
443		-68.359375
444		-64.453125
445		-68.359375
446		-62.500000
447		-66.406250
448		-62.500000
449		-66.406250
450		-62.500000
451		-66.406250
452		-62.500000
453		-68.359375
454		-60.546875
455		-66.406250
456		-62.500000
457		-64.453125
458		-62.500000
459		-66.406250
460		-60.546875
461		-64.453125
462		-60.546875
463		-64.453125
464		-60.546875
465		-64.453125
466		-58.593750
467		-64.453125
468		-60.546875
469		-62.500000
470		-60.546875
471		-62.500000
472		-58.593750
473		-62.500000
474		-58.593750
475		-62.500000
476		-56.640625
477		-60.546875
478		-56.640625
479		-60.546875
480		-56.640625
481		-60.546875
482		-56.640625
483		-58.593750
484		-54.687500
485		-58.593750
486		-54.687500
487		-56.640625
488		-52.734375
489		-56.640625
490		-52.734375
491		-56.640625
492		-52.734375
493		-54.687500
494		-50.781250
495		-54.687500
496		-50.781250
497		-54.687500
498		-50.781250
499		-52.734375
500		-48.828125
501		-52.734375
502		-48.828125
503		-50.781250
504		-48.828125
505		-50.781250
506		-46.875000
507		-50.781250
508		-46.875000
509		-48.828125
510		-44.921875
511		-48.828125
512		-44.921875
513		-46.875000
514		-42.968750
515		-46.875000
516		-42.968750
517		-44.921875
518		-42.968750
519		-44.921875
520		-41.015625
521		-44.921875
522		-41.015625
523		-42.968750
524		-39.062500
525		-42.968750
526		-39.062500
527		-41.015625
528		-37.109375
529		-41.015625
530		-37.109375
531		-39.062500
532		-35.156250
533		-39.062500
534		-35.156250
535		-37.109375
536		-33.203125
537		-37.109375
538		-31.250000
539		-35.156250
540		-31.250000
541		-33.203125
542		-31.250000
543		-33.203125
544		-27.343750
545		-33.203125
546		-29.296875
547		-31.250000
548		-27.343750
549		-29.296875
550		-27.343750
551		-29.296875
552		-25.390625
553		-27.343750
554		-25.390625
555		-27.343750
556		-23.437500
557		-25.390625
558		-21.484375
559		-25.390625
560		-21.484375
561		-23.437500
562		-19.531250
563		-23.437500
564		-19.531250
565		-21.484375
566		-17.578125
567		-21.484375
568		-15.625000
569		-19.531250
570		-15.625000
571		-17.578125
572		-13.671875
573		-17.578125
574		-13.671875
575		-15.625000
576		-11.718750
577		-15.625000
578		-11.718750
579		-13.671875
580		-9.765625
581		-11.718750
582		-7.812500
583		-11.718750
584		-7.812500
585		-9.765625
586		-5.859375
587		-9.765625
588		-5.859375
589		-9.765625
590		-3.906250
591		-7.812500
592		-3.906250
593		-5.859375
594		-1.953125
595		-3.906250
596		-1.953125
597		-3.906250
598		0.000000
599		-1.953125
600		1.953125
601		-1.953125
602		1.953125
603		0.000000
604		3.906250
605		0.000000
606		5.859375
607		1.953125
608		5.859375
609		3.906250
610		7.812500
611		3.906250
612		7.812500
613		3.906250
614		9.765625
615		5.859375
616		9.765625
617		7.812500
618		11.718750
619		7.812500
620		11.718750
621		9.765625
622		13.671875
623		11.718750
624		13.671875
625		11.718750
626		15.625000
627		11.718750
628		17.578125
629		13.671875
630		17.578125
631		15.625000
632		19.531250
633		15.625000
634		19.531250
635		15.625000
636		21.484375
637		17.578125
638		21.484375
639		19.531250
640		23.437500
641		19.531250
642		23.437500
643		21.484375
644		25.390625
645		21.484375
646		25.390625
647		23.437500
648		27.343750
649		23.437500
650		27.343750
651		25.390625
652		29.296875
653		25.390625
654		29.296875
655		27.343750
656		31.250000
657		27.343750
658		31.250000
659		29.296875
660		33.203125
661		29.296875
662		33.203125
663		31.250000
664		35.156250
665		31.250000
666		35.156250
667		33.203125
668		37.109375
669		33.203125
670		37.109375
671		35.156250
672		37.109375
673		35.156250
674		39.062500
675		35.156250
676		41.015625
677		37.109375
678		41.015625
679		37.109375
680		41.015625
681		39.062500
682		42.968750
683		39.062500
684		42.968750
685		39.062500
686		44.921875
687		41.015625
688		44.921875
689		41.015625
690		44.921875
691		42.968750
692		46.875000
693		42.968750
694		46.875000
695		42.968750
696		46.875000
697		44.921875
698		48.828125
699		44.921875
700		48.828125
701		44.921875
702		50.781250
703		46.875000
704		50.781250
705		46.875000
706		50.781250
707		46.875000
708		50.781250
709		48.828125
710		52.734375
711		48.828125
712		52.734375
713		48.828125
714		52.734375
715		50.781250
716		52.734375
717		50.781250
718		54.687500
719		50.781250
720		54.687500
721		50.781250
722		54.687500
723		52.734375
724		56.640625
725		52.734375
726		56.640625
727		52.734375
728		56.640625
729		54.687500
730		58.593750
731		54.687500
732		58.593750
733		54.687500
734		58.593750
735		54.687500
736		58.593750
737		56.640625
738		58.593750
739		54.687500
740		60.546875
741		56.640625
742		60.546875
743		56.640625
744		60.546875
745		56.640625
746		60.546875
747		56.640625
748		60.546875
749		58.593750
750		62.500000
751		58.593750
752		62.500000
753		58.593750
754		62.500000
755		58.593750
756		62.500000
757		58.593750
758		62.500000
759		58.593750
760		62.500000
761		58.593750
762		62.500000
763		58.593750
764		62.500000
765		60.546875
766		64.453125
767		60.546875
768		62.500000
769		60.546875
770		62.500000
771		60.546875
772		64.453125
773		60.546875
774		64.453125
775		60.546875
776		64.453125
777		60.546875
778		64.453125
779		60.546875
780		64.453125
781		60.546875
782		64.453125
783		60.546875
784		64.453125
785		60.546875
786		64.453125
787		60.546875
788		64.453125
789		60.546875
790		64.453125
791		60.546875
792		64.453125
793		60.546875
794		64.453125
795		60.546875
796		64.453125
797		60.546875
798		64.453125
799		60.546875
800		64.453125
801		58.593750
802		62.500000
803		60.546875
804		64.453125
805		60.546875
806		62.500000
807		58.593750
808		64.453125
809		60.546875
810		62.500000
811		58.593750
812		62.500000
813		58.593750
814		62.500000
815		58.593750
816		62.500000
817		58.593750
818		62.500000
819		56.640625
820		62.500000
821		58.593750
822		60.546875
823		56.640625
824		62.500000
825		56.640625
826		60.546875
827		56.640625
828		60.546875
829		56.640625
830		60.546875
831		56.640625
832		58.593750
833		54.687500
834		60.546875
835		54.687500
836		58.593750
837		54.687500
838		58.593750
839		54.687500
840		58.593750
841		54.687500
842		56.640625
843		52.734375
844		56.640625
845		52.734375
846		56.640625
847		52.734375
848		56.640625
849		52.734375
850		56.640625
851		50.781250
852		54.687500
853		50.781250
854		54.687500
855		50.781250
856		52.734375
857		48.828125
858		52.734375
859		48.828125
860		52.734375
861		48.828125
862		52.734375
863		46.875000
864		50.781250
865		44.921875
866		52.734375
867		44.921875
868		50.781250
869		42.968750
870		50.781250
871		44.921875
872		48.828125
873		42.968750
874		48.828125
875		42.968750
876		46.875000
877		42.968750
878		46.875000
879		41.015625
880		46.875000
881		41.015625
882		44.921875
883		39.062500
884		44.921875
885		39.062500
886		44.921875
887		39.062500
888		42.968750
889		37.109375
890		42.968750
891		37.109375
892		42.968750
893		35.156250
894		41.015625
895		33.203125
896		41.015625
897		33.203125
898		41.015625
899		33.203125
900		39.062500
901		31.250000
902		39.062500
903		31.250000
904		37.109375
905		31.250000
906		35.156250
907		29.296875
908		35.156250
909		29.296875
910		35.156250
911		25.390625
912		33.203125
913		27.343750
914		31.250000
915		25.390625
916		31.250000
917		23.437500
918		29.296875
919		23.437500
920		29.296875
921		23.437500
922		27.343750
923		23.437500
924		27.343750
925		19.531250
926		25.390625
927		19.531250
928		25.390625
929		17.578125
930		25.390625
931		17.578125
932		23.437500
933		15.625000
934		23.437500
935		15.625000
936		21.484375
937		15.625000
938		19.531250
939		15.625000
940		17.578125
941		11.718750
942		17.578125
943		11.718750
944		17.578125
945		9.765625
946		15.625000
947		7.812500
948		15.625000
949		7.812500
950		13.671875
951		5.859375
952		13.671875
953		5.859375
954		11.718750
955		5.859375
956		9.765625
957		5.859375
958		9.765625
959		1.953125
960		7.812500
961		1.953125
962		7.812500
963		0.000000
964		5.859375
965		-1.953125
966		5.859375
967		-1.953125
968		3.906250
969		-3.906250
970		3.906250
971		-3.906250
972		1.953125
973		-3.906250
974		0.000000
975		-7.812500
976		0.000000
977		-7.812500
978		-1.953125
979		-9.765625
980		-1.953125
981		-9.765625
982		-3.906250
983		-11.718750
984		-3.906250
985		-13.671875
986		-5.859375
987		-13.671875
988		-7.812500
989		-13.671875
990		-9.765625
991		-13.671875
992		-9.765625
993		-17.578125
994		-9.765625
995		-17.578125
996		-9.765625
997		-17.578125
998		-11.718750
999		-19.531250
1000		-13.671875
1001		-21.484375
1002		-15.625000
1003		-21.484375
1004		-15.625000
1005		-21.484375
1006		-17.578125
1007		-23.437500
1008		-19.531250
1009		-25.390625
1010		-19.531250
1011		-27.343750
1012		-19.531250
1013		-27.343750
1014		-21.484375
1015		-29.296875
1016		-21.484375
1017		-31.250000
1018		-23.437500
1019		-31.250000
1020		-23.437500
1021		-31.250000
1022		-25.390625
1023		-31.250000
1024		-27.343750
1025		-33.203125
1026		-27.343750
1027		-35.156250
1028		-27.343750
1029		-37.109375
1030		-29.296875
1031		-37.109375
1032		-31.250000
1033		-39.062500
1034		-31.250000
1035		-39.062500
1036		-31.250000
1037		-41.015625
1038		-33.203125
1039		-39.062500
1040		-35.156250
1041		-39.062500
1042		-37.109375
1043		-42.968750
1044		-35.156250
1045		-42.968750
1046		-37.109375
1047		-44.921875
1048		-37.109375
1049		-44.921875
1050		-39.062500
1051		-46.875000
1052		-39.062500
1053		-46.875000
1054		-41.015625
1055		-48.828125
1056		-41.015625
1057		-46.875000
1058		-44.921875
1059		-48.828125
1060		-42.968750
1061		-50.781250
1062		-44.921875
1063		-52.734375
1064		-44.921875
1065		-52.734375
1066		-44.921875
1067		-52.734375
1068		-44.921875
1069		-52.734375
1070		-46.875000
1071		-54.687500
1072		-46.875000
1073		-54.687500
1074		-50.781250
1075		-54.687500
1076		-50.781250
1077		-56.640625
1078		-50.781250
1079		-56.640625
1080		-50.781250
1081		-58.593750
1082		-50.781250
1083		-58.593750
1084		-52.734375
1085		-60.546875
1086		-52.734375
1087		-60.546875
1088		-52.734375
1089		-58.593750
1090		-54.687500
1091		-58.593750
1092		-56.640625
1093		-62.500000
1094		-54.687500
1095		-62.500000
1096		-54.687500
1097		-60.546875
1098		-56.640625
1099		-62.500000
1100		-56.640625
1101		-64.453125
1102		-56.640625
1103		-64.453125
1104		-56.640625
1105		-64.453125
1106		-58.593750
1107		-62.500000
1108		-60.546875
1109		-64.453125
1110		-60.546875
1111		-64.453125
1112		-60.546875
1113		-66.406250
1114		-60.546875
1115		-66.406250
1116		-60.546875
1117		-66.406250
1118		-60.546875
1119		-66.406250
1120		-62.500000
1121		-66.406250
1122		-62.500000
1123		-66.406250
1124		-64.453125
1125		-66.406250
1126		-64.453125
1127		-68.359375
1128		-62.500000
1129		-70.312500
1130		-62.500000
1131		-70.312500
1132		-62.500000
1133		-70.312500
1134		-62.500000
1135		-70.312500
1136		-62.500000
1137		-70.312500
1138		-62.500000
1139		-70.312500
1140		-62.500000
1141		-68.359375
1142		-64.453125
1143		-70.312500
1144		-64.453125
1145		-70.312500
1146		-64.453125
1147		-70.312500
1148		-64.453125
1149		-72.265625
1150		-62.500000
1151		-70.312500
1152		-62.500000
1153		-70.312500
1154		-64.453125
1155		-70.312500
1156		-64.453125
1157		-68.359375
1158		-66.406250
1159		-68.359375
1160		-64.453125
1161		-70.312500
1162		-64.453125
1163		-70.312500
1164		-64.453125
1165		-70.312500
1166		-64.453125
1167		-70.312500
1168		-64.453125
1169		-70.312500
1170		-62.500000
1171		-70.312500
1172		-62.500000
1173		-68.359375
1174		-62.500000
1175		-68.359375
1176		-64.453125
1177		-68.359375
1178		-62.500000
1179		-68.359375
1180		-62.500000
1181		-68.359375
1182		-62.500000
1183		-68.359375
1184		-62.500000
1185		-68.359375
1186		-60.546875
1187		-66.406250
1188		-60.546875
1189		-66.406250
1190		-60.546875
1191		-64.453125
1192		-60.546875
1193		-64.453125
1194		-60.546875
1195		-66.406250
1196		-58.593750
1197		-66.406250
1198		-58.593750
1199		-64.453125
1200		-58.593750
1201		-64.453125
1202		-58.593750
1203		-64.453125
1204		-56.640625
1205		-64.453125
1206		-56.640625
1207		-60.546875
1208		-56.640625
1209		-60.546875
1210		-58.593750
1211		-62.500000
1212		-54.687500
1213		-62.500000
1214		-54.687500
1215		-60.546875
1216		-54.687500
1217		-60.546875
1218		-52.734375
1219		-58.593750
1220		-52.734375
1221		-58.593750
1222		-52.734375
1223		-58.593750
1224		-50.781250
1225		-56.640625
1226		-52.734375
1227		-54.687500
1228		-50.781250
1229		-56.640625
1230		-48.828125
1231		-56.640625
1232		-48.828125
1233		-54.687500
1234		-46.875000
1235		-52.734375
1236		-46.875000
1237		-52.734375
1238		-46.875000
1239		-52.734375
1240		-46.875000
1241		-50.781250
1242		-46.875000
1243		-48.828125
1244		-44.921875
1245		-48.828125
1246		-42.968750
1247		-48.828125
1248		-42.968750
1249		-48.828125
1250		-41.015625
1251		-48.828125
1252		-41.015625
1253		-46.875000
1254		-39.062500
1255		-44.921875
1256		-39.062500
1257		-44.921875
1258		-39.062500
1259		-41.015625
1260		-39.062500
1261		-42.968750
1262		-35.156250
1263		-41.015625
1264		-35.156250
1265		-41.015625
1266		-33.203125
1267		-41.015625
1268		-33.203125
1269		-39.062500
1270		-31.250000
1271		-37.109375
1272		-31.250000
1273		-35.156250
1274		-29.296875
1275		-33.203125
1276		-29.296875
1277		-33.203125
1278		-29.296875
1279		-33.203125
1280		-27.343750
1281		-33.203125
1282		-25.390625
1283		-29.296875
1284		-23.437500
1285		-31.250000
1286		-23.437500
1287		-29.296875
1288		-21.484375
1289		-27.343750
1290		-21.484375
1291		-25.390625
1292		-23.437500
1293		-23.437500
1294		-21.484375
1295		-25.390625
1296		-17.578125
1297		-25.390625
1298		-17.578125
1299		-23.437500
1300		-15.625000
1301		-21.484375
1302		-15.625000
1303		-19.531250
1304		-13.671875
1305		-19.531250
1306		-13.671875
1307		-19.531250
1308		-11.718750
1309		-15.625000
1310		-11.718750
1311		-15.625000
1312		-9.765625
1313		-13.671875
1314		-7.812500
1315		-13.671875
1316		-5.859375
1317		-13.671875
1318		-5.859375
1319		-11.718750
1320		-5.859375
1321		-9.765625
1322		-3.906250
1323		-9.765625
1324		-1.953125
1325		-5.859375
1326		-3.906250
1327		-5.859375
1328		-1.953125
1329		-5.859375
1330		0.000000
1331		-3.906250
1332		1.953125
1333		-3.906250
1334		1.953125
1335		-1.953125
1336		3.906250
1337		-1.953125
1338		5.859375
1339		0.000000
1340		7.812500
1341		0.000000
1342		7.812500
1343		3.906250
1344		7.812500
1345		3.906250
1346		9.765625
1347		3.906250
1348		11.718750
1349		5.859375
1350		11.718750
1351		7.812500
1352		13.671875
1353		7.812500
1354		13.671875
1355		7.812500
1356		15.625000
1357		9.765625
1358		15.625000
1359		11.718750
1360		15.625000
1361		13.671875
1362		17.578125
1363		11.718750
1364		19.531250
1365		13.671875
1366		19.531250
1367		15.625000
1368		21.484375
1369		15.625000
1370		21.484375
1371		17.578125
1372		23.437500
1373		17.578125
1374		25.390625
1375		21.484375
1376		23.437500
1377		21.484375
1378		25.390625
1379		21.484375
1380		29.296875
1381		21.484375
1382		29.296875
1383		23.437500
1384		29.296875
1385		23.437500
1386		31.250000
1387		25.390625
1388		33.203125
1389		27.343750
1390		33.203125
1391		27.343750
1392		33.203125
1393		29.296875
1394		33.203125
1395		31.250000
1396		35.156250
1397		31.250000
1398		37.109375
1399		31.250000
1400		37.109375
1401		31.250000
1402		39.062500
1403		33.203125
1404		39.062500
1405		33.203125
1406		41.015625
1407		35.156250
1408		41.015625
1409		37.109375
1410		41.015625
1411		37.109375
1412		41.015625
1413		37.109375
1414		44.921875
1415		39.062500
1416		44.921875
1417		39.062500
1418		44.921875
1419		39.062500
1420		44.921875
1421		39.062500
1422		46.875000
1423		41.015625
1424		46.875000
1425		42.968750
1426		46.875000
1427		42.968750
1428		48.828125
1429		42.968750
1430		50.781250
1431		42.968750
1432		50.781250
1433		42.968750
1434		50.781250
1435		44.921875
1436		52.734375
1437		46.875000
1438		52.734375
1439		46.875000
1440		52.734375
1441		46.875000
1442		52.734375
1443		50.781250
1444		52.734375
1445		48.828125
1446		54.687500
1447		48.828125
1448		56.640625
1449		48.828125
1450		56.640625
1451		48.828125
1452		56.640625
1453		50.781250
1454		56.640625
1455		52.734375
1456		58.593750
1457		52.734375
1458		58.593750
1459		54.687500
1460		56.640625
1461		54.687500
1462		56.640625
1463		52.734375
1464		60.546875
1465		54.687500
1466		60.546875
1467		54.687500
1468		60.546875
1469		54.687500
1470		60.546875
1471		54.687500
1472		62.500000
1473		54.687500
1474		62.500000
1475		56.640625
1476		62.500000
1477		58.593750
1478		60.546875
1479		56.640625
1480		62.500000
1481		56.640625
1482		64.453125
1483		58.593750
1484		62.500000
1485		58.593750
1486		64.453125
1487		56.640625
1488		64.453125
1489		58.593750
1490		64.453125
1491		58.593750
1492		64.453125
1493		60.546875
1494		62.500000
1495		60.546875
1496		62.500000
1497		58.593750
1498		64.453125
1499		58.593750
1500		66.406250
1501		58.593750
1502		64.453125
1503		58.593750
1504		66.406250
1505		58.593750
1506		66.406250
1507		60.546875
1508		66.406250
1509		58.593750
1510		66.406250
1511		60.546875
1512		64.453125
1513		58.593750
1514		66.406250
1515		60.546875
1516		66.406250
1517		58.593750
1518		66.406250
1519		58.593750
1520		66.406250
1521		58.593750
1522		66.406250
1523		58.593750
1524		66.406250
1525		58.593750
1526		66.406250
1527		60.546875
1528		64.453125
1529		60.546875
1530		64.453125
1531		58.593750
1532		66.406250
1533		58.593750
1534		64.453125
1535		58.593750
1536		64.453125
1537		58.593750
1538		66.406250
1539		58.593750
1540		64.453125
1541		58.593750
1542		64.453125
1543		60.546875
1544		62.500000
1545		58.593750
1546		62.500000
1547		56.640625
1548		64.453125
1549		56.640625
1550		64.453125
1551		56.640625
1552		62.500000
1553		56.640625
1554		64.453125
1555		56.640625
1556		62.500000
1557		54.687500
1558		62.500000
1559		56.640625
1560		62.500000
1561		56.640625
1562		60.546875
1563		54.687500
1564		60.546875
1565		54.687500
1566		60.546875
1567		54.687500
1568		60.546875
1569		52.734375
1570		60.546875
1571		52.734375
1572		58.593750
1573		52.734375
1574		58.593750
1575		52.734375
1576		58.593750
1577		52.734375
1578		56.640625
1579		52.734375
1580		56.640625
1581		50.781250
1582		56.640625
1583		50.781250
1584		56.640625
1585		48.828125
1586		56.640625
1587		48.828125
1588		56.640625
1589		46.875000
1590		54.687500
1591		46.875000
1592		52.734375
1593		46.875000
1594		52.734375
1595		48.828125
1596		50.781250
1597		44.921875
1598		52.734375
1599		44.921875
1600		50.781250
1601		44.921875
1602		50.781250
1603		42.968750
1604		50.781250
1605		42.968750
1606		48.828125
1607		42.968750
1608		48.828125
1609		41.015625
1610		48.828125
1611		42.968750
1612		44.921875
1613		41.015625
1614		44.921875
1615		39.062500
1616		44.921875
1617		37.109375
1618		44.921875
1619		37.109375
1620		44.921875
1621		35.156250
1622		42.968750
1623		37.109375
1624		42.968750
1625		35.156250
1626		41.015625
1627		35.156250
1628		39.062500
1629		35.156250
1630		37.109375
1631		33.203125
1632		39.062500
1633		31.250000
1634		39.062500
1635		31.250000
1636		37.109375
1637		29.296875
1638		37.109375
1639		27.343750
1640		35.156250
1641		27.343750
1642		33.203125
1643		27.343750
1644		33.203125
1645		27.343750
1646		31.250000
1647		25.390625
1648		31.250000
1649		23.437500
1650		31.250000
1651		23.437500
1652		31.250000
1653		21.484375
1654		29.296875
1655		21.484375
1656		29.296875
1657		19.531250
1658		27.343750
1659		19.531250
1660		27.343750
1661		19.531250
1662		23.437500
1663		17.578125
1664		23.437500
1665		15.625000
1666		21.484375
1667		15.625000
1668		21.484375
1669		13.671875
1670		19.531250
1671		13.671875
1672		19.531250
1673		11.718750
1674		17.578125
1675		9.765625
1676		17.578125
1677		9.765625
1678		15.625000
1679		9.765625
1680		13.671875
1681		7.812500
1682		13.671875
1683		5.859375
1684		13.671875
1685		5.859375
1686		11.718750
1687		3.906250
1688		11.718750
1689		3.906250
1690		9.765625
1691		1.953125
1692		9.765625
1693		0.000000
1694		7.812500
1695		1.953125
1696		5.859375
1697		-1.953125
1698		3.906250
1699		0.000000
1700		5.859375
1701		-3.906250
1702		3.906250
1703		-3.906250
1704		1.953125
1705		-5.859375
1706		1.953125
1707		-7.812500
1708		0.000000
1709		-7.812500
1710		-1.953125
1711		-7.812500
1712		-3.906250
1713		-7.812500
1714		-5.859375
1715		-11.718750
1716		-5.859375
1717		-11.718750
1718		-5.859375
1719		-11.718750
1720		-5.859375
1721		-13.671875
1722		-5.859375
1723		-15.625000
1724		-9.765625
1725		-17.578125
1726		-9.765625
1727		-17.578125
1728		-9.765625
1729		-17.578125
1730		-13.671875
1731		-19.531250
1732		-15.625000
1733		-21.484375
1734		-13.671875
1735		-21.484375
1736		-15.625000
1737		-23.437500
1738		-17.578125
1739		-23.437500
1740		-17.578125
1741		-25.390625
1742		-17.578125
1743		-27.343750
1744		-19.531250
1745		-25.390625
1746		-23.437500
1747		-27.343750
1748		-23.437500
1749		-29.296875
1750		-23.437500
1751		-31.250000
1752		-23.437500
1753		-31.250000
1754		-25.390625
1755		-31.250000
1756		-25.390625
1757		-33.203125
1758		-27.343750
1759		-33.203125
1760		-27.343750
1761		-35.156250
1762		-29.296875
1763		-35.156250
1764		-31.250000
1765		-37.109375
1766		-31.250000
1767		-39.062500
1768		-31.250000
1769		-39.062500
1770		-31.250000
1771		-41.015625
1772		-33.203125
1773		-41.015625
1774		-35.156250
1775		-41.015625
1776		-35.156250
1777		-41.015625
1778		-35.156250
1779		-42.968750
1780		-39.062500
1781		-44.921875
1782		-39.062500
1783		-44.921875
1784		-39.062500
1785		-46.875000
1786		-39.062500
1787		-46.875000
1788		-41.015625
1789		-48.828125
1790		-41.015625
1791		-48.828125
1792		-42.968750
1793		-50.781250
1794		-42.968750
1795		-48.828125
1796		-44.921875
1797		-50.781250
1798		-46.875000
1799		-52.734375
1800		-46.875000
1801		-52.734375
1802		-46.875000
1803		-52.734375
1804		-46.875000
1805		-54.687500
1806		-48.828125
1807		-56.640625
1808		-48.828125
1809		-56.640625
1810		-48.828125
1811		-56.640625
1812		-50.781250
1813		-56.640625
1814		-52.734375
1815		-56.640625
1816		-52.734375
1817		-58.593750
1818		-52.734375
1819		-60.546875
1820		-52.734375
1821		-60.546875
1822		-52.734375
1823		-60.546875
1824		-54.687500
1825		-60.546875
1826		-54.687500
1827		-62.500000
1828		-54.687500
1829		-60.546875
1830		-58.593750
1831		-60.546875
1832		-58.593750
1833		-62.500000
1834		-56.640625
1835		-64.453125
1836		-56.640625
1837		-64.453125
1838		-58.593750
1839		-64.453125
1840		-58.593750
1841		-64.453125
1842		-58.593750
1843		-66.406250
1844		-60.546875
1845		-66.406250
1846		-60.546875
1847		-64.453125
1848		-62.500000
1849		-66.406250
1850		-60.546875
1851		-66.406250
1852		-60.546875
1853		-66.406250
1854		-60.546875
1855		-68.359375
1856		-60.546875
1857		-68.359375
1858		-62.500000
1859		-68.359375
1860		-62.500000
1861		-68.359375
1862		-62.500000
1863		-68.359375
1864		-64.453125
1865		-68.359375
1866		-64.453125
1867		-70.312500
1868		-62.500000
1869		-70.312500
1870		-62.500000
1871		-70.312500
1872		-64.453125
1873		-70.312500
1874		-64.453125
1875		-70.312500
1876		-64.453125
1877		-70.312500
1878		-64.453125
1879		-70.312500
1880		-64.453125
1881		-68.359375
1882		-66.406250
1883		-70.312500
1884		-64.453125
1885		-70.312500
1886		-64.453125
1887		-70.312500
1888		-64.453125
1889		-70.312500
1890		-64.453125
1891		-68.359375
1892		-64.453125
1893		-70.312500
1894		-64.453125
1895		-70.312500
1896		-64.453125
1897		-68.359375
1898		-66.406250
1899		-68.359375
1900		-64.453125
1901		-70.312500
1902		-62.500000
1903		-70.312500
1904		-62.500000
1905		-70.312500
1906		-62.500000
1907		-70.312500
1908		-62.500000
1909		-68.359375
1910		-62.500000
1911		-68.359375
1912		-62.500000
1913		-66.406250
1914		-64.453125
1915		-66.406250
1916		-62.500000
1917		-68.359375
1918		-60.546875
1919		-66.406250
1920		-60.546875
1921		-66.406250
1922		-60.546875
1923		-66.406250
1924		-60.546875
1925		-66.406250
1926		-60.546875
1927		-66.406250
1928		-58.593750
1929		-64.453125
1930		-60.546875
1931		-64.453125
1932		-58.593750
1933		-64.453125
1934		-58.593750
1935		-64.453125
1936		-58.593750
1937		-64.453125
1938		-56.640625
1939		-62.500000
1940		-56.640625
1941		-62.500000
1942		-56.640625
1943		-62.500000
1944		-56.640625
1945		-62.500000
1946		-54.687500
1947		-60.546875
1948		-56.640625
1949		-58.593750
1950		-54.687500
1951		-60.546875
1952		-52.734375
1953		-58.593750
1954		-52.734375
1955		-58.593750
1956		-52.734375
1957		-58.593750
1958		-50.781250
1959		-56.640625
1960		-50.781250
1961		-56.640625
1962		-50.781250
1963		-56.640625
1964		-50.781250
1965		-54.687500
1966		-50.781250
1967		-54.687500
1968		-48.828125
1969		-54.687500
1970		-46.875000
1971		-52.734375
1972		-46.875000
1973		-52.734375
1974		-44.921875
1975		-50.781250
1976		-42.968750
1977		-50.781250
1978		-44.921875
1979		-48.828125
1980		-42.968750
1981		-46.875000
1982		-42.968750
1983		-46.875000
1984		-41.015625
1985		-46.875000
1986		-41.015625
1987		-46.875000
1988		-39.062500
1989		-44.921875
1990		-37.109375
1991		-42.968750
1992		-37.109375
1993		-42.968750
1994		-37.109375
1995		-42.968750
1996		-35.156250
1997		-39.062500
1998		-37.109375
1999		-39.062500
2000		-35.156250
2001		-39.062500
2002		-33.203125
2003		-39.062500
2004		-31.250000
2005		-37.109375
2006		-31.250000
2007		-37.109375
2008		-31.250000
2009		-35.156250
2010		-29.296875
2011		-35.156250
2012		-27.343750
2013		-33.203125
2014		-27.343750
2015		-31.250000
2016		-27.343750
2017		-31.250000
2018		-23.437500
2019		-29.296875
2020		-23.437500
2021		-29.296875
2022		-21.484375
2023		-29.296875
2024		-21.484375
2025		-27.343750
2026		-19.531250
2027		-25.390625
2028		-19.531250
2029		-25.390625
2030		-19.531250
2031		-21.484375
2032		-17.578125
2033		-21.484375
2034		-17.578125
2035		-21.484375
2036		-15.625000
2037		-19.531250
2038		-15.625000
2039		-19.531250
2040		-11.718750
2041		-19.531250
2042		-11.718750
2043		-17.578125
2044		-9.765625
2045		-15.625000
2046		-9.765625
2047		-15.625000
2048		-9.765625
2049		-11.718750
2050		-9.765625
2051		-13.671875
2052		-5.859375
2053		-11.718750
2054		-3.906250
2055		-9.765625
2056		-3.906250
2057		-9.765625
2058		-1.953125
2059		-7.812500
2060		-1.953125
2061		-7.812500
2062		0.000000
2063		-5.859375
2064		0.000000
2065		-3.906250
2066		0.000000
2067		-1.953125
2068		1.953125
2069		-3.906250
2070		3.906250
2071		-1.953125
2072		3.906250
2073		-1.953125
2074		5.859375
2075		1.953125
2076		7.812500
2077		1.953125
2078		7.812500
2079		3.906250
2080		9.765625
2081		5.859375
2082		9.765625
2083		5.859375
2084		9.765625
2085		5.859375
2086		13.671875
2087		7.812500
2088		13.671875
2089		7.812500
2090		15.625000
2091		9.765625
2092		15.625000
2093		9.765625
2094		17.578125
2095		9.765625
2096		17.578125
2097		11.718750
2098		17.578125
2099		15.625000
2100		17.578125
2101		15.625000
2102		21.484375
2103		15.625000
2104		21.484375
2105		15.625000
2106		23.437500
2107		17.578125
2108		25.390625
2109		15.625000
2110		25.390625
2111		19.531250
2112		25.390625
2113		19.531250
2114		27.343750
2115		23.437500
2116		27.343750
2117		25.390625
2118		27.343750
2119		23.437500
2120		29.296875
2121		25.390625
2122		31.250000
2123		25.390625
2124		33.203125
2125		27.343750
2126		33.203125
2127		27.343750
2128		35.156250
2129		29.296875
2130		35.156250
2131		29.296875
2132		35.156250
2133		31.250000
2134		35.156250
2135		31.250000
2136		37.109375
2137		31.250000
2138		39.062500
2139		31.250000
2140		41.015625
2141		33.203125
2142		41.015625
2143		35.156250
2144		41.015625
2145		37.109375
2146		42.968750
2147		37.109375
2148		42.968750
2149		39.062500
2150		42.968750
2151		39.062500
2152		42.968750
2153		39.062500
2154		46.875000
2155		39.062500
2156		46.875000
2157		39.062500
2158		46.875000
2159		41.015625
2160		46.875000
2161		42.968750
2162		48.828125
2163		42.968750
2164		48.828125
2165		44.921875
2166		48.828125
2167		44.921875
2168		48.828125
2169		44.921875
2170		50.781250
2171		44.921875
2172		50.781250
2173		46.875000
2174		52.734375
2175		46.875000
2176		52.734375
2177		46.875000
2178		54.687500
2179		48.828125
2180		54.687500
2181		48.828125
2182		54.687500
2183		50.781250
2184		54.687500
2185		50.781250
2186		56.640625
2187		50.781250
2188		56.640625
2189		50.781250
2190		56.640625
2191		50.781250
2192		56.640625
2193		52.734375
2194		58.593750
2195		52.734375
2196		58.593750
2197		52.734375
2198		60.546875
2199		54.687500
2200		58.593750
2201		56.640625
2202		58.593750
2203		54.687500
2204		60.546875
2205		54.687500
2206		62.500000
2207		54.687500
2208		62.500000
2209		56.640625
2210		62.500000
2211		56.640625
2212		62.500000
2213		56.640625
2214		62.500000
2215		56.640625
2216		62.500000
2217		58.593750
2218		62.500000
2219		58.593750
2220		62.500000
2221		58.593750
2222		64.453125
2223		58.593750
2224		64.453125
2225		58.593750
2226		64.453125
2227		58.593750
2228		64.453125
2229		58.593750
2230		64.453125
2231		60.546875
2232		66.406250
2233		60.546875
2234		64.453125
2235		60.546875
2236		64.453125
2237		58.593750
2238		66.406250
2239		60.546875
2240		66.406250
2241		60.546875
2242		66.406250
2243		60.546875
2244		66.406250
2245		60.546875
2246		66.406250
2247		58.593750
2248		66.406250
2249		60.546875
2250		64.453125
2251		62.500000
2252		64.453125
2253		60.546875
2254		66.406250
2255		58.593750
2256		66.406250
2257		60.546875
2258		66.406250
2259		60.546875
2260		66.406250
2261		60.546875
2262		66.406250
2263		60.546875
2264		66.406250
2265		60.546875
2266		66.406250
2267		62.500000
2268		64.453125
2269		58.593750
2270		66.406250
2271		58.593750
2272		66.406250
2273		58.593750
2274		66.406250
2275		58.593750
2276		64.453125
2277		58.593750
2278		64.453125
2279		58.593750
2280		66.406250
2281		58.593750
2282		64.453125
2283		60.546875
2284		62.500000
2285		58.593750
2286		62.500000
2287		56.640625
2288		64.453125
2289		56.640625
2290		64.453125
2291		56.640625
2292		64.453125
2293		56.640625
2294		62.500000
2295		56.640625
2296		62.500000
2297		56.640625
2298		62.500000
2299		56.640625
2300		60.546875
2301		56.640625
2302		60.546875
2303		54.687500
2304		60.546875
2305		54.687500
2306		60.546875
2307		54.687500
2308		60.546875
2309		52.734375
2310		60.546875
2311		50.781250
2312		58.593750
2313		52.734375
2314		58.593750
2315		50.781250
2316		58.593750
2317		52.734375
2318		56.640625
2319		52.734375
2320		54.687500
2321		48.828125
2322		56.640625
2323		48.828125
2324		56.640625
2325		50.781250
2326		54.687500
2327		46.875000
2328		54.687500
2329		46.875000
2330		54.687500
2331		46.875000
2332		52.734375
2333		46.875000
2334		50.781250
2335		46.875000
2336		48.828125
2337		44.921875
2338		50.781250
2339		42.968750
2340		50.781250
2341		42.968750
2342		48.828125
2343		42.968750
2344		48.828125
2345		41.015625
2346		48.828125
2347		41.015625
2348		46.875000
2349		39.062500
2350		46.875000
2351		41.015625
2352		44.921875
2353		39.062500
2354		44.921875
2355		37.109375
2356		44.921875
2357		37.109375
2358		42.968750
2359		35.156250
2360		42.968750
2361		33.203125
2362		41.015625
2363		33.203125
2364		41.015625
2365		33.203125
2366		39.062500
2367		33.203125
2368		37.109375
2369		33.203125
2370		35.156250
2371		31.250000
2372		37.109375
2373		29.296875
2374		35.156250
2375		29.296875
2376		35.156250
2377		27.343750
2378		33.203125
2379		25.390625
2380		33.203125
2381		25.390625
2382		31.250000
2383		25.390625
2384		31.250000
2385		25.390625
2386		29.296875
2387		21.484375
2388		27.343750
2389		21.484375
2390		29.296875
2391		19.531250
2392		27.343750
2393		19.531250
2394		25.390625
2395		17.578125
2396		25.390625
2397		17.578125
2398		23.437500
2399		15.625000
2400		23.437500
2401		15.625000
2402		19.531250
2403		15.625000
2404		19.531250
2405		13.671875
2406		19.531250
2407		11.718750
2408		19.531250
2409		9.765625
2410		17.578125
2411		9.765625
2412		17.578125
2413		7.812500
2414		15.625000
2415		7.812500
2416		13.671875
2417		7.812500
2418		11.718750
2419		5.859375
2420		9.765625
2421		3.906250
2422		9.765625
2423		1.953125
2424		9.765625
2425		1.953125
2426		7.812500
2427		0.000000
2428		7.812500
2429		0.000000
2430		5.859375
2431		-1.953125
2432		5.859375
2433		-1.953125
2434		3.906250
2435		-1.953125
2436		1.953125
2437		-3.906250
2438		1.953125
2439		-5.859375
2440		1.953125
2441		-7.812500
2442		0.000000
2443		-7.812500
2444		-1.953125
2445		-9.765625
2446		-1.953125
2447		-11.718750
2448		-3.906250
2449		-11.718750
2450		-3.906250
2451		-11.718750
2452		-7.812500
2453		-11.718750
2454		-9.765625
2455		-15.625000
2456		-7.812500
2457		-17.578125
2458		-9.765625
2459		-17.578125
2460		-9.765625
2461		-19.531250
2462		-11.718750
2463		-19.531250
2464		-11.718750
2465		-21.484375
2466		-13.671875
2467		-21.484375
2468		-15.625000
2469		-21.484375
2470		-17.578125
2471		-23.437500
2472		-17.578125
2473		-25.390625
2474		-17.578125
2475		-25.390625
2476		-19.531250
2477		-25.390625
2478		-19.531250
2479		-29.296875
2480		-21.484375
2481		-29.296875
2482		-23.437500
2483		-29.296875
2484		-23.437500
2485		-29.296875
2486		-25.390625
2487		-29.296875
2488		-27.343750
2489		-33.203125
2490		-25.390625
2491		-35.156250
2492		-27.343750
2493		-35.156250
2494		-27.343750
2495		-35.156250
2496		-29.296875
2497		-37.109375
2498		-31.250000
2499		-39.062500
2500		-31.250000
2501		-37.109375
2502		-33.203125
2503		-37.109375
2504		-35.156250
2505		-41.015625
2506		-35.156250
2507		-42.968750
2508		-35.156250
2509		-42.968750
2510		-35.156250
2511		-42.968750
2512		-37.109375
2513		-44.921875
2514		-37.109375
2515		-44.921875
2516		-39.062500
2517		-46.875000
2518		-39.062500
2519		-44.921875
2520		-42.968750
2521		-46.875000
2522		-42.968750
2523		-48.828125
2524		-42.968750
2525		-48.828125
2526		-42.968750
2527		-50.781250
2528		-42.968750
2529		-50.781250
2530		-44.921875
2531		-52.734375
2532		-44.921875
2533		-52.734375
2534		-44.921875
2535		-52.734375
2536		-48.828125
2537		-52.734375
2538		-48.828125
2539		-54.687500
2540		-48.828125
2541		-56.640625
2542		-48.828125
2543		-56.640625
2544		-48.828125
2545		-58.593750
2546		-50.781250
2547		-58.593750
2548		-50.781250
2549		-58.593750
2550		-50.781250
2551		-58.593750
2552		-52.734375
2553		-58.593750
2554		-54.687500
2555		-60.546875
2556		-54.687500
2557		-60.546875
2558		-54.687500
2559		-62.500000
2560		-54.687500
2561		-60.546875
2562		-54.687500
2563		-62.500000
2564		-56.640625
2565		-64.453125
2566		-56.640625
2567		-64.453125
2568		-56.640625
2569		-62.500000
2570		-58.593750
2571		-62.500000
2572		-58.593750
2573		-66.406250
2574		-58.593750
2575		-64.453125
2576		-58.593750
2577		-64.453125
2578		-58.593750
2579		-66.406250
2580		-58.593750
2581		-66.406250
2582		-60.546875
2583		-66.406250
2584		-60.546875
2585		-64.453125
2586		-62.500000
2587		-66.406250
2588		-62.500000
2589		-66.406250
2590		-60.546875
2591		-68.359375
2592		-60.546875
2593		-68.359375
2594		-62.500000
2595		-68.359375
2596		-62.500000
2597		-68.359375
2598		-62.500000
2599		-68.359375
2600		-62.500000
2601		-68.359375
2602		-62.500000
2603		-68.359375
2604		-62.500000
2605		-68.359375
2606		-64.453125
2607		-70.312500
2608		-62.500000
2609		-70.312500
2610		-62.500000
2611		-70.312500
2612		-62.500000
2613		-70.312500
2614		-62.500000
2615		-70.312500
2616		-62.500000
2617		-68.359375
2618		-62.500000
2619		-68.359375
2620		-64.453125
2621		-68.359375
2622		-64.453125
2623		-70.312500
2624		-62.500000
2625		-68.359375
2626		-62.500000
2627		-70.312500
2628		-62.500000
2629		-70.312500
2630		-62.500000
2631		-68.359375
2632		-62.500000
2633		-68.359375
2634		-62.500000
2635		-68.359375
2636		-62.500000
2637		-66.406250
2638		-64.453125
2639		-68.359375
2640		-62.500000
2641		-68.359375
2642		-62.500000
2643		-68.359375
2644		-60.546875
2645		-68.359375
2646		-60.546875
2647		-66.406250
2648		-60.546875
2649		-66.406250
2650		-60.546875
2651		-66.406250
2652		-60.546875
2653		-64.453125
2654		-60.546875
2655		-64.453125
2656		-60.546875
2657		-66.406250
2658		-58.593750
2659		-66.406250
2660		-58.593750
2661		-64.453125
2662		-58.593750
2663		-64.453125
2664		-58.593750
2665		-62.500000
2666		-56.640625
2667		-62.500000
2668		-56.640625
2669		-60.546875
2670		-56.640625
2671		-60.546875
2672		-56.640625
2673		-60.546875
2674		-56.640625
2675		-60.546875
2676		-54.687500
2677		-60.546875
2678		-54.687500
2679		-60.546875
2680		-52.734375
2681		-60.546875
2682		-52.734375
2683		-60.546875
2684		-52.734375
2685		-58.593750
2686		-52.734375
2687		-56.640625
2688		-52.734375
2689		-54.687500
2690		-50.781250
2691		-56.640625
2692		-50.781250
2693		-54.687500
2694		-48.828125
2695		-54.687500
2696		-48.828125
2697		-54.687500
2698		-46.875000
2699		-54.687500
2700		-46.875000
2701		-54.687500
2702		-46.875000
2703		-50.781250
2704		-46.875000
2705		-50.781250
2706		-46.875000
2707		-50.781250
2708		-42.968750
2709		-50.781250
2710		-42.968750
2711		-48.828125
2712		-42.968750
2713		-46.875000
2714		-41.015625
2715		-46.875000
2716		-41.015625
2717		-46.875000
2718		-41.015625
2719		-46.875000
2720		-39.062500
2721		-42.968750
2722		-41.015625
2723		-42.968750
2724		-37.109375
2725		-42.968750
2726		-37.109375
2727		-42.968750
2728		-35.156250
2729		-41.015625
2730		-35.156250
2731		-41.015625
2732		-33.203125
2733		-37.109375
2734		-33.203125
2735		-37.109375
2736		-33.203125
2737		-37.109375
2738		-31.250000
2739		-35.156250
2740		-31.250000
2741		-35.156250
2742		-29.296875
2743		-33.203125
2744		-27.343750
2745		-33.203125
2746		-27.343750
2747		-33.203125
2748		-25.390625
2749		-31.250000
2750		-23.437500
2751		-31.250000
2752		-23.437500
2753		-29.296875
2754		-23.437500
2755		-27.343750
2756		-23.437500
2757		-27.343750
2758		-21.484375
2759		-27.343750
2760		-19.531250
2761		-23.437500
2762		-19.531250
2763		-23.437500
2764		-17.578125
2765		-23.437500
2766		-15.625000
2767		-21.484375
2768		-15.625000
2769		-21.484375
2770		-15.625000
2771		-17.578125
2772		-15.625000
2773		-17.578125
2774		-11.718750
2775		-17.578125
2776		-11.718750
2777		-17.578125
2778		-9.765625
2779		-15.625000
2780		-9.765625
2781		-13.671875
2782		-7.812500
2783		-13.671875
2784		-5.859375
2785		-11.718750
2786		-5.859375
2787		-9.765625
2788		-5.859375
2789		-7.812500
2790		-5.859375
2791		-7.812500
2792		-1.953125
2793		-7.812500
2794		-1.953125
2795		-5.859375
2796		0.000000
2797		-5.859375
2798		1.953125
2799		-3.906250
2800		1.953125
2801		-1.953125
2802		1.953125
2803		-1.953125
2804		3.906250
2805		0.000000
2806		3.906250
2807		0.000000
2808		7.812500
2809		1.953125
2810		7.812500
2811		1.953125
2812		9.765625
2813		3.906250
2814		9.765625
2815		3.906250
2816		11.718750
2817		5.859375
2818		11.718750
2819		5.859375
2820		13.671875
2821		9.765625
2822		11.718750
2823		9.765625
2824		13.671875
2825		9.765625
2826		17.578125
2827		11.718750
2828		17.578125
2829		11.718750
2830		17.578125
2831		11.718750
2832		19.531250
2833		13.671875
2834		21.484375
2835		15.625000
2836		21.484375
2837		17.578125
2838		21.484375
2839		17.578125
2840		21.484375
2841		17.578125
2842		25.390625
2843		17.578125
2844		25.390625
2845		19.531250
2846		27.343750
2847		21.484375
2848		27.343750
2849		21.484375
2850		29.296875
2851		23.437500
2852		29.296875
2853		23.437500
2854		29.296875
2855		27.343750
2856		31.250000
2857		27.343750
2858		33.203125
2859		25.390625
2860		33.203125
2861		27.343750
2862		35.156250
2863		29.296875
2864		35.156250
2865		29.296875
2866		37.109375
2867		31.250000
2868		37.109375
2869		31.250000
2870		37.109375
2871		33.203125
2872		39.062500
2873		35.156250
2874		37.109375
2875		33.203125
2876		41.015625
2877		35.156250
2878		41.015625
2879		35.156250
2880		42.968750
2881		37.109375
2882		42.968750
2883		37.109375
2884		42.968750
2885		37.109375
2886		44.921875
2887		39.062500
2888		44.921875
2889		41.015625
2890		44.921875
2891		41.015625
2892		46.875000
2893		41.015625
2894		46.875000
2895		42.968750
2896		48.828125
2897		42.968750
2898		48.828125
2899		42.968750
2900		50.781250
2901		42.968750
2902		50.781250
2903		44.921875
2904		52.734375
2905		46.875000
2906		50.781250
2907		46.875000
2908		52.734375
2909		46.875000
2910		54.687500
2911		46.875000
2912		54.687500
2913		48.828125
2914		54.687500
2915		48.828125
2916		54.687500
2917		48.828125
2918		54.687500
2919		50.781250
2920		56.640625
2921		50.781250
2922		56.640625
2923		52.734375
2924		54.687500
2925		52.734375
2926		56.640625
2927		50.781250
2928		58.593750
2929		52.734375
2930		58.593750
2931		52.734375
2932		58.593750
2933		52.734375
2934		60.546875
2935		52.734375
2936		60.546875
2937		52.734375
2938		60.546875
2939		54.687500
2940		58.593750
2941		56.640625
2942		58.593750
2943		54.687500
2944		60.546875
2945		54.687500
2946		62.500000
2947		56.640625
2948		62.500000
2949		56.640625
2950		62.500000
2951		56.640625
2952		62.500000
2953		56.640625
2954		64.453125
2955		58.593750
2956		62.500000
2957		58.593750
2958		62.500000
2959		58.593750
2960		64.453125
2961		56.640625
2962		64.453125
2963		56.640625
2964		64.453125
2965		58.593750
2966		64.453125
2967		58.593750
2968		64.453125
2969		58.593750
2970		64.453125
2971		58.593750
2972		64.453125
2973		60.546875
2974		64.453125
2975		60.546875
2976		64.453125
2977		58.593750
2978		66.406250
2979		58.593750
2980		66.406250
2981		58.593750
2982		66.406250
2983		58.593750
2984		66.406250
2985		58.593750
2986		64.453125
2987		60.546875
2988		66.406250
2989		60.546875
2990		64.453125
2991		60.546875
2992		64.453125
2993		58.593750
2994		66.406250
2995		58.593750
2996		66.406250
2997		58.593750
2998		66.406250
2999		58.593750
3000		64.453125
3001		58.593750
3002		64.453125
3003		58.593750
3004		64.453125
3005		60.546875
3006		64.453125
3007		60.546875
3008		62.500000
3009		58.593750
3010		64.453125
3011		58.593750
3012		64.453125
3013		58.593750
3014		64.453125
3015		58.593750
3016		64.453125
3017		56.640625
3018		64.453125
3019		56.640625
3020		64.453125
3021		56.640625
3022		62.500000
3023		58.593750
3024		60.546875
3025		58.593750
3026		60.546875
3027		54.687500
3028		62.500000
3029		54.687500
3030		62.500000
3031		54.687500
3032		62.500000
3033		54.687500
3034		62.500000
3035		54.687500
3036		60.546875
3037		52.734375
3038		60.546875
3039		54.687500
3040		58.593750
3041		54.687500
3042		58.593750
3043		52.734375
3044		58.593750
3045		52.734375
3046		58.593750
3047		50.781250
3048		58.593750
3049		50.781250
3050		56.640625
3051		48.828125
3052		56.640625
3053		50.781250
3054		56.640625
3055		48.828125
3056		54.687500
3057		50.781250
3058		52.734375
3059		48.828125
3060		52.734375
3061		48.828125
3062		52.734375
3063		46.875000
3064		52.734375
3065		44.921875
3066		52.734375
3067		44.921875
3068		50.781250
3069		44.921875
3070		50.781250
3071		42.968750
3072		50.781250
3073		44.921875
3074		46.875000
3075		44.921875
3076		46.875000
3077		41.015625
3078		48.828125
3079		39.062500
3080		48.828125
3081		39.062500
3082		46.875000
3083		39.062500
3084		44.921875
3085		39.062500
3086		44.921875
3087		37.109375
3088		44.921875
3089		37.109375
3090		42.968750
3091		37.109375
3092		41.015625
3093		37.109375
3094		41.015625
3095		33.203125
3096		41.015625
3097		33.203125
3098		39.062500
3099		31.250000
3100		39.062500
3101		31.250000
3102		37.109375
3103		29.296875
3104		37.109375
3105		29.296875
3106		37.109375
3107		29.296875
3108		33.203125
3109		29.296875
3110		33.203125
3111		25.390625
3112		33.203125
3113		25.390625
3114		33.203125
3115		25.390625
3116		31.250000
3117		23.437500
3118		31.250000
3119		23.437500
3120		29.296875
3121		21.484375
3122		27.343750
3123		21.484375
3124		27.343750
3125		21.484375
3126		25.390625
3127		19.531250
3128		23.437500
3129		19.531250
3130		23.437500
3131		15.625000
3132		23.437500
3133		15.625000
3134		23.437500
3135		15.625000
3136		21.484375
3137		13.671875
3138		19.531250
3139		11.718750
3140		19.531250
3141		13.671875
3142		17.578125
3143		11.718750
3144		15.625000
3145		9.765625
3146		15.625000
3147		7.812500
3148		13.671875
3149		7.812500
3150		11.718750
3151		5.859375
3152		11.718750
3153		5.859375
3154		9.765625
3155		3.906250
3156		9.765625
3157		3.906250
3158		7.812500
3159		3.906250
3160		5.859375
3161		0.000000
3162		7.812500
3163		0.000000
3164		5.859375
3165		-1.953125
3166		5.859375
3167		-3.906250
3168		3.906250
3169		-5.859375
3170		1.953125
3171		-3.906250
3172		0.000000
3173		-5.859375
3174		-1.953125
3175		-5.859375
3176		-1.953125
3177		-7.812500
3178		-3.906250
3179		-9.765625
3180		-3.906250
3181		-9.765625
3182		-3.906250
3183		-11.718750
3184		-5.859375
3185		-11.718750
3186		-7.812500
3187		-13.671875
3188		-9.765625
3189		-13.671875
3190		-9.765625
3191		-15.625000
3192		-11.718750
3193		-15.625000
3194		-13.671875
3195		-19.531250
3196		-13.671875
3197		-19.531250
3198		-13.671875
3199		-21.484375
3200		-13.671875
3201		-21.484375
3202		-15.625000
3203		-21.484375
3204		-17.578125
3205		-23.437500
3206		-19.531250
3207		-25.390625
3208		-19.531250
3209		-25.390625
3210		-21.484375
3211		-27.343750
3212		-23.437500
3213		-29.296875
3214		-23.437500
3215		-29.296875
3216		-23.437500
3217		-29.296875
3218		-25.390625
3219		-31.250000
3220		-27.343750
3221		-31.250000
3222		-27.343750
3223		-33.203125
3224		-29.296875
3225		-33.203125
3226		-31.250000
3227		-35.156250
3228		-31.250000
3229		-37.109375
3230		-31.250000
3231		-39.062500
3232		-31.250000
3233		-37.109375
3234		-33.203125
3235		-39.062500
3236		-33.203125
3237		-39.062500
3238		-35.156250
3239		-41.015625
3240		-37.109375
3241		-41.015625
3242		-37.109375
3243		-42.968750
3244		-39.062500
3245		-44.921875
3246		-39.062500
3247		-44.921875
3248		-39.062500
3249		-44.921875
3250		-41.015625
3251		-46.875000
3252		-42.968750
3253		-46.875000
3254		-42.968750
3255		-46.875000
3256		-42.968750
3257		-48.828125
3258		-44.921875
3259		-50.781250
3260		-46.875000
3261		-50.781250
3262		-46.875000
3263		-52.734375
3264		-46.875000
3265		-52.734375
3266		-48.828125
3267		-52.734375
3268		-48.828125
3269		-52.734375
3270		-50.781250
3271		-54.687500
3272		-50.781250
3273		-56.640625
3274		-50.781250
3275		-56.640625
3276		-52.734375
3277		-56.640625
3278		-52.734375
3279		-58.593750
3280		-52.734375
3281		-58.593750
3282		-54.687500
3283		-60.546875
3284		-54.687500
3285		-58.593750
3286		-54.687500
3287		-58.593750
3288		-56.640625
3289		-60.546875
3290		-56.640625
3291		-60.546875
3292		-56.640625
3293		-62.500000
3294		-58.593750
3295		-62.500000
3296		-56.640625
3297		-62.500000
3298		-58.593750
3299		-64.453125
3300		-58.593750
3301		-64.453125
3302		-60.546875
3303		-64.453125
3304		-60.546875
3305		-64.453125
3306		-60.546875
3307		-64.453125
3308		-60.546875
3309		-64.453125
3310		-62.500000
3311		-64.453125
3312		-62.500000
3313		-66.406250
3314		-62.500000
3315		-66.406250
3316		-62.500000
3317		-66.406250
3318		-62.500000
3319		-66.406250
3320		-64.453125
3321		-68.359375
3322		-62.500000
3323		-68.359375
3324		-64.453125
3325		-68.359375
3326		-64.453125
3327		-68.359375
3328		-64.453125
3329		-70.312500
3330		-64.453125
3331		-68.359375
3332		-64.453125
3333		-68.359375
3334		-64.453125
3335		-68.359375
3336		-66.406250
3337		-68.359375
3338		-66.406250
3339		-70.312500
3340		-64.453125
3341		-68.359375
3342		-64.453125
3343		-70.312500
3344		-64.453125
3345		-70.312500
3346		-66.406250
3347		-70.312500
3348		-66.406250
3349		-70.312500
3350		-66.406250
3351		-70.312500
3352		-66.406250
3353		-70.312500
3354		-66.406250
3355		-68.359375
3356		-66.406250
3357		-68.359375
3358		-66.406250
3359		-70.312500
3360		-64.453125
3361		-68.359375
3362		-66.406250
3363		-70.312500
3364		-64.453125
3365		-68.359375
3366		-64.453125
3367		-68.359375
3368		-64.453125
3369		-68.359375
3370		-64.453125
3371		-68.359375
3372		-64.453125
3373		-68.359375
3374		-64.453125
3375		-68.359375
3376		-64.453125
3377		-66.406250
3378		-64.453125
3379		-66.406250
3380		-64.453125
3381		-66.406250
3382		-62.500000
3383		-66.406250
3384		-62.500000
3385		-66.406250
3386		-62.500000
3387		-64.453125
3388		-62.500000
3389		-64.453125
3390		-62.500000
3391		-64.453125
3392		-60.546875
3393		-64.453125
3394		-60.546875
3395		-64.453125
3396		-60.546875
3397		-62.500000
3398		-60.546875
3399		-62.500000
3400		-58.593750
3401		-62.500000
3402		-58.593750
3403		-62.500000
3404		-58.593750
3405		-60.546875
3406		-58.593750
3407		-60.546875
3408		-56.640625
3409		-60.546875
3410		-56.640625
3411		-60.546875
3412		-56.640625
3413		-60.546875
3414		-54.687500
3415		-58.593750
3416		-54.687500
3417		-58.593750
3418		-54.687500
3419		-56.640625
3420		-52.734375
3421		-56.640625
3422		-52.734375
3423		-56.640625
3424		-50.781250
3425		-54.687500
3426		-52.734375
3427		-54.687500
3428		-50.781250
3429		-54.687500
3430		-48.828125
3431		-52.734375
3432		-48.828125
3433		-52.734375
3434		-48.828125
3435		-50.781250
3436		-46.875000
3437		-50.781250
3438		-46.875000
3439		-48.828125
3440		-46.875000
3441		-50.781250
3442		-44.921875
3443		-48.828125
3444		-44.921875
3445		-46.875000
3446		-44.921875
3447		-46.875000
3448		-42.968750
3449		-44.921875
3450		-42.968750
3451		-44.921875
3452		-41.015625
3453		-42.968750
3454		-41.015625
3455		-42.968750
3456		-39.062500
3457		-41.015625
3458		-37.109375
3459		-41.015625
3460		-37.109375
3461		-39.062500
3462		-35.156250
3463		-39.062500
3464		-35.156250
3465		-39.062500
3466		-35.156250
3467		-39.062500
3468		-33.203125
3469		-37.109375
3470		-33.203125
3471		-35.156250
3472		-31.250000
3473		-35.156250
3474		-31.250000
3475		-33.203125
3476		-29.296875
3477		-31.250000
3478		-29.296875
3479		-31.250000
3480		-27.343750
3481		-31.250000
3482		-27.343750
3483		-29.296875
3484		-25.390625
3485		-29.296875
3486		-25.390625
3487		-27.343750
3488		-23.437500
3489		-27.343750
3490		-23.437500
3491		-25.390625
3492		-21.484375
3493		-23.437500
3494		-21.484375
3495		-23.437500
3496		-19.531250
3497		-23.437500
3498		-17.578125
3499		-21.484375
3500		-15.625000
3501		-19.531250
3502		-15.625000
3503		-19.531250
3504		-15.625000
3505		-17.578125
3506		-13.671875
3507		-15.625000
3508		-11.718750
3509		-15.625000
3510		-11.718750
3511		-13.671875
3512		-9.765625
3513		-13.671875
3514		-7.812500
3515		-11.718750
3516		-7.812500
3517		-9.765625
3518		-5.859375
3519		-9.765625
3520		-5.859375
3521		-7.812500
3522		-5.859375
3523		-7.812500
3524		-1.953125
3525		-5.859375
3526		-1.953125
3527		-5.859375
3528		-1.953125
3529		-3.906250
3530		0.000000
3531		-3.906250
3532		0.000000
3533		-1.953125
3534		1.953125
3535		-1.953125
3536		3.906250
3537		0.000000
3538		3.906250
3539		1.953125
3540		5.859375
3541		1.953125
3542		5.859375
3543		3.906250
3544		7.812500
3545		3.906250
3546		7.812500
3547		5.859375
3548		9.765625
3549		5.859375
3550		9.765625
3551		7.812500
3552		11.718750
3553		7.812500
3554		11.718750
3555		9.765625
3556		13.671875
3557		9.765625
3558		15.625000
3559		11.718750
3560		15.625000
3561		13.671875
3562		17.578125
3563		13.671875
3564		17.578125
3565		13.671875
3566		19.531250
3567		15.625000
3568		21.484375
3569		17.578125
3570		21.484375
3571		17.578125
3572		21.484375
3573		19.531250
3574		23.437500
3575		19.531250
3576		23.437500
3577		19.531250
3578		25.390625
3579		21.484375
3580		25.390625
3581		21.484375
3582		27.343750
3583		23.437500
3584		27.343750
3585		25.390625
3586		29.296875
3587		25.390625
3588		29.296875
3589		27.343750
3590		31.250000
3591		27.343750
3592		31.250000
3593		27.343750
3594		33.203125
3595		29.296875
3596		33.203125
3597		31.250000
3598		35.156250
3599		31.250000
3600		35.156250
3601		33.203125
3602		35.156250
3603		33.203125
3604		37.109375
3605		33.203125
3606		37.109375
3607		35.156250
3608		39.062500
3609		35.156250
3610		41.015625
3611		37.109375
3612		39.062500
3613		37.109375
3614		41.015625
3615		37.109375
3616		42.968750
3617		39.062500
3618		42.968750
3619		41.015625
3620		42.968750
3621		41.015625
3622		44.921875
3623		41.015625
3624		44.921875
3625		42.968750
3626		44.921875
3627		42.968750
3628		46.875000
3629		44.921875
3630		46.875000
3631		44.921875
3632		46.875000
3633		44.921875
3634		48.828125
3635		44.921875
3636		48.828125
3637		46.875000
3638		50.781250
3639		46.875000
3640		50.781250
3641		46.875000
3642		50.781250
3643		48.828125
3644		52.734375
3645		48.828125
3646		52.734375
3647		48.828125
3648		52.734375
3649		48.828125
3650		54.687500
3651		50.781250
3652		54.687500
3653		50.781250
3654		54.687500
3655		52.734375
3656		54.687500
3657		50.781250
3658		56.640625
3659		52.734375
3660		56.640625
3661		52.734375
3662		56.640625
3663		52.734375
3664		56.640625
3665		52.734375
3666		58.593750
3667		54.687500
3668		58.593750
3669		54.687500
3670		58.593750
3671		56.640625
3672		58.593750
3673		56.640625
3674		60.546875
3675		56.640625
3676		58.593750
3677		56.640625
3678		60.546875
3679		56.640625
3680		60.546875
3681		56.640625
3682		60.546875
3683		56.640625
3684		60.546875
3685		56.640625
3686		60.546875
3687		58.593750
3688		60.546875
3689		58.593750
3690		62.500000
3691		58.593750
3692		62.500000
3693		58.593750
3694		62.500000
3695		58.593750
3696		62.500000
3697		60.546875
3698		62.500000
3699		58.593750
3700		62.500000
3701		58.593750
3702		62.500000
3703		58.593750
3704		64.453125
3705		60.546875
3706		62.500000
3707		60.546875
3708		64.453125
3709		60.546875
3710		64.453125
3711		60.546875
3712		62.500000
3713		60.546875
3714		62.500000
3715		60.546875
3716		64.453125
3717		60.546875
3718		64.453125
3719		60.546875
3720		64.453125
3721		60.546875
3722		62.500000
3723		60.546875
3724		64.453125
3725		60.546875
3726		64.453125
3727		58.593750
3728		64.453125
3729		58.593750
3730		62.500000
3731		58.593750
3732		62.500000
3733		58.593750
3734		64.453125
3735		58.593750
3736		62.500000
3737		58.593750
3738		62.500000
3739		58.593750
3740		62.500000
3741		58.593750
3742		62.500000
3743		58.593750
3744		62.500000
3745		58.593750
3746		62.500000
3747		58.593750
3748		62.500000
3749		58.593750
3750		62.500000
3751		56.640625
3752		62.500000
3753		58.593750
3754		60.546875
3755		56.640625
3756		62.500000
3757		56.640625
3758		60.546875
3759		56.640625
3760		60.546875
3761		56.640625
3762		60.546875
3763		56.640625
3764		58.593750
3765		54.687500
3766		58.593750
3767		54.687500
3768		58.593750
3769		54.687500
3770		58.593750
3771		54.687500
3772		56.640625
3773		54.687500
3774		56.640625
3775		52.734375
3776		56.640625
3777		52.734375
3778		56.640625
3779		52.734375
3780		56.640625
3781		52.734375
3782		54.687500
3783		50.781250
3784		54.687500
3785		50.781250
3786		54.687500
3787		50.781250
3788		54.687500
3789		48.828125
3790		52.734375
3791		48.828125
3792		52.734375
3793		48.828125
3794		50.781250
3795		46.875000
3796		50.781250
3797		46.875000
3798		50.781250
3799		46.875000
3800		50.781250
3801		44.921875
3802		48.828125
3803		44.921875
3804		48.828125
3805		44.921875
3806		48.828125
3807		42.968750
3808		46.875000
3809		42.968750
3810		46.875000
3811		41.015625
3812		44.921875
3813		41.015625
3814		44.921875
3815		41.015625
3816		44.921875
3817		39.062500
3818		42.968750
3819		39.062500
3820		42.968750
3821		39.062500
3822		42.968750
3823		37.109375
3824		41.015625
3825		35.156250
3826		41.015625
3827		35.156250
3828		39.062500
3829		35.156250
3830		39.062500
3831		33.203125
3832		37.109375
3833		33.203125
3834		37.109375
3835		31.250000
3836		35.156250
3837		31.250000
3838		35.156250
3839		29.296875
3840		35.156250
3841		29.296875
3842		33.203125
3843		29.296875
3844		31.250000
3845		27.343750
3846		31.250000
3847		27.343750
3848		31.250000
3849		23.437500
3850		29.296875
3851		25.390625
3852		29.296875
3853		23.437500
3854		27.343750
3855		21.484375
3856		27.343750
3857		21.484375
3858		25.390625
3859		19.531250
3860		25.390625
3861		17.578125
3862		23.437500
3863		19.531250
3864		21.484375
3865		17.578125
3866		21.484375
3867		17.578125
3868		19.531250
3869		15.625000
3870		19.531250
3871		13.671875
3872		17.578125
3873		13.671875
3874		17.578125
3875		11.718750
3876		15.625000
3877		9.765625
3878		13.671875
3879		9.765625
3880		13.671875
3881		9.765625
3882		11.718750
3883		7.812500
3884		11.718750
3885		5.859375
3886		9.765625
3887		5.859375
3888		9.765625
3889		3.906250
3890		7.812500
3891		3.906250
3892		7.812500
3893		1.953125
3894		5.859375
3895		1.953125
3896		5.859375
3897		0.000000
3898		3.906250
3899		-1.953125
3900		1.953125
3901		-1.953125
3902		1.953125
3903		-3.906250
3904		0.000000
3905		-3.906250
3906		0.000000
3907		-5.859375
3908		-1.953125
3909		-5.859375
3910		-1.953125
3911		-7.812500
3912		-3.906250
3913		-9.765625
3914		-3.906250
3915		-9.765625
3916		-5.859375
3917		-11.718750
3918		-7.812500
3919		-11.718750
3920		-7.812500
3921		-13.671875
3922		-9.765625
3923		-13.671875
3924		-9.765625
3925		-15.625000
3926		-11.718750
3927		-17.578125
3928		-11.718750
3929		-17.578125
3930		-13.671875
3931		-17.578125
3932		-15.625000
3933		-19.531250
3934		-15.625000
3935		-21.484375
3936		-15.625000
3937		-21.484375
3938		-17.578125
3939		-23.437500
3940		-19.531250
3941		-25.390625
3942		-19.531250
3943		-25.390625
3944		-21.484375
3945		-27.343750
3946		-23.437500
3947		-27.343750
3948		-23.437500
3949		-27.343750
3950		-25.390625
3951		-29.296875
3952		-25.390625
3953		-31.250000
3954		-27.343750
3955		-31.250000
3956		-27.343750
3957		-33.203125
3958		-29.296875
3959		-33.203125
3960		-29.296875
3961		-33.203125
3962		-31.250000
3963		-35.156250
3964		-31.250000
3965		-37.109375
3966		-33.203125
3967		-37.109375
3968		-33.203125
3969		-39.062500
3970		-35.156250
3971		-39.062500
3972		-35.156250
3973		-41.015625
3974		-37.109375
3975		-42.968750
3976		-37.109375
3977		-42.968750
3978		-39.062500
3979		-42.968750
3980		-39.062500
3981		-44.921875
3982		-41.015625
3983		-44.921875
3984		-41.015625
3985		-44.921875
3986		-41.015625
3987		-46.875000
3988		-42.968750
3989		-46.875000
3990		-42.968750
3991		-48.828125
3992		-44.921875
3993		-48.828125
3994		-44.921875
3995		-50.781250
3996		-46.875000
3997		-50.781250
3998		-46.875000
3999		-50.781250
4000		-48.828125
4001		-52.734375
4002		-48.828125
4003		-52.734375
4004		-48.828125
4005		-54.687500
4006		-50.781250
4007		-54.687500
4008		-50.781250
4009		-54.687500
4010		-52.734375
4011		-56.640625
4012		-52.734375
4013		-56.640625
4014		-52.734375
4015		-56.640625
4016		-54.687500
4017		-58.593750
4018		-52.734375
4019		-58.593750
4020		-54.687500
4021		-58.593750
4022		-56.640625
4023		-60.546875
4024		-56.640625
4025		-60.546875
4026		-56.640625
4027		-60.546875
4028		-58.593750
4029		-62.500000
4030		-58.593750
4031		-62.500000
4032		-58.593750
4033		-62.500000
4034		-58.593750
4035		-64.453125
4036		-58.593750
4037		-64.453125
4038		-60.546875
4039		-64.453125
4040		-60.546875
4041		-66.406250
4042		-60.546875
4043		-64.453125
4044		-60.546875
4045		-66.406250
4046		-62.500000
4047		-66.406250
4048		-62.500000
4049		-66.406250
4050		-62.500000
4051		-68.359375
4052		-62.500000
4053		-66.406250
4054		-64.453125
4055		-66.406250
4056		-64.453125
4057		-68.359375
4058		-64.453125
4059		-68.359375
4060		-64.453125
4061		-68.359375
4062		-64.453125
4063		-68.359375
4064		-64.453125
4065		-68.359375
4066		-64.453125
4067		-68.359375
4068		-64.453125
4069		-68.359375
4070		-64.453125
4071		-68.359375
4072		-64.453125
4073		-68.359375
4074		-64.453125
4075		-68.359375
4076		-66.406250
4077		-70.312500
4078		-66.406250
4079		-68.359375
4080		-66.406250
4081		-70.312500
4082		-64.453125
4083		-68.359375
4084		-66.406250
4085		-70.312500
4086		-64.453125
4087		-70.312500
4088		-66.406250
4089		-70.312500
4090		-64.453125
4091		-68.359375
4092		-66.406250
4093		-68.359375
4094		-66.406250
4095		-70.312500
4096		-66.406250
4097		-68.359375
4098		-64.453125
4099		-68.359375
4100		-66.406250
4101		-68.359375
4102		-64.453125
4103		-68.359375
4104		-64.453125
4105		-68.359375
4106		-64.453125
4107		-68.359375
4108		-64.453125
4109		-68.359375
4110		-64.453125
4111		-66.406250
4112		-64.453125
4113		-68.359375
4114		-64.453125
4115		-66.406250
4116		-62.500000
4117		-66.406250
4118		-62.500000
4119		-66.406250
4120		-62.500000
4121		-66.406250
4122		-62.500000
4123		-66.406250
4124		-62.500000
4125		-64.453125
4126		-60.546875
4127		-64.453125
4128		-60.546875
4129		-64.453125
4130		-60.546875
4131		-64.453125
4132		-58.593750
4133		-62.500000
4134		-60.546875
4135		-62.500000
4136		-58.593750
4137		-62.500000
4138		-58.593750
4139		-62.500000
4140		-58.593750
4141		-60.546875
4142		-56.640625
4143		-60.546875
4144		-56.640625
4145		-60.546875
4146		-56.640625
4147		-60.546875
4148		-54.687500
4149		-58.593750
4150		-54.687500
4151		-58.593750
4152		-54.687500
4153		-56.640625
4154		-52.734375
4155		-56.640625
4156		-52.734375
4157		-56.640625
4158		-52.734375
4159		-54.687500
4160		-50.781250
4161		-54.687500
4162		-50.781250
4163		-54.687500
4164		-50.781250
4165		-54.687500
4166		-48.828125
4167		-52.734375
4168		-48.828125
4169		-50.781250
4170		-46.875000
4171		-50.781250
4172		-46.875000
4173		-48.828125
4174		-44.921875
4175		-48.828125
4176		-44.921875
4177		-48.828125
4178		-44.921875
4179		-46.875000
4180		-42.968750
4181		-46.875000
4182		-42.968750
4183		-44.921875
4184		-42.968750
4185		-44.921875
4186		-41.015625
4187		-44.921875
4188		-41.015625
4189		-42.968750
4190		-39.062500
4191		-41.015625
4192		-37.109375
4193		-41.015625
4194		-37.109375
4195		-41.015625
4196		-37.109375
4197		-39.062500
4198		-35.156250
4199		-39.062500
4200		-35.156250
4201		-37.109375
4202		-33.203125
4203		-37.109375
4204		-31.250000
4205		-35.156250
4206		-31.250000
4207		-35.156250
4208		-29.296875
4209		-33.203125
4210		-29.296875
4211		-31.250000
4212		-27.343750
4213		-31.250000
4214		-27.343750
4215		-31.250000
4216		-27.343750
4217		-29.296875
4218		-25.390625
4219		-27.343750
4220		-23.437500
4221		-27.343750
4222		-23.437500
4223		-25.390625
4224		-21.484375
4225		-25.390625
4226		-21.484375
4227		-23.437500
4228		-19.531250
4229		-23.437500
4230		-19.531250
4231		-21.484375
4232		-17.578125
4233		-19.531250
4234		-17.578125
4235		-19.531250
4236		-15.625000
4237		-17.578125
4238		-13.671875
4239		-17.578125
4240		-13.671875
4241		-15.625000
4242		-11.718750
4243		-15.625000
4244		-11.718750
4245		-13.671875
4246		-9.765625
4247		-13.671875
4248		-9.765625
4249		-11.718750
4250		-7.812500
4251		-9.765625
4252		-7.812500
4253		-9.765625
4254		-5.859375
4255		-7.812500
4256		-3.906250
4257		-7.812500
4258		-3.906250
4259		-5.859375
4260		-1.953125
4261		-5.859375
4262		0.000000
4263		-3.906250
4264		0.000000
4265		-3.906250
4266		1.953125
4267		-1.953125
4268		1.953125
4269		0.000000
4270		3.906250
4271		0.000000
4272		3.906250
4273		1.953125
4274		5.859375
4275		1.953125
4276		5.859375
4277		3.906250
4278		7.812500
4279		3.906250
4280		7.812500
4281		5.859375
4282		9.765625
4283		5.859375
4284		11.718750
4285		7.812500
4286		11.718750
4287		9.765625
4288		13.671875
4289		9.765625
4290		13.671875
4291		11.718750
4292		15.625000
4293		11.718750
4294		15.625000
4295		13.671875
4296		17.578125
4297		13.671875
4298		17.578125
4299		15.625000
4300		19.531250
4301		17.578125
4302		19.531250
4303		17.578125
4304		21.484375
4305		17.578125
4306		21.484375
4307		19.531250
4308		23.437500
4309		19.531250
4310		25.390625
4311		21.484375
4312		25.390625
4313		23.437500
4314		25.390625
4315		23.437500
4316		27.343750
4317		25.390625
4318		27.343750
4319		25.390625
4320		29.296875
4321		25.390625
4322		29.296875
4323		27.343750
4324		31.250000
4325		27.343750
4326		33.203125
4327		29.296875
4328		33.203125
4329		29.296875
4330		35.156250
4331		31.250000
4332		35.156250
4333		31.250000
4334		35.156250
4335		33.203125
4336		37.109375
4337		33.203125
4338		37.109375
4339		35.156250
4340		39.062500
4341		35.156250
4342		41.015625
4343		37.109375
4344		39.062500
4345		37.109375
4346		41.015625
4347		37.109375
4348		41.015625
4349		37.109375
4350		42.968750
4351		39.062500
4352		42.968750
4353		41.015625
4354		42.968750
4355		41.015625
4356		44.921875
4357		42.968750
4358		44.921875
4359		41.015625
4360		46.875000
4361		42.968750
4362		46.875000
4363		44.921875
4364		48.828125
4365		44.921875
4366		48.828125
4367		44.921875
4368		48.828125
4369		44.921875
4370		50.781250
4371		46.875000
4372		50.781250
4373		46.875000
4374		50.781250
4375		48.828125
4376		50.781250
4377		48.828125
4378		52.734375
4379		48.828125
4380		52.734375
4381		48.828125
4382		52.734375
4383		48.828125
4384		54.687500
4385		50.781250
4386		54.687500
4387		50.781250
4388		54.687500
4389		52.734375
4390		54.687500
4391		52.734375
4392		56.640625
4393		52.734375
4394		56.640625
4395		52.734375
4396		56.640625
4397		52.734375
4398		58.593750
4399		54.687500
4400		58.593750
4401		54.687500
4402		58.593750
4403		54.687500
4404		58.593750
4405		54.687500
4406		60.546875
4407		56.640625
4408		60.546875
4409		56.640625
4410		60.546875
4411		56.640625
4412		60.546875
4413		56.640625
4414		60.546875
4415		56.640625
4416		60.546875
4417		56.640625
4418		60.546875
4419		58.593750
4420		62.500000
4421		58.593750
4422		62.500000
4423		58.593750
4424		62.500000
4425		58.593750
4426		62.500000
4427		58.593750
4428		62.500000
4429		58.593750
4430		62.500000
4431		58.593750
4432		62.500000
4433		58.593750
4434		62.500000
4435		60.546875
4436		62.500000
4437		60.546875
4438		62.500000
4439		58.593750
4440		62.500000
4441		58.593750
4442		64.453125
4443		60.546875
4444		62.500000
4445		60.546875
4446		64.453125
4447		60.546875
4448		62.500000
4449		60.546875
4450		62.500000
4451		58.593750
4452		64.453125
4453		60.546875
4454		62.500000
4455		58.593750
4456		62.500000
4457		60.546875
4458		62.500000
4459		60.546875
4460		62.500000
4461		58.593750
4462		62.500000
4463		58.593750
4464		62.500000
4465		58.593750
4466		64.453125
4467		60.546875
4468		62.500000
4469		58.593750
4470		62.500000
4471		58.593750
4472		62.500000
4473		58.593750
4474		62.500000
4475		58.593750
4476		62.500000
4477		58.593750
4478		62.500000
4479		58.593750
4480		60.546875
4481		58.593750
4482		62.500000
4483		56.640625
4484		60.546875
4485		56.640625
4486		62.500000
4487		56.640625
4488		60.546875
4489		56.640625
4490		60.546875
4491		56.640625
4492		60.546875
4493		56.640625
4494		58.593750
4495		54.687500
4496		58.593750
4497		54.687500
4498		58.593750
4499		54.687500
4500		58.593750
4501		54.687500
4502		58.593750
4503		54.687500
4504		56.640625
4505		52.734375
4506		56.640625
4507		52.734375
4508		56.640625
4509		52.734375
4510		56.640625
4511		52.734375
4512		56.640625
4513		50.781250
4514		54.687500
4515		50.781250
4516		54.687500
4517		50.781250
4518		54.687500
4519		48.828125
4520		52.734375
4521		48.828125
4522		52.734375
4523		48.828125
4524		52.734375
4525		46.875000
4526		52.734375
4527		46.875000
4528		50.781250
4529		46.875000
4530		50.781250
4531		46.875000
4532		48.828125
4533		44.921875
4534		48.828125
4535		44.921875
4536		50.781250
4537		44.921875
4538		46.875000
4539		42.968750
4540		46.875000
4541		42.968750
4542		44.921875
4543		41.015625
4544		44.921875
4545		41.015625
4546		46.875000
4547		41.015625
4548		42.968750
4549		39.062500
4550		42.968750
4551		37.109375
4552		42.968750
4553		37.109375
4554		41.015625
4555		37.109375
4556		41.015625
4557		35.156250
4558		39.062500
4559		35.156250
4560		39.062500
4561		35.156250
4562		39.062500
4563		33.203125
4564		37.109375
4565		33.203125
4566		35.156250
4567		31.250000
4568		35.156250
4569		31.250000
4570		35.156250
4571		29.296875
4572		33.203125
4573		29.296875
4574		33.203125
4575		27.343750
4576		31.250000
4577		27.343750
4578		31.250000
4579		25.390625
4580		29.296875
4581		25.390625
4582		29.296875
4583		23.437500
4584		27.343750
4585		23.437500
4586		27.343750
4587		21.484375
4588		25.390625
4589		19.531250
4590		25.390625
4591		19.531250
4592		23.437500
4593		17.578125
4594		23.437500
4595		17.578125
4596		21.484375
4597		17.578125
4598		19.531250
4599		15.625000
4600		19.531250
4601		15.625000
4602		19.531250
4603		13.671875
4604		17.578125
4605		13.671875
4606		15.625000
4607		11.718750
4608		15.625000
4609		9.765625
4610		15.625000
4611		9.765625
4612		13.671875
4613		7.812500
4614		11.718750
4615		7.812500
4616		11.718750
4617		5.859375
4618		9.765625
4619		5.859375
4620		7.812500
4621		3.906250
4622		7.812500
4623		1.953125
4624		7.812500
4625		1.953125
4626		5.859375
4627		0.000000
4628		3.906250
4629		0.000000
4630		3.906250
4631		-1.953125
4632		1.953125
4633		-3.906250
4634		1.953125
4635		-3.906250
4636		0.000000
4637		-5.859375
4638		-1.953125
4639		-5.859375
4640		-1.953125
4641		-7.812500
4642		-3.906250
4643		-9.765625
4644		-3.906250
4645		-9.765625
4646		-5.859375
4647		-11.718750
4648		-5.859375
4649		-11.718750
4650		-7.812500
4651		-13.671875
4652		-9.765625
4653		-13.671875
4654		-9.765625
4655		-15.625000
4656		-11.718750
4657		-15.625000
4658		-13.671875
4659		-17.578125
4660		-13.671875
4661		-17.578125
4662		-15.625000
4663		-19.531250
4664		-15.625000
4665		-21.484375
4666		-17.578125
4667		-21.484375
4668		-17.578125
4669		-23.437500
4670		-17.578125
4671		-23.437500
4672		-21.484375
4673		-27.343750
4674		-21.484375
4675		-25.390625
4676		-21.484375
4677		-27.343750
4678		-23.437500
4679		-27.343750
4680		-23.437500
4681		-29.296875
4682		-25.390625
4683		-31.250000
4684		-25.390625
4685		-31.250000
4686		-27.343750
4687		-31.250000
4688		-29.296875
4689		-33.203125
4690		-29.296875
4691		-35.156250
4692		-31.250000
4693		-37.109375
4694		-31.250000
4695		-37.109375
4696		-33.203125
4697		-37.109375
4698		-33.203125
4699		-39.062500
4700		-35.156250
4701		-41.015625
4702		-35.156250
4703		-41.015625
4704		-35.156250
4705		-41.015625
4706		-39.062500
4707		-42.968750
4708		-39.062500
4709		-42.968750
4710		-39.062500
4711		-44.921875
4712		-41.015625
4713		-44.921875
4714		-41.015625
4715		-44.921875
4716		-42.968750
4717		-46.875000
4718		-42.968750
4719		-46.875000
4720		-42.968750
4721		-48.828125
4722		-44.921875
4723		-48.828125
4724		-44.921875
4725		-50.781250
4726		-46.875000
4727		-50.781250
4728		-46.875000
4729		-50.781250
4730		-48.828125
4731		-52.734375
4732		-48.828125
4733		-52.734375
4734		-48.828125
4735		-54.687500
4736		-50.781250
4737		-54.687500
4738		-50.781250
4739		-54.687500
4740		-52.734375
4741		-56.640625
4742		-52.734375
4743		-56.640625
4744		-52.734375
4745		-56.640625
4746		-54.687500
4747		-58.593750
4748		-54.687500
4749		-58.593750
4750		-54.687500
4751		-58.593750
4752		-56.640625
4753		-60.546875
4754		-56.640625
4755		-60.546875
4756		-56.640625
4757		-62.500000
4758		-58.593750
4759		-62.500000
4760		-58.593750
4761		-62.500000
4762		-58.593750
4763		-62.500000
4764		-60.546875
4765		-64.453125
4766		-60.546875
4767		-64.453125
4768		-60.546875
4769		-64.453125
4770		-60.546875
4771		-64.453125
4772		-60.546875
4773		-64.453125
4774		-62.500000
4775		-66.406250
4776		-62.500000
4777		-66.406250
4778		-62.500000
4779		-66.406250
4780		-62.500000
4781		-68.359375
4782		-62.500000
4783		-68.359375
4784		-64.453125
4785		-66.406250
4786		-64.453125
4787		-68.359375
4788		-64.453125
4789		-68.359375
4790		-64.453125
4791		-68.359375
4792		-66.406250
4793		-70.312500
4794		-64.453125
4795		-70.312500
4796		-66.406250
4797		-70.312500
4798		-66.406250
4799		-70.312500
4800		-66.406250
4801		-70.312500
4802		-66.406250
4803		-70.312500
4804		-66.406250
4805		-70.312500
4806		-66.406250
4807		-70.312500
4808		-66.406250
4809		-70.312500
4810		-66.406250
4811		-70.312500
4812		-66.406250
4813		-70.312500
4814		-66.406250
4815		-70.312500
4816		-66.406250
4817		-70.312500
4818		-68.359375
4819		-70.312500
4820		-66.406250
4821		-70.312500
4822		-66.406250
4823		-70.312500
4824		-66.406250
4825		-70.312500
4826		-66.406250
4827		-70.312500
4828		-66.406250
4829		-70.312500
4830		-66.406250
4831		-70.312500
4832		-66.406250
4833		-70.312500
4834		-66.406250
4835		-70.312500
4836		-66.406250
4837		-70.312500
4838		-66.406250
4839		-68.359375
4840		-66.406250
4841		-70.312500
4842		-64.453125
4843		-68.359375
4844		-64.453125
4845		-68.359375
4846		-64.453125
4847		-68.359375
4848		-64.453125
4849		-68.359375
4850		-64.453125
4851		-68.359375
4852		-64.453125
4853		-68.359375
4854		-62.500000
4855		-66.406250
4856		-64.453125
4857		-66.406250
4858		-62.500000
4859		-66.406250
4860		-62.500000
4861		-66.406250
4862		-62.500000
4863		-66.406250
4864		-60.546875
4865		-64.453125
4866		-60.546875
4867		-64.453125
4868		-60.546875
4869		-64.453125
4870		-60.546875
4871		-62.500000
4872		-58.593750
4873		-62.500000
4874		-58.593750
4875		-62.500000
4876		-58.593750
4877		-60.546875
4878		-58.593750
4879		-60.546875
4880		-56.640625
4881		-60.546875
4882		-56.640625
4883		-60.546875
4884		-56.640625
4885		-58.593750
4886		-54.687500
4887		-58.593750
4888		-54.687500
4889		-58.593750
4890		-54.687500
4891		-56.640625
4892		-52.734375
4893		-56.640625
4894		-52.734375
4895		-54.687500
4896		-52.734375
4897		-54.687500
4898		-50.781250
4899		-54.687500
4900		-50.781250
4901		-52.734375
4902		-48.828125
4903		-52.734375
4904		-48.828125
4905		-52.734375
4906		-46.875000
4907		-50.781250
4908		-46.875000
4909		-50.781250
4910		-46.875000
4911		-48.828125
4912		-44.921875
4913		-48.828125
4914		-44.921875
4915		-46.875000
4916		-42.968750
4917		-46.875000
4918		-42.968750
4919		-46.875000
4920		-42.968750
4921		-44.921875
4922		-41.015625
4923		-44.921875
4924		-41.015625
4925		-42.968750
4926		-39.062500
4927		-42.968750
4928		-39.062500
4929		-41.015625
4930		-37.109375
4931		-41.015625
4932		-37.109375
4933		-39.062500
4934		-35.156250
4935		-39.062500
4936		-33.203125
4937		-37.109375
4938		-33.203125
4939		-35.156250
4940		-33.203125
4941		-35.156250
4942		-31.250000
4943		-35.156250
4944		-31.250000
4945		-33.203125
4946		-29.296875
4947		-31.250000
4948		-27.343750
4949		-31.250000
4950		-27.343750
4951		-31.250000
4952		-27.343750
4953		-29.296875
4954		-25.390625
4955		-27.343750
4956		-23.437500
4957		-27.343750
4958		-23.437500
4959		-27.343750
4960		-21.484375
4961		-25.390625
4962		-21.484375
4963		-23.437500
4964		-19.531250
4965		-23.437500
4966		-17.578125
4967		-21.484375
4968		-17.578125
4969		-19.531250
4970		-15.625000
4971		-19.531250
4972		-13.671875
4973		-17.578125
4974		-13.671875
4975		-15.625000
4976		-13.671875
4977		-15.625000
4978		-11.718750
4979		-15.625000
4980		-11.718750
4981		-13.671875
4982		-9.765625
4983		-13.671875
4984		-7.812500
4985		-11.718750
4986		-7.812500
4987		-9.765625
4988		-5.859375
4989		-9.765625
4990		-3.906250
4991		-7.812500
4992		-3.906250
4993		-5.859375
4994		-3.906250
4995		-5.859375
4996		-1.953125
4997		-3.906250
4998		0.000000
4999		-3.906250
5000		0.000000
5001		-1.953125
5002		1.953125
5003		-1.953125
5004		1.953125
5005		0.000000
5006		3.906250
5007		0.000000
5008		3.906250
5009		1.953125
5010		5.859375
5011		3.906250
5012		7.812500
5013		3.906250
5014		7.812500
5015		3.906250
5016		9.765625
5017		5.859375
5018		9.765625
5019		7.812500
5020		11.718750
5021		9.765625
5022		11.718750
5023		9.765625
5024		13.671875
5025		9.765625
5026		15.625000
5027		11.718750
5028		15.625000
5029		13.671875
5030		17.578125
5031		13.671875
5032		17.578125
5033		15.625000
5034		17.578125
5035		15.625000
5036		19.531250
5037		15.625000
5038		21.484375
5039		17.578125
5040		21.484375
5041		19.531250
5042		23.437500
5043		19.531250
5044		25.390625
5045		21.484375
5046		25.390625
5047		21.484375
5048		27.343750
5049		23.437500
5050		27.343750
5051		23.437500
5052		29.296875
5053		25.390625
5054		29.296875
5055		25.390625
5056		31.250000
5057		27.343750
5058		31.250000
5059		29.296875
5060		31.250000
5061		27.343750
5062		33.203125
5063		29.296875
5064		35.156250
5065		31.250000
5066		33.203125
5067		31.250000
5068		35.156250
5069		33.203125
5070		37.109375
5071		33.203125
5072		37.109375
5073		35.156250
5074		39.062500
5075		35.156250
5076		39.062500
5077		35.156250
5078		39.062500
5079		37.109375
5080		41.015625
5081		37.109375
5082		41.015625
5083		39.062500
5084		42.968750
5085		39.062500
5086		42.968750
5087		41.015625
5088		42.968750
5089		39.062500
5090		46.875000
5091		41.015625
5092		44.921875
5093		41.015625
5094		46.875000
5095		42.968750
5096		46.875000
5097		44.921875
5098		46.875000
5099		42.968750
5100		48.828125
5101		44.921875
5102		48.828125
5103		44.921875
5104		48.828125
5105		44.921875
5106		50.781250
5107		46.875000
5108		50.781250
5109		48.828125
5110		50.781250
5111		46.875000
5112		52.734375
5113		48.828125
5114		52.734375
5115		48.828125
5116		52.734375
5117		50.781250
5118		52.734375
5119		50.781250
5120		54.687500
5121		50.781250
5122		56.640625
5123		50.781250
5124		54.687500
5125		52.734375
5126		54.687500
5127		52.734375
5128		56.640625
5129		52.734375
5130		56.640625
5131		52.734375
5132		56.640625
5133		52.734375
5134		58.593750
5135		54.687500
5136		56.640625
5137		54.687500
5138		58.593750
5139		54.687500
5140		58.593750
5141		56.640625
5142		58.593750
5143		56.640625
5144		58.593750
5145		54.687500
5146		60.546875
5147		56.640625
5148		60.546875
5149		56.640625
5150		60.546875
5151		56.640625
5152		60.546875
5153		56.640625
5154		62.500000
5155		56.640625
5156		60.546875
5157		58.593750
5158		60.546875
5159		56.640625
5160		62.500000
5161		56.640625
5162		62.500000
5163		58.593750
5164		62.500000
5165		58.593750
5166		62.500000
5167		58.593750
5168		62.500000
5169		58.593750
5170		62.500000
5171		58.593750
5172		62.500000
5173		58.593750
5174		62.500000
5175		58.593750
5176		62.500000
5177		60.546875
5178		62.500000
5179		58.593750
5180		62.500000
5181		58.593750
5182		62.500000
5183		58.593750
5184		62.500000
5185		58.593750
5186		62.500000
5187		58.593750
5188		62.500000
5189		58.593750
5190		62.500000
5191		58.593750
5192		62.500000
5193		58.593750
5194		62.500000
5195		58.593750
5196		62.500000
5197		58.593750
5198		62.500000
5199		58.593750
5200		62.500000
5201		58.593750
5202		62.500000
5203		58.593750
5204		62.500000
5205		58.593750
5206		62.500000
5207		56.640625
5208		62.500000
5209		58.593750
5210		60.546875
5211		56.640625
5212		60.546875
5213		56.640625
5214		60.546875
5215		56.640625
5216		60.546875
5217		56.640625
5218		60.546875
5219		54.687500
5220		60.546875
5221		56.640625
5222		60.546875
5223		54.687500
5224		60.546875
5225		54.687500
5226		58.593750
5227		54.687500
5228		58.593750
5229		54.687500
5230		58.593750
5231		54.687500
5232		58.593750
5233		54.687500
5234		56.640625
5235		52.734375
5236		58.593750
5237		52.734375
5238		56.640625
5239		50.781250
5240		56.640625
5241		50.781250
5242		54.687500
5243		50.781250
5244		54.687500
5245		50.781250
5246		54.687500
5247		48.828125
5248		54.687500
5249		48.828125
5250		54.687500
5251		48.828125
5252		52.734375
5253		48.828125
5254		52.734375
5255		46.875000
5256		52.734375
5257		46.875000
5258		52.734375
5259		46.875000
5260		50.781250
5261		46.875000
5262		50.781250
5263		42.968750
5264		48.828125
5265		44.921875
5266		48.828125
5267		42.968750
5268		48.828125
5269		42.968750
5270		48.828125
5271		41.015625
5272		46.875000
5273		41.015625
5274		46.875000
5275		41.015625
5276		44.921875
5277		39.062500
5278		44.921875
5279		39.062500
5280		42.968750
5281		37.109375
5282		42.968750
5283		37.109375
5284		42.968750
5285		37.109375
5286		41.015625
5287		35.156250
5288		41.015625
5289		35.156250
5290		39.062500
5291		35.156250
5292		39.062500
5293		35.156250
5294		37.109375
5295		31.250000
5296		37.109375
5297		31.250000
5298		37.109375
5299		31.250000
5300		35.156250
5301		29.296875
5302		35.156250
5303		29.296875
5304		33.203125
5305		27.343750
5306		33.203125
5307		27.343750
5308		33.203125
5309		27.343750
5310		29.296875
5311		25.390625
5312		29.296875
5313		23.437500
5314		29.296875
5315		23.437500
5316		27.343750
5317		21.484375
5318		25.390625
5319		21.484375
5320		25.390625
5321		21.484375
5322		23.437500
5323		17.578125
5324		23.437500
5325		19.531250
5326		23.437500
5327		17.578125
5328		21.484375
5329		15.625000
5330		21.484375
5331		15.625000
5332		19.531250
5333		13.671875
5334		17.578125
5335		13.671875
5336		17.578125
5337		11.718750
5338		15.625000
5339		11.718750
5340		15.625000
5341		9.765625
5342		13.671875
5343		9.765625
5344		11.718750
5345		7.812500
5346		11.718750
5347		5.859375
5348		9.765625
5349		5.859375
5350		9.765625
5351		3.906250
5352		7.812500
5353		3.906250
5354		7.812500
5355		1.953125
5356		5.859375
5357		1.953125
5358		5.859375
5359		0.000000
5360		3.906250
5361		0.000000
5362		1.953125
5363		-1.953125
5364		1.953125
5365		-1.953125
5366		0.000000
5367		-3.906250
5368		0.000000
5369		-5.859375
5370		-1.953125
5371		-5.859375
5372		-3.906250
5373		-7.812500
5374		-3.906250
5375		-7.812500
5376		-5.859375
5377		-9.765625
5378		-5.859375
5379		-11.718750
5380		-5.859375
5381		-11.718750
5382		-9.765625
5383		-13.671875
5384		-9.765625
5385		-13.671875
5386		-9.765625
5387		-15.625000
5388		-11.718750
5389		-17.578125
5390		-13.671875
5391		-17.578125
5392		-13.671875
5393		-17.578125
5394		-15.625000
5395		-19.531250
5396		-15.625000
5397		-21.484375
5398		-17.578125
5399		-21.484375
5400		-19.531250
5401		-23.437500
5402		-19.531250
5403		-23.437500
5404		-21.484375
5405		-25.390625
5406		-21.484375
5407		-27.343750
5408		-21.484375
5409		-27.343750
5410		-23.437500
5411		-29.296875
5412		-25.390625
5413		-31.250000
5414		-23.437500
5415		-33.203125
5416		-25.390625
5417		-35.156250
5418		-25.390625
5419		-35.156250
5420		-25.390625
5421		-33.203125
5422		-31.250000
5423		-35.156250
5424		-31.250000
5425		-35.156250
5426		-31.250000
5427		-37.109375
5428		-33.203125
5429		-37.109375
5430		-33.203125
5431		-41.015625
5432		-31.250000
5433		-41.015625
5434		-33.203125
5435		-42.968750
5436		-33.203125
5437		-41.015625
5438		-39.062500
5439		-42.968750
5440		-39.062500
5441		-42.968750
5442		-39.062500
5443		-44.921875
5444		-41.015625
5445		-44.921875
5446		-41.015625
5447		-48.828125
5448		-41.015625
5449		-50.781250
5450		-41.015625
5451		-50.781250
5452		-42.968750
5453		-48.828125
5454		-44.921875
5455		-50.781250
5456		-46.875000
5457		-50.781250
5458		-46.875000
5459		-50.781250
5460		-48.828125
5461		-52.734375
5462		-48.828125
5463		-54.687500
5464		-48.828125
5465		-56.640625
5466		-46.875000
5467		-56.640625
5468		-48.828125
5469		-58.593750
5470		-48.828125
5471		-56.640625
5472		-52.734375
5473		-58.593750
5474		-52.734375
5475		-56.640625
5476		-54.687500
5477		-58.593750
5478		-54.687500
5479		-58.593750
5480		-54.687500
5481		-62.500000
5482		-52.734375
5483		-64.453125
5484		-54.687500
5485		-64.453125
5486		-54.687500
5487		-60.546875
5488		-58.593750
5489		-62.500000
5490		-56.640625
5491		-62.500000
5492		-58.593750
5493		-62.500000
5494		-60.546875
5495		-64.453125
5496		-58.593750
5497		-66.406250
5498		-58.593750
5499		-68.359375
5500		-58.593750
5501		-68.359375
5502		-58.593750
5503		-68.359375
5504		-58.593750
5505		-66.406250
5506		-62.500000
5507		-66.406250
5508		-64.453125
5509		-66.406250
5510		-64.453125
5511		-66.406250
5512		-62.500000
5513		-68.359375
5514		-64.453125
5515		-70.312500
5516		-60.546875
5517		-72.265625
5518		-62.500000
5519		-72.265625
5520		-62.500000
5521		-70.312500
5522		-66.406250
5523		-68.359375
5524		-66.406250
5525		-70.312500
5526		-66.406250
5527		-70.312500
5528		-66.406250
5529		-70.312500
5530		-66.406250
5531		-74.218750
5532		-62.500000
5533		-74.218750
5534		-64.453125
5535		-74.218750
5536		-62.500000
5537		-70.312500
5538		-66.406250
5539		-70.312500
5540		-68.359375
5541		-70.312500
5542		-66.406250
5543		-70.312500
5544		-68.359375
5545		-70.312500
5546		-68.359375
5547		-74.218750
5548		-64.453125
5549		-74.218750
5550		-64.453125
5551		-74.218750
5552		-64.453125
5553		-74.218750
5554		-64.453125
5555		-70.312500
5556		-68.359375
5557		-70.312500
5558		-68.359375
5559		-72.265625
5560		-68.359375
5561		-70.312500
5562		-68.359375
5563		-70.312500
5564		-68.359375
5565		-74.218750
5566		-64.453125
5567		-74.218750
5568		-64.453125
5569		-74.218750
5570		-62.500000
5571		-70.312500
5572		-66.406250
5573		-70.312500
5574		-66.406250
5575		-70.312500
5576		-66.406250
5577		-70.312500
5578		-66.406250
5579		-68.359375
5580		-66.406250
5581		-72.265625
5582		-62.500000
5583		-72.265625
5584		-62.500000
5585		-70.312500
5586		-62.500000
5587		-70.312500
5588		-62.500000
5589		-66.406250
5590		-64.453125
5591		-66.406250
5592		-64.453125
5593		-66.406250
5594		-64.453125
5595		-66.406250
5596		-62.500000
5597		-66.406250
5598		-62.500000
5599		-64.453125
5600		-62.500000
5601		-66.406250
5602		-58.593750
5603		-66.406250
5604		-58.593750
5605		-64.453125
5606		-60.546875
5607		-64.453125
5608		-60.546875
5609		-62.500000
5610		-58.593750
5611		-62.500000
5612		-58.593750
5613		-60.546875
5614		-58.593750
5615		-60.546875
5616		-56.640625
5617		-62.500000
5618		-54.687500
5619		-60.546875
5620		-52.734375
5621		-58.593750
5622		-54.687500
5623		-58.593750
5624		-54.687500
5625		-56.640625
5626		-52.734375
5627		-56.640625
5628		-52.734375
5629		-56.640625
5630		-52.734375
5631		-54.687500
5632		-50.781250
5633		-54.687500
5634		-50.781250
5635		-54.687500
5636		-48.828125
5637		-52.734375
5638		-48.828125
5639		-52.734375
5640		-48.828125
5641		-50.781250
5642		-46.875000
5643		-50.781250
5644		-46.875000
5645		-48.828125
5646		-46.875000
5647		-48.828125
5648		-42.968750
5649		-46.875000
5650		-44.921875
5651		-46.875000
5652		-42.968750
5653		-46.875000
5654		-41.015625
5655		-44.921875
5656		-41.015625
5657		-42.968750
5658		-41.015625
5659		-42.968750
5660		-39.062500
5661		-42.968750
5662		-39.062500
5663		-41.015625
5664		-37.109375
5665		-41.015625
5666		-37.109375
5667		-39.062500
5668		-35.156250
5669		-39.062500
5670		-35.156250
5671		-37.109375
5672		-33.203125
5673		-35.156250
5674		-33.203125
5675		-35.156250
5676		-31.250000
5677		-33.203125
5678		-31.250000
5679		-33.203125
5680		-29.296875
5681		-31.250000
5682		-29.296875
5683		-31.250000
5684		-27.343750
5685		-29.296875
5686		-27.343750
5687		-29.296875
5688		-25.390625
5689		-27.343750
5690		-23.437500
5691		-27.343750
5692		-23.437500
5693		-25.390625
5694		-21.484375
5695		-25.390625
5696		-21.484375
5697		-23.437500
5698		-19.531250
5699		-23.437500
5700		-19.531250
5701		-21.484375
5702		-17.578125
5703		-21.484375
5704		-15.625000
5705		-19.531250
5706		-15.625000
5707		-19.531250
5708		-13.671875
5709		-17.578125
5710		-13.671875
5711		-15.625000
5712		-11.718750
5713		-15.625000
5714		-9.765625
5715		-13.671875
5716		-9.765625
5717		-13.671875
5718		-7.812500
5719		-11.718750
5720		-7.812500
5721		-9.765625
5722		-7.812500
5723		-9.765625
5724		-5.859375
5725		-9.765625
5726		-3.906250
5727		-5.859375
5728		-1.953125
5729		-5.859375
5730		-1.953125
5731		-5.859375
5732		-1.953125
5733		-3.906250
5734		0.000000
5735		-3.906250
5736		1.953125
5737		-1.953125
5738		1.953125
5739		0.000000
5740		3.906250
5741		0.000000
5742		3.906250
5743		1.953125
5744		5.859375
5745		3.906250
5746		7.812500
5747		3.906250
5748		7.812500
5749		3.906250
5750		9.765625
5751		5.859375
5752		9.765625
5753		7.812500
5754		11.718750
5755		7.812500
5756		11.718750
5757		7.812500
5758		13.671875
5759		9.765625
5760		13.671875
5761		11.718750
5762		15.625000
5763		11.718750
5764		15.625000
5765		13.671875
5766		17.578125
5767		13.671875
5768		19.531250
5769		15.625000
5770		19.531250
5771		17.578125
5772		19.531250
5773		15.625000
5774		21.484375
5775		17.578125
5776		21.484375
5777		19.531250
5778		23.437500
5779		21.484375
5780		23.437500
5781		21.484375
5782		25.390625
5783		21.484375
5784		27.343750
5785		23.437500
5786		27.343750
5787		25.390625
5788		27.343750
5789		25.390625
5790		29.296875
5791		25.390625
5792		31.250000
5793		27.343750
5794		31.250000
5795		25.390625
5796		31.250000
5797		29.296875
5798		33.203125
5799		29.296875
5800		35.156250
5801		31.250000
5802		35.156250
5803		31.250000
5804		35.156250
5805		33.203125
5806		37.109375
5807		33.203125
5808		37.109375
5809		33.203125
5810		37.109375
5811		35.156250
5812		39.062500
5813		37.109375
5814		39.062500
5815		37.109375
5816		41.015625
5817		37.109375
5818		41.015625
5819		39.062500
5820		42.968750
5821		39.062500
5822		42.968750
5823		41.015625
5824		44.921875
5825		41.015625
5826		44.921875
5827		41.015625
5828		44.921875
5829		42.968750
5830		44.921875
5831		42.968750
5832		46.875000
5833		42.968750
5834		48.828125
5835		42.968750
5836		48.828125
5837		44.921875
5838		48.828125
5839		46.875000
5840		48.828125
5841		44.921875
5842		50.781250
5843		46.875000
5844		50.781250
5845		46.875000
5846		50.781250
5847		48.828125
5848		50.781250
5849		48.828125
5850		52.734375
5851		48.828125
5852		54.687500
5853		48.828125
5854		54.687500
5855		50.781250
5856		54.687500
5857		50.781250
5858		54.687500
5859		50.781250
5860		56.640625
5861		52.734375
5862		56.640625
5863		52.734375
5864		56.640625
5865		52.734375
5866		56.640625
5867		52.734375
5868		58.593750
5869		54.687500
5870		58.593750
5871		52.734375
5872		58.593750
5873		54.687500
5874		58.593750
5875		54.687500
5876		58.593750
5877		54.687500
5878		58.593750
5879		56.640625
5880		58.593750
5881		56.640625
5882		60.546875
5883		56.640625
5884		60.546875
5885		56.640625
5886		60.546875
5887		56.640625
5888		60.546875
5889		56.640625
5890		60.546875
5891		58.593750
5892		62.500000
5893		56.640625
5894		62.500000
5895		58.593750
5896		60.546875
5897		56.640625
5898		62.500000
5899		58.593750
5900		62.500000
5901		58.593750
5902		60.546875
5903		58.593750
5904		62.500000
5905		58.593750
5906		62.500000
5907		58.593750
5908		62.500000
5909		58.593750
5910		62.500000
5911		60.546875
5912		62.500000
5913		58.593750
5914		62.500000
5915		58.593750
5916		62.500000
5917		58.593750
5918		62.500000
5919		58.593750
5920		62.500000
5921		58.593750
5922		62.500000
5923		58.593750
5924		62.500000
5925		58.593750
5926		64.453125
5927		58.593750
5928		62.500000
5929		58.593750
5930		62.500000
5931		58.593750
5932		62.500000
5933		58.593750
5934		62.500000
5935		58.593750
5936		62.500000
5937		58.593750
5938		62.500000
5939		58.593750
5940		62.500000
5941		56.640625
5942		62.500000
5943		58.593750
5944		60.546875
5945		58.593750
5946		62.500000
5947		56.640625
5948		60.546875
5949		56.640625
5950		60.546875
5951		56.640625
5952		60.546875
5953		56.640625
5954		58.593750
5955		54.687500
5956		60.546875
5957		54.687500
5958		58.593750
5959		54.687500
5960		58.593750
5961		54.687500
5962		58.593750
5963		54.687500
5964		58.593750
5965		54.687500
5966		56.640625
5967		52.734375
5968		58.593750
5969		52.734375
5970		56.640625
5971		52.734375
5972		54.687500
5973		50.781250
5974		56.640625
5975		52.734375
5976		54.687500
5977		50.781250
5978		54.687500
5979		50.781250
5980		54.687500
5981		50.781250
5982		52.734375
5983		48.828125
5984		52.734375
5985		48.828125
5986		52.734375
5987		48.828125
5988		50.781250
5989		48.828125
5990		52.734375
5991		48.828125
5992		50.781250
5993		46.875000
5994		50.781250
5995		44.921875
5996		48.828125
5997		44.921875
5998		48.828125
5999		44.921875
6000		48.828125
6001		42.968750
6002		46.875000
6003		42.968750
6004		46.875000
6005		41.015625
6006		46.875000
6007		41.015625
6008		44.921875
6009		41.015625
6010		44.921875
6011		41.015625
6012		44.921875
6013		39.062500
6014		42.968750
6015		39.062500
6016		42.968750
6017		37.109375
6018		41.015625
6019		35.156250
6020		41.015625
6021		37.109375
6022		41.015625
6023		35.156250
6024		39.062500
6025		33.203125
6026		39.062500
6027		33.203125
6028		37.109375
6029		33.203125
6030		35.156250
6031		31.250000
6032		37.109375
6033		31.250000
6034		33.203125
6035		29.296875
6036		33.203125
6037		27.343750
6038		33.203125
6039		27.343750
6040		31.250000
6041		27.343750
6042		31.250000
6043		27.343750
6044		29.296875
6045		25.390625
6046		27.343750
6047		23.437500
6048		27.343750
6049		23.437500
6050		25.390625
6051		21.484375
6052		25.390625
6053		19.531250
6054		27.343750
6055		19.531250
6056		25.390625
6057		19.531250
6058		23.437500
6059		19.531250
6060		23.437500
6061		17.578125
6062		19.531250
6063		15.625000
6064		19.531250
6065		15.625000
6066		17.578125
6067		13.671875
6068		17.578125
6069		11.718750
6070		17.578125
6071		11.718750
6072		15.625000
6073		11.718750
6074		13.671875
6075		9.765625
6076		13.671875
6077		9.765625
6078		11.718750
6079		7.812500
6080		11.718750
6081		5.859375
6082		11.718750
6083		5.859375
6084		7.812500
6085		1.953125
6086		7.812500
6087		1.953125
6088		7.812500
6089		1.953125
6090		5.859375
6091		0.000000
6092		3.906250
6093		0.000000
6094		3.906250
6095		-1.953125
6096		1.953125
6097		-1.953125
6098		1.953125
6099		-3.906250
6100		0.000000
6101		-3.906250
6102		-1.953125
6103		-5.859375
6104		0.000000
6105		-7.812500
6106		-1.953125
6107		-7.812500
6108		-3.906250
6109		-7.812500
6110		-5.859375
6111		-9.765625
6112		-7.812500
6113		-11.718750
6114		-7.812500
6115		-11.718750
6116		-9.765625
6117		-13.671875
6118		-9.765625
6119		-15.625000
6120		-9.765625
6121		-17.578125
6122		-9.765625
6123		-17.578125
6124		-13.671875
6125		-17.578125
6126		-15.625000
6127		-19.531250
6128		-15.625000
6129		-21.484375
6130		-15.625000
6131		-21.484375
6132		-17.578125
6133		-23.437500
6134		-19.531250
6135		-25.390625
6136		-19.531250
6137		-25.390625
6138		-19.531250
6139		-27.343750
6140		-21.484375
6141		-27.343750
6142		-21.484375
6143		-27.343750
6144		-25.390625
6145		-29.296875
6146		-25.390625
6147		-31.250000
6148		-25.390625
6149		-31.250000
6150		-27.343750
6151		-33.203125
6152		-27.343750
6153		-35.156250
6154		-29.296875
6155		-35.156250
6156		-29.296875
6157		-35.156250
6158		-31.250000
6159		-35.156250
6160		-31.250000
6161		-37.109375
6162		-33.203125
6163		-39.062500
6164		-33.203125
6165		-39.062500
6166		-35.156250
6167		-39.062500
6168		-37.109375
6169		-42.968750
6170		-37.109375
6171		-42.968750
6172		-37.109375
6173		-42.968750
6174		-39.062500
6175		-44.921875
6176		-41.015625
6177		-44.921875
6178		-41.015625
6179		-46.875000
6180		-42.968750
6181		-46.875000
6182		-42.968750
6183		-46.875000
6184		-44.921875
6185		-48.828125
6186		-44.921875
6187		-50.781250
6188		-44.921875
6189		-50.781250
6190		-46.875000
6191		-50.781250
6192		-46.875000
6193		-50.781250
6194		-48.828125
6195		-52.734375
6196		-48.828125
6197		-52.734375
6198		-48.828125
6199		-54.687500
6200		-50.781250
6201		-54.687500
6202		-50.781250
6203		-56.640625
6204		-50.781250
6205		-56.640625
6206		-50.781250
6207		-58.593750
6208		-52.734375
6209		-58.593750
6210		-54.687500
6211		-58.593750
6212		-54.687500
6213		-60.546875
6214		-54.687500
6215		-60.546875
6216		-56.640625
6217		-60.546875
6218		-56.640625
6219		-60.546875
6220		-56.640625
6221		-62.500000
6222		-58.593750
6223		-62.500000
6224		-58.593750
6225		-62.500000
6226		-58.593750
6227		-62.500000
6228		-60.546875
6229		-64.453125
6230		-60.546875
6231		-64.453125
6232		-60.546875
6233		-64.453125
6234		-62.500000
6235		-66.406250
6236		-60.546875
6237		-66.406250
6238		-62.500000
6239		-66.406250
6240		-64.453125
6241		-66.406250
6242		-62.500000
6243		-66.406250
6244		-64.453125
6245		-66.406250
6246		-64.453125
6247		-68.359375
6248		-64.453125
6249		-68.359375
6250		-66.406250
6251		-68.359375
6252		-66.406250
6253		-70.312500
6254		-64.453125
6255		-70.312500
6256		-66.406250
6257		-70.312500
6258		-66.406250
6259		-70.312500
6260		-66.406250
6261		-70.312500
6262		-66.406250
6263		-70.312500
6264		-66.406250
6265		-72.265625
6266		-66.406250
6267		-70.312500
6268		-68.359375
6269		-70.312500
6270		-68.359375
6271		-70.312500
6272		-66.406250
6273		-70.312500
6274		-68.359375
6275		-70.312500
6276		-68.359375
6277		-72.265625
6278		-68.359375
6279		-70.312500
6280		-68.359375
6281		-70.312500
6282		-68.359375
6283		-72.265625
6284		-66.406250
6285		-70.312500
6286		-68.359375
6287		-72.265625
6288		-68.359375
6289		-72.265625
6290		-68.359375
6291		-70.312500
6292		-68.359375
6293		-70.312500
6294		-68.359375
6295		-70.312500
6296		-66.406250
6297		-70.312500
6298		-68.359375
6299		-70.312500
6300		-68.359375
6301		-70.312500
6302		-66.406250
6303		-70.312500
6304		-66.406250
6305		-70.312500
6306		-66.406250
6307		-70.312500
6308		-66.406250
6309		-70.312500
6310		-66.406250
6311		-68.359375
6312		-66.406250
6313		-68.359375
6314		-66.406250
6315		-68.359375
6316		-66.406250
6317		-68.359375
6318		-64.453125
6319		-68.359375
6320		-64.453125
6321		-66.406250
6322		-64.453125
6323		-66.406250
6324		-64.453125
6325		-66.406250
6326		-64.453125
6327		-66.406250
6328		-64.453125
6329		-64.453125
6330		-62.500000
6331		-66.406250
6332		-62.500000
6333		-64.453125
6334		-62.500000
6335		-64.453125
6336		-60.546875
6337		-64.453125
6338		-60.546875
6339		-62.500000
6340		-60.546875
6341		-62.500000
6342		-58.593750
6343		-62.500000
6344		-58.593750
6345		-60.546875
6346		-58.593750
6347		-60.546875
6348		-56.640625
6349		-60.546875
6350		-56.640625
6351		-60.546875
6352		-56.640625
6353		-58.593750
6354		-54.687500
6355		-58.593750
6356		-54.687500
6357		-56.640625
6358		-54.687500
6359		-56.640625
6360		-52.734375
6361		-56.640625
6362		-52.734375
6363		-54.687500
6364		-52.734375
6365		-54.687500
6366		-50.781250
6367		-52.734375
6368		-50.781250
6369		-52.734375
6370		-50.781250
6371		-52.734375
6372		-48.828125
6373		-50.781250
6374		-48.828125
6375		-50.781250
6376		-46.875000
6377		-48.828125
6378		-46.875000
6379		-48.828125
6380		-44.921875
6381		-46.875000
6382		-44.921875
6383		-46.875000
6384		-42.968750
6385		-46.875000
6386		-42.968750
6387		-44.921875
6388		-42.968750
6389		-44.921875
6390		-41.015625
6391		-42.968750
6392		-41.015625
6393		-42.968750
6394		-39.062500
6395		-42.968750
6396		-37.109375
6397		-41.015625
6398		-37.109375
6399		-39.062500
6400		-37.109375
6401		-39.062500
6402		-35.156250
6403		-37.109375
6404		-35.156250
6405		-37.109375
6406		-33.203125
6407		-35.156250
6408		-31.250000
6409		-35.156250
6410		-31.250000
6411		-33.203125
6412		-31.250000
6413		-33.203125
6414		-27.343750
6415		-31.250000
6416		-29.296875
6417		-31.250000
6418		-27.343750
6419		-29.296875
6420		-25.390625
6421		-29.296875
6422		-25.390625
6423		-27.343750
6424		-23.437500
6425		-27.343750
6426		-23.437500
6427		-25.390625
6428		-21.484375
6429		-23.437500
6430		-21.484375
6431		-23.437500
6432		-19.531250
6433		-21.484375
6434		-19.531250
6435		-21.484375
6436		-17.578125
6437		-19.531250
6438		-15.625000
6439		-17.578125
6440		-15.625000
6441		-17.578125
6442		-13.671875
6443		-17.578125
6444		-13.671875
6445		-15.625000
6446		-11.718750
6447		-13.671875
6448		-9.765625
6449		-13.671875
6450		-9.765625
6451		-11.718750
6452		-7.812500
6453		-9.765625
6454		-5.859375
6455		-9.765625
6456		-5.859375
6457		-7.812500
6458		-5.859375
6459		-7.812500
6460		-3.906250
6461		-5.859375
6462		-3.906250
6463		-3.906250
6464		-1.953125
6465		-3.906250
6466		0.000000
6467		-1.953125
6468		0.000000
6469		-1.953125
6470		1.953125
6471		0.000000
6472		3.906250
6473		0.000000
6474		3.906250
6475		1.953125
6476		5.859375
6477		1.953125
6478		5.859375
6479		3.906250
6480		7.812500
6481		3.906250
6482		7.812500
6483		5.859375
6484		9.765625
6485		7.812500
6486		9.765625
6487		7.812500
6488		11.718750
6489		9.765625
6490		11.718750
6491		9.765625
6492		13.671875
6493		11.718750
6494		13.671875
6495		11.718750
6496		15.625000
6497		13.671875
6498		15.625000
6499		13.671875
6500		17.578125
6501		15.625000
6502		19.531250
6503		15.625000
6504		19.531250
6505		17.578125
6506		21.484375
6507		19.531250
6508		23.437500
6509		19.531250
6510		23.437500
6511		21.484375
6512		23.437500
6513		21.484375
6514		25.390625
6515		23.437500
6516		25.390625
6517		23.437500
6518		27.343750
6519		23.437500
6520		27.343750
6521		25.390625
6522		29.296875
6523		25.390625
6524		29.296875
6525		25.390625
6526		31.250000
6527		27.343750
6528		31.250000
6529		29.296875
6530		31.250000
6531		29.296875
6532		33.203125
6533		31.250000
6534		33.203125
6535		31.250000
6536		35.156250
6537		31.250000
6538		35.156250
6539		33.203125
6540		37.109375
6541		35.156250
6542		37.109375
6543		35.156250
6544		39.062500
6545		35.156250
6546		39.062500
6547		37.109375
6548		41.015625
6549		37.109375
6550		41.015625
6551		39.062500
6552		41.015625
6553		39.062500
6554		42.968750
6555		41.015625
6556		42.968750
6557		41.015625
6558		42.968750
6559		41.015625
6560		44.921875
6561		41.015625
6562		44.921875
6563		42.968750
6564		46.875000
6565		42.968750
6566		46.875000
6567		42.968750
6568		46.875000
6569		44.921875
6570		48.828125
6571		44.921875
6572		48.828125
6573		46.875000
6574		48.828125
6575		46.875000
6576		50.781250
6577		46.875000
6578		50.781250
6579		48.828125
6580		50.781250
6581		48.828125
6582		52.734375
6583		48.828125
6584		54.687500
6585		50.781250
6586		52.734375
6587		50.781250
6588		52.734375
6589		50.781250
6590		54.687500
6591		50.781250
6592		54.687500
6593		50.781250
6594		54.687500
6595		50.781250
6596		56.640625
6597		52.734375
6598		56.640625
6599		52.734375
6600		56.640625
6601		52.734375
6602		56.640625
6603		54.687500
6604		56.640625
6605		54.687500
6606		56.640625
6607		54.687500
6608		58.593750
6609		54.687500
6610		58.593750
6611		54.687500
6612		58.593750
6613		56.640625
6614		58.593750
6615		54.687500
6616		58.593750
6617		56.640625
6618		60.546875
6619		56.640625
6620		58.593750
6621		56.640625
6622		60.546875
6623		56.640625
6624		60.546875
6625		56.640625
6626		60.546875
6627		56.640625
6628		62.500000
6629		58.593750
6630		60.546875
6631		58.593750
6632		60.546875
6633		56.640625
6634		62.500000
6635		58.593750
6636		60.546875
6637		58.593750
6638		62.500000
6639		56.640625
6640		62.500000
6641		58.593750
6642		60.546875
6643		58.593750
6644		62.500000
6645		58.593750
6646		62.500000
6647		58.593750
6648		62.500000
6649		58.593750
6650		62.500000
6651		58.593750
6652		62.500000
6653		58.593750
6654		60.546875
6655		58.593750
6656		62.500000
6657		58.593750
6658		62.500000
6659		58.593750
6660		62.500000
6661		58.593750
6662		62.500000
6663		58.593750
6664		60.546875
6665		58.593750
6666		60.546875
6667		58.593750
6668		62.500000
6669		58.593750
6670		60.546875
6671		58.593750
6672		60.546875
6673		56.640625
6674		60.546875
6675		58.593750
6676		60.546875
6677		58.593750
6678		60.546875
6679		56.640625
6680		60.546875
6681		56.640625
6682		60.546875
6683		56.640625
6684		60.546875
6685		56.640625
6686		58.593750
6687		56.640625
6688		58.593750
6689		54.687500
6690		60.546875
6691		54.687500
6692		58.593750
6693		54.687500
6694		58.593750
6695		54.687500
6696		58.593750
6697		54.687500
6698		56.640625
6699		52.734375
6700		56.640625
6701		52.734375
6702		56.640625
6703		52.734375
6704		56.640625
6705		52.734375
6706		56.640625
6707		52.734375
6708		54.687500
6709		50.781250
6710		54.687500
6711		50.781250
6712		54.687500
6713		50.781250
6714		54.687500
6715		50.781250
6716		54.687500
6717		48.828125
6718		52.734375
6719		48.828125
6720		52.734375
6721		48.828125
6722		52.734375
6723		46.875000
6724		50.781250
6725		46.875000
6726		50.781250
6727		46.875000
6728		48.828125
6729		44.921875
6730		48.828125
6731		44.921875
6732		48.828125
6733		44.921875
6734		46.875000
6735		42.968750
6736		46.875000
6737		42.968750
6738		46.875000
6739		42.968750
6740		44.921875
6741		41.015625
6742		44.921875
6743		41.015625
6744		44.921875
6745		39.062500
6746		42.968750
6747		39.062500
6748		42.968750
6749		39.062500
6750		42.968750
6751		37.109375
6752		41.015625
6753		37.109375
6754		41.015625
6755		35.156250
6756		41.015625
6757		35.156250
6758		39.062500
6759		35.156250
6760		37.109375
6761		33.203125
6762		37.109375
6763		33.203125
6764		35.156250
6765		31.250000
6766		35.156250
6767		31.250000
6768		33.203125
6769		29.296875
6770		33.203125
6771		29.296875
6772		33.203125
6773		27.343750
6774		31.250000
6775		25.390625
6776		31.250000
6777		25.390625
6778		29.296875
6779		25.390625
6780		27.343750
6781		23.437500
6782		27.343750
6783		23.437500
6784		25.390625
6785		21.484375
6786		25.390625
6787		21.484375
6788		23.437500
6789		19.531250
6790		23.437500
6791		19.531250
6792		21.484375
6793		17.578125
6794		21.484375
6795		17.578125
6796		21.484375
6797		15.625000
6798		19.531250
6799		15.625000
6800		17.578125
6801		13.671875
6802		17.578125
6803		11.718750
6804		15.625000
6805		11.718750
6806		15.625000
6807		9.765625
6808		15.625000
6809		9.765625
6810		13.671875
6811		5.859375
6812		11.718750
6813		7.812500
6814		9.765625
6815		5.859375
6816		9.765625
6817		5.859375
6818		9.765625
6819		3.906250
6820		7.812500
6821		1.953125
6822		5.859375
6823		1.953125
6824		5.859375
6825		0.000000
6826		3.906250
6827		0.000000
6828		1.953125
6829		-1.953125
6830		1.953125
6831		-1.953125
6832		0.000000
6833		-3.906250
6834		0.000000
6835		-5.859375
6836		-1.953125
6837		-5.859375
6838		-1.953125
6839		-7.812500
6840		-3.906250
6841		-7.812500
6842		-5.859375
6843		-9.765625
6844		-5.859375
6845		-9.765625
6846		-7.812500
6847		-11.718750
6848		-7.812500
6849		-13.671875
6850		-7.812500
6851		-13.671875
6852		-11.718750
6853		-15.625000
6854		-11.718750
6855		-15.625000
6856		-13.671875
6857		-17.578125
6858		-13.671875
6859		-17.578125
6860		-15.625000
6861		-19.531250
6862		-15.625000
6863		-21.484375
6864		-17.578125
6865		-21.484375
6866		-19.531250
6867		-23.437500
6868		-17.578125
6869		-23.437500
6870		-21.484375
6871		-25.390625
6872		-21.484375
6873		-25.390625
6874		-21.484375
6875		-27.343750
6876		-23.437500
6877		-29.296875
6878		-25.390625
6879		-29.296875
6880		-25.390625
6881		-29.296875
6882		-27.343750
6883		-33.203125
6884		-27.343750
6885		-33.203125
6886		-29.296875
6887		-35.156250
6888		-29.296875
6889		-35.156250
6890		-29.296875
6891		-35.156250
6892		-33.203125
6893		-37.109375
6894		-33.203125
6895		-37.109375
6896		-33.203125
6897		-39.062500
6898		-35.156250
6899		-39.062500
6900		-35.156250
6901		-41.015625
6902		-37.109375
6903		-41.015625
6904		-37.109375
6905		-42.968750
6906		-39.062500
6907		-42.968750
6908		-39.062500
6909		-44.921875
6910		-41.015625
6911		-44.921875
6912		-41.015625
6913		-44.921875
6914		-42.968750
6915		-46.875000
6916		-42.968750
6917		-48.828125
6918		-44.921875
6919		-48.828125
6920		-44.921875
6921		-48.828125
6922		-46.875000
6923		-50.781250
6924		-46.875000
6925		-50.781250
6926		-46.875000
6927		-52.734375
6928		-48.828125
6929		-52.734375
6930		-48.828125
6931		-52.734375
6932		-50.781250
6933		-54.687500
6934		-50.781250
6935		-54.687500
6936		-52.734375
6937		-56.640625
6938		-52.734375
6939		-56.640625
6940		-52.734375
6941		-56.640625
6942		-54.687500
6943		-58.593750
6944		-54.687500
6945		-58.593750
6946		-54.687500
6947		-58.593750
6948		-56.640625
6949		-60.546875
6950		-56.640625
6951		-60.546875
6952		-56.640625
6953		-60.546875
6954		-58.593750
6955		-62.500000
6956		-58.593750
6957		-62.500000
6958		-58.593750
6959		-64.453125
6960		-60.546875
6961		-64.453125
6962		-60.546875
6963		-64.453125
6964		-60.546875
6965		-64.453125
6966		-60.546875
6967		-64.453125
6968		-62.500000
6969		-64.453125
6970		-62.500000
6971		-66.406250
6972		-62.500000
6973		-66.406250
6974		-62.500000
6975		-66.406250
6976		-64.453125
6977		-68.359375
6978		-62.500000
6979		-66.406250
6980		-64.453125
6981		-68.359375
6982		-64.453125
6983		-68.359375
6984		-64.453125
6985		-68.359375
6986		-64.453125
6987		-68.359375
6988		-66.406250
6989		-70.312500
6990		-66.406250
6991		-70.312500
6992		-66.406250
6993		-70.312500
6994		-64.453125
6995		-70.312500
6996		-66.406250
6997		-70.312500
6998		-66.406250
6999		-70.312500
7000		-68.359375
7001		-70.312500
7002		-66.406250
7003		-70.312500
7004		-68.359375
7005		-70.312500
7006		-68.359375
7007		-72.265625
7008		-68.359375
7009		-70.312500
7010		-68.359375
7011		-70.312500
7012		-68.359375
7013		-72.265625
7014		-68.359375
7015		-70.312500
7016		-68.359375
7017		-70.312500
7018		-68.359375
7019		-72.265625
7020		-68.359375
7021		-72.265625
7022		-68.359375
7023		-72.265625
7024		-68.359375
7025		-72.265625
7026		-68.359375
7027		-70.312500
7028		-68.359375
7029		-70.312500
7030		-68.359375
7031		-70.312500
7032		-66.406250
7033		-70.312500
7034		-68.359375
7035		-70.312500
7036		-68.359375
7037		-70.312500
7038		-66.406250
7039		-70.312500
7040		-66.406250
7041		-70.312500
7042		-66.406250
7043		-70.312500
7044		-66.406250
7045		-70.312500
7046		-66.406250
7047		-68.359375
7048		-66.406250
7049		-68.359375
7050		-66.406250
7051		-68.359375
7052		-64.453125
7053		-68.359375
7054		-64.453125
7055		-66.406250
7056		-64.453125
7057		-66.406250
7058		-64.453125
7059		-66.406250
7060		-64.453125
7061		-66.406250
7062		-62.500000
7063		-66.406250
7064		-62.500000
7065		-66.406250
7066		-60.546875
7067		-64.453125
7068		-62.500000
7069		-66.406250
7070		-58.593750
7071		-64.453125
7072		-60.546875
7073		-64.453125
7074		-60.546875
7075		-62.500000
7076		-60.546875
7077		-62.500000
7078		-58.593750
7079		-62.500000
7080		-58.593750
7081		-62.500000
7082		-56.640625
7083		-60.546875
7084		-56.640625
7085		-60.546875
7086		-54.687500
7087		-58.593750
7088		-56.640625
7089		-58.593750
7090		-54.687500
7091		-56.640625
7092		-54.687500
7093		-58.593750
7094		-52.734375
7095		-56.640625
7096		-52.734375
7097		-54.687500
7098		-50.781250
7099		-56.640625
7100		-50.781250
7101		-54.687500
7102		-50.781250
7103		-54.687500
7104		-48.828125
7105		-52.734375
7106		-48.828125
7107		-54.687500
7108		-46.875000
7109		-50.781250
7110		-46.875000
7111		-50.781250
7112		-46.875000
7113		-50.781250
7114		-44.921875
7115		-48.828125
7116		-42.968750
7117		-46.875000
7118		-42.968750
7119		-48.828125
7120		-41.015625
7121		-44.921875
7122		-42.968750
7123		-46.875000
7124		-39.062500
7125		-42.968750
7126		-39.062500
7127		-42.968750
7128		-39.062500
7129		-42.968750
7130		-37.109375
7131		-42.968750
7132		-33.203125
7133		-41.015625
7134		-37.109375
7135		-39.062500
7136		-35.156250
7137		-39.062500
7138		-33.203125
7139		-39.062500
7140		-31.250000
7141		-35.156250
7142		-33.203125
7143		-35.156250
7144		-31.250000
7145		-33.203125
7146		-29.296875
7147		-35.156250
7148		-25.390625
7149		-31.250000
7150		-27.343750
7151		-31.250000
7152		-27.343750
7153		-31.250000
7154		-23.437500
7155		-31.250000
7156		-23.437500
7157		-29.296875
7158		-21.484375
7159		-25.390625
7160		-23.437500
7161		-25.390625
7162		-21.484375
7163		-25.390625
7164		-17.578125
7165		-25.390625
7166		-17.578125
7167		-21.484375
7168		-17.578125
7169		-21.484375
7170		-15.625000
7171		-21.484375
7172		-13.671875
7173		-21.484375
7174		-13.671875
7175		-17.578125
7176		-13.671875
7177		-15.625000
7178		-11.718750
7179		-15.625000
7180		-9.765625
7181		-17.578125
7182		-7.812500
7183		-15.625000
7184		-9.765625
7185		-11.718750
7186		-7.812500
7187		-13.671875
7188		-3.906250
7189		-9.765625
7190		-5.859375
7191		-11.718750
7192		-1.953125
7193		-7.812500
7194		-3.906250
7195		-5.859375
7196		-1.953125
7197		-5.859375
7198		1.953125
7199		-3.906250
7200		1.953125
7201		-1.953125
7202		1.953125
7203		-3.906250
7204		5.859375
7205		-3.906250
7206		5.859375
7207		-1.953125
7208		7.812500
7209		1.953125
7210		5.859375
7211		1.953125
7212		5.859375
7213		1.953125
7214		7.812500
7215		1.953125
7216		11.718750
7217		5.859375
7218		9.765625
7219		7.812500
7220		11.718750
7221		5.859375
7222		15.625000
7223		7.812500
7224		15.625000
7225		11.718750
7226		13.671875
7227		11.718750
7228		15.625000
7229		11.718750
7230		17.578125
7231		11.718750
7232		19.531250
7233		13.671875
7234		19.531250
7235		15.625000
7236		19.531250
7237		13.671875
7238		23.437500
7239		15.625000
7240		23.437500
7241		15.625000
7242		23.437500
7243		19.531250
7244		23.437500
7245		21.484375
7246		25.390625
7247		19.531250
7248		27.343750
7249		19.531250
7250		27.343750
7251		23.437500
7252		27.343750
7253		25.390625
7254		29.296875
7255		21.484375
7256		33.203125
7257		23.437500
7258		33.203125
7259		27.343750
7260		31.250000
7261		29.296875
7262		31.250000
7263		29.296875
7264		33.203125
7265		27.343750
7266		37.109375
7267		29.296875
7268		35.156250
7269		33.203125
7270		35.156250
7271		31.250000
7272		39.062500
7273		33.203125
7274		39.062500
7275		33.203125
7276		41.015625
7277		35.156250
7278		39.062500
7279		37.109375
7280		41.015625
7281		33.203125
7282		42.968750
7283		39.062500
7284		42.968750
7285		39.062500
7286		42.968750
7287		39.062500
7288		44.921875
7289		37.109375
7290		46.875000
7291		41.015625
7292		46.875000
7293		41.015625
7294		44.921875
7295		41.015625
7296		46.875000
7297		42.968750
7298		48.828125
7299		41.015625
7300		50.781250
7301		44.921875
7302		48.828125
7303		44.921875
7304		48.828125
7305		42.968750
7306		52.734375
7307		44.921875
7308		52.734375
7309		46.875000
7310		50.781250
7311		48.828125
7312		50.781250
7313		48.828125
7314		52.734375
7315		48.828125
7316		54.687500
7317		48.828125
7318		54.687500
7319		48.828125
7320		52.734375
7321		48.828125
7322		56.640625
7323		48.828125
7324		56.640625
7325		48.828125
7326		56.640625
7327		52.734375
7328		54.687500
7329		52.734375
7330		56.640625
7331		50.781250
7332		56.640625
7333		50.781250
7334		58.593750
7335		52.734375
7336		56.640625
7337		52.734375
7338		58.593750
7339		52.734375
7340		58.593750
7341		52.734375
7342		60.546875
7343		54.687500
7344		58.593750
7345		56.640625
7346		58.593750
7347		56.640625
7348		58.593750
7349		54.687500
7350		62.500000
7351		54.687500
7352		62.500000
7353		56.640625
7354		60.546875
7355		56.640625
7356		62.500000
7357		56.640625
7358		60.546875
7359		58.593750
7360		60.546875
7361		58.593750
7362		60.546875
7363		58.593750
7364		60.546875
7365		58.593750
7366		62.500000
7367		56.640625
7368		62.500000
7369		58.593750
7370		60.546875
7371		56.640625
7372		64.453125
7373		58.593750
7374		62.500000
7375		58.593750
7376		62.500000
7377		58.593750
7378		62.500000
7379		58.593750
7380		62.500000
7381		58.593750
7382		62.500000
7383		58.593750
7384		62.500000
7385		58.593750
7386		62.500000
7387		58.593750
7388		62.500000
7389		58.593750
7390		62.500000
7391		58.593750
7392		62.500000
7393		58.593750
7394		62.500000
7395		58.593750
7396		62.500000
7397		58.593750
7398		62.500000
7399		58.593750
7400		60.546875
7401		58.593750
7402		62.500000
7403		56.640625
7404		62.500000
7405		58.593750
7406		60.546875
7407		58.593750
7408		60.546875
7409		56.640625
7410		60.546875
7411		56.640625
7412		60.546875
7413		56.640625
7414		60.546875
7415		56.640625
7416		60.546875
7417		54.687500
7418		60.546875
7419		54.687500
7420		60.546875
7421		54.687500
7422		60.546875
7423		54.687500
7424		60.546875
7425		54.687500
7426		58.593750
7427		54.687500
7428		58.593750
7429		54.687500
7430		56.640625
7431		52.734375
7432		58.593750
7433		52.734375
7434		58.593750
7435		52.734375
7436		56.640625
7437		50.781250
7438		56.640625
7439		50.781250
7440		56.640625
7441		50.781250
7442		56.640625
7443		50.781250
7444		54.687500
7445		50.781250
7446		54.687500
7447		48.828125
7448		54.687500
7449		48.828125
7450		54.687500
7451		48.828125
7452		52.734375
7453		46.875000
7454		52.734375
7455		46.875000
7456		52.734375
7457		46.875000
7458		50.781250
7459		46.875000
7460		50.781250
7461		44.921875
7462		48.828125
7463		44.921875
7464		48.828125
7465		42.968750
7466		48.828125
7467		42.968750
7468		48.828125
7469		42.968750
7470		46.875000
7471		41.015625
7472		46.875000
7473		41.015625
7474		46.875000
7475		41.015625
7476		44.921875
7477		41.015625
7478		44.921875
7479		39.062500
7480		42.968750
7481		39.062500
7482		42.968750
7483		37.109375
7484		41.015625
7485		37.109375
7486		41.015625
7487		35.156250
7488		41.015625
7489		35.156250
7490		39.062500
7491		33.203125
7492		39.062500
7493		33.203125
7494		37.109375
7495		33.203125
7496		37.109375
7497		31.250000
7498		35.156250
7499		31.250000
7500		35.156250
7501		29.296875
7502		35.156250
7503		27.343750
7504		33.203125
7505		27.343750
7506		33.203125
7507		27.343750
7508		31.250000
7509		25.390625
7510		31.250000
7511		25.390625
7512		29.296875
7513		23.437500
7514		27.343750
7515		23.437500
7516		27.343750
7517		21.484375
7518		27.343750
7519		21.484375
7520		25.390625
7521		19.531250
7522		25.390625
7523		19.531250
7524		25.390625
7525		17.578125
7526		23.437500
7527		17.578125
7528		21.484375
7529		15.625000
7530		19.531250
7531		15.625000
7532		19.531250
7533		13.671875
7534		17.578125
7535		13.671875
7536		17.578125
7537		9.765625
7538		17.578125
7539		11.718750
7540		15.625000
7541		9.765625
7542		13.671875
7543		7.812500
7544		13.671875
7545		7.812500
7546		11.718750
7547		7.812500
7548		9.765625
7549		5.859375
7550		9.765625
7551		5.859375
7552		9.765625
7553		3.906250
7554		7.812500
7555		1.953125
7556		7.812500
7557		1.953125
7558		5.859375
7559		0.000000
7560		5.859375
7561		0.000000
7562		3.906250
7563		-1.953125
7564		1.953125
7565		-3.906250
7566		0.000000
7567		-3.906250
7568		0.000000
7569		-5.859375
7570		-1.953125
7571		-7.812500
7572		-1.953125
7573		-7.812500
7574		-3.906250
7575		-9.765625
7576		-3.906250
7577		-9.765625
7578		-3.906250
7579		-9.765625
7580		-7.812500
7581		-11.718750
7582		-7.812500
7583		-13.671875
7584		-7.812500
7585		-13.671875
7586		-9.765625
7587		-17.578125
7588		-9.765625
7589		-17.578125
7590		-11.718750
7591		-17.578125
7592		-13.671875
7593		-19.531250
7594		-15.625000
7595		-19.531250
7596		-15.625000
7597		-19.531250
7598		-17.578125
7599		-21.484375
7600		-17.578125
7601		-23.437500
7602		-17.578125
7603		-23.437500
7604		-19.531250
7605		-25.390625
7606		-21.484375
7607		-27.343750
7608		-21.484375
7609		-27.343750
7610		-23.437500
7611		-27.343750
7612		-23.437500
7613		-29.296875
7614		-25.390625
7615		-29.296875
7616		-27.343750
7617		-31.250000
7618		-27.343750
7619		-33.203125
7620		-29.296875
7621		-35.156250
7622		-29.296875
7623		-35.156250
7624		-31.250000
7625		-35.156250
7626		-31.250000
7627		-37.109375
7628		-33.203125
7629		-37.109375
7630		-33.203125
7631		-39.062500
7632		-35.156250
7633		-39.062500
7634		-35.156250
7635		-41.015625
7636		-37.109375
7637		-41.015625
7638		-37.109375
7639		-42.968750
7640		-39.062500
7641		-42.968750
7642		-39.062500
7643		-42.968750
7644		-41.015625
7645		-44.921875
7646		-41.015625
7647		-44.921875
7648		-42.968750
7649		-46.875000
7650		-42.968750
7651		-46.875000
7652		-42.968750
7653		-46.875000
7654		-44.921875
7655		-50.781250
7656		-44.921875
7657		-50.781250
7658		-46.875000
7659		-50.781250
7660		-46.875000
7661		-52.734375
7662		-48.828125
7663		-52.734375
7664		-48.828125
7665		-52.734375
7666		-48.828125
7667		-54.687500
7668		-50.781250
7669		-54.687500
7670		-50.781250
7671		-56.640625
7672		-50.781250
7673		-56.640625
7674		-52.734375
7675		-56.640625
7676		-52.734375
7677		-58.593750
7678		-54.687500
7679		-58.593750
7680		-54.687500
7681		-58.593750
7682		-54.687500
7683		-58.593750
7684		-56.640625
7685		-60.546875
7686		-56.640625
7687		-60.546875
7688		-56.640625
7689		-60.546875
7690		-56.640625
7691		-62.500000
7692		-58.593750
7693		-62.500000
7694		-58.593750
7695		-64.453125
7696		-58.593750
7697		-64.453125
7698		-60.546875
7699		-64.453125
7700		-60.546875
7701		-66.406250
7702		-60.546875
7703		-64.453125
7704		-62.500000
7705		-64.453125
7706		-62.500000
7707		-66.406250
7708		-60.546875
7709		-66.406250
7710		-62.500000
7711		-66.406250
7712		-62.500000
7713		-66.406250
7714		-62.500000
7715		-66.406250
7716		-64.453125
7717		-68.359375
7718		-64.453125
7719		-68.359375
7720		-64.453125
7721		-68.359375
7722		-64.453125
7723		-68.359375
7724		-64.453125
7725		-68.359375
7726		-64.453125
7727		-68.359375
7728		-64.453125
7729		-70.312500
7730		-66.406250
7731		-68.359375
7732		-66.406250
7733		-70.312500
7734		-66.406250
7735		-70.312500
7736		-66.406250
7737		-70.312500
7738		-66.406250
7739		-70.312500
7740		-66.406250
7741		-70.312500
7742		-66.406250
7743		-70.312500
7744		-66.406250
7745		-70.312500
7746		-66.406250
7747		-70.312500
7748		-66.406250
7749		-70.312500
7750		-66.406250
7751		-70.312500
7752		-66.406250
7753		-70.312500
7754		-66.406250
7755		-70.312500
7756		-66.406250
7757		-70.312500
7758		-66.406250
7759		-70.312500
7760		-66.406250
7761		-70.312500
7762		-66.406250
7763		-70.312500
7764		-66.406250
7765		-70.312500
7766		-66.406250
7767		-70.312500
7768		-66.406250
7769		-70.312500
7770		-66.406250
7771		-70.312500
7772		-64.453125
7773		-68.359375
7774		-66.406250
7775		-68.359375
7776		-64.453125
7777		-68.359375
7778		-64.453125
7779		-68.359375
7780		-64.453125
7781		-68.359375
7782		-64.453125
7783		-68.359375
7784		-64.453125
7785		-66.406250
7786		-64.453125
7787		-66.406250
7788		-62.500000
7789		-66.406250
7790		-62.500000
7791		-64.453125
7792		-62.500000
7793		-64.453125
7794		-62.500000
7795		-64.453125
7796		-60.546875
7797		-64.453125
7798		-60.546875
7799		-64.453125
7800		-60.546875
7801		-64.453125
7802		-58.593750
7803		-62.500000
7804		-58.593750
7805		-62.500000
7806		-58.593750
7807		-62.500000
7808		-58.593750
7809		-60.546875
7810		-56.640625
7811		-60.546875
7812		-56.640625
7813		-60.546875
7814		-54.687500
7815		-58.593750
7816		-56.640625
7817		-58.593750
7818		-54.687500
7819		-58.593750
7820		-54.687500
7821		-56.640625
7822		-54.687500
7823		-56.640625
7824		-52.734375
7825		-56.640625
7826		-52.734375
7827		-54.687500
7828		-52.734375
7829		-54.687500
7830		-50.781250
7831		-52.734375
7832		-50.781250
7833		-52.734375
7834		-48.828125
7835		-52.734375
7836		-48.828125
7837		-50.781250
7838		-48.828125
7839		-50.781250
7840		-46.875000
7841		-48.828125
7842		-46.875000
7843		-48.828125
7844		-44.921875
7845		-48.828125
7846		-42.968750
7847		-46.875000
7848		-42.968750
7849		-46.875000
7850		-41.015625
7851		-46.875000
7852		-41.015625
7853		-44.921875
7854		-41.015625
7855		-44.921875
7856		-39.062500
7857		-42.968750
7858		-39.062500
7859		-41.015625
7860		-39.062500
7861		-41.015625
7862		-37.109375
7863		-39.062500
7864		-35.156250
7865		-39.062500
7866		-35.156250
7867		-39.062500
7868		-33.203125
7869		-37.109375
7870		-33.203125
7871		-35.156250
7872		-31.250000
7873		-35.156250
7874		-31.250000
7875		-33.203125
7876		-31.250000
7877		-33.203125
7878		-29.296875
7879		-31.250000
7880		-27.343750
7881		-31.250000
7882		-27.343750
7883		-29.296875
7884		-25.390625
7885		-29.296875
7886		-25.390625
7887		-27.343750
7888		-23.437500
7889		-27.343750
7890		-23.437500
7891		-25.390625
7892		-21.484375
7893		-25.390625
7894		-19.531250
7895		-23.437500
7896		-19.531250
7897		-23.437500
7898		-19.531250
7899		-21.484375
7900		-17.578125
7901		-19.531250
7902		-17.578125
7903		-19.531250
7904		-15.625000
7905		-17.578125
7906		-13.671875
7907		-17.578125
7908		-13.671875
7909		-15.625000
7910		-11.718750
7911		-15.625000
7912		-9.765625
7913		-13.671875
7914		-9.765625
7915		-11.718750
7916		-7.812500
7917		-11.718750
7918		-7.812500
7919		-11.718750
7920		-5.859375
7921		-9.765625
7922		-5.859375
7923		-7.812500
7924		-3.906250
7925		-7.812500
7926		-3.906250
7927		-5.859375
7928		-1.953125
7929		-5.859375
7930		-1.953125
7931		-3.906250
7932		0.000000
7933		-1.953125
7934		0.000000
7935		-1.953125
7936		1.953125
7937		0.000000
7938		3.906250
7939		0.000000
7940		3.906250
7941		1.953125
7942		5.859375
7943		1.953125
7944		5.859375
7945		3.906250
7946		7.812500
7947		3.906250
7948		9.765625
7949		5.859375
7950		9.765625
7951		7.812500
7952		11.718750
7953		7.812500
7954		13.671875
7955		9.765625
7956		13.671875
7957		9.765625
7958		13.671875
7959		11.718750
7960		15.625000
7961		11.718750
7962		17.578125
7963		13.671875
7964		17.578125
7965		15.625000
7966		17.578125
7967		15.625000
7968		19.531250
7969		17.578125
7970		21.484375
7971		17.578125
7972		21.484375
7973		19.531250
7974		23.437500
7975		19.531250
7976		23.437500
7977		21.484375
7978		25.390625
7979		21.484375
7980		25.390625
7981		21.484375
7982		27.343750
7983		23.437500
7984		27.343750
7985		23.437500
7986		29.296875
7987		25.390625
7988		29.296875
7989		27.343750
7990		31.250000
7991		27.343750
7992		33.203125
7993		29.296875
7994		33.203125
7995		29.296875
7996		33.203125
7997		31.250000
7998		35.156250
7999		31.250000
8000		35.156250
8001		33.203125
8002		35.156250
8003		33.203125
8004		37.109375
8005		35.156250
8006		37.109375
8007		35.156250
8008		39.062500
8009		37.109375
8010		39.062500
8011		37.109375
8012		41.015625
8013		37.109375
8014		41.015625
8015		37.109375
8016		42.968750
8017		39.062500
8018		42.968750
8019		41.015625
8020		44.921875
8021		41.015625
8022		44.921875
8023		41.015625
8024		44.921875
8025		42.968750
8026		46.875000
8027		42.968750
8028		46.875000
8029		42.968750
8030		46.875000
8031		44.921875
8032		48.828125
8033		44.921875
8034		48.828125
8035		46.875000
8036		48.828125
8037		46.875000
8038		50.781250
8039		46.875000
8040		50.781250
8041		48.828125
8042		50.781250
8043		46.875000
8044		52.734375
8045		48.828125
8046		52.734375
8047		50.781250
8048		54.687500
8049		50.781250
8050		54.687500
8051		50.781250
8052		54.687500
8053		50.781250
8054		56.640625
8055		52.734375
8056		56.640625
8057		52.734375
8058		56.640625
8059		52.734375
8060		56.640625
8061		52.734375
8062		56.640625
8063		54.687500
8064		58.593750
8065		54.687500
8066		58.593750
8067		54.687500
8068		58.593750
8069		54.687500
8070		58.593750
8071		56.640625
8072		60.546875
8073		56.640625
8074		58.593750
8075		56.640625
8076		60.546875
8077		56.640625
8078		60.546875
8079		56.640625
8080		60.546875
8081		56.640625
8082		60.546875
8083		58.593750
8084		62.500000
8085		58.593750
8086		60.546875
8087		56.640625
8088		62.500000
8089		58.593750
8090		62.500000
8091		58.593750
8092		62.500000
8093		58.593750
8094		62.500000
8095		58.593750
8096		62.500000
8097		58.593750
8098		62.500000
8099		58.593750
8100		62.500000
8101		60.546875
8102		62.500000
8103		60.546875
8104		64.453125
8105		58.593750
8106		62.500000
8107		60.546875
8108		64.453125
8109		60.546875
8110		64.453125
8111		58.593750
8112		62.500000
8113		60.546875
8114		62.500000
8115		60.546875
8116		64.453125
8117		58.593750
8118		64.453125
8119		58.593750
8120		64.453125
8121		60.546875
8122		64.453125
8123		60.546875
8124		64.453125
8125		60.546875
8126		64.453125
8127		60.546875
8128		64.453125
8129		60.546875
8130		62.500000
8131		60.546875
8132		64.453125
8133		60.546875
8134		62.500000
8135		60.546875
8136		62.500000
8137		58.593750
8138		64.453125
8139		58.593750
8140		62.500000
8141		58.593750
8142		62.500000
8143		58.593750
8144		62.500000
8145		58.593750
8146		62.500000
8147		58.593750
8148		62.500000
8149		58.593750
8150		62.500000
8151		58.593750
8152		60.546875
8153		56.640625
8154		60.546875
8155		56.640625
8156		60.546875
8157		56.640625
8158		60.546875
8159		56.640625
8160		60.546875
8161		56.640625
8162		60.546875
8163		54.687500
8164		58.593750
8165		54.687500
8166		58.593750
8167		54.687500
8168		58.593750
8169		54.687500
8170		56.640625
8171		52.734375
8172		58.593750
8173		52.734375
8174		56.640625
8175		52.734375
8176		56.640625
8177		52.734375
8178		54.687500
8179		52.734375
8180		56.640625
8181		50.781250
8182		54.687500
8183		50.781250
8184		54.687500
8185		50.781250
8186		52.734375
8187		48.828125
8188		52.734375
8189		48.828125
8190		52.734375
8191		48.828125
8192		50.781250
8193		46.875000
8194		52.734375
8195		46.875000
8196		50.781250
8197		44.921875
8198		48.828125
8199		46.875000
8200		48.828125
8201		44.921875
8202		48.828125
8203		44.921875
8204		48.828125
8205		42.968750
8206		46.875000
8207		42.968750
8208		46.875000
8209		41.015625
8210		44.921875
8211		41.015625
8212		44.921875
8213		41.015625
8214		42.968750
8215		39.062500
8216		42.968750
8217		39.062500
8218		41.015625
8219		37.109375
8220		41.015625
8221		37.109375
8222		41.015625
8223		35.156250
8224		41.015625
8225		35.156250
8226		39.062500
8227		33.203125
8228		37.109375
8229		33.203125
8230		37.109375
8231		33.203125
8232		37.109375
8233		31.250000
8234		35.156250
8235		31.250000
8236		35.156250
8237		29.296875
8238		33.203125
8239		27.343750
8240		33.203125
8241		27.343750
8242		31.250000
8243		27.343750
8244		31.250000
8245		25.390625
8246		29.296875
8247		25.390625
8248		29.296875
8249		23.437500
8250		27.343750
8251		23.437500
8252		27.343750
8253		21.484375
8254		25.390625
8255		21.484375
8256		23.437500
8257		19.531250
8258		25.390625
8259		19.531250
8260		23.437500
8261		17.578125
8262		21.484375
8263		17.578125
8264		19.531250
8265		15.625000
8266		19.531250
8267		15.625000
8268		19.531250
8269		13.671875
8270		17.578125
8271		11.718750
8272		17.578125
8273		11.718750
8274		15.625000
8275		9.765625
8276		13.671875
8277		9.765625
8278		13.671875
8279		7.812500
8280		11.718750
8281		5.859375
8282		11.718750
8283		5.859375
8284		9.765625
8285		3.906250
8286		7.812500
8287		3.906250
8288		7.812500
8289		1.953125
8290		5.859375
8291		1.953125
8292		5.859375
8293		0.000000
8294		3.906250
8295		0.000000
8296		3.906250
8297		-1.953125
8298		1.953125
8299		-3.906250
8300		0.000000
8301		-3.906250
8302		0.000000
8303		-3.906250
8304		-1.953125
8305		-7.812500
8306		-1.953125
8307		-7.812500
8308		-3.906250
8309		-7.812500
8310		-3.906250
8311		-9.765625
8312		-5.859375
8313		-11.718750
8314		-7.812500
8315		-11.718750
8316		-7.812500
8317		-13.671875
8318		-7.812500
8319		-13.671875
8320		-11.718750
8321		-17.578125
8322		-11.718750
8323		-15.625000
8324		-13.671875
8325		-17.578125
8326		-13.671875
8327		-19.531250
8328		-15.625000
8329		-19.531250
8330		-15.625000
8331		-21.484375
8332		-17.578125
8333		-21.484375
8334		-17.578125
8335		-23.437500
8336		-19.531250
8337		-23.437500
8338		-21.484375
8339		-25.390625
8340		-19.531250
8341		-25.390625
8342		-21.484375
8343		-29.296875
8344		-23.437500
8345		-29.296875
8346		-25.390625
8347		-29.296875
8348		-25.390625
8349		-31.250000
8350		-25.390625
8351		-31.250000
8352		-27.343750
8353		-31.250000
8354		-27.343750
8355		-33.203125
8356		-29.296875
8357		-35.156250
8358		-29.296875
8359		-35.156250
8360		-31.250000
8361		-37.109375
8362		-33.203125
8363		-37.109375
8364		-33.203125
8365		-39.062500
8366		-35.156250
8367		-39.062500
8368		-35.156250
8369		-39.062500
8370		-37.109375
8371		-41.015625
8372		-37.109375
8373		-41.015625
8374		-39.062500
8375		-42.968750
8376		-39.062500
8377		-42.968750
8378		-39.062500
8379		-44.921875
8380		-41.015625
8381		-44.921875
8382		-42.968750
8383		-46.875000
8384		-42.968750
8385		-46.875000
8386		-42.968750
8387		-46.875000
8388		-44.921875
8389		-48.828125
8390		-44.921875
8391		-48.828125
8392		-46.875000
8393		-50.781250
8394		-46.875000
8395		-50.781250
8396		-46.875000
8397		-52.734375
8398		-48.828125
8399		-52.734375
8400		-48.828125
8401		-54.687500
8402		-48.828125
8403		-54.687500
8404		-50.781250
8405		-56.640625
8406		-52.734375
8407		-56.640625
8408		-52.734375
8409		-56.640625
8410		-52.734375
8411		-56.640625
8412		-52.734375
8413		-56.640625
8414		-54.687500
8415		-58.593750
8416		-54.687500
8417		-58.593750
8418		-54.687500
8419		-58.593750
8420		-56.640625
8421		-60.546875
8422		-56.640625
8423		-60.546875
8424		-56.640625
8425		-62.500000
8426		-56.640625
8427		-62.500000
8428		-58.593750
8429		-62.500000
8430		-58.593750
8431		-62.500000
8432		-58.593750
8433		-64.453125
8434		-60.546875
8435		-64.453125
8436		-60.546875
8437		-64.453125
8438		-60.546875
8439		-64.453125
8440		-60.546875
8441		-66.406250
8442		-60.546875
8443		-66.406250
8444		-62.500000
8445		-66.406250
8446		-62.500000
8447		-66.406250
8448		-62.500000
8449		-66.406250
8450		-62.500000
8451		-68.359375
8452		-62.500000
8453		-68.359375
8454		-62.500000
8455		-66.406250
8456		-64.453125
8457		-68.359375
8458		-64.453125
8459		-68.359375
8460		-64.453125
8461		-68.359375
8462		-64.453125
8463		-68.359375
8464		-64.453125
8465		-68.359375
8466		-64.453125
8467		-68.359375
8468		-66.406250
8469		-68.359375
8470		-64.453125
8471		-68.359375
8472		-66.406250
8473		-70.312500
8474		-66.406250
8475		-70.312500
8476		-66.406250
8477		-70.312500
8478		-64.453125
8479		-70.312500
8480		-66.406250
8481		-70.312500
8482		-64.453125
8483		-70.312500
8484		-66.406250
8485		-70.312500
8486		-66.406250
8487		-68.359375
8488		-64.453125
8489		-70.312500
8490		-64.453125
8491		-70.312500
8492		-64.453125
8493		-68.359375
8494		-66.406250
8495		-68.359375
8496		-64.453125
8497		-68.359375
8498		-64.453125
8499		-68.359375
8500		-64.453125
8501		-68.359375
8502		-64.453125
8503		-68.359375
8504		-64.453125
8505		-68.359375
8506		-64.453125
8507		-68.359375
8508		-64.453125
8509		-68.359375
8510		-64.453125
8511		-68.359375
8512		-64.453125
8513		-66.406250
8514		-62.500000
8515		-66.406250
8516		-62.500000
8517		-66.406250
8518		-62.500000
8519		-66.406250
8520		-62.500000
8521		-64.453125
8522		-62.500000
8523		-66.406250
8524		-60.546875
8525		-64.453125
8526		-60.546875
8527		-64.453125
8528		-60.546875
8529		-64.453125
8530		-58.593750
8531		-64.453125
8532		-60.546875
8533		-62.500000
8534		-58.593750
8535		-62.500000
8536		-58.593750
8537		-62.500000
8538		-58.593750
8539		-60.546875
8540		-58.593750
8541		-60.546875
8542		-56.640625
8543		-60.546875
8544		-56.640625
8545		-60.546875
8546		-56.640625
8547		-58.593750
8548		-54.687500
8549		-58.593750
8550		-54.687500
8551		-58.593750
8552		-52.734375
8553		-56.640625
8554		-54.687500
8555		-56.640625
8556		-52.734375
8557		-56.640625
8558		-50.781250
8559		-54.687500
8560		-50.781250
8561		-54.687500
8562		-50.781250
8563		-54.687500
8564		-48.828125
8565		-52.734375
8566		-48.828125
8567		-52.734375
8568		-48.828125
8569		-52.734375
8570		-46.875000
8571		-50.781250
8572		-46.875000
8573		-50.781250
8574		-44.921875
8575		-48.828125
8576		-44.921875
8577		-48.828125
8578		-42.968750
8579		-46.875000
8580		-42.968750
8581		-46.875000
8582		-42.968750
8583		-44.921875
8584		-41.015625
8585		-44.921875
8586		-41.015625
8587		-42.968750
8588		-41.015625
8589		-42.968750
8590		-39.062500
8591		-42.968750
8592		-37.109375
8593		-41.015625
8594		-37.109375
8595		-39.062500
8596		-35.156250
8597		-39.062500
8598		-35.156250
8599		-39.062500
8600		-35.156250
8601		-37.109375
8602		-33.203125
8603		-35.156250
8604		-33.203125
8605		-35.156250
8606		-31.250000
8607		-35.156250
8608		-29.296875
8609		-33.203125
8610		-29.296875
8611		-31.250000
8612		-27.343750
8613		-31.250000
8614		-27.343750
8615		-29.296875
8616		-25.390625
8617		-29.296875
8618		-23.437500
8619		-27.343750
8620		-23.437500
8621		-27.343750
8622		-23.437500
8623		-25.390625
8624		-21.484375
8625		-25.390625
8626		-19.531250
8627		-23.437500
8628		-19.531250
8629		-21.484375
8630		-17.578125
8631		-21.484375
8632		-17.578125
8633		-19.531250
8634		-15.625000
8635		-19.531250
8636		-15.625000
8637		-19.531250
8638		-13.671875
8639		-17.578125
8640		-13.671875
8641		-15.625000
8642		-11.718750
8643		-15.625000
8644		-9.765625
8645		-13.671875
8646		-9.765625
8647		-11.718750
8648		-7.812500
8649		-11.718750
8650		-7.812500
8651		-9.765625
8652		-5.859375
8653		-9.765625
8654		-5.859375
8655		-7.812500
8656		-3.906250
8657		-7.812500
8658		-1.953125
8659		-5.859375
8660		-1.953125
8661		-3.906250
8662		0.000000
8663		-3.906250
8664		1.953125
8665		-1.953125
8666		1.953125
8667		-1.953125
8668		1.953125
8669		0.000000
8670		3.906250
8671		1.953125
8672		3.906250
8673		1.953125
8674		5.859375
8675		1.953125
8676		5.859375
8677		3.906250
8678		7.812500
8679		3.906250
8680		9.765625
8681		5.859375
8682		9.765625
8683		7.812500
8684		9.765625
8685		7.812500
8686		11.718750
8687		9.765625
8688		13.671875
8689		11.718750
8690		13.671875
8691		11.718750
8692		15.625000
8693		11.718750
8694		15.625000
8695		13.671875
8696		17.578125
8697		13.671875
8698		17.578125
8699		15.625000
8700		19.531250
8701		17.578125
8702		21.484375
8703		17.578125
8704		21.484375
8705		19.531250
8706		21.484375
8707		19.531250
8708		23.437500
8709		21.484375
8710		25.390625
8711		21.484375
8712		25.390625
8713		21.484375
8714		27.343750
8715		23.437500
8716		27.343750
8717		25.390625
8718		29.296875
8719		25.390625
8720		29.296875
8721		25.390625
8722		31.250000
8723		27.343750
8724		31.250000
8725		29.296875
8726		31.250000
8727		29.296875
8728		33.203125
8729		29.296875
8730		35.156250
8731		31.250000
8732		35.156250
8733		33.203125
8734		35.156250
8735		33.203125
8736		37.109375
8737		33.203125
8738		39.062500
8739		35.156250
8740		39.062500
8741		35.156250
8742		39.062500
8743		37.109375
8744		41.015625
8745		37.109375
8746		41.015625
8747		39.062500
8748		41.015625
8749		39.062500
8750		42.968750
8751		39.062500
8752		42.968750
8753		41.015625
8754		44.921875
8755		41.015625
8756		44.921875
8757		42.968750
8758		44.921875
8759		42.968750
8760		46.875000
8761		42.968750
8762		46.875000
8763		42.968750
8764		46.875000
8765		44.921875
8766		48.828125
8767		44.921875
8768		48.828125
8769		46.875000
8770		48.828125
8771		46.875000
8772		50.781250
8773		46.875000
8774		50.781250
8775		46.875000
8776		52.734375
8777		46.875000
8778		52.734375
8779		48.828125
8780		52.734375
8781		48.828125
8782		54.687500
8783		50.781250
8784		54.687500
8785		50.781250
8786		54.687500
8787		50.781250
8788		56.640625
8789		52.734375
8790		54.687500
8791		52.734375
8792		56.640625
8793		52.734375
8794		56.640625
8795		52.734375
8796		56.640625
8797		54.687500
8798		56.640625
8799		54.687500
8800		58.593750
8801		54.687500
8802		58.593750
8803		54.687500
8804		58.593750
8805		54.687500
8806		58.593750
8807		54.687500
8808		58.593750
8809		54.687500
8810		60.546875
8811		56.640625
8812		60.546875
8813		56.640625
8814		60.546875
8815		56.640625
8816		60.546875
8817		56.640625
8818		60.546875
8819		56.640625
8820		62.500000
8821		58.593750
8822		62.500000
8823		58.593750
8824		62.500000
8825		58.593750
8826		62.500000
8827		58.593750
8828		62.500000
8829		58.593750
8830		62.500000
8831		58.593750
8832		64.453125
8833		58.593750
8834		62.500000
8835		58.593750
8836		62.500000
8837		58.593750
8838		64.453125
8839		60.546875
8840		62.500000
8841		60.546875
8842		64.453125
8843		60.546875
8844		64.453125
8845		60.546875
8846		64.453125
8847		60.546875
8848		64.453125
8849		60.546875
8850		62.500000
8851		60.546875
8852		64.453125
8853		58.593750
8854		64.453125
8855		58.593750
8856		64.453125
8857		60.546875
8858		64.453125
8859		60.546875
8860		64.453125
8861		60.546875
8862		64.453125
8863		58.593750
8864		62.500000
8865		60.546875
8866		62.500000
8867		60.546875
8868		62.500000
8869		58.593750
8870		62.500000
8871		58.593750
8872		64.453125
8873		58.593750
8874		62.500000
8875		58.593750
8876		62.500000
8877		58.593750
8878		62.500000
8879		58.593750
8880		62.500000
8881		58.593750
8882		62.500000
8883		58.593750
8884		60.546875
8885		58.593750
8886		60.546875
8887		56.640625
8888		60.546875
8889		56.640625
8890		60.546875
8891		56.640625
8892		60.546875
8893		56.640625
8894		60.546875
8895		56.640625
8896		58.593750
8897		54.687500
8898		58.593750
8899		54.687500
8900		58.593750
8901		54.687500
8902		58.593750
8903		52.734375
8904		58.593750
8905		54.687500
8906		56.640625
8907		52.734375
8908		56.640625
8909		52.734375
8910		56.640625
8911		52.734375
8912		56.640625
8913		50.781250
8914		54.687500
8915		50.781250
8916		54.687500
8917		50.781250
8918		54.687500
8919		48.828125
8920		54.687500
8921		48.828125
8922		52.734375
8923		48.828125
8924		52.734375
8925		48.828125
8926		50.781250
8927		46.875000
8928		52.734375
8929		46.875000
8930		50.781250
8931		46.875000
8932		50.781250
8933		44.921875
8934		48.828125
8935		44.921875
8936		48.828125
8937		42.968750
8938		48.828125
8939		42.968750
8940		46.875000
8941		42.968750
8942		46.875000
8943		41.015625
8944		46.875000
8945		41.015625
8946		44.921875
8947		41.015625
8948		44.921875
8949		39.062500
8950		42.968750
8951		39.062500
8952		42.968750
8953		37.109375
8954		41.015625
8955		37.109375
8956		41.015625
8957		37.109375
8958		39.062500
8959		35.156250
8960		39.062500
8961		33.203125
8962		39.062500
8963		33.203125
8964		37.109375
8965		33.203125
8966		37.109375
8967		31.250000
8968		35.156250
8969		31.250000
8970		35.156250
8971		29.296875
8972		33.203125
8973		29.296875
8974		33.203125
8975		29.296875
8976		31.250000
8977		27.343750
8978		31.250000
8979		27.343750
8980		29.296875
8981		25.390625
8982		29.296875
8983		25.390625
8984		29.296875
8985		23.437500
8986		27.343750
8987		21.484375
8988		25.390625
8989		19.531250
8990		25.390625
8991		19.531250
8992		23.437500
8993		17.578125
8994		23.437500
8995		17.578125
8996		21.484375
8997		17.578125
8998		21.484375
8999		15.625000
9000		19.531250
9001		15.625000
9002		17.578125
9003		13.671875
9004		17.578125
9005		11.718750
9006		17.578125
9007		11.718750
9008		15.625000
9009		11.718750
9010		13.671875
9011		9.765625
9012		13.671875
9013		7.812500
9014		11.718750
9015		7.812500
9016		9.765625
9017		5.859375
9018		9.765625
9019		3.906250
9020		7.812500
9021		3.906250
9022		7.812500
9023		1.953125
9024		5.859375
9025		1.953125
9026		3.906250
9027		0.000000
9028		3.906250
9029		0.000000
9030		3.906250
9031		-1.953125
9032		1.953125
9033		-3.906250
9034		1.953125
9035		-3.906250
9036		0.000000
9037		-5.859375
9038		0.000000
9039		-7.812500
9040		-1.953125
9041		-7.812500
9042		-3.906250
9043		-7.812500
9044		-5.859375
9045		-9.765625
9046		-5.859375
9047		-11.718750
9048		-7.812500
9049		-11.718750
9050		-7.812500
9051		-13.671875
9052		-9.765625
9053		-13.671875
9054		-9.765625
9055		-15.625000
9056		-11.718750
9057		-15.625000
9058		-11.718750
9059		-17.578125
9060		-13.671875
9061		-19.531250
9062		-15.625000
9063		-19.531250
9064		-15.625000
9065		-21.484375
9066		-17.578125
9067		-21.484375
9068		-17.578125
9069		-23.437500
9070		-19.531250
9071		-23.437500
9072		-19.531250
9073		-25.390625
9074		-21.484375
9075		-25.390625
9076		-23.437500
9077		-27.343750
9078		-23.437500
9079		-29.296875
9080		-25.390625
9081		-29.296875
9082		-25.390625
9083		-31.250000
9084		-27.343750
9085		-31.250000
9086		-27.343750
9087		-33.203125
9088		-29.296875
9089		-35.156250
9090		-29.296875
9091		-35.156250
9092		-29.296875
9093		-35.156250
9094		-31.250000
9095		-37.109375
9096		-33.203125
9097		-37.109375
9098		-33.203125
9099		-39.062500
9100		-35.156250
9101		-39.062500
9102		-37.109375
9103		-41.015625
9104		-37.109375
9105		-41.015625
9106		-39.062500
9107		-42.968750
9108		-39.062500
9109		-42.968750
9110		-39.062500
9111		-44.921875
9112		-41.015625
9113		-44.921875
9114		-41.015625
9115		-46.875000
9116		-42.968750
9117		-46.875000
9118		-42.968750
9119		-48.828125
9120		-44.921875
9121		-48.828125
9122		-44.921875
9123		-50.781250
9124		-46.875000
9125		-50.781250
9126		-46.875000
9127		-50.781250
9128		-48.828125
9129		-52.734375
9130		-48.828125
9131		-52.734375
9132		-48.828125
9133		-52.734375
9134		-48.828125
9135		-54.687500
9136		-50.781250
9137		-54.687500
9138		-52.734375
9139		-56.640625
9140		-52.734375
9141		-58.593750
9142		-50.781250
9143		-56.640625
9144		-54.687500
9145		-58.593750
9146		-54.687500
9147		-58.593750
9148		-54.687500
9149		-60.546875
9150		-54.687500
9151		-60.546875
9152		-56.640625
9153		-60.546875
9154		-56.640625
9155		-60.546875
9156		-58.593750
9157		-62.500000
9158		-56.640625
9159		-62.500000
9160		-58.593750
9161		-62.500000
9162		-58.593750
9163		-64.453125
9164		-58.593750
9165		-64.453125
9166		-60.546875
9167		-64.453125
9168		-60.546875
9169		-64.453125
9170		-60.546875
9171		-64.453125
9172		-62.500000
9173		-66.406250
9174		-62.500000
9175		-66.406250
9176		-62.500000
9177		-66.406250
9178		-62.500000
9179		-66.406250
9180		-62.500000
9181		-66.406250
9182		-62.500000
9183		-66.406250
9184		-64.453125
9185		-68.359375
9186		-64.453125
9187		-68.359375
9188		-64.453125
9189		-68.359375
9190		-64.453125
9191		-68.359375
9192		-64.453125
9193		-70.312500
9194		-66.406250
9195		-70.312500
9196		-64.453125
9197		-68.359375
9198		-66.406250
9199		-68.359375
9200		-64.453125
9201		-68.359375
9202		-66.406250
9203		-70.312500
9204		-64.453125
9205		-70.312500
9206		-66.406250
9207		-70.312500
9208		-66.406250
9209		-70.312500
9210		-66.406250
9211		-68.359375
9212		-66.406250
9213		-68.359375
9214		-66.406250
9215		-70.312500
9216		-66.406250
9217		-70.312500
9218		-66.406250
9219		-68.359375
9220		-66.406250
9221		-70.312500
9222		-64.453125
9223		-68.359375
9224		-66.406250
9225		-68.359375
9226		-66.406250
9227		-70.312500
9228		-64.453125
9229		-70.312500
9230		-64.453125
9231		-68.359375
9232		-64.453125
9233		-68.359375
9234		-64.453125
9235		-68.359375
9236		-64.453125
9237		-68.359375
9238		-64.453125
9239		-68.359375
9240		-64.453125
9241		-68.359375
9242		-64.453125
9243		-66.406250
9244		-64.453125
9245		-66.406250
9246		-64.453125
9247		-68.359375
9248		-62.500000
9249		-66.406250
9250		-62.500000
9251		-66.406250
9252		-62.500000
9253		-66.406250
9254		-62.500000
9255		-64.453125
9256		-62.500000
9257		-64.453125
9258		-60.546875
9259		-64.453125
9260		-60.546875
9261		-62.500000
9262		-60.546875
9263		-64.453125
9264		-58.593750
9265		-62.500000
9266		-58.593750
9267		-62.500000
9268		-58.593750
9269		-62.500000
9270		-56.640625
9271		-60.546875
9272		-56.640625
9273		-60.546875
9274		-56.640625
9275		-60.546875
9276		-56.640625
9277		-58.593750
9278		-56.640625
9279		-58.593750
9280		-54.687500
9281		-58.593750
9282		-54.687500
9283		-56.640625
9284		-52.734375
9285		-56.640625
9286		-52.734375
9287		-56.640625
9288		-52.734375
9289		-56.640625
9290		-50.781250
9291		-54.687500
9292		-50.781250
9293		-54.687500
9294		-50.781250
9295		-52.734375
9296		-48.828125
9297		-52.734375
9298		-48.828125
9299		-50.781250
9300		-48.828125
9301		-50.781250
9302		-46.875000
9303		-50.781250
9304		-44.921875
9305		-48.828125
9306		-44.921875
9307		-48.828125
9308		-44.921875
9309		-46.875000
9310		-42.968750
9311		-46.875000
9312		-42.968750
9313		-46.875000
9314		-41.015625
9315		-44.921875
9316		-41.015625
9317		-44.921875
9318		-41.015625
9319		-42.968750
9320		-39.062500
9321		-42.968750
9322		-39.062500
9323		-41.015625
9324		-37.109375
9325		-41.015625
9326		-35.156250
9327		-39.062500
9328		-35.156250
9329		-39.062500
9330		-35.156250
9331		-39.062500
9332		-33.203125
9333		-37.109375
9334		-31.250000
9335		-35.156250
9336		-31.250000
9337		-35.156250
9338		-31.250000
9339		-33.203125
9340		-29.296875
9341		-33.203125
9342		-29.296875
9343		-31.250000
9344		-27.343750
9345		-29.296875
9346		-27.343750
9347		-29.296875
9348		-25.390625
9349		-29.296875
9350		-25.390625
9351		-27.343750
9352		-23.437500
9353		-25.390625
9354		-21.484375
9355		-25.390625
9356		-21.484375
9357		-23.437500
9358		-19.531250
9359		-23.437500
9360		-17.578125
9361		-21.484375
9362		-17.578125
9363		-21.484375
9364		-15.625000
9365		-19.531250
9366		-15.625000
9367		-19.531250
9368		-15.625000
9369		-17.578125
9370		-13.671875
9371		-15.625000
9372		-11.718750
9373		-15.625000
9374		-11.718750
9375		-15.625000
9376		-9.765625
9377		-13.671875
9378		-9.765625
9379		-11.718750
9380		-7.812500
9381		-11.718750
9382		-7.812500
9383		-9.765625
9384		-5.859375
9385		-7.812500
9386		-3.906250
9387		-7.812500
9388		-3.906250
9389		-5.859375
9390		-1.953125
9391		-5.859375
9392		-1.953125
9393		-3.906250
9394		0.000000
9395		-3.906250
9396		0.000000
9397		-1.953125
9398		1.953125
9399		-1.953125
9400		1.953125
9401		0.000000
9402		3.906250
9403		1.953125
9404		3.906250
9405		1.953125
9406		5.859375
9407		3.906250
9408		7.812500
9409		3.906250
9410		9.765625
9411		5.859375
9412		9.765625
9413		7.812500
9414		9.765625
9415		7.812500
9416		11.718750
9417		7.812500
9418		11.718750
9419		9.765625
9420		13.671875
9421		11.718750
9422		15.625000
9423		11.718750
9424		15.625000
9425		13.671875
9426		17.578125
9427		13.671875
9428		17.578125
9429		15.625000
9430		19.531250
9431		15.625000
9432		19.531250
9433		17.578125
9434		21.484375
9435		17.578125
9436		21.484375
9437		19.531250
9438		23.437500
9439		19.531250
9440		23.437500
9441		21.484375
9442		25.390625
9443		21.484375
9444		27.343750
9445		23.437500
9446		27.343750
9447		25.390625
9448		27.343750
9449		23.437500
9450		29.296875
9451		25.390625
9452		29.296875
9453		27.343750
9454		31.250000
9455		27.343750
9456		31.250000
9457		29.296875
9458		33.203125
9459		29.296875
9460		35.156250
9461		31.250000
9462		35.156250
9463		33.203125
9464		35.156250
9465		33.203125
9466		37.109375
9467		31.250000
9468		37.109375
9469		35.156250
9470		39.062500
9471		35.156250
9472		39.062500
9473		37.109375
9474		41.015625
9475		37.109375
9476		41.015625
9477		37.109375
9478		42.968750
9479		39.062500
9480		41.015625
9481		39.062500
9482		44.921875
9483		41.015625
9484		44.921875
9485		41.015625
9486		44.921875
9487		41.015625
9488		44.921875
9489		42.968750
9490		46.875000
9491		42.968750
9492		46.875000
9493		44.921875
9494		46.875000
9495		44.921875
9496		48.828125
9497		44.921875
9498		48.828125
9499		44.921875
9500		50.781250
9501		46.875000
9502		50.781250
9503		46.875000
9504		50.781250
9505		48.828125
9506		50.781250
9507		48.828125
9508		52.734375
9509		48.828125
9510		52.734375
9511		50.781250
9512		54.687500
9513		50.781250
9514		54.687500
9515		50.781250
9516		54.687500
9517		52.734375
9518		54.687500
9519		52.734375
9520		56.640625
9521		50.781250
9522		56.640625
9523		52.734375
9524		56.640625
9525		54.687500
9526		56.640625
9527		54.687500
9528		58.593750
9529		54.687500
9530		58.593750
9531		54.687500
9532		60.546875
9533		54.687500
9534		58.593750
9535		56.640625
9536		58.593750
9537		56.640625
9538		60.546875
9539		56.640625
9540		60.546875
9541		56.640625
9542		60.546875
9543		56.640625
9544		62.500000
9545		56.640625
9546		62.500000
9547		58.593750
9548		60.546875
9549		58.593750
9550		62.500000
9551		58.593750
9552		62.500000
9553		58.593750
9554		62.500000
9555		58.593750
9556		62.500000
9557		58.593750
9558		62.500000
9559		60.546875
9560		62.500000
9561		58.593750
9562		62.500000
9563		60.546875
9564		62.500000
9565		60.546875
9566		64.453125
9567		60.546875
9568		64.453125
9569		60.546875
9570		64.453125
9571		60.546875
9572		66.406250
9573		60.546875
9574		64.453125
9575		60.546875
9576		64.453125
9577		60.546875
9578		64.453125
9579		60.546875
9580		64.453125
9581		60.546875
9582		64.453125
9583		60.546875
9584		64.453125
9585		60.546875
9586		64.453125
9587		60.546875
9588		64.453125
9589		60.546875
9590		64.453125
9591		60.546875
9592		64.453125
9593		60.546875
9594		64.453125
9595		60.546875
9596		64.453125
9597		60.546875
9598		62.500000
9599		58.593750
9600		64.453125
9601		60.546875
9602		62.500000
9603		60.546875
9604		64.453125
9605		60.546875
9606		62.500000
9607		60.546875
9608		62.500000
9609		58.593750
9610		62.500000
9611		58.593750
9612		62.500000
9613		58.593750
9614		62.500000
9615		58.593750
9616		62.500000
9617		58.593750
9618		62.500000
9619		58.593750
9620		60.546875
9621		56.640625
9622		60.546875
9623		56.640625
9624		60.546875
9625		56.640625
9626		60.546875
9627		56.640625
9628		62.500000
9629		56.640625
9630		60.546875
9631		54.687500
9632		58.593750
9633		54.687500
9634		58.593750
9635		54.687500
9636		58.593750
9637		54.687500
9638		58.593750
9639		54.687500
9640		56.640625
9641		52.734375
9642		56.640625
9643		52.734375
9644		56.640625
9645		52.734375
9646		56.640625
9647		52.734375
9648		54.687500
9649		50.781250
9650		54.687500
9651		50.781250
9652		54.687500
9653		50.781250
9654		52.734375
9655		48.828125
9656		52.734375
9657		48.828125
9658		52.734375
9659		46.875000
9660		50.781250
9661		46.875000
9662		50.781250
9663		46.875000
9664		50.781250
9665		46.875000
9666		48.828125
9667		44.921875
9668		48.828125
9669		44.921875
9670		48.828125
9671		44.921875
9672		46.875000
9673		42.968750
9674		46.875000
9675		42.968750
9676		46.875000
9677		41.015625
9678		44.921875
9679		41.015625
9680		44.921875
9681		41.015625
9682		42.968750
9683		39.062500
9684		42.968750
9685		39.062500
9686		42.968750
9687		37.109375
9688		41.015625
9689		37.109375
9690		41.015625
9691		33.203125
9692		41.015625
9693		35.156250
9694		41.015625
9695		33.203125
9696		39.062500
9697		33.203125
9698		37.109375
9699		31.250000
9700		35.156250
9701		31.250000
9702		35.156250
9703		31.250000
9704		35.156250
9705		29.296875
9706		33.203125
9707		27.343750
9708		33.203125
9709		25.390625
9710		33.203125
9711		25.390625
9712		31.250000
9713		25.390625
9714		31.250000
9715		25.390625
9716		27.343750
9717		21.484375
9718		27.343750
9719		21.484375
9720		27.343750
9721		21.484375
9722		27.343750
9723		21.484375
9724		25.390625
9725		19.531250
9726		25.390625
9727		17.578125
9728		23.437500
9729		17.578125
9730		21.484375
9731		17.578125
9732		19.531250
9733		15.625000
9734		19.531250
9735		13.671875
9736		19.531250
9737		13.671875
9738		17.578125
9739		11.718750
9740		17.578125
9741		9.765625
9742		15.625000
9743		9.765625
9744		15.625000
9745		7.812500
9746		13.671875
9747		9.765625
9748		11.718750
9749		7.812500
9750		11.718750
9751		3.906250
9752		11.718750
9753		3.906250
9754		9.765625
9755		1.953125
9756		7.812500
9757		1.953125
9758		7.812500
9759		0.000000
9760		5.859375
9761		0.000000
9762		5.859375
9763		0.000000
9764		3.906250
9765		-1.953125
9766		1.953125
9767		-3.906250
9768		1.953125
9769		-3.906250
9770		1.953125
9771		-5.859375
9772		0.000000
9773		-7.812500
9774		0.000000
9775		-7.812500
9776		-3.906250
9777		-9.765625
9778		-3.906250
9779		-9.765625
9780		-3.906250
9781		-9.765625
9782		-7.812500
9783		-11.718750
9784		-7.812500
9785		-15.625000
9786		-7.812500
9787		-15.625000
9788		-7.812500
9789		-17.578125
9790		-9.765625
9791		-17.578125
9792		-9.765625
9793		-17.578125
9794		-13.671875
9795		-17.578125
9796		-13.671875
9797		-19.531250
9798		-13.671875
9799		-19.531250
9800		-17.578125
9801		-23.437500
9802		-17.578125
9803		-23.437500
9804		-19.531250
9805		-25.390625
9806		-17.578125
9807		-27.343750
9808		-19.531250
9809		-27.343750
9810		-19.531250
9811		-29.296875
9812		-21.484375
9813		-29.296875
9814		-23.437500
9815		-29.296875
9816		-25.390625
9817		-29.296875
9818		-25.390625
9819		-33.203125
9820		-25.390625
9821		-33.203125
9822		-27.343750
9823		-33.203125
9824		-29.296875
9825		-35.156250
9826		-29.296875
9827		-37.109375
9828		-29.296875
9829		-37.109375
9830		-29.296875
9831		-37.109375
9832		-33.203125
9833		-37.109375
9834		-33.203125
9835		-41.015625
9836		-33.203125
9837		-42.968750
9838		-35.156250
9839		-42.968750
9840		-35.156250
9841		-42.968750
9842		-37.109375
9843		-42.968750
9844		-37.109375
9845		-44.921875
9846		-37.109375
9847		-44.921875
9848		-39.062500
9849		-44.921875
9850		-41.015625
9851		-46.875000
9852		-41.015625
9853		-48.828125
9854		-41.015625
9855		-50.781250
9856		-42.968750
9857		-50.781250
9858		-44.921875
9859		-50.781250
9860		-44.921875
9861		-50.781250
9862		-44.921875
9863		-50.781250
9864		-44.921875
9865		-52.734375
9866		-48.828125
9867		-52.734375
9868		-48.828125
9869		-54.687500
9870		-48.828125
9871		-54.687500
9872		-48.828125
9873		-56.640625
9874		-48.828125
9875		-56.640625
9876		-50.781250
9877		-56.640625
9878		-50.781250
9879		-58.593750
9880		-50.781250
9881		-58.593750
9882		-52.734375
9883		-58.593750
9884		-54.687500
9885		-60.546875
9886		-54.687500
9887		-60.546875
9888		-54.687500
9889		-62.500000
9890		-54.687500
9891		-62.500000
9892		-54.687500
9893		-62.500000
9894		-54.687500
9895		-62.500000
9896		-56.640625
9897		-62.500000
9898		-56.640625
9899		-62.500000
9900		-58.593750
9901		-62.500000
9902		-58.593750
9903		-66.406250
9904		-58.593750
9905		-66.406250
9906		-58.593750
9907		-64.453125
9908		-58.593750
9909		-64.453125
9910		-58.593750
9911		-66.406250
9912		-60.546875
9913		-66.406250
9914		-60.546875
9915		-66.406250
9916		-62.500000
9917		-66.406250
9918		-62.500000
9919		-68.359375
9920		-60.546875
9921		-68.359375
9922		-60.546875
9923		-68.359375
9924		-60.546875
9925		-68.359375
9926		-62.500000
9927		-68.359375
9928		-62.500000
9929		-68.359375
9930		-62.500000
9931		-68.359375
9932		-62.500000
9933		-66.406250
9934		-64.453125
9935		-68.359375
9936		-64.453125
9937		-68.359375
9938		-62.500000
9939		-68.359375
9940		-64.453125
9941		-68.359375
9942		-64.453125
9943		-70.312500
9944		-64.453125
9945		-68.359375
9946		-64.453125
9947		-68.359375
9948		-64.453125
9949		-68.359375
9950		-64.453125
9951		-68.359375
9952		-64.453125
9953		-70.312500
9954		-62.500000
9955		-70.312500
9956		-62.500000
9957		-70.312500
9958		-62.500000
9959		-70.312500
9960		-62.500000
9961		-70.312500
9962		-62.500000
9963		-68.359375
9964		-62.500000
9965		-68.359375
9966		-62.500000
9967		-68.359375
9968		-64.453125
9969		-68.359375
9970		-62.500000
9971		-68.359375
9972		-62.500000
9973		-70.312500
9974		-62.500000
9975		-68.359375
9976		-60.546875
9977		-66.406250
9978		-60.546875
9979		-68.359375
9980		-60.546875
9981		-68.359375
9982		-60.546875
9983		-66.406250
9984		-62.500000
9985		-64.453125
9986		-60.546875
9987		-66.406250
9988		-58.593750
9989		-66.406250
9990		-60.546875
9991		-66.406250
9992		-58.593750
9993		-64.453125
9994		-58.593750
9995		-64.453125
9996		-58.593750
9997		-64.453125
9998		-58.593750
9999		-62.500000
10000		-58.593750
