Channel              :		CH1
Frequency            :		682.1Hz
Period               :		1.466ms
PK-PK                :		128.9mV
Probe attenuation    :		1X
Voltage per ADC value:		0.122070mV
Time interval        :		2.00000us

index		CH1_Voltage(mV)
1		54.687500
2		54.687500
3		46.875000
4		56.640625
5		48.828125
6		54.687500
7		48.828125
8		54.687500
9		48.828125
10		56.640625
11		48.828125
12		56.640625
13		50.781250
14		54.687500
15		50.781250
16		56.640625
17		50.781250
18		56.640625
19		50.781250
20		58.593750
21		50.781250
22		58.593750
23		50.781250
24		58.593750
25		50.781250
26		58.593750
27		52.734375
28		58.593750
29		54.687500
30		56.640625
31		54.687500
32		58.593750
33		52.734375
34		60.546875
35		52.734375
36		58.593750
37		52.734375
38		58.593750
39		54.687500
40		60.546875
41		54.687500
42		60.546875
43		54.687500
44		60.546875
45		54.687500
46		60.546875
47		56.640625
48		58.593750
49		56.640625
50		60.546875
51		54.687500
52		60.546875
53		54.687500
54		60.546875
55		54.687500
56		60.546875
57		54.687500
58		60.546875
59		54.687500
60		60.546875
61		54.687500
62		60.546875
63		54.687500
64		60.546875
65		56.640625
66		58.593750
67		54.687500
68		60.546875
69		54.687500
70		60.546875
71		54.687500
72		60.546875
73		54.687500
74		60.546875
75		52.734375
76		60.546875
77		52.734375
78		60.546875
79		52.734375
80		58.593750
81		54.687500
82		58.593750
83		52.734375
84		58.593750
85		52.734375
86		58.593750
87		52.734375
88		58.593750
89		52.734375
90		58.593750
91		52.734375
92		58.593750
93		50.781250
94		58.593750
95		50.781250
96		58.593750
97		52.734375
98		56.640625
99		52.734375
100		56.640625
101		50.781250
102		56.640625
103		50.781250
104		56.640625
105		48.828125
106		56.640625
107		48.828125
108		56.640625
109		48.828125
110		54.687500
111		48.828125
112		54.687500
113		48.828125
114		52.734375
115		48.828125
116		52.734375
117		46.875000
118		52.734375
119		46.875000
120		52.734375
121		44.921875
122		52.734375
123		46.875000
124		52.734375
125		44.921875
126		52.734375
127		44.921875
128		50.781250
129		44.921875
130		50.781250
131		44.921875
132		48.828125
133		44.921875
134		48.828125
135		42.968750
136		48.828125
137		42.968750
138		48.828125
139		41.015625
140		48.828125
141		41.015625
142		46.875000
143		39.062500
144		46.875000
145		39.062500
146		44.921875
147		41.015625
148		42.968750
149		41.015625
150		42.968750
151		37.109375
152		42.968750
153		37.109375
154		42.968750
155		37.109375
156		42.968750
157		35.156250
158		41.015625
159		33.203125
160		41.015625
161		33.203125
162		41.015625
163		33.203125
164		39.062500
165		33.203125
166		37.109375
167		31.250000
168		37.109375
169		31.250000
170		37.109375
171		29.296875
172		37.109375
173		29.296875
174		35.156250
175		27.343750
176		35.156250
177		27.343750
178		33.203125
179		27.343750
180		33.203125
181		27.343750
182		31.250000
183		25.390625
184		29.296875
185		23.437500
186		31.250000
187		21.484375
188		29.296875
189		21.484375
190		27.343750
191		21.484375
192		27.343750
193		19.531250
194		27.343750
195		19.531250
196		25.390625
197		19.531250
198		23.437500
199		17.578125
200		21.484375
201		17.578125
202		21.484375
203		15.625000
204		21.484375
205		13.671875
206		21.484375
207		11.718750
208		21.484375
209		11.718750
210		19.531250
211		11.718750
212		17.578125
213		11.718750
214		17.578125
215		11.718750
216		13.671875
217		9.765625
218		15.625000
219		7.812500
220		13.671875
221		7.812500
222		13.671875
223		5.859375
224		11.718750
225		3.906250
226		9.765625
227		1.953125
228		9.765625
229		1.953125
230		7.812500
231		3.906250
232		5.859375
233		1.953125
234		3.906250
235		-1.953125
236		5.859375
237		-1.953125
238		3.906250
239		-3.906250
240		3.906250
241		-3.906250
242		1.953125
243		-3.906250
244		0.000000
245		-5.859375
246		1.953125
247		-5.859375
248		0.000000
249		-5.859375
250		-3.906250
251		-9.765625
252		-3.906250
253		-9.765625
254		-3.906250
255		-11.718750
256		-3.906250
257		-11.718750
258		-5.859375
259		-13.671875
260		-7.812500
261		-13.671875
262		-7.812500
263		-15.625000
264		-7.812500
265		-13.671875
266		-11.718750
267		-15.625000
268		-11.718750
269		-17.578125
270		-11.718750
271		-19.531250
272		-13.671875
273		-21.484375
274		-13.671875
275		-21.484375
276		-15.625000
277		-23.437500
278		-15.625000
279		-23.437500
280		-17.578125
281		-23.437500
282		-17.578125
283		-23.437500
284		-21.484375
285		-25.390625
286		-21.484375
287		-27.343750
288		-21.484375
289		-27.343750
290		-21.484375
291		-29.296875
292		-23.437500
293		-29.296875
294		-23.437500
295		-31.250000
296		-23.437500
297		-31.250000
298		-25.390625
299		-31.250000
300		-29.296875
301		-31.250000
302		-29.296875
303		-35.156250
304		-29.296875
305		-35.156250
306		-29.296875
307		-37.109375
308		-31.250000
309		-37.109375
310		-31.250000
311		-39.062500
312		-31.250000
313		-39.062500
314		-33.203125
315		-39.062500
316		-35.156250
317		-39.062500
318		-37.109375
319		-41.015625
320		-35.156250
321		-42.968750
322		-37.109375
323		-44.921875
324		-37.109375
325		-44.921875
326		-37.109375
327		-44.921875
328		-39.062500
329		-44.921875
330		-39.062500
331		-46.875000
332		-41.015625
333		-44.921875
334		-42.968750
335		-48.828125
336		-41.015625
337		-48.828125
338		-42.968750
339		-50.781250
340		-42.968750
341		-50.781250
342		-44.921875
343		-50.781250
344		-44.921875
345		-50.781250
346		-44.921875
347		-52.734375
348		-46.875000
349		-50.781250
350		-48.828125
351		-50.781250
352		-48.828125
353		-52.734375
354		-46.875000
355		-54.687500
356		-48.828125
357		-54.687500
358		-48.828125
359		-56.640625
360		-48.828125
361		-56.640625
362		-48.828125
363		-56.640625
364		-50.781250
365		-56.640625
366		-50.781250
367		-56.640625
368		-52.734375
369		-58.593750
370		-52.734375
371		-58.593750
372		-52.734375
373		-58.593750
374		-52.734375
375		-58.593750
376		-52.734375
377		-60.546875
378		-54.687500
379		-60.546875
380		-54.687500
381		-60.546875
382		-54.687500
383		-58.593750
384		-56.640625
385		-60.546875
386		-56.640625
387		-62.500000
388		-56.640625
389		-62.500000
390		-56.640625
391		-62.500000
392		-56.640625
393		-62.500000
394		-56.640625
395		-62.500000
396		-56.640625
397		-64.453125
398		-56.640625
399		-62.500000
400		-58.593750
401		-62.500000
402		-58.593750
403		-64.453125
404		-58.593750
405		-64.453125
406		-58.593750
407		-66.406250
408		-56.640625
409		-64.453125
410		-58.593750
411		-64.453125
412		-58.593750
413		-64.453125
414		-58.593750
415		-64.453125
416		-58.593750
417		-62.500000
418		-60.546875
419		-64.453125
420		-58.593750
421		-64.453125
422		-58.593750
423		-66.406250
424		-58.593750
425		-64.453125
426		-58.593750
427		-64.453125
428		-58.593750
429		-64.453125
430		-58.593750
431		-64.453125
432		-58.593750
433		-62.500000
434		-60.546875
435		-62.500000
436		-60.546875
437		-64.453125
438		-58.593750
439		-64.453125
440		-58.593750
441		-64.453125
442		-58.593750
443		-64.453125
444		-58.593750
445		-64.453125
446		-56.640625
447		-62.500000
448		-58.593750
449		-64.453125
450		-58.593750
451		-60.546875
452		-58.593750
453		-64.453125
454		-56.640625
455		-62.500000
456		-56.640625
457		-62.500000
458		-56.640625
459		-62.500000
460		-56.640625
461		-60.546875
462		-54.687500
463		-62.500000
464		-54.687500
465		-60.546875
466		-54.687500
467		-58.593750
468		-56.640625
469		-58.593750
470		-54.687500
471		-60.546875
472		-54.687500
473		-58.593750
474		-52.734375
475		-58.593750
476		-52.734375
477		-58.593750
478		-50.781250
479		-58.593750
480		-52.734375
481		-58.593750
482		-50.781250
483		-56.640625
484		-52.734375
485		-54.687500
486		-52.734375
487		-54.687500
488		-48.828125
489		-56.640625
490		-48.828125
491		-54.687500
492		-48.828125
493		-54.687500
494		-48.828125
495		-54.687500
496		-46.875000
497		-52.734375
498		-46.875000
499		-52.734375
500		-46.875000
501		-50.781250
502		-46.875000
503		-48.828125
504		-44.921875
505		-50.781250
506		-44.921875
507		-48.828125
508		-42.968750
509		-48.828125
510		-42.968750
511		-48.828125
512		-41.015625
513		-46.875000
514		-41.015625
515		-46.875000
516		-41.015625
517		-44.921875
518		-41.015625
519		-42.968750
520		-41.015625
521		-44.921875
522		-37.109375
523		-42.968750
524		-37.109375
525		-42.968750
526		-35.156250
527		-41.015625
528		-35.156250
529		-41.015625
530		-35.156250
531		-41.015625
532		-33.203125
533		-39.062500
534		-33.203125
535		-37.109375
536		-33.203125
537		-37.109375
538		-31.250000
539		-37.109375
540		-29.296875
541		-35.156250
542		-29.296875
543		-35.156250
544		-27.343750
545		-33.203125
546		-27.343750
547		-33.203125
548		-27.343750
549		-31.250000
550		-25.390625
551		-29.296875
552		-27.343750
553		-29.296875
554		-25.390625
555		-29.296875
556		-21.484375
557		-29.296875
558		-21.484375
559		-27.343750
560		-21.484375
561		-27.343750
562		-19.531250
563		-25.390625
564		-17.578125
565		-23.437500
566		-17.578125
567		-23.437500
568		-19.531250
569		-21.484375
570		-17.578125
571		-21.484375
572		-13.671875
573		-19.531250
574		-13.671875
575		-19.531250
576		-13.671875
577		-17.578125
578		-11.718750
579		-17.578125
580		-9.765625
581		-15.625000
582		-9.765625
583		-15.625000
584		-9.765625
585		-13.671875
586		-9.765625
587		-11.718750
588		-7.812500
589		-11.718750
590		-5.859375
591		-9.765625
592		-3.906250
593		-11.718750
594		-3.906250
595		-9.765625
596		-1.953125
597		-7.812500
598		-1.953125
599		-7.812500
600		0.000000
601		-3.906250
602		-1.953125
603		-3.906250
604		0.000000
605		-5.859375
606		3.906250
607		-1.953125
608		3.906250
609		-1.953125
610		5.859375
611		0.000000
612		5.859375
613		0.000000
614		5.859375
615		1.953125
616		7.812500
617		1.953125
618		7.812500
619		5.859375
620		7.812500
621		3.906250
622		9.765625
623		3.906250
624		11.718750
625		5.859375
626		11.718750
627		5.859375
628		13.671875
629		9.765625
630		15.625000
631		9.765625
632		15.625000
633		9.765625
634		17.578125
635		13.671875
636		15.625000
637		13.671875
638		17.578125
639		13.671875
640		19.531250
641		13.671875
642		21.484375
643		15.625000
644		21.484375
645		15.625000
646		21.484375
647		17.578125
648		23.437500
649		19.531250
650		25.390625
651		19.531250
652		25.390625
653		21.484375
654		25.390625
655		21.484375
656		27.343750
657		21.484375
658		29.296875
659		23.437500
660		29.296875
661		23.437500
662		29.296875
663		23.437500
664		31.250000
665		23.437500
666		31.250000
667		27.343750
668		31.250000
669		27.343750
670		31.250000
671		27.343750
672		35.156250
673		27.343750
674		35.156250
675		29.296875
676		35.156250
677		31.250000
678		37.109375
679		31.250000
680		37.109375
681		31.250000
682		39.062500
683		31.250000
684		39.062500
685		33.203125
686		39.062500
687		35.156250
688		39.062500
689		35.156250
690		41.015625
691		35.156250
692		42.968750
693		35.156250
694		42.968750
695		37.109375
696		42.968750
697		39.062500
698		44.921875
699		39.062500
700		44.921875
701		39.062500
702		44.921875
703		41.015625
704		44.921875
705		41.015625
706		46.875000
707		41.015625
708		48.828125
709		41.015625
710		48.828125
711		41.015625
712		48.828125
713		42.968750
714		48.828125
715		42.968750
716		50.781250
717		44.921875
718		50.781250
719		46.875000
720		48.828125
721		46.875000
722		50.781250
723		46.875000
724		52.734375
725		46.875000
726		52.734375
727		46.875000
728		52.734375
729		46.875000
730		52.734375
731		46.875000
732		54.687500
733		48.828125
734		54.687500
735		48.828125
736		52.734375
737		50.781250
738		52.734375
739		48.828125
740		56.640625
741		48.828125
742		56.640625
743		50.781250
744		56.640625
745		50.781250
746		56.640625
747		50.781250
748		56.640625
749		50.781250
750		56.640625
751		50.781250
752		58.593750
753		54.687500
754		56.640625
755		52.734375
756		56.640625
757		52.734375
758		58.593750
759		52.734375
760		58.593750
761		52.734375
762		60.546875
763		52.734375
764		60.546875
765		52.734375
766		60.546875
767		52.734375
768		60.546875
769		54.687500
770		58.593750
771		56.640625
772		58.593750
773		54.687500
774		60.546875
775		54.687500
776		60.546875
777		54.687500
778		60.546875
779		54.687500
780		60.546875
781		54.687500
782		62.500000
783		54.687500
784		60.546875
785		54.687500
786		60.546875
787		56.640625
788		60.546875
789		54.687500
790		60.546875
791		54.687500
792		60.546875
793		54.687500
794		60.546875
795		54.687500
796		60.546875
797		54.687500
798		60.546875
799		54.687500
800		60.546875
801		54.687500
802		60.546875
803		56.640625
804		58.593750
805		56.640625
806		58.593750
807		54.687500
808		60.546875
809		52.734375
810		60.546875
811		54.687500
812		60.546875
813		52.734375
814		60.546875
815		52.734375
816		60.546875
817		52.734375
818		60.546875
819		54.687500
820		58.593750
821		54.687500
822		56.640625
823		52.734375
824		58.593750
825		52.734375
826		58.593750
827		50.781250
828		58.593750
829		50.781250
830		58.593750
831		50.781250
832		58.593750
833		50.781250
834		56.640625
835		50.781250
836		58.593750
837		52.734375
838		54.687500
839		50.781250
840		56.640625
841		50.781250
842		56.640625
843		50.781250
844		56.640625
845		48.828125
846		54.687500
847		48.828125
848		54.687500
849		48.828125
850		54.687500
851		48.828125
852		52.734375
853		48.828125
854		52.734375
855		46.875000
856		50.781250
857		44.921875
858		52.734375
859		44.921875
860		52.734375
861		44.921875
862		50.781250
863		42.968750
864		50.781250
865		42.968750
866		50.781250
867		42.968750
868		48.828125
869		42.968750
870		48.828125
871		42.968750
872		46.875000
873		41.015625
874		46.875000
875		39.062500
876		46.875000
877		39.062500
878		46.875000
879		39.062500
880		46.875000
881		39.062500
882		44.921875
883		39.062500
884		44.921875
885		37.109375
886		44.921875
887		39.062500
888		41.015625
889		37.109375
890		41.015625
891		35.156250
892		41.015625
893		35.156250
894		41.015625
895		33.203125
896		39.062500
897		33.203125
898		39.062500
899		31.250000
900		39.062500
901		31.250000
902		37.109375
903		31.250000
904		37.109375
905		31.250000
906		35.156250
907		29.296875
908		35.156250
909		27.343750
910		35.156250
911		27.343750
912		33.203125
913		25.390625
914		33.203125
915		25.390625
916		31.250000
917		23.437500
918		31.250000
919		23.437500
920		29.296875
921		25.390625
922		27.343750
923		23.437500
924		27.343750
925		21.484375
926		27.343750
927		19.531250
928		27.343750
929		19.531250
930		25.390625
931		17.578125
932		25.390625
933		17.578125
934		23.437500
935		15.625000
936		23.437500
937		17.578125
938		19.531250
939		15.625000
940		19.531250
941		11.718750
942		19.531250
943		11.718750
944		17.578125
945		11.718750
946		17.578125
947		9.765625
948		17.578125
949		9.765625
950		15.625000
951		9.765625
952		15.625000
953		7.812500
954		13.671875
955		7.812500
956		11.718750
957		3.906250
958		11.718750
959		3.906250
960		11.718750
961		3.906250
962		9.765625
963		1.953125
964		9.765625
965		0.000000
966		7.812500
967		0.000000
968		7.812500
969		0.000000
970		5.859375
971		0.000000
972		3.906250
973		-1.953125
974		1.953125
975		-3.906250
976		1.953125
977		-5.859375
978		1.953125
979		-5.859375
980		0.000000
981		-7.812500
982		0.000000
983		-7.812500
984		-1.953125
985		-9.765625
986		-1.953125
987		-7.812500
988		-3.906250
989		-9.765625
990		-5.859375
991		-11.718750
992		-5.859375
993		-13.671875
994		-5.859375
995		-13.671875
996		-7.812500
997		-13.671875
998		-7.812500
999		-17.578125
1000		-9.765625
1001		-17.578125
1002		-9.765625
1003		-17.578125
1004		-11.718750
1005		-17.578125
1006		-13.671875
1007		-17.578125
1008		-15.625000
1009		-21.484375
1010		-15.625000
1011		-21.484375
1012		-15.625000
1013		-23.437500
1014		-15.625000
1015		-23.437500
1016		-17.578125
1017		-25.390625
1018		-17.578125
1019		-27.343750
1020		-19.531250
1021		-25.390625
1022		-21.484375
1023		-25.390625
1024		-23.437500
1025		-27.343750
1026		-23.437500
1027		-29.296875
1028		-23.437500
1029		-31.250000
1030		-23.437500
1031		-31.250000
1032		-25.390625
1033		-33.203125
1034		-27.343750
1035		-33.203125
1036		-27.343750
1037		-33.203125
1038		-27.343750
1039		-33.203125
1040		-29.296875
1041		-35.156250
1042		-31.250000
1043		-37.109375
1044		-31.250000
1045		-37.109375
1046		-31.250000
1047		-39.062500
1048		-33.203125
1049		-39.062500
1050		-33.203125
1051		-41.015625
1052		-33.203125
1053		-41.015625
1054		-35.156250
1055		-41.015625
1056		-37.109375
1057		-41.015625
1058		-39.062500
1059		-44.921875
1060		-37.109375
1061		-44.921875
1062		-37.109375
1063		-44.921875
1064		-41.015625
1065		-44.921875
1066		-41.015625
1067		-46.875000
1068		-41.015625
1069		-46.875000
1070		-41.015625
1071		-46.875000
1072		-42.968750
1073		-46.875000
1074		-44.921875
1075		-48.828125
1076		-44.921875
1077		-50.781250
1078		-42.968750
1079		-50.781250
1080		-44.921875
1081		-52.734375
1082		-44.921875
1083		-52.734375
1084		-46.875000
1085		-52.734375
1086		-46.875000
1087		-52.734375
1088		-48.828125
1089		-52.734375
1090		-50.781250
1091		-52.734375
1092		-50.781250
1093		-54.687500
1094		-48.828125
1095		-56.640625
1096		-48.828125
1097		-56.640625
1098		-50.781250
1099		-56.640625
1100		-50.781250
1101		-56.640625
1102		-50.781250
1103		-58.593750
1104		-52.734375
1105		-58.593750
1106		-52.734375
1107		-56.640625
1108		-54.687500
1109		-58.593750
1110		-54.687500
1111		-60.546875
1112		-54.687500
1113		-60.546875
1114		-54.687500
1115		-60.546875
1116		-54.687500
1117		-60.546875
1118		-54.687500
1119		-62.500000
1120		-54.687500
1121		-60.546875
1122		-56.640625
1123		-60.546875
1124		-58.593750
1125		-62.500000
1126		-58.593750
1127		-60.546875
1128		-56.640625
1129		-62.500000
1130		-56.640625
1131		-60.546875
1132		-58.593750
1133		-62.500000
1134		-58.593750
1135		-62.500000
1136		-58.593750
1137		-62.500000
1138		-58.593750
1139		-62.500000
1140		-58.593750
1141		-62.500000
1142		-60.546875
1143		-62.500000
1144		-58.593750
1145		-64.453125
1146		-58.593750
1147		-62.500000
1148		-60.546875
1149		-64.453125
1150		-58.593750
1151		-64.453125
1152		-60.546875
1153		-64.453125
1154		-60.546875
1155		-64.453125
1156		-58.593750
1157		-62.500000
1158		-60.546875
1159		-62.500000
1160		-60.546875
1161		-64.453125
1162		-60.546875
1163		-62.500000
1164		-60.546875
1165		-62.500000
1166		-58.593750
1167		-62.500000
1168		-58.593750
1169		-62.500000
1170		-60.546875
1171		-64.453125
1172		-58.593750
1173		-62.500000
1174		-60.546875
1175		-62.500000
1176		-60.546875
1177		-62.500000
1178		-58.593750
1179		-62.500000
1180		-58.593750
1181		-62.500000
1182		-58.593750
1183		-62.500000
1184		-56.640625
1185		-62.500000
1186		-58.593750
1187		-60.546875
1188		-58.593750
1189		-60.546875
1190		-56.640625
1191		-60.546875
1192		-58.593750
1193		-60.546875
1194		-56.640625
1195		-60.546875
1196		-56.640625
1197		-58.593750
1198		-56.640625
1199		-58.593750
1200		-56.640625
1201		-58.593750
1202		-54.687500
1203		-58.593750
1204		-54.687500
1205		-56.640625
1206		-54.687500
1207		-56.640625
1208		-54.687500
1209		-58.593750
1210		-52.734375
1211		-56.640625
1212		-52.734375
1213		-56.640625
1214		-52.734375
1215		-56.640625
1216		-52.734375
1217		-54.687500
1218		-50.781250
1219		-54.687500
1220		-50.781250
1221		-54.687500
1222		-50.781250
1223		-52.734375
1224		-50.781250
1225		-52.734375
1226		-48.828125
1227		-52.734375
1228		-48.828125
1229		-52.734375
1230		-46.875000
1231		-50.781250
1232		-46.875000
1233		-48.828125
1234		-46.875000
1235		-50.781250
1236		-44.921875
1237		-48.828125
1238		-44.921875
1239		-48.828125
1240		-44.921875
1241		-48.828125
1242		-44.921875
1243		-46.875000
1244		-42.968750
1245		-46.875000
1246		-41.015625
1247		-44.921875
1248		-41.015625
1249		-44.921875
1250		-41.015625
1251		-42.968750
1252		-39.062500
1253		-42.968750
1254		-39.062500
1255		-42.968750
1256		-37.109375
1257		-41.015625
1258		-37.109375
1259		-39.062500
1260		-37.109375
1261		-41.015625
1262		-35.156250
1263		-39.062500
1264		-35.156250
1265		-37.109375
1266		-35.156250
1267		-37.109375
1268		-33.203125
1269		-35.156250
1270		-31.250000
1271		-35.156250
1272		-31.250000
1273		-35.156250
1274		-31.250000
1275		-33.203125
1276		-29.296875
1277		-33.203125
1278		-29.296875
1279		-31.250000
1280		-27.343750
1281		-31.250000
1282		-27.343750
1283		-29.296875
1284		-25.390625
1285		-27.343750
1286		-25.390625
1287		-27.343750
1288		-23.437500
1289		-27.343750
1290		-23.437500
1291		-25.390625
1292		-23.437500
1293		-25.390625
1294		-19.531250
1295		-25.390625
1296		-19.531250
1297		-23.437500
1298		-19.531250
1299		-21.484375
1300		-17.578125
1301		-21.484375
1302		-17.578125
1303		-19.531250
1304		-15.625000
1305		-19.531250
1306		-13.671875
1307		-17.578125
1308		-13.671875
1309		-15.625000
1310		-13.671875
1311		-15.625000
1312		-11.718750
1313		-15.625000
1314		-11.718750
1315		-13.671875
1316		-9.765625
1317		-13.671875
1318		-7.812500
1319		-11.718750
1320		-7.812500
1321		-11.718750
1322		-7.812500
1323		-9.765625
1324		-5.859375
1325		-7.812500
1326		-5.859375
1327		-7.812500
1328		-3.906250
1329		-5.859375
1330		-1.953125
1331		-5.859375
1332		-1.953125
1333		-5.859375
1334		-1.953125
1335		-3.906250
1336		0.000000
1337		-1.953125
1338		0.000000
1339		-1.953125
1340		1.953125
1341		0.000000
1342		1.953125
1343		0.000000
1344		3.906250
1345		1.953125
1346		5.859375
1347		1.953125
1348		5.859375
1349		3.906250
1350		5.859375
1351		3.906250
1352		7.812500
1353		5.859375
1354		9.765625
1355		5.859375
1356		9.765625
1357		5.859375
1358		11.718750
1359		7.812500
1360		11.718750
1361		9.765625
1362		13.671875
1363		9.765625
1364		13.671875
1365		9.765625
1366		15.625000
1367		11.718750
1368		15.625000
1369		13.671875
1370		17.578125
1371		13.671875
1372		17.578125
1373		15.625000
1374		19.531250
1375		15.625000
1376		19.531250
1377		17.578125
1378		21.484375
1379		17.578125
1380		21.484375
1381		17.578125
1382		23.437500
1383		19.531250
1384		23.437500
1385		21.484375
1386		25.390625
1387		21.484375
1388		25.390625
1389		21.484375
1390		27.343750
1391		23.437500
1392		27.343750
1393		25.390625
1394		27.343750
1395		25.390625
1396		29.296875
1397		27.343750
1398		29.296875
1399		27.343750
1400		31.250000
1401		27.343750
1402		31.250000
1403		29.296875
1404		33.203125
1405		29.296875
1406		33.203125
1407		31.250000
1408		35.156250
1409		31.250000
1410		35.156250
1411		31.250000
1412		35.156250
1413		33.203125
1414		37.109375
1415		33.203125
1416		37.109375
1417		35.156250
1418		37.109375
1419		35.156250
1420		39.062500
1421		35.156250
1422		41.015625
1423		37.109375
1424		41.015625
1425		37.109375
1426		41.015625
1427		39.062500
1428		42.968750
1429		39.062500
1430		42.968750
1431		39.062500
1432		42.968750
1433		41.015625
1434		44.921875
1435		41.015625
1436		44.921875
1437		41.015625
1438		44.921875
1439		42.968750
1440		46.875000
1441		42.968750
1442		46.875000
1443		42.968750
1444		48.828125
1445		44.921875
1446		46.875000
1447		44.921875
1448		48.828125
1449		44.921875
1450		48.828125
1451		46.875000
1452		50.781250
1453		46.875000
1454		50.781250
1455		46.875000
1456		50.781250
1457		46.875000
1458		50.781250
1459		46.875000
1460		50.781250
1461		48.828125
1462		52.734375
1463		48.828125
1464		52.734375
1465		50.781250
1466		52.734375
1467		50.781250
1468		52.734375
1469		50.781250
1470		54.687500
1471		50.781250
1472		54.687500
1473		50.781250
1474		54.687500
1475		52.734375
1476		54.687500
1477		52.734375
1478		54.687500
1479		52.734375
1480		56.640625
1481		52.734375
1482		56.640625
1483		52.734375
1484		56.640625
1485		52.734375
1486		56.640625
1487		52.734375
1488		56.640625
1489		54.687500
1490		58.593750
1491		52.734375
1492		58.593750
1493		54.687500
1494		58.593750
1495		54.687500
1496		58.593750
1497		54.687500
1498		60.546875
1499		54.687500
1500		58.593750
1501		54.687500
1502		58.593750
1503		56.640625
1504		58.593750
1505		56.640625
1506		58.593750
1507		56.640625
1508		60.546875
1509		56.640625
1510		60.546875
1511		56.640625
1512		58.593750
1513		56.640625
1514		60.546875
1515		56.640625
1516		60.546875
1517		56.640625
1518		60.546875
1519		56.640625
1520		60.546875
1521		56.640625
1522		60.546875
1523		56.640625
1524		60.546875
1525		56.640625
1526		60.546875
1527		56.640625
1528		60.546875
1529		56.640625
1530		60.546875
1531		56.640625
1532		60.546875
1533		56.640625
1534		60.546875
1535		56.640625
1536		60.546875
1537		56.640625
1538		60.546875
1539		56.640625
1540		60.546875
1541		56.640625
1542		60.546875
1543		56.640625
1544		60.546875
1545		56.640625
1546		58.593750
1547		54.687500
1548		58.593750
1549		54.687500
1550		58.593750
1551		54.687500
1552		58.593750
1553		54.687500
1554		58.593750
1555		54.687500
1556		58.593750
1557		54.687500
1558		58.593750
1559		54.687500
1560		56.640625
1561		54.687500
1562		56.640625
1563		52.734375
1564		58.593750
1565		52.734375
1566		56.640625
1567		52.734375
1568		56.640625
1569		52.734375
1570		56.640625
1571		52.734375
1572		56.640625
1573		52.734375
1574		54.687500
1575		50.781250
1576		56.640625
1577		52.734375
1578		54.687500
1579		50.781250
1580		54.687500
1581		50.781250
1582		54.687500
1583		50.781250
1584		52.734375
1585		48.828125
1586		52.734375
1587		48.828125
1588		52.734375
1589		48.828125
1590		52.734375
1591		46.875000
1592		52.734375
1593		46.875000
1594		50.781250
1595		46.875000
1596		50.781250
1597		46.875000
1598		50.781250
1599		44.921875
1600		48.828125
1601		44.921875
1602		48.828125
1603		44.921875
1604		48.828125
1605		42.968750
1606		48.828125
1607		42.968750
1608		46.875000
1609		42.968750
1610		46.875000
1611		42.968750
1612		44.921875
1613		41.015625
1614		44.921875
1615		41.015625
1616		42.968750
1617		39.062500
1618		42.968750
1619		39.062500
1620		42.968750
1621		37.109375
1622		41.015625
1623		37.109375
1624		41.015625
1625		37.109375
1626		41.015625
1627		37.109375
1628		39.062500
1629		35.156250
1630		39.062500
1631		35.156250
1632		39.062500
1633		33.203125
1634		37.109375
1635		33.203125
1636		37.109375
1637		33.203125
1638		35.156250
1639		31.250000
1640		35.156250
1641		29.296875
1642		33.203125
1643		29.296875
1644		33.203125
1645		29.296875
1646		33.203125
1647		29.296875
1648		31.250000
1649		25.390625
1650		31.250000
1651		27.343750
1652		29.296875
1653		25.390625
1654		29.296875
1655		25.390625
1656		27.343750
1657		23.437500
1658		27.343750
1659		23.437500
1660		27.343750
1661		21.484375
1662		25.390625
1663		19.531250
1664		23.437500
1665		19.531250
1666		23.437500
1667		19.531250
1668		23.437500
1669		17.578125
1670		21.484375
1671		17.578125
1672		21.484375
1673		15.625000
1674		19.531250
1675		15.625000
1676		19.531250
1677		13.671875
1678		17.578125
1679		13.671875
1680		17.578125
1681		11.718750
1682		15.625000
1683		9.765625
1684		15.625000
1685		9.765625
1686		13.671875
1687		9.765625
1688		11.718750
1689		7.812500
1690		11.718750
1691		7.812500
1692		9.765625
1693		5.859375
1694		9.765625
1695		5.859375
1696		7.812500
1697		3.906250
1698		7.812500
1699		3.906250
1700		7.812500
1701		1.953125
1702		5.859375
1703		0.000000
1704		3.906250
1705		0.000000
1706		3.906250
1707		-1.953125
1708		1.953125
1709		-3.906250
1710		1.953125
1711		-1.953125
1712		0.000000
1713		-3.906250
1714		-1.953125
1715		-5.859375
1716		-1.953125
1717		-5.859375
1718		-1.953125
1719		-7.812500
1720		-3.906250
1721		-7.812500
1722		-5.859375
1723		-9.765625
1724		-5.859375
1725		-11.718750
1726		-5.859375
1727		-11.718750
1728		-7.812500
1729		-13.671875
1730		-9.765625
1731		-13.671875
1732		-9.765625
1733		-13.671875
1734		-9.765625
1735		-15.625000
1736		-11.718750
1737		-15.625000
1738		-11.718750
1739		-17.578125
1740		-13.671875
1741		-19.531250
1742		-13.671875
1743		-19.531250
1744		-15.625000
1745		-19.531250
1746		-17.578125
1747		-23.437500
1748		-15.625000
1749		-23.437500
1750		-19.531250
1751		-23.437500
1752		-19.531250
1753		-25.390625
1754		-21.484375
1755		-25.390625
1756		-21.484375
1757		-27.343750
1758		-21.484375
1759		-27.343750
1760		-23.437500
1761		-27.343750
1762		-25.390625
1763		-29.296875
1764		-25.390625
1765		-29.296875
1766		-27.343750
1767		-31.250000
1768		-27.343750
1769		-31.250000
1770		-27.343750
1771		-33.203125
1772		-29.296875
1773		-33.203125
1774		-29.296875
1775		-35.156250
1776		-31.250000
1777		-35.156250
1778		-31.250000
1779		-35.156250
1780		-33.203125
1781		-37.109375
1782		-33.203125
1783		-39.062500
1784		-35.156250
1785		-39.062500
1786		-35.156250
1787		-39.062500
1788		-35.156250
1789		-41.015625
1790		-37.109375
1791		-41.015625
1792		-37.109375
1793		-42.968750
1794		-37.109375
1795		-42.968750
1796		-39.062500
1797		-42.968750
1798		-39.062500
1799		-44.921875
1800		-41.015625
1801		-44.921875
1802		-41.015625
1803		-46.875000
1804		-41.015625
1805		-46.875000
1806		-42.968750
1807		-46.875000
1808		-42.968750
1809		-46.875000
1810		-42.968750
1811		-48.828125
1812		-44.921875
1813		-50.781250
1814		-44.921875
1815		-50.781250
1816		-46.875000
1817		-50.781250
1818		-46.875000
1819		-50.781250
1820		-46.875000
1821		-50.781250
1822		-48.828125
1823		-52.734375
1824		-48.828125
1825		-52.734375
1826		-48.828125
1827		-52.734375
1828		-48.828125
1829		-54.687500
1830		-50.781250
1831		-54.687500
1832		-50.781250
1833		-54.687500
1834		-50.781250
1835		-54.687500
1836		-52.734375
1837		-54.687500
1838		-52.734375
1839		-56.640625
1840		-52.734375
1841		-56.640625
1842		-52.734375
1843		-58.593750
1844		-52.734375
1845		-58.593750
1846		-54.687500
1847		-58.593750
1848		-54.687500
1849		-58.593750
1850		-54.687500
1851		-58.593750
1852		-54.687500
1853		-58.593750
1854		-56.640625
1855		-58.593750
1856		-56.640625
1857		-60.546875
1858		-56.640625
1859		-60.546875
1860		-56.640625
1861		-60.546875
1862		-56.640625
1863		-60.546875
1864		-56.640625
1865		-60.546875
1866		-58.593750
1867		-62.500000
1868		-56.640625
1869		-60.546875
1870		-58.593750
1871		-62.500000
1872		-58.593750
1873		-62.500000
1874		-58.593750
1875		-62.500000
1876		-58.593750
1877		-62.500000
1878		-58.593750
1879		-62.500000
1880		-58.593750
1881		-62.500000
1882		-58.593750
1883		-62.500000
1884		-58.593750
1885		-62.500000
1886		-58.593750
1887		-62.500000
1888		-58.593750
1889		-62.500000
1890		-58.593750
1891		-62.500000
1892		-58.593750
1893		-62.500000
1894		-58.593750
1895		-62.500000
1896		-58.593750
1897		-62.500000
1898		-58.593750
1899		-62.500000
1900		-58.593750
1901		-62.500000
1902		-58.593750
1903		-62.500000
1904		-58.593750
1905		-62.500000
1906		-58.593750
1907		-62.500000
1908		-58.593750
1909		-62.500000
1910		-58.593750
1911		-62.500000
1912		-56.640625
1913		-60.546875
1914		-58.593750
1915		-60.546875
1916		-56.640625
1917		-60.546875
1918		-56.640625
1919		-60.546875
1920		-56.640625
1921		-62.500000
1922		-56.640625
1923		-60.546875
1924		-56.640625
1925		-60.546875
1926		-56.640625
1927		-60.546875
1928		-54.687500
1929		-58.593750
1930		-56.640625
1931		-58.593750
1932		-54.687500
1933		-58.593750
1934		-54.687500
1935		-56.640625
1936		-54.687500
1937		-58.593750
1938		-52.734375
1939		-56.640625
1940		-52.734375
1941		-56.640625
1942		-52.734375
1943		-56.640625
1944		-52.734375
1945		-56.640625
1946		-52.734375
1947		-54.687500
1948		-52.734375
1949		-54.687500
1950		-50.781250
1951		-54.687500
1952		-50.781250
1953		-52.734375
1954		-50.781250
1955		-52.734375
1956		-48.828125
1957		-52.734375
1958		-48.828125
1959		-52.734375
1960		-48.828125
1961		-50.781250
1962		-46.875000
1963		-50.781250
1964		-46.875000
1965		-50.781250
1966		-46.875000
1967		-50.781250
1968		-46.875000
1969		-48.828125
1970		-44.921875
1971		-46.875000
1972		-44.921875
1973		-46.875000
1974		-42.968750
1975		-46.875000
1976		-42.968750
1977		-44.921875
1978		-41.015625
1979		-46.875000
1980		-42.968750
1981		-44.921875
1982		-41.015625
1983		-42.968750
1984		-39.062500
1985		-42.968750
1986		-39.062500
1987		-42.968750
1988		-39.062500
1989		-41.015625
1990		-37.109375
1991		-41.015625
1992		-37.109375
1993		-39.062500
1994		-35.156250
1995		-39.062500
1996		-35.156250
1997		-39.062500
1998		-33.203125
1999		-37.109375
2000		-33.203125
2001		-37.109375
2002		-33.203125
2003		-35.156250
2004		-31.250000
2005		-35.156250
2006		-31.250000
2007		-33.203125
2008		-29.296875
2009		-33.203125
2010		-29.296875
2011		-31.250000
2012		-27.343750
2013		-31.250000
2014		-27.343750
2015		-29.296875
2016		-27.343750
2017		-29.296875
2018		-25.390625
2019		-29.296875
2020		-23.437500
2021		-27.343750
2022		-23.437500
2023		-25.390625
2024		-21.484375
2025		-25.390625
2026		-21.484375
2027		-23.437500
2028		-19.531250
2029		-23.437500
2030		-19.531250
2031		-23.437500
2032		-19.531250
2033		-21.484375
2034		-17.578125
2035		-21.484375
2036		-15.625000
2037		-19.531250
2038		-15.625000
2039		-17.578125
2040		-15.625000
2041		-17.578125
2042		-13.671875
2043		-15.625000
2044		-13.671875
2045		-15.625000
2046		-11.718750
2047		-13.671875
2048		-11.718750
2049		-13.671875
2050		-9.765625
2051		-11.718750
2052		-7.812500
2053		-9.765625
2054		-7.812500
2055		-9.765625
2056		-7.812500
2057		-7.812500
2058		-5.859375
2059		-7.812500
2060		-3.906250
2061		-7.812500
2062		-1.953125
2063		-5.859375
2064		-1.953125
2065		-5.859375
2066		0.000000
2067		-3.906250
2068		0.000000
2069		-1.953125
2070		0.000000
2071		-1.953125
2072		1.953125
2073		0.000000
2074		3.906250
2075		0.000000
2076		3.906250
2077		1.953125
2078		5.859375
2079		1.953125
2080		5.859375
2081		1.953125
2082		5.859375
2083		3.906250
2084		7.812500
2085		3.906250
2086		7.812500
2087		5.859375
2088		9.765625
2089		7.812500
2090		11.718750
2091		9.765625
2092		11.718750
2093		9.765625
2094		13.671875
2095		9.765625
2096		13.671875
2097		11.718750
2098		15.625000
2099		11.718750
2100		15.625000
2101		13.671875
2102		17.578125
2103		13.671875
2104		17.578125
2105		15.625000
2106		19.531250
2107		15.625000
2108		19.531250
2109		17.578125
2110		21.484375
2111		19.531250
2112		21.484375
2113		19.531250
2114		23.437500
2115		19.531250
2116		23.437500
2117		21.484375
2118		25.390625
2119		21.484375
2120		25.390625
2121		23.437500
2122		27.343750
2123		23.437500
2124		27.343750
2125		23.437500
2126		29.296875
2127		25.390625
2128		29.296875
2129		25.390625
2130		29.296875
2131		27.343750
2132		31.250000
2133		29.296875
2134		31.250000
2135		29.296875
2136		33.203125
2137		29.296875
2138		33.203125
2139		31.250000
2140		35.156250
2141		31.250000
2142		35.156250
2143		33.203125
2144		35.156250
2145		33.203125
2146		37.109375
2147		33.203125
2148		37.109375
2149		35.156250
2150		39.062500
2151		35.156250
2152		39.062500
2153		37.109375
2154		39.062500
2155		37.109375
2156		41.015625
2157		37.109375
2158		41.015625
2159		39.062500
2160		42.968750
2161		39.062500
2162		42.968750
2163		41.015625
2164		44.921875
2165		41.015625
2166		42.968750
2167		41.015625
2168		44.921875
2169		41.015625
2170		46.875000
2171		42.968750
2172		46.875000
2173		42.968750
2174		48.828125
2175		44.921875
2176		46.875000
2177		44.921875
2178		48.828125
2179		44.921875
2180		48.828125
2181		46.875000
2182		48.828125
2183		46.875000
2184		48.828125
2185		46.875000
2186		50.781250
2187		46.875000
2188		50.781250
2189		46.875000
2190		52.734375
2191		48.828125
2192		52.734375
2193		48.828125
2194		52.734375
2195		48.828125
2196		52.734375
2197		48.828125
2198		52.734375
2199		50.781250
2200		52.734375
2201		50.781250
2202		54.687500
2203		50.781250
2204		54.687500
2205		50.781250
2206		56.640625
2207		52.734375
2208		54.687500
2209		52.734375
2210		56.640625
2211		52.734375
2212		56.640625
2213		52.734375
2214		56.640625
2215		54.687500
2216		58.593750
2217		54.687500
2218		56.640625
2219		54.687500
2220		56.640625
2221		54.687500
2222		58.593750
2223		54.687500
2224		58.593750
2225		54.687500
2226		58.593750
2227		54.687500
2228		58.593750
2229		54.687500
2230		58.593750
2231		56.640625
2232		60.546875
2233		54.687500
2234		60.546875
2235		54.687500
2236		60.546875
2237		56.640625
2238		60.546875
2239		56.640625
2240		58.593750
2241		56.640625
2242		60.546875
2243		56.640625
2244		60.546875
2245		56.640625
2246		60.546875
2247		56.640625
2248		60.546875
2249		56.640625
2250		60.546875
2251		56.640625
2252		60.546875
2253		56.640625
2254		60.546875
2255		56.640625
2256		60.546875
2257		56.640625
2258		60.546875
2259		56.640625
2260		60.546875
2261		56.640625
2262		60.546875
2263		56.640625
2264		60.546875
2265		56.640625
2266		60.546875
2267		56.640625
2268		60.546875
2269		56.640625
2270		60.546875
2271		56.640625
2272		60.546875
2273		56.640625
2274		60.546875
2275		56.640625
2276		60.546875
2277		56.640625
2278		60.546875
2279		56.640625
2280		60.546875
2281		56.640625
2282		60.546875
2283		56.640625
2284		60.546875
2285		54.687500
2286		58.593750
2287		54.687500
2288		60.546875
2289		54.687500
2290		58.593750
2291		54.687500
2292		58.593750
2293		54.687500
2294		58.593750
2295		54.687500
2296		58.593750
2297		54.687500
2298		58.593750
2299		54.687500
2300		56.640625
2301		52.734375
2302		56.640625
2303		52.734375
2304		56.640625
2305		52.734375
2306		56.640625
2307		52.734375
2308		54.687500
2309		50.781250
2310		54.687500
2311		50.781250
2312		54.687500
2313		50.781250
2314		54.687500
2315		50.781250
2316		54.687500
2317		50.781250
2318		52.734375
2319		48.828125
2320		52.734375
2321		48.828125
2322		52.734375
2323		48.828125
2324		52.734375
2325		46.875000
2326		52.734375
2327		48.828125
2328		50.781250
2329		46.875000
2330		50.781250
2331		44.921875
2332		50.781250
2333		46.875000
2334		48.828125
2335		44.921875
2336		48.828125
2337		44.921875
2338		48.828125
2339		42.968750
2340		46.875000
2341		42.968750
2342		46.875000
2343		42.968750
2344		46.875000
2345		42.968750
2346		44.921875
2347		41.015625
2348		44.921875
2349		41.015625
2350		44.921875
2351		41.015625
2352		42.968750
2353		39.062500
2354		42.968750
2355		39.062500
2356		42.968750
2357		37.109375
2358		41.015625
2359		37.109375
2360		41.015625
2361		35.156250
2362		41.015625
2363		35.156250
2364		39.062500
2365		35.156250
2366		37.109375
2367		33.203125
2368		39.062500
2369		33.203125
2370		37.109375
2371		31.250000
2372		37.109375
2373		31.250000
2374		35.156250
2375		31.250000
2376		35.156250
2377		29.296875
2378		33.203125
2379		29.296875
2380		33.203125
2381		27.343750
2382		31.250000
2383		27.343750
2384		31.250000
2385		27.343750
2386		29.296875
2387		25.390625
2388		29.296875
2389		25.390625
2390		27.343750
2391		23.437500
2392		27.343750
2393		23.437500
2394		27.343750
2395		21.484375
2396		25.390625
2397		21.484375
2398		25.390625
2399		19.531250
2400		23.437500
2401		19.531250
2402		23.437500
2403		17.578125
2404		21.484375
2405		17.578125
2406		21.484375
2407		15.625000
2408		19.531250
2409		15.625000
2410		17.578125
2411		13.671875
2412		17.578125
2413		13.671875
2414		17.578125
2415		11.718750
2416		15.625000
2417		11.718750
2418		13.671875
2419		9.765625
2420		15.625000
2421		9.765625
2422		13.671875
2423		7.812500
2424		11.718750
2425		7.812500
2426		11.718750
2427		5.859375
2428		9.765625
2429		3.906250
2430		7.812500
2431		3.906250
2432		7.812500
2433		3.906250
2434		7.812500
2435		1.953125
2436		5.859375
2437		1.953125
2438		5.859375
2439		0.000000
2440		3.906250
2441		0.000000
2442		3.906250
2443		-1.953125
2444		1.953125
2445		-1.953125
2446		1.953125
2447		-3.906250
2448		0.000000
2449		-5.859375
2450		0.000000
2451		-5.859375
2452		-1.953125
2453		-7.812500
2454		-3.906250
2455		-7.812500
2456		-3.906250
2457		-9.765625
2458		-5.859375
2459		-9.765625
2460		-5.859375
2461		-11.718750
2462		-7.812500
2463		-11.718750
2464		-7.812500
2465		-13.671875
2466		-9.765625
2467		-13.671875
2468		-9.765625
2469		-15.625000
2470		-11.718750
2471		-15.625000
2472		-11.718750
2473		-15.625000
2474		-13.671875
2475		-17.578125
2476		-13.671875
2477		-19.531250
2478		-15.625000
2479		-19.531250
2480		-15.625000
2481		-21.484375
2482		-17.578125
2483		-23.437500
2484		-17.578125
2485		-23.437500
2486		-19.531250
2487		-25.390625
2488		-19.531250
2489		-25.390625
2490		-21.484375
2491		-25.390625
2492		-21.484375
2493		-27.343750
2494		-23.437500
2495		-27.343750
2496		-23.437500
2497		-29.296875
2498		-25.390625
2499		-31.250000
2500		-25.390625
2501		-29.296875
2502		-27.343750
2503		-31.250000
2504		-27.343750
2505		-33.203125
2506		-29.296875
2507		-33.203125
2508		-29.296875
2509		-33.203125
2510		-31.250000
2511		-35.156250
2512		-31.250000
2513		-35.156250
2514		-33.203125
2515		-37.109375
2516		-33.203125
2517		-37.109375
2518		-33.203125
2519		-37.109375
2520		-35.156250
2521		-39.062500
2522		-35.156250
2523		-39.062500
2524		-37.109375
2525		-41.015625
2526		-37.109375
2527		-41.015625
2528		-37.109375
2529		-41.015625
2530		-39.062500
2531		-42.968750
2532		-39.062500
2533		-44.921875
2534		-41.015625
2535		-44.921875
2536		-41.015625
2537		-44.921875
2538		-42.968750
2539		-46.875000
2540		-42.968750
2541		-46.875000
2542		-42.968750
2543		-46.875000
2544		-42.968750
2545		-48.828125
2546		-44.921875
2547		-48.828125
2548		-44.921875
2549		-50.781250
2550		-44.921875
2551		-48.828125
2552		-46.875000
2553		-50.781250
2554		-46.875000
2555		-50.781250
2556		-48.828125
2557		-50.781250
2558		-48.828125
2559		-52.734375
2560		-48.828125
2561		-52.734375
2562		-48.828125
2563		-54.687500
2564		-50.781250
2565		-54.687500
2566		-50.781250
2567		-54.687500
2568		-50.781250
2569		-56.640625
2570		-50.781250
2571		-56.640625
2572		-52.734375
2573		-56.640625
2574		-52.734375
2575		-56.640625
2576		-52.734375
2577		-56.640625
2578		-52.734375
2579		-56.640625
2580		-54.687500
2581		-58.593750
2582		-52.734375
2583		-58.593750
2584		-54.687500
2585		-58.593750
2586		-54.687500
2587		-58.593750
2588		-56.640625
2589		-60.546875
2590		-56.640625
2591		-60.546875
2592		-56.640625
2593		-60.546875
2594		-56.640625
2595		-60.546875
2596		-56.640625
2597		-60.546875
2598		-56.640625
2599		-60.546875
2600		-56.640625
2601		-60.546875
2602		-56.640625
2603		-62.500000
2604		-56.640625
2605		-60.546875
2606		-56.640625
2607		-60.546875
2608		-56.640625
2609		-60.546875
2610		-58.593750
2611		-62.500000
2612		-58.593750
2613		-62.500000
2614		-58.593750
2615		-62.500000
2616		-58.593750
2617		-62.500000
2618		-58.593750
2619		-60.546875
2620		-58.593750
2621		-62.500000
2622		-58.593750
2623		-62.500000
2624		-58.593750
2625		-62.500000
2626		-58.593750
2627		-62.500000
2628		-56.640625
2629		-62.500000
2630		-58.593750
2631		-62.500000
2632		-58.593750
2633		-62.500000
2634		-56.640625
2635		-60.546875
2636		-58.593750
2637		-60.546875
2638		-58.593750
2639		-62.500000
2640		-56.640625
2641		-60.546875
2642		-58.593750
2643		-60.546875
2644		-56.640625
2645		-60.546875
2646		-56.640625
2647		-60.546875
2648		-56.640625
2649		-60.546875
2650		-56.640625
2651		-60.546875
2652		-56.640625
2653		-60.546875
2654		-56.640625
2655		-58.593750
2656		-56.640625
2657		-60.546875
2658		-54.687500
2659		-58.593750
2660		-54.687500
2661		-58.593750
2662		-54.687500
2663		-58.593750
2664		-54.687500
2665		-58.593750
2666		-52.734375
2667		-56.640625
2668		-54.687500
2669		-56.640625
2670		-54.687500
2671		-56.640625
2672		-52.734375
2673		-56.640625
2674		-52.734375
2675		-56.640625
2676		-50.781250
2677		-56.640625
2678		-52.734375
2679		-54.687500
2680		-50.781250
2681		-54.687500
2682		-50.781250
2683		-54.687500
2684		-48.828125
2685		-54.687500
2686		-48.828125
2687		-52.734375
2688		-48.828125
2689		-52.734375
2690		-48.828125
2691		-50.781250
2692		-48.828125
2693		-50.781250
2694		-46.875000
2695		-50.781250
2696		-46.875000
2697		-48.828125
2698		-46.875000
2699		-48.828125
2700		-44.921875
2701		-48.828125
2702		-44.921875
2703		-46.875000
2704		-44.921875
2705		-46.875000
2706		-42.968750
2707		-46.875000
2708		-41.015625
2709		-44.921875
2710		-42.968750
2711		-44.921875
2712		-41.015625
2713		-44.921875
2714		-41.015625
2715		-42.968750
2716		-39.062500
2717		-42.968750
2718		-37.109375
2719		-41.015625
2720		-39.062500
2721		-41.015625
2722		-37.109375
2723		-41.015625
2724		-35.156250
2725		-39.062500
2726		-35.156250
2727		-39.062500
2728		-35.156250
2729		-37.109375
2730		-33.203125
2731		-37.109375
2732		-33.203125
2733		-35.156250
2734		-31.250000
2735		-35.156250
2736		-31.250000
2737		-33.203125
2738		-31.250000
2739		-33.203125
2740		-29.296875
2741		-31.250000
2742		-29.296875
2743		-31.250000
2744		-27.343750
2745		-31.250000
2746		-27.343750
2747		-29.296875
2748		-25.390625
2749		-29.296875
2750		-25.390625
2751		-27.343750
2752		-23.437500
2753		-27.343750
2754		-23.437500
2755		-25.390625
2756		-21.484375
2757		-25.390625
2758		-21.484375
2759		-23.437500
2760		-19.531250
2761		-23.437500
2762		-19.531250
2763		-21.484375
2764		-17.578125
2765		-21.484375
2766		-15.625000
2767		-19.531250
2768		-15.625000
2769		-19.531250
2770		-15.625000
2771		-17.578125
2772		-13.671875
2773		-17.578125
2774		-13.671875
2775		-15.625000
2776		-13.671875
2777		-15.625000
2778		-9.765625
2779		-13.671875
2780		-11.718750
2781		-13.671875
2782		-9.765625
2783		-11.718750
2784		-7.812500
2785		-9.765625
2786		-7.812500
2787		-9.765625
2788		-5.859375
2789		-9.765625
2790		-3.906250
2791		-7.812500
2792		-3.906250
2793		-5.859375
2794		-3.906250
2795		-5.859375
2796		-1.953125
2797		-3.906250
2798		-1.953125
2799		-3.906250
2800		1.953125
2801		-3.906250
2802		0.000000
2803		-1.953125
2804		1.953125
2805		0.000000
2806		3.906250
2807		0.000000
2808		3.906250
2809		1.953125
2810		5.859375
2811		1.953125
2812		5.859375
2813		3.906250
2814		7.812500
2815		3.906250
2816		9.765625
2817		5.859375
2818		9.765625
2819		5.859375
2820		9.765625
2821		7.812500
2822		11.718750
2823		7.812500
2824		11.718750
2825		9.765625
2826		13.671875
2827		9.765625
2828		13.671875
2829		11.718750
2830		13.671875
2831		11.718750
2832		15.625000
2833		13.671875
2834		17.578125
2835		13.671875
2836		17.578125
2837		15.625000
2838		17.578125
2839		17.578125
2840		19.531250
2841		17.578125
2842		21.484375
2843		17.578125
2844		21.484375
2845		19.531250
2846		23.437500
2847		19.531250
2848		23.437500
2849		21.484375
2850		25.390625
2851		21.484375
2852		25.390625
2853		21.484375
2854		27.343750
2855		23.437500
2856		27.343750
2857		25.390625
2858		27.343750
2859		25.390625
2860		29.296875
2861		25.390625
2862		29.296875
2863		27.343750
2864		31.250000
2865		27.343750
2866		31.250000
2867		29.296875
2868		33.203125
2869		29.296875
2870		35.156250
2871		31.250000
2872		33.203125
2873		31.250000
2874		35.156250
2875		31.250000
2876		35.156250
2877		33.203125
2878		37.109375
2879		35.156250
2880		37.109375
2881		35.156250
2882		39.062500
2883		35.156250
2884		39.062500
2885		35.156250
2886		41.015625
2887		35.156250
2888		41.015625
2889		39.062500
2890		41.015625
2891		39.062500
2892		42.968750
2893		39.062500
2894		42.968750
2895		39.062500
2896		44.921875
2897		41.015625
2898		44.921875
2899		41.015625
2900		44.921875
2901		41.015625
2902		44.921875
2903		42.968750
2904		44.921875
2905		42.968750
2906		46.875000
2907		42.968750
2908		46.875000
2909		44.921875
2910		48.828125
2911		44.921875
2912		48.828125
2913		46.875000
2914		48.828125
2915		46.875000
2916		48.828125
2917		46.875000
2918		50.781250
2919		46.875000
2920		50.781250
2921		46.875000
2922		52.734375
2923		48.828125
2924		52.734375
2925		48.828125
2926		52.734375
2927		48.828125
2928		52.734375
2929		50.781250
2930		52.734375
2931		50.781250
2932		54.687500
2933		50.781250
2934		54.687500
2935		50.781250
2936		54.687500
2937		50.781250
2938		54.687500
2939		50.781250
2940		56.640625
2941		52.734375
2942		56.640625
2943		52.734375
2944		56.640625
2945		52.734375
2946		56.640625
2947		54.687500
2948		56.640625
2949		54.687500
2950		58.593750
2951		54.687500
2952		58.593750
2953		54.687500
2954		58.593750
2955		54.687500
2956		58.593750
2957		54.687500
2958		58.593750
2959		56.640625
2960		60.546875
2961		56.640625
2962		60.546875
2963		56.640625
2964		60.546875
2965		56.640625
2966		60.546875
2967		56.640625
2968		60.546875
2969		56.640625
2970		60.546875
2971		56.640625
2972		60.546875
2973		56.640625
2974		60.546875
2975		58.593750
2976		60.546875
2977		58.593750
2978		60.546875
2979		56.640625
2980		62.500000
2981		58.593750
2982		60.546875
2983		58.593750
2984		60.546875
2985		58.593750
2986		62.500000
2987		58.593750
2988		62.500000
2989		56.640625
2990		62.500000
2991		56.640625
2992		62.500000
2993		58.593750
2994		60.546875
2995		56.640625
2996		60.546875
2997		58.593750
2998		60.546875
2999		56.640625
3000		62.500000
3001		58.593750
3002		60.546875
3003		56.640625
3004		60.546875
3005		56.640625
3006		60.546875
3007		58.593750
3008		60.546875
3009		56.640625
3010		60.546875
3011		56.640625
3012		60.546875
3013		56.640625
3014		60.546875
3015		56.640625
3016		60.546875
3017		54.687500
3018		60.546875
3019		56.640625
3020		60.546875
3021		56.640625
3022		60.546875
3023		56.640625
3024		58.593750
3025		54.687500
3026		58.593750
3027		54.687500
3028		58.593750
3029		54.687500
3030		58.593750
3031		54.687500
3032		58.593750
3033		54.687500
3034		58.593750
3035		54.687500
3036		56.640625
3037		52.734375
3038		56.640625
3039		52.734375
3040		56.640625
3041		52.734375
3042		56.640625
3043		52.734375
3044		56.640625
3045		52.734375
3046		54.687500
3047		50.781250
3048		56.640625
3049		50.781250
3050		54.687500
3051		50.781250
3052		54.687500
3053		50.781250
3054		52.734375
3055		48.828125
3056		52.734375
3057		48.828125
3058		52.734375
3059		46.875000
3060		52.734375
3061		46.875000
3062		50.781250
3063		48.828125
3064		50.781250
3065		44.921875
3066		50.781250
3067		46.875000
3068		48.828125
3069		44.921875
3070		48.828125
3071		44.921875
3072		48.828125
3073		44.921875
3074		46.875000
3075		42.968750
3076		46.875000
3077		42.968750
3078		46.875000
3079		42.968750
3080		44.921875
3081		41.015625
3082		44.921875
3083		41.015625
3084		44.921875
3085		41.015625
3086		42.968750
3087		39.062500
3088		42.968750
3089		39.062500
3090		42.968750
3091		39.062500
3092		41.015625
3093		37.109375
3094		41.015625
3095		37.109375
3096		39.062500
3097		35.156250
3098		39.062500
3099		35.156250
3100		39.062500
3101		33.203125
3102		37.109375
3103		33.203125
3104		37.109375
3105		33.203125
3106		37.109375
3107		31.250000
3108		35.156250
3109		31.250000
3110		33.203125
3111		29.296875
3112		33.203125
3113		29.296875
3114		33.203125
3115		27.343750
3116		31.250000
3117		27.343750
3118		31.250000
3119		27.343750
3120		29.296875
3121		23.437500
3122		29.296875
3123		25.390625
3124		29.296875
3125		23.437500
3126		27.343750
3127		23.437500
3128		27.343750
3129		21.484375
3130		25.390625
3131		21.484375
3132		23.437500
3133		19.531250
3134		23.437500
3135		19.531250
3136		23.437500
3137		17.578125
3138		21.484375
3139		17.578125
3140		21.484375
3141		15.625000
3142		19.531250
3143		15.625000
3144		19.531250
3145		13.671875
3146		17.578125
3147		13.671875
3148		15.625000
3149		11.718750
3150		15.625000
3151		9.765625
3152		15.625000
3153		9.765625
3154		13.671875
3155		9.765625
3156		11.718750
3157		7.812500
3158		13.671875
3159		7.812500
3160		9.765625
3161		5.859375
3162		9.765625
3163		3.906250
3164		9.765625
3165		3.906250
3166		7.812500
3167		3.906250
3168		5.859375
3169		1.953125
3170		5.859375
3171		0.000000
3172		3.906250
3173		0.000000
3174		3.906250
3175		0.000000
3176		1.953125
3177		-1.953125
3178		1.953125
3179		-1.953125
3180		0.000000
3181		-3.906250
3182		0.000000
3183		-3.906250
3184		-1.953125
3185		-5.859375
3186		-1.953125
3187		-5.859375
3188		-1.953125
3189		-7.812500
3190		-3.906250
3191		-9.765625
3192		-5.859375
3193		-11.718750
3194		-5.859375
3195		-11.718750
3196		-5.859375
3197		-11.718750
3198		-7.812500
3199		-13.671875
3200		-9.765625
3201		-13.671875
3202		-9.765625
3203		-15.625000
3204		-11.718750
3205		-17.578125
3206		-11.718750
3207		-17.578125
3208		-13.671875
3209		-17.578125
3210		-15.625000
3211		-19.531250
3212		-13.671875
3213		-19.531250
3214		-15.625000
3215		-21.484375
3216		-17.578125
3217		-23.437500
3218		-19.531250
3219		-23.437500
3220		-19.531250
3221		-23.437500
3222		-19.531250
3223		-25.390625
3224		-21.484375
3225		-25.390625
3226		-23.437500
3227		-27.343750
3228		-23.437500
3229		-27.343750
3230		-23.437500
3231		-29.296875
3232		-25.390625
3233		-31.250000
3234		-25.390625
3235		-31.250000
3236		-27.343750
3237		-31.250000
3238		-27.343750
3239		-33.203125
3240		-27.343750
3241		-33.203125
3242		-29.296875
3243		-33.203125
3244		-31.250000
3245		-35.156250
3246		-31.250000
3247		-35.156250
3248		-31.250000
3249		-37.109375
3250		-33.203125
3251		-37.109375
3252		-33.203125
3253		-39.062500
3254		-35.156250
3255		-39.062500
3256		-35.156250
3257		-41.015625
3258		-37.109375
3259		-41.015625
3260		-37.109375
3261		-41.015625
3262		-37.109375
3263		-42.968750
3264		-39.062500
3265		-42.968750
3266		-39.062500
3267		-42.968750
3268		-39.062500
3269		-44.921875
3270		-41.015625
3271		-44.921875
3272		-41.015625
3273		-46.875000
3274		-41.015625
3275		-46.875000
3276		-42.968750
3277		-48.828125
3278		-42.968750
3279		-48.828125
3280		-42.968750
3281		-48.828125
3282		-44.921875
3283		-48.828125
3284		-44.921875
3285		-50.781250
3286		-46.875000
3287		-50.781250
3288		-46.875000
3289		-50.781250
3290		-46.875000
3291		-50.781250
3292		-48.828125
3293		-52.734375
3294		-48.828125
3295		-52.734375
3296		-48.828125
3297		-54.687500
3298		-48.828125
3299		-54.687500
3300		-48.828125
3301		-54.687500
3302		-50.781250
3303		-56.640625
3304		-50.781250
3305		-56.640625
3306		-50.781250
3307		-56.640625
3308		-50.781250
3309		-54.687500
3310		-52.734375
3311		-56.640625
3312		-52.734375
3313		-58.593750
3314		-52.734375
3315		-58.593750
3316		-52.734375
3317		-58.593750
3318		-54.687500
3319		-58.593750
3320		-54.687500
3321		-60.546875
3322		-54.687500
3323		-60.546875
3324		-54.687500
3325		-58.593750
3326		-56.640625
3327		-58.593750
3328		-56.640625
3329		-60.546875
3330		-54.687500
3331		-60.546875
3332		-56.640625
3333		-60.546875
3334		-56.640625
3335		-60.546875
3336		-54.687500
3337		-60.546875
3338		-56.640625
3339		-60.546875
3340		-56.640625
3341		-60.546875
3342		-58.593750
3343		-62.500000
3344		-56.640625
3345		-62.500000
3346		-56.640625
3347		-62.500000
3348		-56.640625
3349		-62.500000
3350		-56.640625
3351		-62.500000
3352		-56.640625
3353		-62.500000
3354		-56.640625
3355		-62.500000
3356		-56.640625
3357		-64.453125
3358		-56.640625
3359		-60.546875
3360		-58.593750
3361		-62.500000
3362		-58.593750
3363		-60.546875
3364		-58.593750
3365		-60.546875
3366		-58.593750
3367		-60.546875
3368		-58.593750
3369		-60.546875
3370		-58.593750
3371		-60.546875
3372		-58.593750
3373		-62.500000
3374		-56.640625
3375		-60.546875
3376		-58.593750
3377		-60.546875
3378		-56.640625
3379		-60.546875
3380		-58.593750
3381		-60.546875
3382		-56.640625
3383		-58.593750
3384		-56.640625
3385		-60.546875
3386		-56.640625
3387		-58.593750
3388		-56.640625
3389		-58.593750
3390		-56.640625
3391		-58.593750
3392		-56.640625
3393		-58.593750
3394		-56.640625
3395		-58.593750
3396		-54.687500
3397		-58.593750
3398		-54.687500
3399		-56.640625
3400		-54.687500
3401		-56.640625
3402		-54.687500
3403		-56.640625
3404		-52.734375
3405		-56.640625
3406		-52.734375
3407		-54.687500
3408		-52.734375
3409		-56.640625
3410		-50.781250
3411		-54.687500
3412		-52.734375
3413		-54.687500
3414		-50.781250
3415		-54.687500
3416		-50.781250
3417		-52.734375
3418		-50.781250
3419		-52.734375
3420		-50.781250
3421		-52.734375
3422		-48.828125
3423		-50.781250
3424		-48.828125
3425		-50.781250
3426		-48.828125
3427		-50.781250
3428		-46.875000
3429		-48.828125
3430		-46.875000
3431		-48.828125
3432		-46.875000
3433		-48.828125
3434		-44.921875
3435		-48.828125
3436		-44.921875
3437		-46.875000
3438		-42.968750
3439		-46.875000
3440		-42.968750
3441		-46.875000
3442		-42.968750
3443		-46.875000
3444		-42.968750
3445		-44.921875
3446		-41.015625
3447		-44.921875
3448		-39.062500
3449		-42.968750
3450		-39.062500
3451		-42.968750
3452		-39.062500
3453		-41.015625
3454		-39.062500
3455		-41.015625
3456		-37.109375
3457		-41.015625
3458		-37.109375
3459		-39.062500
3460		-35.156250
3461		-39.062500
3462		-35.156250
3463		-41.015625
3464		-31.250000
3465		-39.062500
3466		-31.250000
3467		-39.062500
3468		-29.296875
3469		-35.156250
3470		-31.250000
3471		-33.203125
3472		-31.250000
3473		-33.203125
3474		-29.296875
3475		-33.203125
3476		-29.296875
3477		-31.250000
3478		-29.296875
3479		-33.203125
3480		-23.437500
3481		-31.250000
3482		-23.437500
3483		-31.250000
3484		-21.484375
3485		-29.296875
3486		-23.437500
3487		-27.343750
3488		-23.437500
3489		-25.390625
3490		-21.484375
3491		-23.437500
3492		-21.484375
3493		-23.437500
3494		-19.531250
3495		-21.484375
3496		-19.531250
3497		-25.390625
3498		-15.625000
3499		-23.437500
3500		-15.625000
3501		-23.437500
3502		-13.671875
3503		-19.531250
3504		-15.625000
3505		-17.578125
3506		-13.671875
3507		-17.578125
3508		-13.671875
3509		-15.625000
3510		-11.718750
3511		-13.671875
3512		-11.718750
3513		-15.625000
3514		-7.812500
3515		-15.625000
3516		-5.859375
3517		-13.671875
3518		-3.906250
3519		-9.765625
3520		-7.812500
3521		-9.765625
3522		-5.859375
3523		-7.812500
3524		-5.859375
3525		-7.812500
3526		-3.906250
3527		-5.859375
3528		-3.906250
3529		-7.812500
3530		1.953125
3531		-7.812500
3532		3.906250
3533		-5.859375
3534		1.953125
3535		-5.859375
3536		3.906250
3537		-1.953125
3538		1.953125
3539		0.000000
3540		1.953125
3541		1.953125
3542		3.906250
3543		1.953125
3544		5.859375
3545		3.906250
3546		5.859375
3547		1.953125
3548		11.718750
3549		1.953125
3550		11.718750
3551		3.906250
3552		11.718750
3553		7.812500
3554		9.765625
3555		7.812500
3556		11.718750
3557		9.765625
3558		11.718750
3559		9.765625
3560		13.671875
3561		11.718750
3562		15.625000
3563		9.765625
3564		19.531250
3565		9.765625
3566		19.531250
3567		11.718750
3568		21.484375
3569		11.718750
3570		19.531250
3571		15.625000
3572		19.531250
3573		17.578125
3574		19.531250
3575		17.578125
3576		21.484375
3577		19.531250
3578		21.484375
3579		19.531250
3580		23.437500
3581		17.578125
3582		27.343750
3583		17.578125
3584		27.343750
3585		19.531250
3586		29.296875
3587		23.437500
3588		27.343750
3589		23.437500
3590		27.343750
3591		25.390625
3592		29.296875
3593		25.390625
3594		31.250000
3595		27.343750
3596		29.296875
3597		25.390625
3598		35.156250
3599		25.390625
3600		35.156250
3601		27.343750
3602		37.109375
3603		31.250000
3604		33.203125
3605		31.250000
3606		35.156250
3607		33.203125
3608		35.156250
3609		33.203125
3610		35.156250
3611		33.203125
3612		37.109375
3613		33.203125
3614		41.015625
3615		33.203125
3616		41.015625
3617		33.203125
3618		42.968750
3619		33.203125
3620		42.968750
3621		37.109375
3622		41.015625
3623		37.109375
3624		41.015625
3625		39.062500
3626		42.968750
3627		39.062500
3628		42.968750
3629		41.015625
3630		44.921875
3631		39.062500
3632		46.875000
3633		39.062500
3634		48.828125
3635		39.062500
3636		48.828125
3637		42.968750
3638		46.875000
3639		44.921875
3640		46.875000
3641		44.921875
3642		48.828125
3643		44.921875
3644		48.828125
3645		46.875000
3646		48.828125
3647		44.921875
3648		50.781250
3649		46.875000
3650		52.734375
3651		44.921875
3652		52.734375
3653		48.828125
3654		52.734375
3655		48.828125
3656		50.781250
3657		48.828125
3658		52.734375
3659		48.828125
3660		52.734375
3661		50.781250
3662		52.734375
3663		50.781250
3664		54.687500
3665		50.781250
3666		54.687500
3667		48.828125
3668		56.640625
3669		50.781250
3670		56.640625
3671		52.734375
3672		54.687500
3673		52.734375
3674		56.640625
3675		52.734375
3676		56.640625
3677		52.734375
3678		56.640625
3679		54.687500
3680		58.593750
3681		54.687500
3682		58.593750
3683		54.687500
3684		58.593750
3685		54.687500
3686		58.593750
3687		56.640625
3688		58.593750
3689		54.687500
3690		58.593750
3691		54.687500
3692		58.593750
3693		56.640625
3694		58.593750
3695		56.640625
3696		58.593750
3697		56.640625
3698		60.546875
3699		56.640625
3700		60.546875
3701		56.640625
3702		60.546875
3703		56.640625
3704		60.546875
3705		56.640625
3706		60.546875
3707		56.640625
3708		60.546875
3709		58.593750
3710		60.546875
3711		56.640625
3712		60.546875
3713		58.593750
3714		60.546875
3715		58.593750
3716		60.546875
3717		58.593750
3718		62.500000
3719		58.593750
3720		60.546875
3721		58.593750
3722		60.546875
3723		56.640625
3724		60.546875
3725		58.593750
3726		60.546875
3727		58.593750
3728		60.546875
3729		56.640625
3730		60.546875
3731		56.640625
3732		60.546875
3733		58.593750
3734		60.546875
3735		58.593750
3736		60.546875
3737		58.593750
3738		60.546875
3739		56.640625
3740		60.546875
3741		58.593750
3742		60.546875
3743		56.640625
3744		60.546875
3745		56.640625
3746		60.546875
3747		56.640625
3748		60.546875
3749		56.640625
3750		60.546875
3751		56.640625
3752		60.546875
3753		56.640625
3754		58.593750
3755		56.640625
3756		58.593750
3757		56.640625
3758		58.593750
3759		54.687500
3760		58.593750
3761		54.687500
3762		58.593750
3763		54.687500
3764		56.640625
3765		52.734375
3766		58.593750
3767		54.687500
3768		58.593750
3769		54.687500
3770		56.640625
3771		52.734375
3772		56.640625
3773		52.734375
3774		58.593750
3775		52.734375
3776		56.640625
3777		52.734375
3778		54.687500
3779		52.734375
3780		54.687500
3781		50.781250
3782		54.687500
3783		50.781250
3784		54.687500
3785		50.781250
3786		54.687500
3787		50.781250
3788		52.734375
3789		48.828125
3790		52.734375
3791		48.828125
3792		52.734375
3793		46.875000
3794		52.734375
3795		48.828125
3796		50.781250
3797		46.875000
3798		50.781250
3799		46.875000
3800		50.781250
3801		46.875000
3802		48.828125
3803		44.921875
3804		48.828125
3805		44.921875
3806		48.828125
3807		44.921875
3808		48.828125
3809		42.968750
3810		46.875000
3811		42.968750
3812		46.875000
3813		42.968750
3814		44.921875
3815		41.015625
3816		44.921875
3817		41.015625
3818		44.921875
3819		41.015625
3820		44.921875
3821		41.015625
3822		42.968750
3823		39.062500
3824		42.968750
3825		39.062500
3826		42.968750
3827		37.109375
3828		41.015625
3829		37.109375
3830		41.015625
3831		37.109375
3832		41.015625
3833		35.156250
3834		41.015625
3835		33.203125
3836		39.062500
3837		33.203125
3838		37.109375
3839		31.250000
3840		37.109375
3841		31.250000
3842		35.156250
3843		29.296875
3844		35.156250
3845		31.250000
3846		33.203125
3847		29.296875
3848		33.203125
3849		27.343750
3850		33.203125
3851		27.343750
3852		31.250000
3853		27.343750
3854		29.296875
3855		25.390625
3856		29.296875
3857		25.390625
3858		29.296875
3859		23.437500
3860		27.343750
3861		23.437500
3862		27.343750
3863		21.484375
3864		25.390625
3865		19.531250
3866		25.390625
3867		19.531250
3868		23.437500
3869		19.531250
3870		23.437500
3871		19.531250
3872		21.484375
3873		17.578125
3874		21.484375
3875		17.578125
3876		21.484375
3877		15.625000
3878		19.531250
3879		13.671875
3880		17.578125
3881		13.671875
3882		15.625000
3883		9.765625
3884		17.578125
3885		11.718750
3886		15.625000
3887		9.765625
3888		13.671875
3889		7.812500
3890		13.671875
3891		7.812500
3892		11.718750
3893		7.812500
3894		11.718750
3895		7.812500
3896		9.765625
3897		5.859375
3898		7.812500
3899		3.906250
3900		7.812500
3901		3.906250
3902		7.812500
3903		1.953125
3904		5.859375
3905		1.953125
3906		3.906250
3907		0.000000
3908		3.906250
3909		0.000000
3910		1.953125
3911		-1.953125
3912		1.953125
3913		-1.953125
3914		0.000000
3915		-3.906250
3916		-1.953125
3917		-5.859375
3918		0.000000
3919		-5.859375
3920		-1.953125
3921		-7.812500
3922		-3.906250
3923		-7.812500
3924		-3.906250
3925		-9.765625
3926		-5.859375
3927		-9.765625
3928		-5.859375
3929		-11.718750
3930		-7.812500
3931		-11.718750
3932		-9.765625
3933		-13.671875
3934		-9.765625
3935		-13.671875
3936		-9.765625
3937		-15.625000
3938		-11.718750
3939		-15.625000
3940		-11.718750
3941		-17.578125
3942		-13.671875
3943		-17.578125
3944		-15.625000
3945		-19.531250
3946		-15.625000
3947		-19.531250
3948		-15.625000
3949		-21.484375
3950		-17.578125
3951		-21.484375
3952		-19.531250
3953		-23.437500
3954		-19.531250
3955		-25.390625
3956		-19.531250
3957		-25.390625
3958		-21.484375
3959		-25.390625
3960		-21.484375
3961		-27.343750
3962		-23.437500
3963		-27.343750
3964		-23.437500
3965		-29.296875
3966		-25.390625
3967		-29.296875
3968		-25.390625
3969		-31.250000
3970		-27.343750
3971		-31.250000
3972		-27.343750
3973		-31.250000
3974		-29.296875
3975		-33.203125
3976		-31.250000
3977		-33.203125
3978		-31.250000
3979		-35.156250
3980		-31.250000
3981		-37.109375
3982		-33.203125
3983		-37.109375
3984		-33.203125
3985		-37.109375
3986		-35.156250
3987		-39.062500
3988		-35.156250
3989		-39.062500
3990		-37.109375
3991		-39.062500
3992		-37.109375
3993		-41.015625
3994		-37.109375
3995		-41.015625
3996		-39.062500
3997		-42.968750
3998		-39.062500
3999		-42.968750
4000		-39.062500
4001		-42.968750
4002		-41.015625
4003		-44.921875
4004		-41.015625
4005		-44.921875
4006		-41.015625
4007		-44.921875
4008		-42.968750
4009		-46.875000
4010		-42.968750
4011		-46.875000
4012		-44.921875
4013		-46.875000
4014		-44.921875
4015		-48.828125
4016		-44.921875
4017		-48.828125
4018		-46.875000
4019		-50.781250
4020		-46.875000
4021		-50.781250
4022		-46.875000
4023		-50.781250
4024		-48.828125
4025		-50.781250
4026		-48.828125
4027		-52.734375
4028		-48.828125
4029		-52.734375
4030		-48.828125
4031		-52.734375
4032		-50.781250
4033		-54.687500
4034		-50.781250
4035		-54.687500
4036		-50.781250
4037		-54.687500
4038		-50.781250
4039		-54.687500
4040		-52.734375
4041		-54.687500
4042		-52.734375
4043		-56.640625
4044		-52.734375
4045		-56.640625
4046		-54.687500
4047		-56.640625
4048		-52.734375
4049		-56.640625
4050		-54.687500
4051		-58.593750
4052		-54.687500
4053		-58.593750
4054		-54.687500
4055		-58.593750
4056		-54.687500
4057		-58.593750
4058		-54.687500
4059		-58.593750
4060		-54.687500
4061		-58.593750
4062		-56.640625
4063		-60.546875
4064		-56.640625
4065		-58.593750
4066		-56.640625
4067		-60.546875
4068		-56.640625
4069		-60.546875
4070		-56.640625
4071		-60.546875
4072		-56.640625
4073		-60.546875
4074		-56.640625
4075		-60.546875
4076		-56.640625
4077		-60.546875
4078		-58.593750
4079		-60.546875
4080		-58.593750
4081		-60.546875
4082		-56.640625
4083		-60.546875
4084		-58.593750
4085		-62.500000
4086		-56.640625
4087		-62.500000
4088		-56.640625
4089		-60.546875
4090		-58.593750
4091		-62.500000
4092		-56.640625
4093		-60.546875
4094		-58.593750
4095		-60.546875
4096		-58.593750
4097		-60.546875
4098		-56.640625
4099		-60.546875
4100		-58.593750
4101		-62.500000
4102		-54.687500
4103		-62.500000
4104		-56.640625
4105		-60.546875
4106		-58.593750
4107		-60.546875
4108		-56.640625
4109		-60.546875
4110		-56.640625
4111		-58.593750
4112		-56.640625
4113		-60.546875
4114		-56.640625
4115		-58.593750
4116		-56.640625
4117		-60.546875
4118		-54.687500
4119		-60.546875
4120		-54.687500
4121		-58.593750
4122		-54.687500
4123		-58.593750
4124		-54.687500
4125		-58.593750
4126		-54.687500
4127		-56.640625
4128		-54.687500
4129		-58.593750
4130		-54.687500
4131		-56.640625
4132		-54.687500
4133		-56.640625
4134		-52.734375
4135		-56.640625
4136		-52.734375
4137		-56.640625
4138		-50.781250
4139		-54.687500
4140		-52.734375
4141		-54.687500
4142		-52.734375
4143		-54.687500
4144		-50.781250
4145		-52.734375
4146		-50.781250
4147		-52.734375
4148		-50.781250
4149		-52.734375
4150		-48.828125
4151		-52.734375
4152		-46.875000
4153		-52.734375
4154		-46.875000
4155		-50.781250
4156		-46.875000
4157		-50.781250
4158		-48.828125
4159		-50.781250
4160		-44.921875
4161		-48.828125
4162		-46.875000
4163		-48.828125
4164		-44.921875
4165		-48.828125
4166		-44.921875
4167		-46.875000
4168		-44.921875
4169		-48.828125
4170		-42.968750
4171		-46.875000
4172		-42.968750
4173		-44.921875
4174		-42.968750
4175		-44.921875
4176		-41.015625
4177		-44.921875
4178		-41.015625
4179		-42.968750
4180		-41.015625
4181		-42.968750
4182		-39.062500
4183		-41.015625
4184		-37.109375
4185		-42.968750
4186		-37.109375
4187		-41.015625
4188		-35.156250
4189		-39.062500
4190		-37.109375
4191		-39.062500
4192		-35.156250
4193		-39.062500
4194		-35.156250
4195		-37.109375
4196		-33.203125
4197		-37.109375
4198		-31.250000
4199		-35.156250
4200		-31.250000
4201		-35.156250
4202		-31.250000
4203		-35.156250
4204		-29.296875
4205		-35.156250
4206		-27.343750
4207		-31.250000
4208		-29.296875
4209		-31.250000
4210		-27.343750
4211		-29.296875
4212		-27.343750
4213		-29.296875
4214		-25.390625
4215		-29.296875
4216		-25.390625
4217		-27.343750
4218		-23.437500
4219		-27.343750
4220		-21.484375
4221		-27.343750
4222		-21.484375
4223		-25.390625
4224		-19.531250
4225		-23.437500
4226		-19.531250
4227		-21.484375
4228		-19.531250
4229		-23.437500
4230		-17.578125
4231		-19.531250
4232		-17.578125
4233		-21.484375
4234		-15.625000
4235		-19.531250
4236		-13.671875
4237		-19.531250
4238		-13.671875
4239		-15.625000
4240		-13.671875
4241		-15.625000
4242		-11.718750
4243		-15.625000
4244		-11.718750
4245		-13.671875
4246		-9.765625
4247		-11.718750
4248		-9.765625
4249		-11.718750
4250		-7.812500
4251		-9.765625
4252		-7.812500
4253		-11.718750
4254		-3.906250
4255		-9.765625
4256		-3.906250
4257		-7.812500
4258		-3.906250
4259		-5.859375
4260		-3.906250
4261		-7.812500
4262		-1.953125
4263		-3.906250
4264		-1.953125
4265		-3.906250
4266		0.000000
4267		-1.953125
4268		0.000000
4269		-1.953125
4270		1.953125
4271		0.000000
4272		3.906250
4273		0.000000
4274		3.906250
4275		1.953125
4276		5.859375
4277		1.953125
4278		5.859375
4279		3.906250
4280		7.812500
4281		3.906250
4282		7.812500
4283		5.859375
4284		9.765625
4285		5.859375
4286		11.718750
4287		7.812500
4288		9.765625
4289		9.765625
4290		11.718750
4291		9.765625
4292		11.718750
4293		11.718750
4294		15.625000
4295		11.718750
4296		13.671875
4297		13.671875
4298		15.625000
4299		13.671875
4300		17.578125
4301		15.625000
4302		17.578125
4303		15.625000
4304		19.531250
4305		17.578125
4306		19.531250
4307		17.578125
4308		19.531250
4309		17.578125
4310		23.437500
4311		19.531250
4312		23.437500
4313		21.484375
4314		23.437500
4315		19.531250
4316		25.390625
4317		23.437500
4318		25.390625
4319		23.437500
4320		25.390625
4321		23.437500
4322		27.343750
4323		25.390625
4324		27.343750
4325		25.390625
4326		29.296875
4327		27.343750
4328		29.296875
4329		27.343750
4330		31.250000
4331		27.343750
4332		33.203125
4333		29.296875
4334		33.203125
4335		29.296875
4336		33.203125
4337		31.250000
4338		35.156250
4339		31.250000
4340		35.156250
4341		33.203125
4342		35.156250
4343		33.203125
4344		37.109375
4345		35.156250
4346		37.109375
4347		35.156250
4348		39.062500
4349		37.109375
4350		39.062500
4351		37.109375
4352		39.062500
4353		37.109375
4354		41.015625
4355		39.062500
4356		41.015625
4357		39.062500
4358		42.968750
4359		39.062500
4360		42.968750
4361		41.015625
4362		42.968750
4363		39.062500
4364		44.921875
4365		41.015625
4366		44.921875
4367		42.968750
4368		46.875000
4369		42.968750
4370		46.875000
4371		44.921875
4372		46.875000
4373		42.968750
4374		48.828125
4375		44.921875
4376		48.828125
4377		46.875000
4378		48.828125
4379		46.875000
4380		50.781250
4381		46.875000
4382		50.781250
4383		46.875000
4384		50.781250
4385		48.828125
4386		50.781250
4387		48.828125
4388		52.734375
4389		48.828125
4390		52.734375
4391		48.828125
4392		52.734375
4393		50.781250
4394		52.734375
4395		48.828125
4396		54.687500
4397		52.734375
4398		54.687500
4399		52.734375
4400		54.687500
4401		52.734375
4402		54.687500
4403		52.734375
4404		54.687500
4405		52.734375
4406		56.640625
4407		52.734375
4408		56.640625
4409		54.687500
4410		56.640625
4411		54.687500
4412		58.593750
4413		54.687500
4414		58.593750
4415		54.687500
4416		58.593750
4417		56.640625
4418		58.593750
4419		56.640625
4420		60.546875
4421		56.640625
4422		58.593750
4423		56.640625
4424		58.593750
4425		56.640625
4426		60.546875
4427		56.640625
4428		60.546875
4429		56.640625
4430		60.546875
4431		58.593750
4432		60.546875
4433		56.640625
4434		60.546875
4435		58.593750
4436		60.546875
4437		58.593750
4438		60.546875
4439		56.640625
4440		62.500000
4441		58.593750
4442		60.546875
4443		58.593750
4444		60.546875
4445		56.640625
4446		62.500000
4447		58.593750
4448		62.500000
4449		58.593750
4450		62.500000
4451		58.593750
4452		62.500000
4453		58.593750
4454		60.546875
4455		58.593750
4456		62.500000
4457		58.593750
4458		62.500000
4459		58.593750
4460		60.546875
4461		58.593750
4462		62.500000
4463		58.593750
4464		60.546875
4465		58.593750
4466		60.546875
4467		58.593750
4468		62.500000
4469		58.593750
4470		62.500000
4471		58.593750
4472		60.546875
4473		58.593750
4474		62.500000
4475		58.593750
4476		60.546875
4477		58.593750
4478		62.500000
4479		56.640625
4480		60.546875
4481		58.593750
4482		60.546875
4483		56.640625
4484		60.546875
4485		56.640625
4486		60.546875
4487		56.640625
4488		60.546875
4489		56.640625
4490		60.546875
4491		56.640625
4492		58.593750
4493		56.640625
4494		58.593750
4495		56.640625
4496		58.593750
4497		54.687500
4498		60.546875
4499		56.640625
4500		58.593750
4501		54.687500
4502		58.593750
4503		54.687500
4504		56.640625
4505		54.687500
4506		56.640625
4507		54.687500
4508		58.593750
4509		54.687500
4510		56.640625
4511		52.734375
4512		56.640625
4513		52.734375
4514		56.640625
4515		52.734375
4516		54.687500
4517		50.781250
4518		54.687500
4519		50.781250
4520		54.687500
4521		50.781250
4522		52.734375
4523		48.828125
4524		52.734375
4525		50.781250
4526		52.734375
4527		48.828125
4528		50.781250
4529		48.828125
4530		52.734375
4531		48.828125
4532		50.781250
4533		46.875000
4534		50.781250
4535		46.875000
4536		50.781250
4537		46.875000
4538		48.828125
4539		44.921875
4540		48.828125
4541		44.921875
4542		48.828125
4543		44.921875
4544		46.875000
4545		42.968750
4546		46.875000
4547		42.968750
4548		44.921875
4549		42.968750
4550		44.921875
4551		41.015625
4552		44.921875
4553		41.015625
4554		44.921875
4555		41.015625
4556		42.968750
4557		39.062500
4558		42.968750
4559		39.062500
4560		41.015625
4561		37.109375
4562		41.015625
4563		37.109375
4564		39.062500
4565		37.109375
4566		39.062500
4567		35.156250
4568		39.062500
4569		35.156250
4570		39.062500
4571		33.203125
4572		37.109375
4573		33.203125
4574		37.109375
4575		33.203125
4576		35.156250
4577		31.250000
4578		35.156250
4579		31.250000
4580		33.203125
4581		29.296875
4582		33.203125
4583		27.343750
4584		33.203125
4585		27.343750
4586		31.250000
4587		27.343750
4588		29.296875
4589		27.343750
4590		29.296875
4591		25.390625
4592		29.296875
4593		23.437500
4594		27.343750
4595		23.437500
4596		25.390625
4597		21.484375
4598		25.390625
4599		21.484375
4600		25.390625
4601		21.484375
4602		23.437500
4603		19.531250
4604		23.437500
4605		17.578125
4606		23.437500
4607		17.578125
4608		21.484375
4609		15.625000
4610		19.531250
4611		15.625000
4612		19.531250
4613		15.625000
4614		17.578125
4615		13.671875
4616		17.578125
4617		13.671875
4618		15.625000
4619		11.718750
4620		13.671875
4621		11.718750
4622		13.671875
4623		9.765625
4624		11.718750
4625		9.765625
4626		11.718750
4627		7.812500
4628		11.718750
4629		5.859375
4630		9.765625
4631		5.859375
4632		7.812500
4633		3.906250
4634		7.812500
4635		3.906250
4636		5.859375
4637		1.953125
4638		5.859375
4639		1.953125
4640		5.859375
4641		0.000000
4642		3.906250
4643		0.000000
4644		1.953125
4645		-1.953125
4646		1.953125
4647		-1.953125
4648		0.000000
4649		-3.906250
4650		0.000000
4651		-3.906250
4652		-1.953125
4653		-5.859375
4654		-1.953125
4655		-5.859375
4656		-3.906250
4657		-7.812500
4658		-3.906250
4659		-9.765625
4660		-3.906250
4661		-9.765625
4662		-5.859375
4663		-11.718750
4664		-7.812500
4665		-11.718750
4666		-7.812500
4667		-11.718750
4668		-9.765625
4669		-13.671875
4670		-9.765625
4671		-13.671875
4672		-11.718750
4673		-15.625000
4674		-11.718750
4675		-15.625000
4676		-11.718750
4677		-17.578125
4678		-15.625000
4679		-17.578125
4680		-15.625000
4681		-19.531250
4682		-15.625000
4683		-21.484375
4684		-17.578125
4685		-21.484375
4686		-17.578125
4687		-21.484375
4688		-19.531250
4689		-23.437500
4690		-19.531250
4691		-25.390625
4692		-21.484375
4693		-25.390625
4694		-21.484375
4695		-25.390625
4696		-23.437500
4697		-27.343750
4698		-23.437500
4699		-27.343750
4700		-25.390625
4701		-29.296875
4702		-25.390625
4703		-29.296875
4704		-25.390625
4705		-31.250000
4706		-27.343750
4707		-31.250000
4708		-29.296875
4709		-33.203125
4710		-29.296875
4711		-33.203125
4712		-31.250000
4713		-35.156250
4714		-31.250000
4715		-35.156250
4716		-31.250000
4717		-35.156250
4718		-33.203125
4719		-37.109375
4720		-33.203125
4721		-37.109375
4722		-35.156250
4723		-37.109375
4724		-35.156250
4725		-39.062500
4726		-37.109375
4727		-39.062500
4728		-35.156250
4729		-41.015625
4730		-37.109375
4731		-42.968750
4732		-37.109375
4733		-42.968750
4734		-39.062500
4735		-42.968750
4736		-39.062500
4737		-44.921875
4738		-39.062500
4739		-44.921875
4740		-41.015625
4741		-46.875000
4742		-42.968750
4743		-46.875000
4744		-42.968750
4745		-46.875000
4746		-42.968750
4747		-46.875000
4748		-42.968750
4749		-46.875000
4750		-44.921875
4751		-48.828125
4752		-44.921875
4753		-48.828125
4754		-44.921875
4755		-48.828125
4756		-46.875000
4757		-50.781250
4758		-46.875000
4759		-50.781250
4760		-48.828125
4761		-50.781250
4762		-48.828125
4763		-52.734375
4764		-48.828125
4765		-52.734375
4766		-48.828125
4767		-52.734375
4768		-50.781250
4769		-52.734375
4770		-48.828125
4771		-54.687500
4772		-50.781250
4773		-54.687500
4774		-52.734375
4775		-54.687500
4776		-50.781250
4777		-54.687500
4778		-52.734375
4779		-54.687500
4780		-52.734375
4781		-56.640625
4782		-52.734375
4783		-56.640625
4784		-52.734375
4785		-56.640625
4786		-54.687500
4787		-56.640625
4788		-54.687500
4789		-56.640625
4790		-54.687500
4791		-58.593750
4792		-54.687500
4793		-58.593750
4794		-54.687500
4795		-58.593750
4796		-54.687500
4797		-58.593750
4798		-56.640625
4799		-58.593750
4800		-56.640625
4801		-60.546875
4802		-54.687500
4803		-58.593750
4804		-56.640625
4805		-60.546875
4806		-56.640625
4807		-60.546875
4808		-56.640625
4809		-60.546875
4810		-56.640625
4811		-60.546875
4812		-56.640625
4813		-60.546875
4814		-56.640625
4815		-60.546875
4816		-56.640625
4817		-60.546875
4818		-58.593750
4819		-60.546875
4820		-58.593750
4821		-62.500000
4822		-56.640625
4823		-60.546875
4824		-58.593750
4825		-60.546875
4826		-58.593750
4827		-60.546875
4828		-56.640625
4829		-60.546875
4830		-58.593750
4831		-60.546875
4832		-58.593750
4833		-60.546875
4834		-58.593750
4835		-60.546875
4836		-58.593750
4837		-60.546875
4838		-56.640625
4839		-60.546875
4840		-56.640625
4841		-60.546875
4842		-56.640625
4843		-60.546875
4844		-56.640625
4845		-58.593750
4846		-56.640625
4847		-58.593750
4848		-56.640625
4849		-58.593750
4850		-56.640625
4851		-58.593750
4852		-56.640625
4853		-58.593750
4854		-56.640625
4855		-58.593750
4856		-56.640625
4857		-58.593750
4858		-54.687500
4859		-56.640625
4860		-54.687500
4861		-56.640625
4862		-54.687500
4863		-58.593750
4864		-52.734375
4865		-56.640625
4866		-54.687500
4867		-56.640625
4868		-52.734375
4869		-56.640625
4870		-52.734375
4871		-54.687500
4872		-52.734375
4873		-54.687500
4874		-52.734375
4875		-54.687500
4876		-50.781250
4877		-54.687500
4878		-50.781250
4879		-54.687500
4880		-50.781250
4881		-54.687500
4882		-50.781250
4883		-52.734375
4884		-50.781250
4885		-52.734375
4886		-48.828125
4887		-52.734375
4888		-48.828125
4889		-50.781250
4890		-48.828125
4891		-52.734375
4892		-46.875000
4893		-48.828125
4894		-46.875000
4895		-48.828125
4896		-46.875000
4897		-48.828125
4898		-44.921875
4899		-48.828125
4900		-44.921875
4901		-48.828125
4902		-42.968750
4903		-46.875000
4904		-44.921875
4905		-44.921875
4906		-42.968750
4907		-44.921875
4908		-41.015625
4909		-44.921875
4910		-41.015625
4911		-42.968750
4912		-41.015625
4913		-42.968750
4914		-41.015625
4915		-42.968750
4916		-39.062500
4917		-41.015625
4918		-39.062500
4919		-41.015625
4920		-37.109375
4921		-39.062500
4922		-37.109375
4923		-39.062500
4924		-37.109375
4925		-39.062500
4926		-35.156250
4927		-37.109375
4928		-35.156250
4929		-37.109375
4930		-33.203125
4931		-35.156250
4932		-33.203125
4933		-35.156250
4934		-31.250000
4935		-33.203125
4936		-31.250000
4937		-33.203125
4938		-29.296875
4939		-33.203125
4940		-29.296875
4941		-31.250000
4942		-29.296875
4943		-31.250000
4944		-27.343750
4945		-29.296875
4946		-25.390625
4947		-29.296875
4948		-25.390625
4949		-27.343750
4950		-25.390625
4951		-27.343750
4952		-23.437500
4953		-25.390625
4954		-23.437500
4955		-25.390625
4956		-21.484375
4957		-25.390625
4958		-21.484375
4959		-23.437500
4960		-19.531250
4961		-23.437500
4962		-17.578125
4963		-21.484375
4964		-17.578125
4965		-19.531250
4966		-17.578125
4967		-19.531250
4968		-15.625000
4969		-17.578125
4970		-15.625000
4971		-17.578125
4972		-13.671875
4973		-17.578125
4974		-13.671875
4975		-15.625000
4976		-11.718750
4977		-13.671875
4978		-9.765625
4979		-13.671875
4980		-9.765625
4981		-13.671875
4982		-9.765625
4983		-11.718750
4984		-7.812500
4985		-9.765625
4986		-5.859375
4987		-9.765625
4988		-5.859375
4989		-7.812500
4990		-5.859375
4991		-7.812500
4992		-3.906250
4993		-5.859375
4994		-1.953125
4995		-5.859375
4996		-1.953125
4997		-3.906250
4998		0.000000
4999		-3.906250
5000		0.000000
5001		-1.953125
5002		1.953125
5003		-1.953125
5004		1.953125
5005		0.000000
5006		1.953125
5007		1.953125
5008		3.906250
5009		1.953125
5010		5.859375
5011		3.906250
5012		5.859375
5013		3.906250
5014		7.812500
5015		3.906250
5016		9.765625
5017		5.859375
5018		9.765625
5019		7.812500
5020		9.765625
5021		7.812500
5022		11.718750
5023		9.765625
5024		11.718750
5025		9.765625
5026		13.671875
5027		9.765625
5028		13.671875
5029		11.718750
5030		15.625000
5031		13.671875
5032		17.578125
5033		13.671875
5034		17.578125
5035		15.625000
5036		17.578125
5037		15.625000
5038		19.531250
5039		17.578125
5040		19.531250
5041		17.578125
5042		21.484375
5043		17.578125
5044		21.484375
5045		19.531250
5046		23.437500
5047		19.531250
5048		23.437500
5049		21.484375
5050		25.390625
5051		23.437500
5052		25.390625
5053		23.437500
5054		27.343750
5055		23.437500
5056		27.343750
5057		25.390625
5058		29.296875
5059		25.390625
5060		29.296875
5061		27.343750
5062		29.296875
5063		27.343750
5064		31.250000
5065		27.343750
5066		33.203125
5067		29.296875
5068		33.203125
5069		31.250000
5070		33.203125
5071		31.250000
5072		35.156250
5073		33.203125
5074		35.156250
5075		33.203125
5076		37.109375
5077		33.203125
5078		37.109375
5079		35.156250
5080		37.109375
5081		35.156250
5082		39.062500
5083		37.109375
5084		39.062500
5085		37.109375
5086		39.062500
5087		37.109375
5088		41.015625
5089		39.062500
5090		41.015625
5091		39.062500
5092		42.968750
5093		39.062500
5094		42.968750
5095		41.015625
5096		42.968750
5097		41.015625
5098		44.921875
5099		41.015625
5100		44.921875
5101		42.968750
5102		44.921875
5103		42.968750
5104		46.875000
5105		42.968750
5106		46.875000
5107		44.921875
5108		46.875000
5109		44.921875
5110		48.828125
5111		44.921875
5112		48.828125
5113		44.921875
5114		50.781250
5115		46.875000
5116		50.781250
5117		46.875000
5118		50.781250
5119		46.875000
5120		52.734375
5121		48.828125
5122		52.734375
5123		48.828125
5124		52.734375
5125		50.781250
5126		52.734375
5127		50.781250
5128		52.734375
5129		50.781250
5130		52.734375
5131		48.828125
5132		54.687500
5133		52.734375
5134		54.687500
5135		50.781250
5136		56.640625
5137		52.734375
5138		56.640625
5139		52.734375
5140		56.640625
5141		52.734375
5142		56.640625
5143		54.687500
5144		56.640625
5145		54.687500
5146		56.640625
5147		52.734375
5148		58.593750
5149		54.687500
5150		56.640625
5151		52.734375
5152		58.593750
5153		54.687500
5154		58.593750
5155		52.734375
5156		60.546875
5157		56.640625
5158		58.593750
5159		56.640625
5160		58.593750
5161		54.687500
5162		60.546875
5163		56.640625
5164		58.593750
5165		54.687500
5166		60.546875
5167		56.640625
5168		60.546875
5169		54.687500
5170		62.500000
5171		56.640625
5172		60.546875
5173		56.640625
5174		62.500000
5175		58.593750
5176		60.546875
5177		56.640625
5178		60.546875
5179		54.687500
5180		64.453125
5181		56.640625
5182		62.500000
5183		58.593750
5184		62.500000
5185		56.640625
5186		62.500000
5187		58.593750
5188		60.546875
5189		56.640625
5190		64.453125
5191		58.593750
5192		60.546875
5193		56.640625
5194		62.500000
5195		56.640625
5196		62.500000
5197		56.640625
5198		64.453125
5199		58.593750
5200		62.500000
5201		56.640625
5202		62.500000
5203		54.687500
5204		64.453125
5205		54.687500
5206		62.500000
5207		58.593750
5208		60.546875
5209		56.640625
5210		62.500000
5211		56.640625
5212		60.546875
5213		54.687500
5214		62.500000
5215		54.687500
5216		60.546875
5217		56.640625
5218		60.546875
5219		54.687500
5220		62.500000
5221		54.687500
5222		62.500000
5223		52.734375
5224		62.500000
5225		56.640625
5226		58.593750
5227		54.687500
5228		60.546875
5229		50.781250
5230		62.500000
5231		52.734375
5232		60.546875
5233		54.687500
5234		56.640625
5235		52.734375
5236		58.593750
5237		50.781250
5238		60.546875
5239		48.828125
5240		60.546875
5241		52.734375
5242		56.640625
5243		52.734375
5244		54.687500
5245		50.781250
5246		56.640625
5247		48.828125
5248		58.593750
5249		50.781250
5250		56.640625
5251		50.781250
5252		54.687500
5253		46.875000
5254		56.640625
5255		50.781250
5256		52.734375
5257		46.875000
5258		54.687500
5259		48.828125
5260		52.734375
5261		46.875000
5262		52.734375
5263		44.921875
5264		54.687500
5265		46.875000
5266		52.734375
5267		46.875000
5268		50.781250
5269		44.921875
5270		50.781250
5271		42.968750
5272		52.734375
5273		42.968750
5274		50.781250
5275		44.921875
5276		48.828125
5277		44.921875
5278		46.875000
5279		42.968750
5280		46.875000
5281		41.015625
5282		48.828125
5283		42.968750
5284		44.921875
5285		41.015625
5286		44.921875
5287		37.109375
5288		46.875000
5289		35.156250
5290		44.921875
5291		39.062500
5292		42.968750
5293		39.062500
5294		41.015625
5295		37.109375
5296		41.015625
5297		33.203125
5298		42.968750
5299		35.156250
5300		41.015625
5301		35.156250
5302		39.062500
5303		29.296875
5304		41.015625
5305		31.250000
5306		39.062500
5307		31.250000
5308		39.062500
5309		31.250000
5310		35.156250
5311		29.296875
5312		35.156250
5313		27.343750
5314		35.156250
5315		25.390625
5316		35.156250
5317		27.343750
5318		31.250000
5319		27.343750
5320		31.250000
5321		23.437500
5322		33.203125
5323		23.437500
5324		31.250000
5325		25.390625
5326		27.343750
5327		23.437500
5328		27.343750
5329		21.484375
5330		27.343750
5331		19.531250
5332		27.343750
5333		21.484375
5334		25.390625
5335		21.484375
5336		23.437500
5337		15.625000
5338		25.390625
5339		17.578125
5340		23.437500
5341		17.578125
5342		23.437500
5343		15.625000
5344		19.531250
5345		13.671875
5346		19.531250
5347		11.718750
5348		19.531250
5349		11.718750
5350		17.578125
5351		11.718750
5352		15.625000
5353		7.812500
5354		15.625000
5355		7.812500
5356		17.578125
5357		7.812500
5358		13.671875
5359		7.812500
5360		11.718750
5361		7.812500
5362		9.765625
5363		3.906250
5364		9.765625
5365		3.906250
5366		11.718750
5367		3.906250
5368		7.812500
5369		1.953125
5370		7.812500
5371		0.000000
5372		9.765625
5373		-1.953125
5374		5.859375
5375		0.000000
5376		3.906250
5377		-1.953125
5378		1.953125
5379		-3.906250
5380		1.953125
5381		-5.859375
5382		1.953125
5383		-5.859375
5384		0.000000
5385		-5.859375
5386		-1.953125
5387		-7.812500
5388		-1.953125
5389		-7.812500
5390		-3.906250
5391		-9.765625
5392		-1.953125
5393		-9.765625
5394		-5.859375
5395		-11.718750
5396		-7.812500
5397		-11.718750
5398		-7.812500
5399		-13.671875
5400		-5.859375
5401		-13.671875
5402		-9.765625
5403		-15.625000
5404		-9.765625
5405		-15.625000
5406		-11.718750
5407		-15.625000
5408		-13.671875
5409		-17.578125
5410		-13.671875
5411		-17.578125
5412		-15.625000
5413		-19.531250
5414		-15.625000
5415		-19.531250
5416		-17.578125
5417		-23.437500
5418		-17.578125
5419		-23.437500
5420		-19.531250
5421		-25.390625
5422		-19.531250
5423		-23.437500
5424		-19.531250
5425		-25.390625
5426		-21.484375
5427		-25.390625
5428		-23.437500
5429		-27.343750
5430		-23.437500
5431		-27.343750
5432		-25.390625
5433		-29.296875
5434		-25.390625
5435		-29.296875
5436		-27.343750
5437		-31.250000
5438		-27.343750
5439		-31.250000
5440		-27.343750
5441		-33.203125
5442		-29.296875
5443		-33.203125
5444		-29.296875
5445		-33.203125
5446		-31.250000
5447		-35.156250
5448		-31.250000
5449		-35.156250
5450		-31.250000
5451		-37.109375
5452		-33.203125
5453		-39.062500
5454		-33.203125
5455		-39.062500
5456		-35.156250
5457		-39.062500
5458		-35.156250
5459		-41.015625
5460		-37.109375
5461		-41.015625
5462		-37.109375
5463		-42.968750
5464		-37.109375
5465		-42.968750
5466		-37.109375
5467		-44.921875
5468		-39.062500
5469		-44.921875
5470		-39.062500
5471		-44.921875
5472		-41.015625
5473		-46.875000
5474		-41.015625
5475		-46.875000
5476		-41.015625
5477		-46.875000
5478		-42.968750
5479		-48.828125
5480		-42.968750
5481		-48.828125
5482		-44.921875
5483		-48.828125
5484		-44.921875
5485		-50.781250
5486		-44.921875
5487		-50.781250
5488		-46.875000
5489		-52.734375
5490		-46.875000
5491		-52.734375
5492		-46.875000
5493		-52.734375
5494		-48.828125
5495		-52.734375
5496		-48.828125
5497		-54.687500
5498		-48.828125
5499		-54.687500
5500		-48.828125
5501		-56.640625
5502		-50.781250
5503		-54.687500
5504		-50.781250
5505		-56.640625
5506		-50.781250
5507		-56.640625
5508		-50.781250
5509		-56.640625
5510		-52.734375
5511		-56.640625
5512		-52.734375
5513		-56.640625
5514		-52.734375
5515		-58.593750
5516		-52.734375
5517		-58.593750
5518		-52.734375
5519		-60.546875
5520		-52.734375
5521		-58.593750
5522		-54.687500
5523		-58.593750
5524		-54.687500
5525		-60.546875
5526		-54.687500
5527		-58.593750
5528		-56.640625
5529		-58.593750
5530		-56.640625
5531		-60.546875
5532		-56.640625
5533		-60.546875
5534		-56.640625
5535		-60.546875
5536		-56.640625
5537		-62.500000
5538		-54.687500
5539		-60.546875
5540		-56.640625
5541		-60.546875
5542		-56.640625
5543		-60.546875
5544		-56.640625
5545		-60.546875
5546		-58.593750
5547		-60.546875
5548		-56.640625
5549		-60.546875
5550		-56.640625
5551		-62.500000
5552		-56.640625
5553		-62.500000
5554		-56.640625
5555		-62.500000
5556		-56.640625
5557		-62.500000
5558		-56.640625
5559		-60.546875
5560		-58.593750
5561		-60.546875
5562		-56.640625
5563		-62.500000
5564		-56.640625
5565		-62.500000
5566		-56.640625
5567		-62.500000
5568		-56.640625
5569		-62.500000
5570		-56.640625
5571		-60.546875
5572		-56.640625
5573		-62.500000
5574		-56.640625
5575		-60.546875
5576		-56.640625
5577		-60.546875
5578		-56.640625
5579		-60.546875
5580		-56.640625
5581		-60.546875
5582		-54.687500
5583		-58.593750
5584		-56.640625
5585		-58.593750
5586		-54.687500
5587		-60.546875
5588		-54.687500
5589		-58.593750
5590		-54.687500
5591		-58.593750
5592		-54.687500
5593		-58.593750
5594		-54.687500
5595		-58.593750
5596		-54.687500
5597		-58.593750
5598		-54.687500
5599		-56.640625
5600		-52.734375
5601		-56.640625
5602		-52.734375
5603		-58.593750
5604		-50.781250
5605		-56.640625
5606		-52.734375
5607		-54.687500
5608		-52.734375
5609		-56.640625
5610		-50.781250
5611		-54.687500
5612		-50.781250
5613		-52.734375
5614		-50.781250
5615		-54.687500
5616		-50.781250
5617		-52.734375
5618		-48.828125
5619		-52.734375
5620		-48.828125
5621		-52.734375
5622		-46.875000
5623		-50.781250
5624		-48.828125
5625		-50.781250
5626		-46.875000
5627		-50.781250
5628		-46.875000
5629		-48.828125
5630		-46.875000
5631		-50.781250
5632		-44.921875
5633		-48.828125
5634		-44.921875
5635		-48.828125
5636		-42.968750
5637		-46.875000
5638		-42.968750
5639		-46.875000
5640		-42.968750
5641		-44.921875
5642		-41.015625
5643		-44.921875
5644		-41.015625
5645		-42.968750
5646		-39.062500
5647		-42.968750
5648		-39.062500
5649		-42.968750
5650		-39.062500
5651		-42.968750
5652		-39.062500
5653		-41.015625
5654		-37.109375
5655		-41.015625
5656		-37.109375
5657		-39.062500
5658		-37.109375
5659		-39.062500
5660		-35.156250
5661		-39.062500
5662		-35.156250
5663		-37.109375
5664		-33.203125
5665		-35.156250
5666		-33.203125
5667		-35.156250
5668		-31.250000
5669		-35.156250
5670		-31.250000
5671		-35.156250
5672		-29.296875
5673		-33.203125
5674		-29.296875
5675		-31.250000
5676		-27.343750
5677		-31.250000
5678		-27.343750
5679		-29.296875
5680		-25.390625
5681		-29.296875
5682		-25.390625
5683		-27.343750
5684		-25.390625
5685		-27.343750
5686		-23.437500
5687		-27.343750
5688		-23.437500
5689		-25.390625
5690		-21.484375
5691		-25.390625
5692		-21.484375
5693		-23.437500
5694		-19.531250
5695		-23.437500
5696		-19.531250
5697		-21.484375
5698		-17.578125
5699		-21.484375
5700		-15.625000
5701		-19.531250
5702		-15.625000
5703		-19.531250
5704		-15.625000
5705		-19.531250
5706		-13.671875
5707		-17.578125
5708		-13.671875
5709		-15.625000
5710		-11.718750
5711		-15.625000
5712		-11.718750
5713		-13.671875
5714		-9.765625
5715		-13.671875
5716		-7.812500
5717		-11.718750
5718		-7.812500
5719		-11.718750
5720		-5.859375
5721		-9.765625
5722		-5.859375
5723		-7.812500
5724		-5.859375
5725		-7.812500
5726		-3.906250
5727		-5.859375
5728		-1.953125
5729		-5.859375
5730		-1.953125
5731		-3.906250
5732		0.000000
5733		-3.906250
5734		0.000000
5735		-3.906250
5736		1.953125
5737		-1.953125
5738		1.953125
5739		0.000000
5740		3.906250
5741		0.000000
5742		3.906250
5743		1.953125
5744		5.859375
5745		3.906250
5746		5.859375
5747		3.906250
5748		7.812500
5749		3.906250
5750		7.812500
5751		5.859375
5752		9.765625
5753		7.812500
5754		11.718750
5755		7.812500
5756		11.718750
5757		7.812500
5758		13.671875
5759		9.765625
5760		13.671875
5761		11.718750
5762		13.671875
5763		11.718750
5764		15.625000
5765		11.718750
5766		15.625000
5767		13.671875
5768		17.578125
5769		13.671875
5770		19.531250
5771		15.625000
5772		19.531250
5773		15.625000
5774		21.484375
5775		17.578125
5776		21.484375
5777		17.578125
5778		21.484375
5779		19.531250
5780		23.437500
5781		21.484375
5782		23.437500
5783		21.484375
5784		25.390625
5785		23.437500
5786		25.390625
5787		23.437500
5788		27.343750
5789		23.437500
5790		27.343750
5791		25.390625
5792		29.296875
5793		25.390625
5794		31.250000
5795		25.390625
5796		29.296875
5797		27.343750
5798		31.250000
5799		27.343750
5800		33.203125
5801		29.296875
5802		33.203125
5803		31.250000
5804		33.203125
5805		31.250000
5806		35.156250
5807		33.203125
5808		35.156250
5809		33.203125
5810		37.109375
5811		33.203125
5812		37.109375
5813		35.156250
5814		37.109375
5815		35.156250
5816		39.062500
5817		35.156250
5818		39.062500
5819		37.109375
5820		41.015625
5821		37.109375
5822		41.015625
5823		39.062500
5824		41.015625
5825		39.062500
5826		42.968750
5827		39.062500
5828		44.921875
5829		41.015625
5830		42.968750
5831		41.015625
5832		44.921875
5833		41.015625
5834		44.921875
5835		42.968750
5836		44.921875
5837		42.968750
5838		46.875000
5839		42.968750
5840		48.828125
5841		42.968750
5842		48.828125
5843		44.921875
5844		48.828125
5845		44.921875
5846		48.828125
5847		46.875000
5848		48.828125
5849		46.875000
5850		50.781250
5851		46.875000
5852		50.781250
5853		48.828125
5854		50.781250
5855		46.875000
5856		52.734375
5857		48.828125
5858		52.734375
5859		48.828125
5860		54.687500
5861		48.828125
5862		52.734375
5863		50.781250
5864		54.687500
5865		50.781250
5866		54.687500
5867		50.781250
5868		54.687500
5869		52.734375
5870		56.640625
5871		52.734375
5872		54.687500
5873		52.734375
5874		56.640625
5875		52.734375
5876		56.640625
5877		52.734375
5878		56.640625
5879		52.734375
5880		56.640625
5881		54.687500
5882		58.593750
5883		54.687500
5884		58.593750
5885		54.687500
5886		58.593750
5887		54.687500
5888		58.593750
5889		54.687500
5890		58.593750
5891		54.687500
5892		58.593750
5893		54.687500
5894		58.593750
5895		56.640625
5896		60.546875
5897		56.640625
5898		60.546875
5899		56.640625
5900		60.546875
5901		56.640625
5902		60.546875
5903		56.640625
5904		60.546875
5905		56.640625
5906		60.546875
5907		58.593750
5908		60.546875
5909		56.640625
5910		60.546875
5911		56.640625
5912		60.546875
5913		58.593750
5914		60.546875
5915		58.593750
5916		60.546875
5917		56.640625
5918		60.546875
5919		58.593750
5920		60.546875
5921		56.640625
5922		62.500000
5923		58.593750
5924		62.500000
5925		58.593750
5926		60.546875
5927		56.640625
5928		62.500000
5929		56.640625
5930		60.546875
5931		58.593750
5932		60.546875
5933		58.593750
5934		60.546875
5935		58.593750
5936		60.546875
5937		56.640625
5938		60.546875
5939		56.640625
5940		60.546875
5941		58.593750
5942		60.546875
5943		56.640625
5944		60.546875
5945		56.640625
5946		60.546875
5947		56.640625
5948		60.546875
5949		56.640625
5950		60.546875
5951		56.640625
5952		60.546875
5953		56.640625
5954		60.546875
5955		56.640625
5956		60.546875
5957		56.640625
5958		58.593750
5959		54.687500
5960		58.593750
5961		54.687500
5962		58.593750
5963		54.687500
5964		60.546875
5965		54.687500
5966		58.593750
5967		52.734375
5968		56.640625
5969		54.687500
5970		56.640625
5971		54.687500
5972		56.640625
5973		52.734375
5974		56.640625
5975		52.734375
5976		56.640625
5977		52.734375
5978		56.640625
5979		50.781250
5980		56.640625
5981		50.781250
5982		54.687500
5983		50.781250
5984		54.687500
5985		50.781250
5986		54.687500
5987		48.828125
5988		54.687500
5989		50.781250
5990		52.734375
5991		48.828125
5992		52.734375
5993		48.828125
5994		52.734375
5995		48.828125
5996		50.781250
5997		46.875000
5998		50.781250
5999		46.875000
6000		50.781250
6001		46.875000
6002		50.781250
6003		44.921875
6004		48.828125
6005		42.968750
6006		48.828125
6007		44.921875
6008		48.828125
6009		44.921875
6010		46.875000
6011		42.968750
6012		46.875000
6013		42.968750
6014		46.875000
6015		41.015625
6016		44.921875
6017		41.015625
6018		44.921875
6019		41.015625
6020		42.968750
6021		39.062500
6022		42.968750
6023		39.062500
6024		42.968750
6025		37.109375
6026		41.015625
6027		37.109375
6028		41.015625
6029		37.109375
6030		41.015625
6031		35.156250
6032		39.062500
6033		35.156250
6034		39.062500
6035		33.203125
6036		37.109375
6037		33.203125
6038		37.109375
6039		33.203125
6040		35.156250
6041		33.203125
6042		35.156250
6043		31.250000
6044		35.156250
6045		31.250000
6046		33.203125
6047		29.296875
6048		33.203125
6049		29.296875
6050		33.203125
6051		27.343750
6052		31.250000
6053		27.343750
6054		29.296875
6055		25.390625
6056		31.250000
6057		25.390625
6058		27.343750
6059		23.437500
6060		27.343750
6061		23.437500
6062		27.343750
6063		21.484375
6064		25.390625
6065		21.484375
6066		25.390625
6067		19.531250
6068		25.390625
6069		19.531250
6070		23.437500
6071		17.578125
6072		21.484375
6073		17.578125
6074		21.484375
6075		15.625000
6076		19.531250
6077		15.625000
6078		19.531250
6079		13.671875
6080		17.578125
6081		13.671875
6082		17.578125
6083		11.718750
6084		15.625000
6085		11.718750
6086		13.671875
6087		9.765625
6088		13.671875
6089		7.812500
6090		11.718750
6091		7.812500
6092		11.718750
6093		7.812500
6094		11.718750
6095		5.859375
6096		9.765625
6097		5.859375
6098		9.765625
6099		5.859375
6100		7.812500
6101		1.953125
6102		7.812500
6103		1.953125
6104		5.859375
6105		1.953125
6106		3.906250
6107		0.000000
6108		3.906250
6109		-1.953125
6110		1.953125
6111		-1.953125
6112		1.953125
6113		-3.906250
6114		1.953125
6115		-3.906250
6116		0.000000
6117		-5.859375
6118		0.000000
6119		-5.859375
6120		-1.953125
6121		-5.859375
6122		-3.906250
6123		-7.812500
6124		-3.906250
6125		-7.812500
6126		-5.859375
6127		-9.765625
6128		-5.859375
6129		-11.718750
6130		-7.812500
6131		-11.718750
6132		-7.812500
6133		-11.718750
6134		-9.765625
6135		-13.671875
6136		-9.765625
6137		-15.625000
6138		-11.718750
6139		-15.625000
6140		-11.718750
6141		-17.578125
6142		-13.671875
6143		-17.578125
6144		-13.671875
6145		-19.531250
6146		-15.625000
6147		-21.484375
6148		-15.625000
6149		-21.484375
6150		-15.625000
6151		-21.484375
6152		-19.531250
6153		-23.437500
6154		-19.531250
6155		-23.437500
6156		-19.531250
6157		-25.390625
6158		-21.484375
6159		-25.390625
6160		-23.437500
6161		-27.343750
6162		-23.437500
6163		-27.343750
6164		-23.437500
6165		-29.296875
6166		-25.390625
6167		-29.296875
6168		-25.390625
6169		-31.250000
6170		-27.343750
6171		-31.250000
6172		-27.343750
6173		-33.203125
6174		-27.343750
6175		-33.203125
6176		-29.296875
6177		-35.156250
6178		-29.296875
6179		-35.156250
6180		-31.250000
6181		-35.156250
6182		-31.250000
6183		-37.109375
6184		-33.203125
6185		-39.062500
6186		-33.203125
6187		-39.062500
6188		-35.156250
6189		-39.062500
6190		-35.156250
6191		-39.062500
6192		-37.109375
6193		-42.968750
6194		-37.109375
6195		-41.015625
6196		-37.109375
6197		-42.968750
6198		-39.062500
6199		-42.968750
6200		-39.062500
6201		-42.968750
6202		-41.015625
6203		-44.921875
6204		-41.015625
6205		-44.921875
6206		-41.015625
6207		-44.921875
6208		-42.968750
6209		-46.875000
6210		-42.968750
6211		-46.875000
6212		-42.968750
6213		-48.828125
6214		-44.921875
6215		-48.828125
6216		-44.921875
6217		-48.828125
6218		-44.921875
6219		-48.828125
6220		-46.875000
6221		-50.781250
6222		-46.875000
6223		-50.781250
6224		-46.875000
6225		-50.781250
6226		-48.828125
6227		-52.734375
6228		-48.828125
6229		-52.734375
6230		-48.828125
6231		-54.687500
6232		-48.828125
6233		-52.734375
6234		-50.781250
6235		-54.687500
6236		-50.781250
6237		-54.687500
6238		-50.781250
6239		-54.687500
6240		-52.734375
6241		-56.640625
6242		-50.781250
6243		-56.640625
6244		-52.734375
6245		-56.640625
6246		-52.734375
6247		-58.593750
6248		-54.687500
6249		-56.640625
6250		-54.687500
6251		-58.593750
6252		-54.687500
6253		-58.593750
6254		-54.687500
6255		-58.593750
6256		-54.687500
6257		-58.593750
6258		-54.687500
6259		-58.593750
6260		-56.640625
6261		-58.593750
6262		-56.640625
6263		-60.546875
6264		-56.640625
6265		-60.546875
6266		-56.640625
6267		-60.546875
6268		-56.640625
6269		-60.546875
6270		-56.640625
6271		-60.546875
6272		-56.640625
6273		-60.546875
6274		-56.640625
6275		-60.546875
6276		-56.640625
6277		-62.500000
6278		-58.593750
6279		-60.546875
6280		-56.640625
6281		-62.500000
6282		-56.640625
6283		-60.546875
6284		-58.593750
6285		-60.546875
6286		-56.640625
6287		-60.546875
6288		-58.593750
6289		-60.546875
6290		-58.593750
6291		-62.500000
6292		-56.640625
6293		-60.546875
6294		-58.593750
6295		-60.546875
6296		-58.593750
6297		-60.546875
6298		-58.593750
6299		-62.500000
6300		-58.593750
6301		-60.546875
6302		-58.593750
6303		-60.546875
6304		-56.640625
6305		-60.546875
6306		-58.593750
6307		-60.546875
6308		-56.640625
6309		-60.546875
6310		-58.593750
6311		-60.546875
6312		-56.640625
6313		-60.546875
6314		-56.640625
6315		-60.546875
6316		-56.640625
6317		-58.593750
6318		-56.640625
6319		-58.593750
6320		-56.640625
6321		-60.546875
6322		-54.687500
6323		-58.593750
6324		-54.687500
6325		-58.593750
6326		-54.687500
6327		-58.593750
6328		-54.687500
6329		-58.593750
6330		-54.687500
6331		-58.593750
6332		-52.734375
6333		-58.593750
6334		-54.687500
6335		-56.640625
6336		-54.687500
6337		-56.640625
6338		-52.734375
6339		-56.640625
6340		-52.734375
6341		-56.640625
6342		-50.781250
6343		-54.687500
6344		-50.781250
6345		-54.687500
6346		-50.781250
6347		-54.687500
6348		-50.781250
6349		-54.687500
6350		-48.828125
6351		-52.734375
6352		-50.781250
6353		-52.734375
6354		-48.828125
6355		-52.734375
6356		-48.828125
6357		-50.781250
6358		-46.875000
6359		-50.781250
6360		-46.875000
6361		-50.781250
6362		-46.875000
6363		-48.828125
6364		-44.921875
6365		-48.828125
6366		-44.921875
6367		-46.875000
6368		-44.921875
6369		-46.875000
6370		-42.968750
6371		-46.875000
6372		-42.968750
6373		-46.875000
6374		-42.968750
6375		-46.875000
6376		-41.015625
6377		-44.921875
6378		-41.015625
6379		-44.921875
6380		-41.015625
6381		-42.968750
6382		-39.062500
6383		-42.968750
6384		-39.062500
6385		-41.015625
6386		-39.062500
6387		-41.015625
6388		-37.109375
6389		-41.015625
6390		-37.109375
6391		-39.062500
6392		-35.156250
6393		-39.062500
6394		-35.156250
6395		-37.109375
6396		-33.203125
6397		-37.109375
6398		-33.203125
6399		-37.109375
6400		-33.203125
6401		-35.156250
6402		-31.250000
6403		-35.156250
6404		-31.250000
6405		-35.156250
6406		-29.296875
6407		-31.250000
6408		-29.296875
6409		-33.203125
6410		-29.296875
6411		-31.250000
6412		-27.343750
6413		-29.296875
6414		-25.390625
6415		-29.296875
6416		-25.390625
6417		-29.296875
6418		-23.437500
6419		-27.343750
6420		-23.437500
6421		-25.390625
6422		-21.484375
6423		-25.390625
6424		-21.484375
6425		-23.437500
6426		-19.531250
6427		-23.437500
6428		-19.531250
6429		-21.484375
6430		-17.578125
6431		-21.484375
6432		-17.578125
6433		-21.484375
6434		-15.625000
6435		-19.531250
6436		-15.625000
6437		-17.578125
6438		-13.671875
6439		-19.531250
6440		-11.718750
6441		-17.578125
6442		-13.671875
6443		-15.625000
6444		-11.718750
6445		-13.671875
6446		-9.765625
6447		-13.671875
6448		-9.765625
6449		-11.718750
6450		-7.812500
6451		-11.718750
6452		-7.812500
6453		-9.765625
6454		-7.812500
6455		-9.765625
6456		-5.859375
6457		-7.812500
6458		-3.906250
6459		-7.812500
6460		-3.906250
6461		-5.859375
6462		-1.953125
6463		-5.859375
6464		-1.953125
6465		-3.906250
6466		0.000000
6467		-3.906250
6468		0.000000
6469		-1.953125
6470		1.953125
6471		0.000000
6472		3.906250
6473		0.000000
6474		3.906250
6475		1.953125
6476		3.906250
6477		1.953125
6478		5.859375
6479		3.906250
6480		7.812500
6481		3.906250
6482		7.812500
6483		3.906250
6484		9.765625
6485		5.859375
6486		9.765625
6487		7.812500
6488		9.765625
6489		7.812500
6490		13.671875
6491		9.765625
6492		11.718750
6493		9.765625
6494		13.671875
6495		11.718750
6496		15.625000
6497		11.718750
6498		15.625000
6499		13.671875
6500		19.531250
6501		13.671875
6502		17.578125
6503		15.625000
6504		17.578125
6505		15.625000
6506		21.484375
6507		17.578125
6508		19.531250
6509		17.578125
6510		21.484375
6511		19.531250
6512		23.437500
6513		19.531250
6514		23.437500
6515		21.484375
6516		25.390625
6517		21.484375
6518		25.390625
6519		23.437500
6520		25.390625
6521		23.437500
6522		27.343750
6523		23.437500
6524		29.296875
6525		25.390625
6526		29.296875
6527		25.390625
6528		29.296875
6529		27.343750
6530		31.250000
6531		27.343750
6532		33.203125
6533		27.343750
6534		33.203125
6535		29.296875
6536		33.203125
6537		31.250000
6538		35.156250
6539		31.250000
6540		35.156250
6541		33.203125
6542		35.156250
6543		33.203125
6544		35.156250
6545		33.203125
6546		37.109375
6547		35.156250
6548		37.109375
6549		35.156250
6550		39.062500
6551		35.156250
6552		41.015625
6553		37.109375
6554		41.015625
6555		37.109375
6556		42.968750
6557		37.109375
6558		42.968750
6559		39.062500
6560		42.968750
6561		39.062500
6562		42.968750
6563		41.015625
6564		42.968750
6565		41.015625
6566		44.921875
6567		42.968750
6568		46.875000
6569		42.968750
6570		46.875000
6571		42.968750
6572		46.875000
6573		42.968750
6574		46.875000
6575		44.921875
6576		48.828125
6577		44.921875
6578		48.828125
6579		44.921875
6580		50.781250
6581		46.875000
6582		50.781250
6583		46.875000
6584		50.781250
6585		46.875000
6586		50.781250
6587		48.828125
6588		50.781250
6589		46.875000
6590		52.734375
6591		48.828125
6592		52.734375
6593		48.828125
6594		52.734375
6595		50.781250
6596		54.687500
6597		50.781250
6598		52.734375
6599		50.781250
6600		54.687500
6601		50.781250
6602		54.687500
6603		52.734375
6604		54.687500
6605		50.781250
6606		56.640625
6607		52.734375
6608		56.640625
6609		52.734375
6610		56.640625
6611		52.734375
6612		56.640625
6613		52.734375
6614		56.640625
6615		52.734375
6616		58.593750
6617		54.687500
6618		58.593750
6619		54.687500
6620		58.593750
6621		54.687500
6622		58.593750
6623		54.687500
6624		58.593750
6625		54.687500
6626		58.593750
6627		54.687500
6628		60.546875
6629		56.640625
6630		58.593750
6631		54.687500
6632		60.546875
6633		56.640625
6634		60.546875
6635		56.640625
6636		60.546875
6637		56.640625
6638		60.546875
6639		56.640625
6640		60.546875
6641		56.640625
6642		60.546875
6643		56.640625
6644		60.546875
6645		56.640625
6646		60.546875
6647		58.593750
6648		60.546875
6649		58.593750
6650		60.546875
6651		56.640625
6652		62.500000
6653		58.593750
6654		62.500000
6655		58.593750
6656		60.546875
6657		56.640625
6658		62.500000
6659		58.593750
6660		62.500000
6661		58.593750
6662		60.546875
6663		58.593750
6664		60.546875
6665		58.593750
6666		62.500000
6667		56.640625
6668		60.546875
6669		58.593750
6670		60.546875
6671		56.640625
6672		62.500000
6673		56.640625
6674		60.546875
6675		56.640625
6676		60.546875
6677		56.640625
6678		62.500000
6679		56.640625
6680		60.546875
6681		56.640625
6682		60.546875
6683		56.640625
6684		60.546875
6685		56.640625
6686		60.546875
6687		54.687500
6688		60.546875
6689		56.640625
6690		58.593750
6691		54.687500
6692		58.593750
6693		54.687500
6694		58.593750
6695		54.687500
6696		58.593750
6697		54.687500
6698		58.593750
6699		54.687500
6700		58.593750
6701		52.734375
6702		56.640625
6703		52.734375
6704		58.593750
6705		54.687500
6706		56.640625
6707		52.734375
6708		56.640625
6709		52.734375
6710		56.640625
6711		52.734375
6712		54.687500
6713		52.734375
6714		54.687500
6715		50.781250
6716		54.687500
6717		50.781250
6718		54.687500
6719		50.781250
6720		54.687500
6721		50.781250
6722		52.734375
6723		48.828125
6724		52.734375
6725		48.828125
6726		52.734375
6727		48.828125
6728		50.781250
6729		46.875000
6730		52.734375
6731		46.875000
6732		50.781250
6733		46.875000
6734		50.781250
6735		46.875000
6736		48.828125
6737		44.921875
6738		48.828125
6739		44.921875
6740		46.875000
6741		42.968750
6742		46.875000
6743		42.968750
6744		46.875000
6745		42.968750
6746		46.875000
6747		41.015625
6748		46.875000
6749		41.015625
6750		44.921875
6751		39.062500
6752		44.921875
6753		39.062500
6754		44.921875
6755		39.062500
6756		42.968750
6757		37.109375
6758		42.968750
6759		37.109375
6760		41.015625
6761		37.109375
6762		41.015625
6763		35.156250
6764		41.015625
6765		35.156250
6766		39.062500
6767		35.156250
6768		39.062500
6769		33.203125
6770		39.062500
6771		33.203125
6772		37.109375
6773		31.250000
6774		35.156250
6775		31.250000
6776		35.156250
6777		31.250000
6778		33.203125
6779		29.296875
6780		33.203125
6781		29.296875
6782		33.203125
6783		27.343750
6784		31.250000
6785		27.343750
6786		31.250000
6787		27.343750
6788		31.250000
6789		25.390625
6790		29.296875
6791		23.437500
6792		27.343750
6793		23.437500
6794		27.343750
6795		21.484375
6796		25.390625
6797		21.484375
6798		25.390625
6799		21.484375
6800		25.390625
6801		19.531250
6802		23.437500
6803		19.531250
6804		21.484375
6805		17.578125
6806		21.484375
6807		15.625000
6808		21.484375
6809		15.625000
6810		19.531250
6811		13.671875
6812		19.531250
6813		13.671875
6814		17.578125
6815		13.671875
6816		15.625000
6817		11.718750
6818		15.625000
6819		9.765625
6820		15.625000
6821		9.765625
6822		13.671875
6823		7.812500
6824		13.671875
6825		7.812500
6826		11.718750
6827		5.859375
6828		9.765625
6829		5.859375
6830		9.765625
6831		3.906250
6832		7.812500
6833		1.953125
6834		7.812500
6835		1.953125
6836		5.859375
6837		1.953125
6838		5.859375
6839		0.000000
6840		3.906250
6841		0.000000
6842		1.953125
6843		-1.953125
6844		1.953125
6845		-3.906250
6846		1.953125
6847		-3.906250
6848		0.000000
6849		-3.906250
6850		0.000000
6851		-5.859375
6852		-1.953125
6853		-7.812500
6854		-1.953125
6855		-7.812500
6856		-3.906250
6857		-7.812500
6858		-5.859375
6859		-9.765625
6860		-5.859375
6861		-11.718750
6862		-7.812500
6863		-11.718750
6864		-7.812500
6865		-11.718750
6866		-9.765625
6867		-13.671875
6868		-9.765625
6869		-15.625000
6870		-9.765625
6871		-15.625000
6872		-11.718750
6873		-15.625000
6874		-11.718750
6875		-19.531250
6876		-13.671875
6877		-19.531250
6878		-15.625000
6879		-19.531250
6880		-15.625000
6881		-21.484375
6882		-17.578125
6883		-21.484375
6884		-17.578125
6885		-21.484375
6886		-19.531250
6887		-23.437500
6888		-19.531250
6889		-25.390625
6890		-21.484375
6891		-25.390625
6892		-21.484375
6893		-27.343750
6894		-23.437500
6895		-27.343750
6896		-23.437500
6897		-27.343750
6898		-25.390625
6899		-29.296875
6900		-25.390625
6901		-29.296875
6902		-25.390625
6903		-31.250000
6904		-27.343750
6905		-31.250000
6906		-29.296875
6907		-33.203125
6908		-29.296875
6909		-33.203125
6910		-29.296875
6911		-35.156250
6912		-31.250000
6913		-35.156250
6914		-33.203125
6915		-37.109375
6916		-33.203125
6917		-37.109375
6918		-33.203125
6919		-37.109375
6920		-35.156250
6921		-39.062500
6922		-35.156250
6923		-39.062500
6924		-35.156250
6925		-41.015625
6926		-37.109375
6927		-41.015625
6928		-37.109375
6929		-41.015625
6930		-39.062500
6931		-42.968750
6932		-39.062500
6933		-42.968750
6934		-41.015625
6935		-44.921875
6936		-41.015625
6937		-44.921875
6938		-41.015625
6939		-44.921875
6940		-42.968750
6941		-46.875000
6942		-41.015625
6943		-46.875000
6944		-42.968750
6945		-46.875000
6946		-44.921875
6947		-48.828125
6948		-44.921875
6949		-48.828125
6950		-46.875000
6951		-48.828125
6952		-46.875000
6953		-50.781250
6954		-46.875000
6955		-50.781250
6956		-46.875000
6957		-52.734375
6958		-46.875000
6959		-52.734375
6960		-48.828125
6961		-52.734375
6962		-48.828125
6963		-52.734375
6964		-48.828125
6965		-54.687500
6966		-50.781250
6967		-54.687500
6968		-50.781250
6969		-54.687500
6970		-50.781250
6971		-56.640625
6972		-50.781250
6973		-56.640625
6974		-52.734375
6975		-56.640625
6976		-52.734375
6977		-56.640625
6978		-52.734375
6979		-56.640625
6980		-52.734375
6981		-56.640625
6982		-54.687500
6983		-58.593750
6984		-54.687500
6985		-58.593750
6986		-54.687500
6987		-58.593750
6988		-54.687500
6989		-60.546875
6990		-54.687500
6991		-58.593750
6992		-56.640625
6993		-60.546875
6994		-56.640625
6995		-60.546875
6996		-56.640625
6997		-60.546875
6998		-56.640625
6999		-60.546875
7000		-56.640625
7001		-60.546875
7002		-56.640625
7003		-60.546875
7004		-56.640625
7005		-60.546875
7006		-56.640625
7007		-60.546875
7008		-58.593750
7009		-62.500000
7010		-56.640625
7011		-60.546875
7012		-58.593750
7013		-60.546875
7014		-56.640625
7015		-62.500000
7016		-58.593750
7017		-62.500000
7018		-58.593750
7019		-62.500000
7020		-58.593750
7021		-62.500000
7022		-58.593750
7023		-60.546875
7024		-58.593750
7025		-60.546875
7026		-58.593750
7027		-62.500000
7028		-58.593750
7029		-62.500000
7030		-58.593750
7031		-62.500000
7032		-56.640625
7033		-60.546875
7034		-58.593750
7035		-62.500000
7036		-58.593750
7037		-62.500000
7038		-56.640625
7039		-60.546875
7040		-58.593750
7041		-60.546875
7042		-58.593750
7043		-60.546875
7044		-56.640625
7045		-60.546875
7046		-56.640625
7047		-60.546875
7048		-56.640625
7049		-60.546875
7050		-56.640625
7051		-60.546875
7052		-56.640625
7053		-60.546875
7054		-56.640625
7055		-58.593750
7056		-54.687500
7057		-58.593750
7058		-56.640625
7059		-58.593750
7060		-54.687500
7061		-58.593750
7062		-54.687500
7063		-58.593750
7064		-54.687500
7065		-58.593750
7066		-54.687500
7067		-56.640625
7068		-54.687500
7069		-56.640625
7070		-52.734375
7071		-58.593750
7072		-52.734375
7073		-54.687500
7074		-52.734375
7075		-56.640625
7076		-50.781250
7077		-54.687500
7078		-50.781250
7079		-54.687500
7080		-50.781250
7081		-54.687500
7082		-50.781250
7083		-54.687500
7084		-50.781250
7085		-52.734375
7086		-48.828125
7087		-52.734375
7088		-48.828125
7089		-52.734375
7090		-48.828125
7091		-50.781250
7092		-46.875000
7093		-50.781250
7094		-46.875000
7095		-50.781250
7096		-46.875000
7097		-50.781250
7098		-44.921875
7099		-48.828125
7100		-44.921875
7101		-48.828125
7102		-44.921875
7103		-46.875000
7104		-42.968750
7105		-46.875000
7106		-42.968750
7107		-44.921875
7108		-42.968750
7109		-46.875000
7110		-42.968750
7111		-44.921875
7112		-41.015625
7113		-44.921875
7114		-39.062500
7115		-42.968750
7116		-39.062500
7117		-42.968750
7118		-39.062500
7119		-41.015625
7120		-37.109375
7121		-41.015625
7122		-37.109375
7123		-41.015625
7124		-37.109375
7125		-39.062500
7126		-35.156250
7127		-39.062500
7128		-35.156250
7129		-37.109375
7130		-33.203125
7131		-37.109375
7132		-33.203125
7133		-37.109375
7134		-33.203125
7135		-35.156250
7136		-31.250000
7137		-35.156250
7138		-31.250000
7139		-33.203125
7140		-29.296875
7141		-31.250000
7142		-29.296875
7143		-31.250000
7144		-27.343750
7145		-31.250000
7146		-27.343750
7147		-29.296875
7148		-25.390625
7149		-27.343750
7150		-25.390625
7151		-27.343750
7152		-23.437500
7153		-27.343750
7154		-23.437500
7155		-25.390625
7156		-23.437500
7157		-25.390625
7158		-21.484375
7159		-23.437500
7160		-21.484375
7161		-23.437500
7162		-19.531250
7163		-21.484375
7164		-17.578125
7165		-21.484375
7166		-17.578125
7167		-19.531250
7168		-15.625000
7169		-19.531250
7170		-15.625000
7171		-17.578125
7172		-13.671875
7173		-17.578125
7174		-11.718750
7175		-15.625000
7176		-11.718750
7177		-15.625000
7178		-11.718750
7179		-13.671875
7180		-9.765625
7181		-13.671875
7182		-9.765625
7183		-11.718750
7184		-9.765625
7185		-11.718750
7186		-5.859375
7187		-9.765625
7188		-5.859375
7189		-9.765625
7190		-5.859375
7191		-7.812500
7192		-3.906250
7193		-5.859375
7194		-3.906250
7195		-5.859375
7196		-1.953125
7197		-3.906250
7198		0.000000
7199		-3.906250
7200		0.000000
7201		-1.953125
7202		0.000000
7203		-1.953125
7204		1.953125
7205		0.000000
7206		1.953125
7207		0.000000
7208		3.906250
7209		0.000000
7210		3.906250
7211		1.953125
7212		5.859375
7213		3.906250
7214		5.859375
7215		3.906250
7216		7.812500
7217		3.906250
7218		9.765625
7219		5.859375
7220		9.765625
7221		7.812500
7222		9.765625
7223		7.812500
7224		11.718750
7225		9.765625
7226		13.671875
7227		9.765625
7228		13.671875
7229		9.765625
7230		15.625000
7231		11.718750
7232		15.625000
7233		13.671875
7234		17.578125
7235		13.671875
7236		17.578125
7237		15.625000
7238		19.531250
7239		15.625000
7240		19.531250
7241		15.625000
7242		21.484375
7243		17.578125
7244		21.484375
7245		19.531250
7246		23.437500
7247		19.531250
7248		23.437500
7249		21.484375
7250		25.390625
7251		21.484375
7252		25.390625
7253		21.484375
7254		25.390625
7255		23.437500
7256		27.343750
7257		23.437500
7258		29.296875
7259		25.390625
7260		27.343750
7261		27.343750
7262		29.296875
7263		27.343750
7264		31.250000
7265		27.343750
7266		31.250000
7267		29.296875
7268		33.203125
7269		29.296875
7270		33.203125
7271		31.250000
7272		35.156250
7273		31.250000
7274		35.156250
7275		33.203125
7276		35.156250
7277		33.203125
7278		37.109375
7279		33.203125
7280		37.109375
7281		35.156250
7282		39.062500
7283		35.156250
7284		39.062500
7285		37.109375
7286		39.062500
7287		37.109375
7288		41.015625
7289		37.109375
7290		42.968750
7291		39.062500
7292		41.015625
7293		39.062500
7294		42.968750
7295		39.062500
7296		42.968750
7297		41.015625
7298		42.968750
7299		41.015625
7300		44.921875
7301		41.015625
7302		44.921875
7303		42.968750
7304		46.875000
7305		42.968750
7306		46.875000
7307		42.968750
7308		46.875000
7309		44.921875
7310		46.875000
7311		44.921875
7312		48.828125
7313		44.921875
7314		48.828125
7315		44.921875
7316		50.781250
7317		46.875000
7318		50.781250
7319		46.875000
7320		50.781250
7321		48.828125
7322		50.781250
7323		48.828125
7324		52.734375
7325		48.828125
7326		52.734375
7327		50.781250
7328		52.734375
7329		48.828125
7330		54.687500
7331		50.781250
7332		54.687500
7333		50.781250
7334		54.687500
7335		50.781250
7336		54.687500
7337		52.734375
7338		54.687500
7339		52.734375
7340		54.687500
7341		52.734375
7342		56.640625
7343		52.734375
7344		56.640625
7345		52.734375
7346		56.640625
7347		52.734375
7348		56.640625
7349		54.687500
7350		58.593750
7351		54.687500
7352		58.593750
7353		54.687500
7354		58.593750
7355		54.687500
7356		58.593750
7357		54.687500
7358		58.593750
7359		56.640625
7360		60.546875
7361		56.640625
7362		58.593750
7363		56.640625
7364		60.546875
7365		54.687500
7366		60.546875
7367		56.640625
7368		60.546875
7369		56.640625
7370		60.546875
7371		56.640625
7372		60.546875
7373		56.640625
7374		60.546875
7375		56.640625
7376		60.546875
7377		56.640625
7378		60.546875
7379		58.593750
7380		62.500000
7381		56.640625
7382		60.546875
7383		56.640625
7384		60.546875
7385		58.593750
7386		60.546875
7387		56.640625
7388		60.546875
7389		56.640625
7390		60.546875
7391		56.640625
7392		62.500000
7393		58.593750
7394		60.546875
7395		58.593750
7396		60.546875
7397		58.593750
7398		60.546875
7399		58.593750
7400		60.546875
7401		58.593750
7402		60.546875
7403		56.640625
7404		60.546875
7405		58.593750
7406		60.546875
7407		56.640625
7408		60.546875
7409		56.640625
7410		62.500000
7411		56.640625
7412		60.546875
7413		56.640625
7414		60.546875
7415		56.640625
7416		60.546875
7417		56.640625
7418		60.546875
7419		56.640625
7420		58.593750
7421		54.687500
7422		60.546875
7423		54.687500
7424		58.593750
7425		54.687500
7426		58.593750
7427		54.687500
7428		58.593750
7429		54.687500
7430		58.593750
7431		54.687500
7432		58.593750
7433		54.687500
7434		58.593750
7435		54.687500
7436		56.640625
7437		52.734375
7438		56.640625
7439		52.734375
7440		56.640625
7441		52.734375
7442		56.640625
7443		52.734375
7444		56.640625
7445		50.781250
7446		54.687500
7447		50.781250
7448		56.640625
7449		50.781250
7450		54.687500
7451		50.781250
7452		54.687500
7453		50.781250
7454		52.734375
7455		48.828125
7456		52.734375
7457		48.828125
7458		52.734375
7459		48.828125
7460		52.734375
7461		46.875000
7462		52.734375
7463		46.875000
7464		50.781250
7465		46.875000
7466		50.781250
7467		44.921875
7468		50.781250
7469		46.875000
7470		48.828125
7471		44.921875
7472		48.828125
7473		44.921875
7474		48.828125
7475		42.968750
7476		46.875000
7477		41.015625
7478		46.875000
7479		42.968750
7480		44.921875
7481		41.015625
7482		44.921875
7483		41.015625
7484		44.921875
7485		39.062500
7486		44.921875
7487		39.062500
7488		42.968750
7489		39.062500
7490		42.968750
7491		37.109375
7492		41.015625
7493		37.109375
7494		41.015625
7495		37.109375
7496		39.062500
7497		35.156250
7498		41.015625
7499		35.156250
7500		39.062500
7501		35.156250
7502		37.109375
7503		33.203125
7504		37.109375
7505		33.203125
7506		35.156250
7507		31.250000
7508		35.156250
7509		29.296875
7510		35.156250
7511		31.250000
7512		33.203125
7513		29.296875
7514		33.203125
7515		29.296875
7516		31.250000
7517		27.343750
7518		31.250000
7519		25.390625
7520		31.250000
7521		25.390625
7522		29.296875
7523		25.390625
7524		29.296875
7525		23.437500
7526		29.296875
7527		23.437500
7528		25.390625
7529		21.484375
7530		25.390625
7531		21.484375
7532		25.390625
7533		19.531250
7534		23.437500
7535		19.531250
7536		23.437500
7537		17.578125
7538		21.484375
7539		17.578125
7540		21.484375
7541		15.625000
7542		19.531250
7543		15.625000
7544		19.531250
7545		13.671875
7546		17.578125
7547		13.671875
7548		15.625000
7549		13.671875
7550		15.625000
7551		11.718750
7552		15.625000
7553		9.765625
7554		13.671875
7555		9.765625
7556		13.671875
7557		7.812500
7558		11.718750
7559		7.812500
7560		11.718750
7561		5.859375
7562		9.765625
7563		5.859375
7564		9.765625
7565		3.906250
7566		9.765625
7567		3.906250
7568		7.812500
7569		1.953125
7570		5.859375
7571		1.953125
7572		5.859375
7573		0.000000
7574		3.906250
7575		0.000000
7576		3.906250
7577		-1.953125
7578		1.953125
7579		-1.953125
7580		0.000000
7581		-5.859375
7582		0.000000
7583		-5.859375
7584		0.000000
7585		-5.859375
7586		-1.953125
7587		-7.812500
7588		-1.953125
7589		-7.812500
7590		-3.906250
7591		-9.765625
7592		-5.859375
7593		-9.765625
7594		-5.859375
7595		-9.765625
7596		-7.812500
7597		-11.718750
7598		-7.812500
7599		-13.671875
7600		-9.765625
7601		-13.671875
7602		-9.765625
7603		-15.625000
7604		-11.718750
7605		-15.625000
7606		-11.718750
7607		-17.578125
7608		-13.671875
7609		-19.531250
7610		-13.671875
7611		-19.531250
7612		-15.625000
7613		-19.531250
7614		-15.625000
7615		-21.484375
7616		-17.578125
7617		-21.484375
7618		-19.531250
7619		-23.437500
7620		-19.531250
7621		-23.437500
7622		-19.531250
7623		-25.390625
7624		-21.484375
7625		-27.343750
7626		-21.484375
7627		-27.343750
7628		-23.437500
7629		-27.343750
7630		-25.390625
7631		-29.296875
7632		-25.390625
7633		-29.296875
7634		-25.390625
7635		-31.250000
7636		-27.343750
7637		-31.250000
7638		-27.343750
7639		-33.203125
7640		-29.296875
7641		-33.203125
7642		-29.296875
7643		-35.156250
7644		-31.250000
7645		-35.156250
7646		-31.250000
7647		-35.156250
7648		-33.203125
7649		-37.109375
7650		-33.203125
7651		-37.109375
7652		-33.203125
7653		-39.062500
7654		-35.156250
7655		-39.062500
7656		-35.156250
7657		-41.015625
7658		-37.109375
7659		-41.015625
7660		-37.109375
7661		-42.968750
7662		-37.109375
7663		-42.968750
7664		-39.062500
7665		-42.968750
7666		-39.062500
7667		-44.921875
7668		-41.015625
7669		-44.921875
7670		-41.015625
7671		-44.921875
7672		-42.968750
7673		-46.875000
7674		-42.968750
7675		-46.875000
7676		-42.968750
7677		-46.875000
7678		-42.968750
7679		-48.828125
7680		-44.921875
7681		-48.828125
7682		-44.921875
7683		-48.828125
7684		-46.875000
7685		-50.781250
7686		-46.875000
7687		-50.781250
7688		-46.875000
7689		-50.781250
7690		-48.828125
7691		-52.734375
7692		-48.828125
7693		-52.734375
7694		-48.828125
7695		-54.687500
7696		-50.781250
7697		-52.734375
7698		-50.781250
7699		-54.687500
7700		-50.781250
7701		-56.640625
7702		-50.781250
7703		-54.687500
7704		-52.734375
7705		-54.687500
7706		-52.734375
7707		-56.640625
7708		-52.734375
7709		-56.640625
7710		-52.734375
7711		-58.593750
7712		-52.734375
7713		-58.593750
7714		-54.687500
7715		-58.593750
7716		-54.687500
7717		-58.593750
7718		-54.687500
7719		-58.593750
7720		-54.687500
7721		-58.593750
7722		-54.687500
7723		-60.546875
7724		-54.687500
7725		-60.546875
7726		-56.640625
7727		-60.546875
7728		-56.640625
7729		-60.546875
7730		-56.640625
7731		-60.546875
7732		-58.593750
7733		-60.546875
7734		-56.640625
7735		-60.546875
7736		-56.640625
7737		-60.546875
7738		-58.593750
7739		-62.500000
7740		-58.593750
7741		-60.546875
7742		-58.593750
7743		-62.500000
7744		-58.593750
7745		-62.500000
7746		-58.593750
7747		-62.500000
7748		-58.593750
7749		-62.500000
7750		-58.593750
7751		-62.500000
7752		-58.593750
7753		-62.500000
7754		-58.593750
7755		-62.500000
7756		-58.593750
7757		-62.500000
7758		-58.593750
7759		-62.500000
7760		-58.593750
7761		-62.500000
7762		-58.593750
7763		-60.546875
7764		-58.593750
7765		-60.546875
7766		-58.593750
7767		-62.500000
7768		-58.593750
7769		-62.500000
7770		-58.593750
7771		-62.500000
7772		-56.640625
7773		-60.546875
7774		-58.593750
7775		-60.546875
7776		-58.593750
7777		-60.546875
7778		-58.593750
7779		-60.546875
7780		-58.593750
7781		-62.500000
7782		-56.640625
7783		-60.546875
7784		-56.640625
7785		-60.546875
7786		-56.640625
7787		-60.546875
7788		-56.640625
7789		-58.593750
7790		-56.640625
7791		-58.593750
7792		-54.687500
7793		-60.546875
7794		-54.687500
7795		-58.593750
7796		-54.687500
7797		-58.593750
7798		-54.687500
7799		-58.593750
7800		-54.687500
7801		-58.593750
7802		-52.734375
7803		-58.593750
7804		-52.734375
7805		-56.640625
7806		-52.734375
7807		-56.640625
7808		-52.734375
7809		-56.640625
7810		-50.781250
7811		-54.687500
7812		-50.781250
7813		-54.687500
7814		-50.781250
7815		-54.687500
7816		-50.781250
7817		-54.687500
7818		-48.828125
7819		-54.687500
7820		-46.875000
7821		-52.734375
7822		-46.875000
7823		-52.734375
7824		-48.828125
7825		-52.734375
7826		-46.875000
7827		-52.734375
7828		-46.875000
7829		-50.781250
7830		-46.875000
7831		-50.781250
7832		-44.921875
7833		-50.781250
7834		-44.921875
7835		-48.828125
7836		-42.968750
7837		-48.828125
7838		-42.968750
7839		-48.828125
7840		-41.015625
7841		-46.875000
7842		-41.015625
7843		-46.875000
7844		-41.015625
7845		-46.875000
7846		-41.015625
7847		-42.968750
7848		-41.015625
7849		-42.968750
7850		-41.015625
7851		-44.921875
7852		-37.109375
7853		-42.968750
7854		-39.062500
7855		-42.968750
7856		-37.109375
7857		-41.015625
7858		-35.156250
7859		-41.015625
7860		-33.203125
7861		-41.015625
7862		-33.203125
7863		-39.062500
7864		-35.156250
7865		-37.109375
7866		-33.203125
7867		-37.109375
7868		-31.250000
7869		-37.109375
7870		-31.250000
7871		-35.156250
7872		-29.296875
7873		-35.156250
7874		-29.296875
7875		-33.203125
7876		-27.343750
7877		-33.203125
7878		-25.390625
7879		-31.250000
7880		-27.343750
7881		-29.296875
7882		-27.343750
7883		-29.296875
7884		-25.390625
7885		-29.296875
7886		-23.437500
7887		-29.296875
7888		-21.484375
7889		-27.343750
7890		-21.484375
7891		-25.390625
7892		-21.484375
7893		-25.390625
7894		-19.531250
7895		-25.390625
7896		-19.531250
7897		-21.484375
7898		-19.531250
7899		-21.484375
7900		-17.578125
7901		-21.484375
7902		-15.625000
7903		-19.531250
7904		-13.671875
7905		-19.531250
7906		-13.671875
7907		-17.578125
7908		-11.718750
7909		-17.578125
7910		-11.718750
7911		-15.625000
7912		-9.765625
7913		-13.671875
7914		-9.765625
7915		-13.671875
7916		-9.765625
7917		-13.671875
7918		-7.812500
7919		-11.718750
7920		-5.859375
7921		-11.718750
7922		-3.906250
7923		-11.718750
7924		-3.906250
7925		-9.765625
7926		-1.953125
7927		-9.765625
7928		-1.953125
7929		-7.812500
7930		-1.953125
7931		-3.906250
7932		-1.953125
7933		-3.906250
7934		0.000000
7935		-3.906250
7936		1.953125
7937		-1.953125
7938		3.906250
7939		-1.953125
7940		3.906250
7941		0.000000
7942		5.859375
7943		0.000000
7944		5.859375
7945		0.000000
7946		7.812500
7947		1.953125
7948		7.812500
7949		5.859375
7950		7.812500
7951		3.906250
7952		9.765625
7953		5.859375
7954		11.718750
7955		5.859375
7956		13.671875
7957		5.859375
7958		13.671875
7959		7.812500
7960		13.671875
7961		9.765625
7962		15.625000
7963		9.765625
7964		15.625000
7965		13.671875
7966		15.625000
7967		11.718750
7968		17.578125
7969		11.718750
7970		19.531250
7971		13.671875
7972		19.531250
7973		13.671875
7974		21.484375
7975		15.625000
7976		23.437500
7977		15.625000
7978		23.437500
7979		17.578125
7980		23.437500
7981		19.531250
7982		23.437500
7983		21.484375
7984		23.437500
7985		21.484375
7986		27.343750
7987		21.484375
7988		27.343750
7989		23.437500
7990		27.343750
7991		23.437500
7992		29.296875
7993		25.390625
7994		29.296875
7995		25.390625
7996		31.250000
7997		27.343750
7998		31.250000
7999		29.296875
8000		31.250000
8001		27.343750
8002		35.156250
8003		27.343750
8004		35.156250
8005		29.296875
8006		35.156250
8007		29.296875
8008		37.109375
8009		31.250000
8010		37.109375
8011		31.250000
8012		37.109375
8013		31.250000
8014		39.062500
8015		35.156250
8016		39.062500
8017		35.156250
8018		39.062500
8019		35.156250
8020		41.015625
8021		35.156250
8022		41.015625
8023		35.156250
8024		42.968750
8025		37.109375
8026		44.921875
8027		37.109375
8028		44.921875
8029		39.062500
8030		44.921875
8031		39.062500
8032		44.921875
8033		41.015625
8034		44.921875
8035		41.015625
8036		46.875000
8037		41.015625
8038		48.828125
8039		42.968750
8040		48.828125
8041		41.015625
8042		48.828125
8043		42.968750
8044		50.781250
8045		42.968750
8046		50.781250
8047		44.921875
8048		50.781250
8049		44.921875
8050		50.781250
8051		46.875000
8052		50.781250
8053		44.921875
8054		52.734375
8055		46.875000
8056		52.734375
8057		46.875000
8058		52.734375
8059		46.875000
8060		54.687500
8061		48.828125
8062		54.687500
8063		48.828125
8064		54.687500
8065		50.781250
8066		54.687500
8067		50.781250
8068		54.687500
8069		48.828125
8070		56.640625
8071		48.828125
8072		56.640625
8073		50.781250
8074		56.640625
8075		50.781250
8076		56.640625
8077		50.781250
8078		58.593750
8079		50.781250
8080		58.593750
8081		52.734375
8082		58.593750
8083		54.687500
8084		56.640625
8085		52.734375
8086		58.593750
8087		52.734375
8088		60.546875
8089		52.734375
8090		60.546875
8091		54.687500
8092		60.546875
8093		54.687500
8094		60.546875
8095		52.734375
8096		60.546875
8097		54.687500
8098		60.546875
8099		56.640625
8100		58.593750
8101		56.640625
8102		60.546875
8103		54.687500
8104		62.500000
8105		56.640625
8106		62.500000
8107		54.687500
8108		62.500000
8109		54.687500
8110		62.500000
8111		56.640625
8112		62.500000
8113		54.687500
8114		62.500000
8115		54.687500
8116		60.546875
8117		56.640625
8118		60.546875
8119		56.640625
8120		62.500000
8121		56.640625
8122		62.500000
8123		56.640625
8124		62.500000
8125		56.640625
8126		62.500000
8127		56.640625
8128		62.500000
8129		56.640625
8130		62.500000
8131		56.640625
8132		62.500000
8133		56.640625
8134		60.546875
8135		56.640625
8136		60.546875
8137		54.687500
8138		62.500000
8139		54.687500
8140		62.500000
8141		54.687500
8142		62.500000
8143		54.687500
8144		60.546875
8145		54.687500
8146		60.546875
8147		54.687500
8148		60.546875
8149		56.640625
8150		58.593750
8151		56.640625
8152		60.546875
8153		56.640625
8154		60.546875
8155		54.687500
8156		60.546875
8157		54.687500
8158		60.546875
8159		52.734375
8160		60.546875
8161		52.734375
8162		60.546875
8163		52.734375
8164		60.546875
8165		52.734375
8166		58.593750
8167		54.687500
8168		56.640625
8169		52.734375
8170		58.593750
8171		50.781250
8172		58.593750
8173		50.781250
8174		58.593750
8175		50.781250
8176		58.593750
8177		50.781250
8178		56.640625
8179		48.828125
8180		56.640625
8181		48.828125
8182		56.640625
8183		50.781250
8184		52.734375
8185		50.781250
8186		52.734375
8187		46.875000
8188		54.687500
8189		46.875000
8190		54.687500
8191		46.875000
8192		54.687500
8193		46.875000
8194		52.734375
8195		46.875000
8196		52.734375
8197		44.921875
8198		52.734375
8199		44.921875
8200		50.781250
8201		46.875000
8202		48.828125
8203		44.921875
8204		50.781250
8205		42.968750
8206		48.828125
8207		42.968750
8208		48.828125
8209		41.015625
8210		48.828125
8211		42.968750
8212		48.828125
8213		41.015625
8214		46.875000
8215		41.015625
8216		46.875000
8217		41.015625
8218		44.921875
8219		41.015625
8220		42.968750
8221		39.062500
8222		44.921875
8223		37.109375
8224		42.968750
8225		35.156250
8226		42.968750
8227		35.156250
8228		42.968750
8229		35.156250
8230		41.015625
8231		35.156250
8232		41.015625
8233		35.156250
8234		37.109375
8235		33.203125
8236		39.062500
8237		31.250000
8238		39.062500
8239		31.250000
8240		37.109375
8241		31.250000
8242		37.109375
8243		29.296875
8244		35.156250
8245		27.343750
8246		35.156250
8247		27.343750
8248		33.203125
8249		27.343750
8250		33.203125
8251		27.343750
8252		31.250000
8253		23.437500
8254		31.250000
8255		23.437500
8256		31.250000
8257		23.437500
8258		29.296875
8259		21.484375
8260		29.296875
8261		21.484375
8262		27.343750
8263		19.531250
8264		27.343750
8265		19.531250
8266		25.390625
8267		19.531250
8268		23.437500
8269		19.531250
8270		23.437500
8271		15.625000
8272		23.437500
8273		15.625000
8274		21.484375
8275		13.671875
8276		21.484375
8277		13.671875
8278		19.531250
8279		13.671875
8280		19.531250
8281		11.718750
8282		17.578125
8283		11.718750
8284		17.578125
8285		11.718750
8286		13.671875
8287		9.765625
8288		15.625000
8289		7.812500
8290		13.671875
8291		5.859375
8292		13.671875
8293		5.859375
8294		13.671875
8295		3.906250
8296		11.718750
8297		3.906250
8298		9.765625
8299		3.906250
8300		9.765625
8301		3.906250
8302		5.859375
8303		1.953125
8304		5.859375
8305		0.000000
8306		5.859375
8307		0.000000
8308		3.906250
8309		-1.953125
8310		3.906250
8311		-3.906250
8312		3.906250
8313		-5.859375
8314		1.953125
8315		-5.859375
8316		0.000000
8317		-5.859375
8318		-1.953125
8319		-7.812500
8320		-3.906250
8321		-7.812500
8322		-1.953125
8323		-9.765625
8324		-3.906250
8325		-11.718750
8326		-3.906250
8327		-11.718750
8328		-5.859375
8329		-13.671875
8330		-5.859375
8331		-15.625000
8332		-7.812500
8333		-15.625000
8334		-7.812500
8335		-13.671875
8336		-11.718750
8337		-15.625000
8338		-11.718750
8339		-17.578125
8340		-11.718750
8341		-19.531250
8342		-11.718750
8343		-19.531250
8344		-13.671875
8345		-21.484375
8346		-13.671875
8347		-21.484375
8348		-15.625000
8349		-23.437500
8350		-15.625000
8351		-21.484375
8352		-19.531250
8353		-23.437500
8354		-19.531250
8355		-25.390625
8356		-19.531250
8357		-27.343750
8358		-19.531250
8359		-27.343750
8360		-21.484375
8361		-29.296875
8362		-21.484375
8363		-29.296875
8364		-23.437500
8365		-31.250000
8366		-23.437500
8367		-29.296875
8368		-25.390625
8369		-31.250000
8370		-27.343750
8371		-33.203125
8372		-27.343750
8373		-35.156250
8374		-27.343750
8375		-35.156250
8376		-29.296875
8377		-37.109375
8378		-29.296875
8379		-37.109375
8380		-29.296875
8381		-37.109375
8382		-31.250000
8383		-39.062500
8384		-31.250000
8385		-37.109375
8386		-35.156250
8387		-39.062500
8388		-35.156250
8389		-41.015625
8390		-35.156250
8391		-42.968750
8392		-35.156250
8393		-42.968750
8394		-37.109375
8395		-42.968750
8396		-37.109375
8397		-44.921875
8398		-37.109375
8399		-44.921875
8400		-39.062500
8401		-42.968750
8402		-41.015625
8403		-44.921875
8404		-41.015625
8405		-46.875000
8406		-41.015625
8407		-46.875000
8408		-41.015625
8409		-48.828125
8410		-41.015625
8411		-48.828125
8412		-42.968750
8413		-50.781250
8414		-42.968750
8415		-50.781250
8416		-44.921875
8417		-50.781250
8418		-44.921875
8419		-50.781250
8420		-46.875000
8421		-50.781250
8422		-46.875000
8423		-52.734375
8424		-46.875000
8425		-52.734375
8426		-46.875000
8427		-54.687500
8428		-46.875000
8429		-54.687500
8430		-48.828125
8431		-54.687500
8432		-48.828125
8433		-56.640625
8434		-48.828125
8435		-54.687500
8436		-50.781250
8437		-54.687500
8438		-52.734375
8439		-56.640625
8440		-50.781250
8441		-56.640625
8442		-50.781250
8443		-58.593750
8444		-52.734375
8445		-58.593750
8446		-52.734375
8447		-58.593750
8448		-52.734375
8449		-58.593750
8450		-52.734375
8451		-58.593750
8452		-52.734375
8453		-58.593750
8454		-54.687500
8455		-60.546875
8456		-52.734375
8457		-60.546875
8458		-54.687500
8459		-60.546875
8460		-54.687500
8461		-60.546875
8462		-54.687500
8463		-62.500000
8464		-54.687500
8465		-60.546875
8466		-54.687500
8467		-60.546875
8468		-54.687500
8469		-60.546875
8470		-56.640625
8471		-60.546875
8472		-58.593750
8473		-62.500000
8474		-54.687500
8475		-62.500000
8476		-56.640625
8477		-62.500000
8478		-56.640625
8479		-62.500000
8480		-56.640625
8481		-62.500000
8482		-56.640625
8483		-62.500000
8484		-56.640625
8485		-62.500000
8486		-56.640625
8487		-62.500000
8488		-58.593750
8489		-62.500000
8490		-56.640625
8491		-62.500000
8492		-56.640625
8493		-64.453125
8494		-56.640625
8495		-62.500000
8496		-56.640625
8497		-62.500000
8498		-56.640625
8499		-62.500000
8500		-56.640625
8501		-62.500000
8502		-56.640625
8503		-60.546875
8504		-58.593750
8505		-62.500000
8506		-56.640625
8507		-62.500000
8508		-56.640625
8509		-62.500000
8510		-54.687500
8511		-62.500000
8512		-56.640625
8513		-62.500000
8514		-56.640625
8515		-62.500000
8516		-54.687500
8517		-62.500000
8518		-54.687500
8519		-60.546875
8520		-56.640625
8521		-60.546875
8522		-56.640625
8523		-60.546875
8524		-54.687500
8525		-60.546875
8526		-54.687500
8527		-60.546875
8528		-54.687500
8529		-60.546875
8530		-52.734375
8531		-60.546875
8532		-52.734375
8533		-58.593750
8534		-52.734375
8535		-58.593750
8536		-52.734375
8537		-56.640625
8538		-52.734375
8539		-56.640625
8540		-52.734375
8541		-56.640625
8542		-50.781250
8543		-56.640625
8544		-50.781250
8545		-56.640625
8546		-48.828125
8547		-56.640625
8548		-48.828125
8549		-56.640625
8550		-48.828125
8551		-54.687500
8552		-48.828125
8553		-52.734375
8554		-50.781250
8555		-52.734375
8556		-46.875000
8557		-52.734375
8558		-46.875000
8559		-52.734375
8560		-46.875000
8561		-50.781250
8562		-44.921875
8563		-50.781250
8564		-44.921875
8565		-50.781250
8566		-44.921875
8567		-50.781250
8568		-42.968750
8569		-48.828125
8570		-42.968750
8571		-46.875000
8572		-44.921875
8573		-48.828125
8574		-41.015625
8575		-46.875000
8576		-41.015625
8577		-46.875000
8578		-41.015625
8579		-44.921875
8580		-39.062500
8581		-44.921875
8582		-39.062500
8583		-42.968750
8584		-37.109375
8585		-42.968750
8586		-37.109375
8587		-41.015625
8588		-37.109375
8589		-41.015625
8590		-37.109375
8591		-41.015625
8592		-35.156250
8593		-41.015625
8594		-33.203125
8595		-41.015625
8596		-33.203125
8597		-39.062500
8598		-33.203125
8599		-37.109375
8600		-31.250000
8601		-35.156250
8602		-31.250000
8603		-33.203125
8604		-31.250000
8605		-33.203125
8606		-29.296875
8607		-33.203125
8608		-27.343750
8609		-33.203125
8610		-27.343750
8611		-31.250000
8612		-25.390625
8613		-31.250000
8614		-25.390625
8615		-31.250000
8616		-25.390625
8617		-29.296875
8618		-23.437500
8619		-29.296875
8620		-23.437500
8621		-25.390625
8622		-23.437500
8623		-27.343750
8624		-19.531250
8625		-27.343750
8626		-19.531250
8627		-25.390625
8628		-17.578125
8629		-21.484375
8630		-17.578125
8631		-21.484375
8632		-15.625000
8633		-21.484375
8634		-15.625000
8635		-21.484375
8636		-15.625000
8637		-19.531250
8638		-13.671875
8639		-17.578125
8640		-11.718750
8641		-17.578125
8642		-11.718750
8643		-17.578125
8644		-9.765625
8645		-15.625000
8646		-9.765625
8647		-13.671875
8648		-7.812500
8649		-13.671875
8650		-7.812500
8651		-13.671875
8652		-5.859375
8653		-11.718750
8654		-5.859375
8655		-9.765625
8656		-5.859375
8657		-9.765625
8658		-3.906250
8659		-9.765625
8660		-1.953125
8661		-7.812500
8662		-1.953125
8663		-5.859375
8664		0.000000
8665		-5.859375
8666		1.953125
8667		-3.906250
8668		1.953125
8669		-3.906250
8670		1.953125
8671		-1.953125
8672		1.953125
8673		0.000000
8674		3.906250
8675		0.000000
8676		5.859375
8677		0.000000
8678		7.812500
8679		1.953125
8680		7.812500
8681		1.953125
8682		7.812500
8683		3.906250
8684		9.765625
8685		3.906250
8686		11.718750
8687		7.812500
8688		11.718750
8689		7.812500
8690		11.718750
8691		7.812500
8692		13.671875
8693		7.812500
8694		15.625000
8695		9.765625
8696		15.625000
8697		9.765625
8698		15.625000
8699		11.718750
8700		17.578125
8701		11.718750
8702		19.531250
8703		13.671875
8704		19.531250
8705		15.625000
8706		19.531250
8707		15.625000
8708		21.484375
8709		15.625000
8710		21.484375
8711		15.625000
8712		23.437500
8713		17.578125
8714		23.437500
8715		19.531250
8716		25.390625
8717		19.531250
8718		25.390625
8719		19.531250
8720		27.343750
8721		23.437500
8722		25.390625
8723		23.437500
8724		27.343750
8725		23.437500
8726		29.296875
8727		23.437500
8728		31.250000
8729		23.437500
8730		31.250000
8731		25.390625
8732		31.250000
8733		25.390625
8734		33.203125
8735		27.343750
8736		33.203125
8737		29.296875
8738		33.203125
8739		31.250000
8740		35.156250
8741		31.250000
8742		37.109375
8743		31.250000
8744		37.109375
8745		31.250000
8746		39.062500
8747		33.203125
8748		39.062500
8749		33.203125
8750		41.015625
8751		35.156250
8752		41.015625
8753		35.156250
8754		41.015625
8755		37.109375
8756		41.015625
8757		39.062500
8758		42.968750
8759		37.109375
8760		44.921875
8761		37.109375
8762		44.921875
8763		39.062500
8764		44.921875
8765		39.062500
8766		44.921875
8767		39.062500
8768		46.875000
8769		41.015625
8770		46.875000
8771		42.968750
8772		44.921875
8773		44.921875
8774		46.875000
8775		42.968750
8776		48.828125
8777		42.968750
8778		50.781250
8779		44.921875
8780		50.781250
8781		44.921875
8782		50.781250
8783		44.921875
8784		50.781250
8785		44.921875
8786		52.734375
8787		46.875000
8788		52.734375
8789		48.828125
8790		50.781250
8791		48.828125
8792		52.734375
8793		48.828125
8794		54.687500
8795		46.875000
8796		54.687500
8797		48.828125
8798		54.687500
8799		48.828125
8800		54.687500
8801		48.828125
8802		56.640625
8803		50.781250
8804		56.640625
8805		52.734375
8806		54.687500
8807		50.781250
8808		56.640625
8809		50.781250
8810		58.593750
8811		50.781250
8812		58.593750
8813		52.734375
8814		58.593750
8815		50.781250
8816		58.593750
8817		52.734375
8818		58.593750
8819		52.734375
8820		58.593750
8821		54.687500
8822		60.546875
8823		54.687500
8824		58.593750
8825		52.734375
8826		60.546875
8827		52.734375
8828		60.546875
8829		54.687500
8830		60.546875
8831		54.687500
8832		62.500000
8833		54.687500
8834		60.546875
8835		54.687500
8836		60.546875
8837		56.640625
8838		62.500000
8839		56.640625
8840		60.546875
8841		56.640625
8842		60.546875
8843		54.687500
8844		62.500000
8845		56.640625
8846		62.500000
8847		54.687500
8848		62.500000
8849		56.640625
8850		62.500000
8851		56.640625
8852		62.500000
8853		54.687500
8854		62.500000
8855		58.593750
8856		60.546875
8857		58.593750
8858		62.500000
8859		56.640625
8860		62.500000
8861		56.640625
8862		62.500000
8863		56.640625
8864		62.500000
8865		56.640625
8866		62.500000
8867		56.640625
8868		62.500000
8869		56.640625
8870		62.500000
8871		54.687500
8872		62.500000
8873		58.593750
8874		62.500000
8875		56.640625
8876		62.500000
8877		54.687500
8878		62.500000
8879		54.687500
8880		62.500000
8881		54.687500
8882		62.500000
8883		54.687500
8884		60.546875
8885		54.687500
8886		62.500000
8887		54.687500
8888		60.546875
8889		56.640625
8890		60.546875
8891		56.640625
8892		58.593750
8893		54.687500
8894		60.546875
8895		52.734375
8896		60.546875
8897		52.734375
8898		60.546875
8899		52.734375
8900		58.593750
8901		52.734375
8902		58.593750
8903		52.734375
8904		58.593750
8905		52.734375
8906		58.593750
8907		52.734375
8908		56.640625
8909		50.781250
8910		56.640625
8911		50.781250
8912		56.640625
8913		50.781250
8914		56.640625
8915		48.828125
8916		56.640625
8917		48.828125
8918		56.640625
8919		48.828125
8920		54.687500
8921		48.828125
8922		54.687500
8923		48.828125
8924		52.734375
8925		48.828125
8926		52.734375
8927		46.875000
8928		52.734375
8929		46.875000
8930		52.734375
8931		46.875000
8932		50.781250
8933		44.921875
8934		50.781250
8935		44.921875
8936		50.781250
8937		42.968750
8938		50.781250
8939		44.921875
8940		48.828125
8941		44.921875
8942		46.875000
8943		42.968750
8944		48.828125
8945		41.015625
8946		48.828125
8947		41.015625
8948		46.875000
8949		41.015625
8950		46.875000
8951		39.062500
8952		44.921875
8953		39.062500
8954		44.921875
8955		39.062500
8956		44.921875
8957		39.062500
8958		41.015625
8959		35.156250
8960		42.968750
8961		35.156250
8962		42.968750
8963		35.156250
8964		41.015625
8965		35.156250
8966		41.015625
8967		33.203125
8968		41.015625
8969		31.250000
8970		39.062500
8971		31.250000
8972		39.062500
8973		33.203125
8974		37.109375
8975		31.250000
8976		35.156250
8977		29.296875
8978		35.156250
8979		29.296875
8980		35.156250
8981		27.343750
8982		33.203125
8983		27.343750
8984		33.203125
8985		25.390625
8986		33.203125
8987		25.390625
8988		31.250000
8989		25.390625
8990		29.296875
8991		25.390625
8992		27.343750
8993		21.484375
8994		27.343750
8995		23.437500
8996		27.343750
8997		19.531250
8998		27.343750
8999		19.531250
9000		25.390625
9001		17.578125
9002		25.390625
9003		17.578125
9004		23.437500
9005		17.578125
9006		23.437500
9007		17.578125
9008		19.531250
9009		17.578125
9010		19.531250
9011		11.718750
9012		21.484375
9013		11.718750
9014		19.531250
9015		11.718750
9016		17.578125
9017		9.765625
9018		17.578125
9019		9.765625
9020		17.578125
9021		7.812500
9022		15.625000
9023		9.765625
9024		13.671875
9025		9.765625
9026		11.718750
9027		5.859375
9028		13.671875
9029		3.906250
9030		11.718750
9031		3.906250
9032		9.765625
9033		3.906250
9034		9.765625
9035		1.953125
9036		7.812500
9037		0.000000
9038		7.812500
9039		0.000000
9040		5.859375
9041		0.000000
9042		3.906250
9043		-1.953125
9044		3.906250
9045		-1.953125
9046		3.906250
9047		-3.906250
9048		1.953125
9049		-5.859375
9050		0.000000
9051		-7.812500
9052		0.000000
9053		-7.812500
9054		-1.953125
9055		-7.812500
9056		-1.953125
9057		-7.812500
9058		-3.906250
9059		-9.765625
9060		-5.859375
9061		-11.718750
9062		-3.906250
9063		-11.718750
9064		-5.859375
9065		-13.671875
9066		-7.812500
9067		-15.625000
9068		-7.812500
9069		-15.625000
9070		-9.765625
9071		-17.578125
9072		-9.765625
9073		-17.578125
9074		-11.718750
9075		-17.578125
9076		-13.671875
9077		-19.531250
9078		-13.671875
9079		-21.484375
9080		-13.671875
9081		-21.484375
9082		-15.625000
9083		-21.484375
9084		-15.625000
9085		-23.437500
9086		-17.578125
9087		-25.390625
9088		-17.578125
9089		-25.390625
9090		-19.531250
9091		-25.390625
9092		-21.484375
9093		-25.390625
9094		-23.437500
9095		-29.296875
9096		-21.484375
9097		-29.296875
9098		-23.437500
9099		-31.250000
9100		-23.437500
9101		-31.250000
9102		-25.390625
9103		-31.250000
9104		-25.390625
9105		-33.203125
9106		-27.343750
9107		-33.203125
9108		-29.296875
9109		-33.203125
9110		-29.296875
9111		-35.156250
9112		-29.296875
9113		-37.109375
9114		-29.296875
9115		-37.109375
9116		-31.250000
9117		-39.062500
9118		-31.250000
9119		-39.062500
9120		-31.250000
9121		-39.062500
9122		-33.203125
9123		-39.062500
9124		-35.156250
9125		-41.015625
9126		-35.156250
9127		-41.015625
9128		-37.109375
9129		-42.968750
9130		-37.109375
9131		-44.921875
9132		-39.062500
9133		-44.921875
9134		-39.062500
9135		-46.875000
9136		-39.062500
9137		-46.875000
9138		-41.015625
9139		-46.875000
9140		-41.015625
9141		-46.875000
9142		-42.968750
9143		-46.875000
9144		-44.921875
9145		-50.781250
9146		-42.968750
9147		-50.781250
9148		-42.968750
9149		-50.781250
9150		-44.921875
9151		-50.781250
9152		-44.921875
9153		-52.734375
9154		-44.921875
9155		-52.734375
9156		-44.921875
9157		-52.734375
9158		-46.875000
9159		-52.734375
9160		-48.828125
9161		-54.687500
9162		-46.875000
9163		-54.687500
9164		-48.828125
9165		-56.640625
9166		-48.828125
9167		-56.640625
9168		-48.828125
9169		-56.640625
9170		-50.781250
9171		-56.640625
9172		-50.781250
9173		-56.640625
9174		-50.781250
9175		-56.640625
9176		-52.734375
9177		-56.640625
9178		-52.734375
9179		-58.593750
9180		-52.734375
9181		-58.593750
9182		-52.734375
9183		-60.546875
9184		-52.734375
9185		-60.546875
9186		-52.734375
9187		-60.546875
9188		-54.687500
9189		-60.546875
9190		-54.687500
9191		-60.546875
9192		-54.687500
9193		-58.593750
9194		-56.640625
9195		-62.500000
9196		-56.640625
9197		-62.500000
9198		-56.640625
9199		-62.500000
9200		-54.687500
9201		-62.500000
9202		-54.687500
9203		-62.500000
9204		-54.687500
9205		-62.500000
9206		-56.640625
9207		-62.500000
9208		-56.640625
9209		-62.500000
9210		-58.593750
9211		-62.500000
9212		-58.593750
9213		-64.453125
9214		-56.640625
9215		-62.500000
9216		-56.640625
9217		-64.453125
9218		-56.640625
9219		-64.453125
9220		-56.640625
9221		-62.500000
9222		-56.640625
9223		-64.453125
9224		-56.640625
9225		-62.500000
9226		-58.593750
9227		-60.546875
9228		-58.593750
9229		-64.453125
9230		-56.640625
9231		-62.500000
9232		-56.640625
9233		-64.453125
9234		-56.640625
9235		-62.500000
9236		-56.640625
9237		-62.500000
9238		-56.640625
9239		-62.500000
9240		-56.640625
9241		-62.500000
9242		-56.640625
9243		-60.546875
9244		-58.593750
9245		-62.500000
9246		-56.640625
9247		-62.500000
9248		-56.640625
9249		-62.500000
9250		-56.640625
9251		-62.500000
9252		-54.687500
9253		-62.500000
9254		-54.687500
9255		-60.546875
9256		-54.687500
9257		-60.546875
9258		-52.734375
9259		-58.593750
9260		-56.640625
9261		-58.593750
9262		-54.687500
9263		-60.546875
9264		-52.734375
9265		-60.546875
9266		-52.734375
9267		-58.593750
9268		-52.734375
9269		-58.593750
9270		-52.734375
9271		-58.593750
9272		-52.734375
9273		-58.593750
9274		-50.781250
9275		-56.640625
9276		-52.734375
9277		-54.687500
9278		-50.781250
9279		-56.640625
9280		-50.781250
9281		-56.640625
9282		-48.828125
9283		-56.640625
9284		-48.828125
9285		-54.687500
9286		-48.828125
9287		-54.687500
9288		-48.828125
9289		-54.687500
9290		-46.875000
9291		-52.734375
9292		-46.875000
9293		-52.734375
9294		-48.828125
9295		-50.781250
9296		-46.875000
9297		-52.734375
9298		-44.921875
9299		-50.781250
9300		-44.921875
9301		-50.781250
9302		-42.968750
9303		-48.828125
9304		-42.968750
9305		-48.828125
9306		-42.968750
9307		-48.828125
9308		-41.015625
9309		-44.921875
9310		-42.968750
9311		-44.921875
9312		-42.968750
9313		-46.875000
9314		-39.062500
9315		-44.921875
9316		-39.062500
9317		-44.921875
9318		-37.109375
9319		-44.921875
9320		-37.109375
9321		-42.968750
9322		-35.156250
9323		-42.968750
9324		-35.156250
9325		-41.015625
9326		-35.156250
9327		-39.062500
9328		-35.156250
9329		-39.062500
9330		-33.203125
9331		-39.062500
9332		-31.250000
9333		-37.109375
9334		-31.250000
9335		-37.109375
9336		-29.296875
9337		-37.109375
9338		-29.296875
9339		-35.156250
9340		-27.343750
9341		-35.156250
9342		-27.343750
9343		-33.203125
9344		-29.296875
9345		-31.250000
9346		-25.390625
9347		-31.250000
9348		-25.390625
9349		-31.250000
9350		-25.390625
9351		-29.296875
9352		-23.437500
9353		-29.296875
9354		-23.437500
9355		-27.343750
9356		-21.484375
9357		-27.343750
9358		-21.484375
9359		-25.390625
9360		-21.484375
9361		-23.437500
9362		-21.484375
9363		-23.437500
9364		-17.578125
9365		-23.437500
9366		-17.578125
9367		-23.437500
9368		-15.625000
9369		-21.484375
9370		-15.625000
9371		-19.531250
9372		-13.671875
9373		-19.531250
9374		-13.671875
9375		-19.531250
9376		-11.718750
9377		-15.625000
9378		-13.671875
9379		-13.671875
9380		-11.718750
9381		-15.625000
9382		-9.765625
9383		-15.625000
9384		-7.812500
9385		-13.671875
9386		-5.859375
9387		-13.671875
9388		-5.859375
9389		-11.718750
9390		-3.906250
9391		-9.765625
9392		-3.906250
9393		-7.812500
9394		-3.906250
9395		-5.859375
9396		-3.906250
9397		-5.859375
9398		-1.953125
9399		-5.859375
9400		0.000000
9401		-5.859375
9402		0.000000
9403		-3.906250
9404		3.906250
9405		-1.953125
9406		3.906250
9407		-1.953125
9408		3.906250
9409		-1.953125
9410		5.859375
9411		1.953125
9412		3.906250
9413		1.953125
9414		7.812500
9415		0.000000
9416		9.765625
9417		1.953125
9418		9.765625
9419		3.906250
9420		11.718750
9421		5.859375
9422		11.718750
9423		5.859375
9424		11.718750
9425		7.812500
9426		13.671875
9427		9.765625
9428		11.718750
9429		11.718750
9430		13.671875
9431		9.765625
9432		15.625000
9433		11.718750
9434		17.578125
9435		11.718750
9436		19.531250
9437		13.671875
9438		19.531250
9439		13.671875
9440		21.484375
9441		15.625000
9442		21.484375
9443		17.578125
9444		21.484375
9445		17.578125
9446		23.437500
9447		17.578125
9448		23.437500
9449		19.531250
9450		25.390625
9451		19.531250
9452		27.343750
9453		19.531250
9454		27.343750
9455		21.484375
9456		27.343750
9457		21.484375
9458		29.296875
9459		23.437500
9460		29.296875
9461		25.390625
9462		29.296875
9463		27.343750
9464		29.296875
9465		25.390625
9466		31.250000
9467		27.343750
9468		33.203125
9469		27.343750
9470		35.156250
9471		29.296875
9472		35.156250
9473		29.296875
9474		35.156250
9475		29.296875
9476		37.109375
9477		33.203125
9478		37.109375
9479		33.203125
9480		37.109375
9481		33.203125
9482		39.062500
9483		33.203125
9484		39.062500
9485		33.203125
9486		41.015625
9487		33.203125
9488		41.015625
9489		37.109375
9490		42.968750
9491		37.109375
9492		42.968750
9493		37.109375
9494		42.968750
9495		39.062500
9496		42.968750
9497		39.062500
9498		44.921875
9499		41.015625
9500		44.921875
9501		41.015625
9502		46.875000
9503		41.015625
9504		46.875000
9505		41.015625
9506		46.875000
9507		41.015625
9508		48.828125
9509		42.968750
9510		48.828125
9511		44.921875
9512		48.828125
9513		44.921875
9514		48.828125
9515		44.921875
9516		50.781250
9517		44.921875
9518		50.781250
9519		44.921875
9520		52.734375
9521		44.921875
9522		52.734375
9523		46.875000
9524		52.734375
9525		46.875000
9526		52.734375
9527		46.875000
9528		52.734375
9529		50.781250
9530		52.734375
9531		48.828125
9532		54.687500
9533		48.828125
9534		54.687500
9535		48.828125
9536		56.640625
9537		50.781250
9538		56.640625
9539		50.781250
9540		56.640625
9541		50.781250
9542		56.640625
9543		50.781250
9544		56.640625
9545		52.734375
9546		56.640625
9547		54.687500
9548		56.640625
9549		52.734375
9550		58.593750
9551		52.734375
9552		58.593750
9553		52.734375
9554		58.593750
9555		52.734375
9556		58.593750
9557		54.687500
9558		58.593750
9559		52.734375
9560		60.546875
9561		54.687500
9562		60.546875
9563		54.687500
9564		58.593750
9565		54.687500
9566		60.546875
9567		54.687500
9568		60.546875
9569		54.687500
9570		60.546875
9571		54.687500
9572		60.546875
9573		54.687500
9574		60.546875
9575		56.640625
9576		60.546875
9577		54.687500
9578		60.546875
9579		56.640625
9580		60.546875
9581		56.640625
9582		62.500000
9583		54.687500
9584		62.500000
9585		56.640625
9586		62.500000
9587		56.640625
9588		62.500000
9589		54.687500
9590		62.500000
9591		54.687500
9592		62.500000
9593		54.687500
9594		62.500000
9595		56.640625
9596		60.546875
9597		56.640625
9598		60.546875
9599		54.687500
9600		62.500000
9601		54.687500
9602		62.500000
9603		54.687500
9604		62.500000
9605		54.687500
9606		60.546875
9607		54.687500
9608		62.500000
9609		54.687500
9610		60.546875
9611		54.687500
9612		60.546875
9613		56.640625
9614		58.593750
9615		54.687500
9616		60.546875
9617		54.687500
9618		60.546875
9619		54.687500
9620		60.546875
9621		54.687500
9622		60.546875
9623		52.734375
9624		60.546875
9625		52.734375
9626		58.593750
9627		52.734375
9628		60.546875
9629		54.687500
9630		56.640625
9631		52.734375
9632		58.593750
9633		52.734375
9634		58.593750
9635		52.734375
9636		58.593750
9637		50.781250
9638		58.593750
9639		50.781250
9640		58.593750
9641		50.781250
9642		56.640625
9643		50.781250
9644		56.640625
9645		50.781250
9646		54.687500
9647		50.781250
9648		54.687500
9649		48.828125
9650		54.687500
9651		48.828125
9652		54.687500
9653		48.828125
9654		54.687500
9655		46.875000
9656		54.687500
9657		46.875000
9658		52.734375
9659		46.875000
9660		52.734375
9661		46.875000
9662		52.734375
9663		44.921875
9664		52.734375
9665		44.921875
9666		50.781250
9667		44.921875
9668		48.828125
9669		44.921875
9670		50.781250
9671		42.968750
9672		48.828125
9673		42.968750
9674		48.828125
9675		42.968750
9676		46.875000
9677		41.015625
9678		46.875000
9679		41.015625
9680		44.921875
9681		41.015625
9682		44.921875
9683		39.062500
9684		44.921875
9685		39.062500
9686		44.921875
9687		37.109375
9688		44.921875
9689		37.109375
9690		42.968750
9691		33.203125
9692		42.968750
9693		35.156250
9694		41.015625
9695		35.156250
9696		41.015625
9697		35.156250
9698		39.062500
9699		33.203125
9700		39.062500
9701		31.250000
9702		39.062500
9703		31.250000
9704		37.109375
9705		31.250000
9706		37.109375
9707		29.296875
9708		37.109375
9709		29.296875
9710		35.156250
9711		27.343750
9712		35.156250
9713		29.296875
9714		33.203125
9715		27.343750
9716		31.250000
9717		25.390625
9718		31.250000
9719		23.437500
9720		31.250000
9721		23.437500
9722		29.296875
9723		23.437500
9724		29.296875
9725		21.484375
9726		29.296875
9727		21.484375
9728		29.296875
9729		21.484375
9730		25.390625
9731		21.484375
9732		23.437500
9733		17.578125
9734		23.437500
9735		17.578125
9736		25.390625
9737		15.625000
9738		23.437500
9739		15.625000
9740		21.484375
9741		15.625000
9742		19.531250
9743		13.671875
9744		19.531250
9745		13.671875
9746		19.531250
9747		13.671875
9748		15.625000
9749		9.765625
9750		15.625000
9751		9.765625
9752		15.625000
9753		9.765625
9754		15.625000
9755		7.812500
9756		13.671875
9757		5.859375
9758		13.671875
9759		3.906250
9760		11.718750
9761		3.906250
9762		11.718750
9763		5.859375
9764		7.812500
9765		3.906250
9766		7.812500
9767		0.000000
9768		7.812500
9769		0.000000
9770		7.812500
9771		0.000000
9772		5.859375
9773		-1.953125
9774		5.859375
9775		-3.906250
9776		3.906250
9777		-3.906250
9778		1.953125
9779		-3.906250
9780		1.953125
9781		-3.906250
9782		0.000000
9783		-5.859375
9784		-1.953125
9785		-7.812500
9786		-1.953125
9787		-9.765625
9788		-1.953125
9789		-9.765625
9790		-1.953125
9791		-9.765625
9792		-3.906250
9793		-11.718750
9794		-5.859375
9795		-11.718750
9796		-7.812500
9797		-11.718750
9798		-9.765625
9799		-13.671875
9800		-9.765625
9801		-15.625000
9802		-9.765625
9803		-17.578125
9804		-9.765625
9805		-17.578125
9806		-11.718750
9807		-19.531250
9808		-11.718750
9809		-19.531250
9810		-13.671875
9811		-21.484375
9812		-13.671875
9813		-19.531250
9814		-15.625000
9815		-21.484375
9816		-17.578125
9817		-23.437500
9818		-19.531250
9819		-25.390625
9820		-17.578125
9821		-25.390625
9822		-19.531250
9823		-27.343750
9824		-19.531250
9825		-27.343750
9826		-21.484375
9827		-29.296875
9828		-21.484375
9829		-29.296875
9830		-23.437500
9831		-29.296875
9832		-25.390625
9833		-31.250000
9834		-27.343750
9835		-33.203125
9836		-25.390625
9837		-31.250000
9838		-27.343750
9839		-33.203125
9840		-27.343750
9841		-35.156250
9842		-29.296875
9843		-37.109375
9844		-29.296875
9845		-37.109375
9846		-29.296875
9847		-35.156250
9848		-31.250000
9849		-37.109375
9850		-33.203125
9851		-41.015625
9852		-33.203125
9853		-41.015625
9854		-33.203125
9855		-41.015625
9856		-35.156250
9857		-41.015625
9858		-35.156250
9859		-42.968750
9860		-37.109375
9861		-42.968750
9862		-39.062500
9863		-42.968750
9864		-39.062500
9865		-42.968750
9866		-41.015625
9867		-42.968750
9868		-41.015625
9869		-46.875000
9870		-41.015625
9871		-46.875000
9872		-41.015625
9873		-46.875000
9874		-41.015625
9875		-48.828125
9876		-42.968750
9877		-48.828125
9878		-42.968750
9879		-48.828125
9880		-44.921875
9881		-48.828125
9882		-46.875000
9883		-48.828125
9884		-46.875000
9885		-50.781250
9886		-46.875000
9887		-52.734375
9888		-46.875000
9889		-52.734375
9890		-46.875000
9891		-54.687500
9892		-46.875000
9893		-54.687500
9894		-46.875000
9895		-54.687500
9896		-48.828125
9897		-54.687500
9898		-50.781250
9899		-54.687500
9900		-50.781250
9901		-56.640625
9902		-50.781250
9903		-56.640625
9904		-50.781250
9905		-56.640625
9906		-50.781250
9907		-58.593750
9908		-52.734375
9909		-58.593750
9910		-52.734375
9911		-58.593750
9912		-52.734375
9913		-58.593750
9914		-52.734375
9915		-58.593750
9916		-54.687500
9917		-58.593750
9918		-54.687500
9919		-60.546875
9920		-54.687500
9921		-60.546875
9922		-54.687500
9923		-60.546875
9924		-54.687500
9925		-62.500000
9926		-54.687500
9927		-62.500000
9928		-54.687500
9929		-62.500000
9930		-56.640625
9931		-60.546875
9932		-58.593750
9933		-60.546875
9934		-56.640625
9935		-62.500000
9936		-56.640625
9937		-62.500000
9938		-56.640625
9939		-62.500000
9940		-56.640625
9941		-64.453125
9942		-56.640625
9943		-64.453125
9944		-56.640625
9945		-64.453125
9946		-58.593750
9947		-62.500000
9948		-58.593750
9949		-62.500000
9950		-58.593750
9951		-62.500000
9952		-58.593750
9953		-62.500000
9954		-58.593750
9955		-62.500000
9956		-58.593750
9957		-64.453125
9958		-58.593750
9959		-64.453125
9960		-58.593750
9961		-62.500000
9962		-58.593750
9963		-62.500000
9964		-58.593750
9965		-62.500000
9966		-58.593750
9967		-62.500000
9968		-60.546875
9969		-62.500000
9970		-58.593750
9971		-62.500000
9972		-58.593750
9973		-62.500000
9974		-58.593750
9975		-64.453125
9976		-56.640625
9977		-60.546875
9978		-58.593750
9979		-62.500000
9980		-58.593750
9981		-60.546875
9982		-58.593750
9983		-60.546875
9984		-58.593750
9985		-62.500000
9986		-56.640625
9987		-60.546875
9988		-58.593750
9989		-60.546875
9990		-56.640625
9991		-60.546875
9992		-54.687500
9993		-62.500000
9994		-56.640625
9995		-60.546875
9996		-54.687500
9997		-60.546875
9998		-56.640625
9999		-58.593750
10000		-54.687500
