Channel              :		CH1
Frequency            :		682.1Hz
Period               :		1.466ms
PK-PK                :		138.7mV
Probe attenuation    :		1X
Voltage per ADC value:		0.122070mV
Time interval        :		2.00000us

index		CH1_Voltage(mV)
1		52.734375
2		52.734375
3		58.593750
4		52.734375
5		60.546875
6		52.734375
7		60.546875
8		56.640625
9		58.593750
10		56.640625
11		58.593750
12		54.687500
13		60.546875
14		56.640625
15		62.500000
16		56.640625
17		62.500000
18		56.640625
19		62.500000
20		56.640625
21		64.453125
22		56.640625
23		62.500000
24		56.640625
25		62.500000
26		58.593750
27		62.500000
28		58.593750
29		62.500000
30		56.640625
31		64.453125
32		58.593750
33		64.453125
34		58.593750
35		64.453125
36		58.593750
37		64.453125
38		58.593750
39		64.453125
40		58.593750
41		64.453125
42		60.546875
43		64.453125
44		60.546875
45		64.453125
46		60.546875
47		66.406250
48		58.593750
49		66.406250
50		58.593750
51		66.406250
52		60.546875
53		66.406250
54		58.593750
55		66.406250
56		60.546875
57		66.406250
58		60.546875
59		64.453125
60		62.500000
61		64.453125
62		60.546875
63		66.406250
64		58.593750
65		66.406250
66		58.593750
67		66.406250
68		58.593750
69		66.406250
70		58.593750
71		66.406250
72		58.593750
73		64.453125
74		58.593750
75		66.406250
76		60.546875
77		62.500000
78		60.546875
79		62.500000
80		58.593750
81		64.453125
82		58.593750
83		64.453125
84		58.593750
85		64.453125
86		56.640625
87		64.453125
88		56.640625
89		64.453125
90		56.640625
91		64.453125
92		58.593750
93		62.500000
94		58.593750
95		60.546875
96		54.687500
97		62.500000
98		56.640625
99		62.500000
100		54.687500
101		62.500000
102		54.687500
103		62.500000
104		54.687500
105		60.546875
106		54.687500
107		60.546875
108		54.687500
109		60.546875
110		54.687500
111		58.593750
112		54.687500
113		58.593750
114		52.734375
115		58.593750
116		50.781250
117		58.593750
118		50.781250
119		58.593750
120		50.781250
121		56.640625
122		50.781250
123		56.640625
124		50.781250
125		56.640625
126		50.781250
127		54.687500
128		50.781250
129		52.734375
130		48.828125
131		54.687500
132		46.875000
133		54.687500
134		46.875000
135		52.734375
136		46.875000
137		52.734375
138		44.921875
139		52.734375
140		44.921875
141		52.734375
142		44.921875
143		50.781250
144		44.921875
145		48.828125
146		42.968750
147		48.828125
148		42.968750
149		48.828125
150		42.968750
151		48.828125
152		41.015625
153		46.875000
154		39.062500
155		46.875000
156		39.062500
157		44.921875
158		39.062500
159		44.921875
160		39.062500
161		41.015625
162		37.109375
163		41.015625
164		35.156250
165		42.968750
166		35.156250
167		41.015625
168		33.203125
169		41.015625
170		33.203125
171		39.062500
172		31.250000
173		39.062500
174		31.250000
175		37.109375
176		31.250000
177		35.156250
178		31.250000
179		35.156250
180		27.343750
181		33.203125
182		27.343750
183		33.203125
184		27.343750
185		33.203125
186		25.390625
187		33.203125
188		23.437500
189		31.250000
190		23.437500
191		29.296875
192		23.437500
193		29.296875
194		23.437500
195		25.390625
196		21.484375
197		25.390625
198		19.531250
199		25.390625
200		17.578125
201		25.390625
202		17.578125
203		23.437500
204		15.625000
205		23.437500
206		15.625000
207		21.484375
208		15.625000
209		19.531250
210		13.671875
211		17.578125
212		13.671875
213		17.578125
214		11.718750
215		17.578125
216		9.765625
217		15.625000
218		7.812500
219		15.625000
220		7.812500
221		13.671875
222		5.859375
223		13.671875
224		3.906250
225		11.718750
226		3.906250
227		11.718750
228		3.906250
229		7.812500
230		1.953125
231		7.812500
232		0.000000
233		7.812500
234		0.000000
235		5.859375
236		0.000000
237		5.859375
238		-1.953125
239		3.906250
240		-3.906250
241		1.953125
242		-5.859375
243		1.953125
244		-3.906250
245		0.000000
246		-5.859375
247		-1.953125
248		-9.765625
249		-1.953125
250		-9.765625
251		-3.906250
252		-11.718750
253		-3.906250
254		-11.718750
255		-5.859375
256		-11.718750
257		-5.859375
258		-13.671875
259		-5.859375
260		-13.671875
261		-9.765625
262		-13.671875
263		-11.718750
264		-15.625000
265		-11.718750
266		-17.578125
267		-11.718750
268		-19.531250
269		-13.671875
270		-21.484375
271		-13.671875
272		-21.484375
273		-15.625000
274		-21.484375
275		-17.578125
276		-21.484375
277		-15.625000
278		-23.437500
279		-19.531250
280		-25.390625
281		-19.531250
282		-27.343750
283		-21.484375
284		-27.343750
285		-21.484375
286		-29.296875
287		-23.437500
288		-31.250000
289		-23.437500
290		-31.250000
291		-25.390625
292		-31.250000
293		-25.390625
294		-31.250000
295		-29.296875
296		-33.203125
297		-29.296875
298		-37.109375
299		-29.296875
300		-37.109375
301		-29.296875
302		-37.109375
303		-31.250000
304		-37.109375
305		-31.250000
306		-39.062500
307		-33.203125
308		-41.015625
309		-35.156250
310		-41.015625
311		-35.156250
312		-41.015625
313		-37.109375
314		-42.968750
315		-37.109375
316		-44.921875
317		-37.109375
318		-44.921875
319		-39.062500
320		-44.921875
321		-39.062500
322		-44.921875
323		-41.015625
324		-48.828125
325		-41.015625
326		-48.828125
327		-42.968750
328		-48.828125
329		-44.921875
330		-48.828125
331		-46.875000
332		-50.781250
333		-44.921875
334		-52.734375
335		-44.921875
336		-52.734375
337		-46.875000
338		-54.687500
339		-46.875000
340		-54.687500
341		-48.828125
342		-54.687500
343		-48.828125
344		-54.687500
345		-50.781250
346		-54.687500
347		-52.734375
348		-56.640625
349		-50.781250
350		-58.593750
351		-50.781250
352		-58.593750
353		-52.734375
354		-60.546875
355		-52.734375
356		-60.546875
357		-54.687500
358		-62.500000
359		-54.687500
360		-60.546875
361		-54.687500
362		-60.546875
363		-58.593750
364		-62.500000
365		-56.640625
366		-64.453125
367		-56.640625
368		-64.453125
369		-56.640625
370		-62.500000
371		-58.593750
372		-64.453125
373		-58.593750
374		-66.406250
375		-58.593750
376		-66.406250
377		-58.593750
378		-64.453125
379		-62.500000
380		-64.453125
381		-62.500000
382		-68.359375
383		-60.546875
384		-68.359375
385		-60.546875
386		-68.359375
387		-60.546875
388		-68.359375
389		-62.500000
390		-68.359375
391		-62.500000
392		-68.359375
393		-62.500000
394		-70.312500
395		-62.500000
396		-68.359375
397		-64.453125
398		-70.312500
399		-62.500000
400		-70.312500
401		-64.453125
402		-70.312500
403		-64.453125
404		-70.312500
405		-64.453125
406		-70.312500
407		-64.453125
408		-70.312500
409		-64.453125
410		-70.312500
411		-64.453125
412		-70.312500
413		-66.406250
414		-70.312500
415		-66.406250
416		-72.265625
417		-64.453125
418		-72.265625
419		-64.453125
420		-70.312500
421		-64.453125
422		-72.265625
423		-64.453125
424		-72.265625
425		-64.453125
426		-72.265625
427		-64.453125
428		-70.312500
429		-66.406250
430		-70.312500
431		-66.406250
432		-70.312500
433		-64.453125
434		-70.312500
435		-64.453125
436		-70.312500
437		-64.453125
438		-70.312500
439		-64.453125
440		-70.312500
441		-64.453125
442		-70.312500
443		-64.453125
444		-70.312500
445		-64.453125
446		-68.359375
447		-64.453125
448		-70.312500
449		-64.453125
450		-70.312500
451		-62.500000
452		-70.312500
453		-62.500000
454		-68.359375
455		-62.500000
456		-68.359375
457		-62.500000
458		-68.359375
459		-62.500000
460		-68.359375
461		-62.500000
462		-66.406250
463		-62.500000
464		-64.453125
465		-60.546875
466		-66.406250
467		-60.546875
468		-66.406250
469		-60.546875
470		-66.406250
471		-58.593750
472		-66.406250
473		-58.593750
474		-64.453125
475		-58.593750
476		-64.453125
477		-58.593750
478		-62.500000
479		-58.593750
480		-62.500000
481		-58.593750
482		-62.500000
483		-56.640625
484		-62.500000
485		-54.687500
486		-60.546875
487		-54.687500
488		-60.546875
489		-54.687500
490		-60.546875
491		-52.734375
492		-60.546875
493		-52.734375
494		-58.593750
495		-52.734375
496		-56.640625
497		-52.734375
498		-54.687500
499		-52.734375
500		-56.640625
501		-50.781250
502		-56.640625
503		-48.828125
504		-54.687500
505		-48.828125
506		-54.687500
507		-46.875000
508		-52.734375
509		-46.875000
510		-52.734375
511		-46.875000
512		-50.781250
513		-46.875000
514		-48.828125
515		-46.875000
516		-48.828125
517		-42.968750
518		-48.828125
519		-42.968750
520		-48.828125
521		-41.015625
522		-46.875000
523		-41.015625
524		-46.875000
525		-39.062500
526		-44.921875
527		-39.062500
528		-44.921875
529		-37.109375
530		-41.015625
531		-39.062500
532		-42.968750
533		-35.156250
534		-41.015625
535		-35.156250
536		-41.015625
537		-35.156250
538		-39.062500
539		-33.203125
540		-39.062500
541		-31.250000
542		-37.109375
543		-31.250000
544		-37.109375
545		-29.296875
546		-33.203125
547		-31.250000
548		-33.203125
549		-29.296875
550		-33.203125
551		-27.343750
552		-33.203125
553		-25.390625
554		-31.250000
555		-25.390625
556		-31.250000
557		-23.437500
558		-29.296875
559		-23.437500
560		-29.296875
561		-21.484375
562		-25.390625
563		-21.484375
564		-23.437500
565		-21.484375
566		-23.437500
567		-17.578125
568		-23.437500
569		-17.578125
570		-23.437500
571		-15.625000
572		-21.484375
573		-15.625000
574		-21.484375
575		-13.671875
576		-19.531250
577		-13.671875
578		-17.578125
579		-11.718750
580		-15.625000
581		-11.718750
582		-13.671875
583		-11.718750
584		-15.625000
585		-7.812500
586		-13.671875
587		-7.812500
588		-13.671875
589		-5.859375
590		-11.718750
591		-5.859375
592		-9.765625
593		-3.906250
594		-9.765625
595		-1.953125
596		-7.812500
597		-3.906250
598		-5.859375
599		-1.953125
600		-5.859375
601		0.000000
602		-5.859375
603		1.953125
604		-3.906250
605		1.953125
606		-1.953125
607		3.906250
608		-1.953125
609		5.859375
610		-1.953125
611		5.859375
612		0.000000
613		5.859375
614		3.906250
615		5.859375
616		3.906250
617		9.765625
618		3.906250
619		9.765625
620		3.906250
621		11.718750
622		5.859375
623		11.718750
624		7.812500
625		13.671875
626		7.812500
627		15.625000
628		9.765625
629		15.625000
630		11.718750
631		15.625000
632		11.718750
633		15.625000
634		11.718750
635		19.531250
636		13.671875
637		19.531250
638		13.671875
639		21.484375
640		15.625000
641		21.484375
642		17.578125
643		23.437500
644		17.578125
645		25.390625
646		19.531250
647		23.437500
648		21.484375
649		23.437500
650		21.484375
651		27.343750
652		21.484375
653		27.343750
654		21.484375
655		29.296875
656		23.437500
657		31.250000
658		23.437500
659		31.250000
660		25.390625
661		31.250000
662		27.343750
663		33.203125
664		29.296875
665		33.203125
666		29.296875
667		33.203125
668		29.296875
669		35.156250
670		31.250000
671		37.109375
672		31.250000
673		37.109375
674		31.250000
675		39.062500
676		33.203125
677		39.062500
678		33.203125
679		39.062500
680		35.156250
681		39.062500
682		37.109375
683		39.062500
684		35.156250
685		42.968750
686		37.109375
687		44.921875
688		37.109375
689		44.921875
690		39.062500
691		44.921875
692		41.015625
693		44.921875
694		41.015625
695		46.875000
696		41.015625
697		46.875000
698		42.968750
699		46.875000
700		42.968750
701		48.828125
702		42.968750
703		48.828125
704		42.968750
705		50.781250
706		44.921875
707		50.781250
708		44.921875
709		52.734375
710		46.875000
711		52.734375
712		46.875000
713		52.734375
714		48.828125
715		50.781250
716		48.828125
717		52.734375
718		48.828125
719		54.687500
720		50.781250
721		56.640625
722		48.828125
723		56.640625
724		50.781250
725		56.640625
726		50.781250
727		56.640625
728		52.734375
729		58.593750
730		52.734375
731		58.593750
732		54.687500
733		58.593750
734		52.734375
735		58.593750
736		54.687500
737		60.546875
738		54.687500
739		60.546875
740		54.687500
741		60.546875
742		54.687500
743		60.546875
744		54.687500
745		62.500000
746		54.687500
747		60.546875
748		56.640625
749		60.546875
750		56.640625
751		60.546875
752		56.640625
753		62.500000
754		56.640625
755		62.500000
756		58.593750
757		62.500000
758		58.593750
759		64.453125
760		58.593750
761		64.453125
762		56.640625
763		64.453125
764		58.593750
765		64.453125
766		60.546875
767		62.500000
768		58.593750
769		64.453125
770		58.593750
771		64.453125
772		58.593750
773		64.453125
774		58.593750
775		64.453125
776		58.593750
777		64.453125
778		58.593750
779		64.453125
780		60.546875
781		66.406250
782		60.546875
783		64.453125
784		60.546875
785		66.406250
786		60.546875
787		64.453125
788		58.593750
789		66.406250
790		58.593750
791		66.406250
792		58.593750
793		66.406250
794		58.593750
795		66.406250
796		58.593750
797		66.406250
798		60.546875
799		62.500000
800		60.546875
801		64.453125
802		58.593750
803		66.406250
804		58.593750
805		64.453125
806		58.593750
807		64.453125
808		58.593750
809		64.453125
810		58.593750
811		66.406250
812		58.593750
813		64.453125
814		58.593750
815		64.453125
816		60.546875
817		62.500000
818		58.593750
819		62.500000
820		58.593750
821		62.500000
822		58.593750
823		62.500000
824		56.640625
825		62.500000
826		56.640625
827		62.500000
828		56.640625
829		62.500000
830		56.640625
831		60.546875
832		56.640625
833		60.546875
834		56.640625
835		58.593750
836		54.687500
837		60.546875
838		54.687500
839		60.546875
840		52.734375
841		60.546875
842		52.734375
843		60.546875
844		52.734375
845		58.593750
846		52.734375
847		58.593750
848		52.734375
849		56.640625
850		52.734375
851		56.640625
852		50.781250
853		56.640625
854		50.781250
855		56.640625
856		48.828125
857		56.640625
858		48.828125
859		56.640625
860		48.828125
861		54.687500
862		48.828125
863		54.687500
864		46.875000
865		54.687500
866		48.828125
867		50.781250
868		46.875000
869		50.781250
870		44.921875
871		52.734375
872		44.921875
873		50.781250
874		44.921875
875		50.781250
876		42.968750
877		50.781250
878		42.968750
879		48.828125
880		41.015625
881		48.828125
882		42.968750
883		46.875000
884		42.968750
885		44.921875
886		39.062500
887		46.875000
888		39.062500
889		44.921875
890		37.109375
891		44.921875
892		37.109375
893		42.968750
894		37.109375
895		42.968750
896		35.156250
897		42.968750
898		35.156250
899		41.015625
900		35.156250
901		39.062500
902		33.203125
903		39.062500
904		31.250000
905		39.062500
906		31.250000
907		37.109375
908		29.296875
909		37.109375
910		29.296875
911		35.156250
912		27.343750
913		35.156250
914		27.343750
915		33.203125
916		27.343750
917		31.250000
918		27.343750
919		29.296875
920		23.437500
921		31.250000
922		23.437500
923		29.296875
924		23.437500
925		29.296875
926		21.484375
927		27.343750
928		19.531250
929		27.343750
930		17.578125
931		25.390625
932		19.531250
933		23.437500
934		19.531250
935		21.484375
936		17.578125
937		21.484375
938		15.625000
939		21.484375
940		13.671875
941		21.484375
942		13.671875
943		19.531250
944		11.718750
945		19.531250
946		9.765625
947		17.578125
948		9.765625
949		17.578125
950		9.765625
951		13.671875
952		9.765625
953		11.718750
954		5.859375
955		13.671875
956		5.859375
957		11.718750
958		3.906250
959		9.765625
960		3.906250
961		9.765625
962		1.953125
963		7.812500
964		1.953125
965		7.812500
966		1.953125
967		3.906250
968		0.000000
969		3.906250
970		-1.953125
971		3.906250
972		-3.906250
973		3.906250
974		-3.906250
975		1.953125
976		-5.859375
977		0.000000
978		-7.812500
979		0.000000
980		-7.812500
981		-1.953125
982		-9.765625
983		-1.953125
984		-7.812500
985		-5.859375
986		-9.765625
987		-5.859375
988		-13.671875
989		-5.859375
990		-13.671875
991		-7.812500
992		-13.671875
993		-7.812500
994		-15.625000
995		-9.765625
996		-17.578125
997		-9.765625
998		-17.578125
999		-11.718750
1000		-17.578125
1001		-13.671875
1002		-17.578125
1003		-15.625000
1004		-21.484375
1005		-15.625000
1006		-23.437500
1007		-15.625000
1008		-23.437500
1009		-17.578125
1010		-25.390625
1011		-17.578125
1012		-25.390625
1013		-19.531250
1014		-25.390625
1015		-19.531250
1016		-25.390625
1017		-21.484375
1018		-27.343750
1019		-23.437500
1020		-29.296875
1021		-23.437500
1022		-31.250000
1023		-23.437500
1024		-33.203125
1025		-25.390625
1026		-33.203125
1027		-27.343750
1028		-33.203125
1029		-27.343750
1030		-35.156250
1031		-27.343750
1032		-35.156250
1033		-29.296875
1034		-35.156250
1035		-33.203125
1036		-37.109375
1037		-33.203125
1038		-39.062500
1039		-33.203125
1040		-39.062500
1041		-33.203125
1042		-41.015625
1043		-35.156250
1044		-42.968750
1045		-35.156250
1046		-42.968750
1047		-37.109375
1048		-42.968750
1049		-37.109375
1050		-42.968750
1051		-39.062500
1052		-42.968750
1053		-41.015625
1054		-46.875000
1055		-41.015625
1056		-48.828125
1057		-41.015625
1058		-48.828125
1059		-41.015625
1060		-48.828125
1061		-42.968750
1062		-50.781250
1063		-42.968750
1064		-50.781250
1065		-44.921875
1066		-50.781250
1067		-46.875000
1068		-52.734375
1069		-46.875000
1070		-54.687500
1071		-48.828125
1072		-54.687500
1073		-48.828125
1074		-56.640625
1075		-48.828125
1076		-56.640625
1077		-48.828125
1078		-56.640625
1079		-50.781250
1080		-56.640625
1081		-50.781250
1082		-58.593750
1083		-50.781250
1084		-56.640625
1085		-54.687500
1086		-58.593750
1087		-54.687500
1088		-58.593750
1089		-54.687500
1090		-60.546875
1091		-54.687500
1092		-62.500000
1093		-54.687500
1094		-62.500000
1095		-56.640625
1096		-62.500000
1097		-56.640625
1098		-62.500000
1099		-56.640625
1100		-62.500000
1101		-58.593750
1102		-62.500000
1103		-58.593750
1104		-62.500000
1105		-60.546875
1106		-64.453125
1107		-58.593750
1108		-66.406250
1109		-58.593750
1110		-66.406250
1111		-60.546875
1112		-66.406250
1113		-60.546875
1114		-66.406250
1115		-60.546875
1116		-66.406250
1117		-60.546875
1118		-66.406250
1119		-62.500000
1120		-66.406250
1121		-62.500000
1122		-68.359375
1123		-62.500000
1124		-68.359375
1125		-62.500000
1126		-68.359375
1127		-64.453125
1128		-70.312500
1129		-64.453125
1130		-70.312500
1131		-62.500000
1132		-70.312500
1133		-62.500000
1134		-68.359375
1135		-64.453125
1136		-70.312500
1137		-64.453125
1138		-68.359375
1139		-64.453125
1140		-70.312500
1141		-64.453125
1142		-70.312500
1143		-64.453125
1144		-70.312500
1145		-66.406250
1146		-70.312500
1147		-66.406250
1148		-70.312500
1149		-64.453125
1150		-70.312500
1151		-64.453125
1152		-70.312500
1153		-66.406250
1154		-70.312500
1155		-66.406250
1156		-70.312500
1157		-64.453125
1158		-72.265625
1159		-64.453125
1160		-70.312500
1161		-64.453125
1162		-72.265625
1163		-64.453125
1164		-70.312500
1165		-66.406250
1166		-72.265625
1167		-66.406250
1168		-68.359375
1169		-66.406250
1170		-70.312500
1171		-66.406250
1172		-70.312500
1173		-66.406250
1174		-70.312500
1175		-66.406250
1176		-70.312500
1177		-64.453125
1178		-70.312500
1179		-64.453125
1180		-68.359375
1181		-62.500000
1182		-70.312500
1183		-62.500000
1184		-68.359375
1185		-64.453125
1186		-66.406250
1187		-62.500000
1188		-68.359375
1189		-64.453125
1190		-68.359375
1191		-62.500000
1192		-68.359375
1193		-62.500000
1194		-68.359375
1195		-60.546875
1196		-68.359375
1197		-60.546875
1198		-66.406250
1199		-60.546875
1200		-66.406250
1201		-60.546875
1202		-64.453125
1203		-60.546875
1204		-64.453125
1205		-60.546875
1206		-64.453125
1207		-58.593750
1208		-62.500000
1209		-58.593750
1210		-62.500000
1211		-58.593750
1212		-62.500000
1213		-58.593750
1214		-60.546875
1215		-58.593750
1216		-62.500000
1217		-56.640625
1218		-60.546875
1219		-56.640625
1220		-60.546875
1221		-54.687500
1222		-58.593750
1223		-54.687500
1224		-60.546875
1225		-52.734375
1226		-58.593750
1227		-52.734375
1228		-56.640625
1229		-52.734375
1230		-56.640625
1231		-52.734375
1232		-54.687500
1233		-52.734375
1234		-56.640625
1235		-50.781250
1236		-54.687500
1237		-50.781250
1238		-52.734375
1239		-48.828125
1240		-52.734375
1241		-48.828125
1242		-50.781250
1243		-46.875000
1244		-50.781250
1245		-46.875000
1246		-48.828125
1247		-44.921875
1248		-48.828125
1249		-44.921875
1250		-46.875000
1251		-42.968750
1252		-46.875000
1253		-42.968750
1254		-46.875000
1255		-42.968750
1256		-44.921875
1257		-41.015625
1258		-44.921875
1259		-41.015625
1260		-42.968750
1261		-39.062500
1262		-42.968750
1263		-39.062500
1264		-41.015625
1265		-37.109375
1266		-41.015625
1267		-37.109375
1268		-41.015625
1269		-35.156250
1270		-39.062500
1271		-35.156250
1272		-37.109375
1273		-33.203125
1274		-37.109375
1275		-33.203125
1276		-35.156250
1277		-31.250000
1278		-35.156250
1279		-31.250000
1280		-33.203125
1281		-29.296875
1282		-33.203125
1283		-29.296875
1284		-31.250000
1285		-27.343750
1286		-31.250000
1287		-27.343750
1288		-29.296875
1289		-25.390625
1290		-29.296875
1291		-25.390625
1292		-27.343750
1293		-23.437500
1294		-25.390625
1295		-23.437500
1296		-25.390625
1297		-21.484375
1298		-23.437500
1299		-19.531250
1300		-23.437500
1301		-19.531250
1302		-23.437500
1303		-17.578125
1304		-19.531250
1305		-17.578125
1306		-19.531250
1307		-15.625000
1308		-19.531250
1309		-13.671875
1310		-17.578125
1311		-13.671875
1312		-15.625000
1313		-11.718750
1314		-15.625000
1315		-11.718750
1316		-13.671875
1317		-9.765625
1318		-13.671875
1319		-9.765625
1320		-11.718750
1321		-7.812500
1322		-9.765625
1323		-7.812500
1324		-9.765625
1325		-5.859375
1326		-7.812500
1327		-5.859375
1328		-7.812500
1329		-1.953125
1330		-5.859375
1331		-1.953125
1332		-5.859375
1333		-1.953125
1334		-3.906250
1335		0.000000
1336		-1.953125
1337		0.000000
1338		-1.953125
1339		1.953125
1340		-1.953125
1341		3.906250
1342		0.000000
1343		3.906250
1344		1.953125
1345		5.859375
1346		3.906250
1347		5.859375
1348		3.906250
1349		7.812500
1350		3.906250
1351		7.812500
1352		5.859375
1353		9.765625
1354		7.812500
1355		11.718750
1356		7.812500
1357		11.718750
1358		9.765625
1359		11.718750
1360		9.765625
1361		13.671875
1362		11.718750
1363		15.625000
1364		11.718750
1365		15.625000
1366		13.671875
1367		17.578125
1368		13.671875
1369		19.531250
1370		15.625000
1371		19.531250
1372		17.578125
1373		21.484375
1374		17.578125
1375		21.484375
1376		17.578125
1377		23.437500
1378		19.531250
1379		23.437500
1380		21.484375
1381		25.390625
1382		21.484375
1383		25.390625
1384		23.437500
1385		27.343750
1386		23.437500
1387		27.343750
1388		25.390625
1389		29.296875
1390		25.390625
1391		29.296875
1392		27.343750
1393		31.250000
1394		27.343750
1395		31.250000
1396		29.296875
1397		33.203125
1398		29.296875
1399		33.203125
1400		31.250000
1401		35.156250
1402		33.203125
1403		35.156250
1404		33.203125
1405		37.109375
1406		33.203125
1407		37.109375
1408		35.156250
1409		37.109375
1410		35.156250
1411		39.062500
1412		37.109375
1413		41.015625
1414		37.109375
1415		41.015625
1416		37.109375
1417		42.968750
1418		39.062500
1419		42.968750
1420		41.015625
1421		42.968750
1422		41.015625
1423		42.968750
1424		41.015625
1425		44.921875
1426		41.015625
1427		44.921875
1428		42.968750
1429		46.875000
1430		42.968750
1431		46.875000
1432		44.921875
1433		48.828125
1434		44.921875
1435		50.781250
1436		44.921875
1437		48.828125
1438		46.875000
1439		48.828125
1440		46.875000
1441		50.781250
1442		48.828125
1443		50.781250
1444		48.828125
1445		52.734375
1446		48.828125
1447		52.734375
1448		48.828125
1449		52.734375
1450		50.781250
1451		54.687500
1452		50.781250
1453		54.687500
1454		52.734375
1455		54.687500
1456		52.734375
1457		56.640625
1458		52.734375
1459		56.640625
1460		52.734375
1461		56.640625
1462		52.734375
1463		56.640625
1464		54.687500
1465		58.593750
1466		54.687500
1467		58.593750
1468		54.687500
1469		58.593750
1470		54.687500
1471		58.593750
1472		56.640625
1473		58.593750
1474		54.687500
1475		60.546875
1476		56.640625
1477		60.546875
1478		56.640625
1479		60.546875
1480		58.593750
1481		60.546875
1482		58.593750
1483		62.500000
1484		58.593750
1485		60.546875
1486		58.593750
1487		62.500000
1488		58.593750
1489		62.500000
1490		58.593750
1491		62.500000
1492		60.546875
1493		62.500000
1494		58.593750
1495		62.500000
1496		58.593750
1497		64.453125
1498		60.546875
1499		62.500000
1500		58.593750
1501		64.453125
1502		60.546875
1503		64.453125
1504		60.546875
1505		64.453125
1506		60.546875
1507		64.453125
1508		60.546875
1509		66.406250
1510		60.546875
1511		64.453125
1512		60.546875
1513		64.453125
1514		60.546875
1515		64.453125
1516		60.546875
1517		64.453125
1518		62.500000
1519		64.453125
1520		60.546875
1521		64.453125
1522		62.500000
1523		64.453125
1524		62.500000
1525		64.453125
1526		60.546875
1527		64.453125
1528		60.546875
1529		64.453125
1530		60.546875
1531		64.453125
1532		60.546875
1533		64.453125
1534		60.546875
1535		64.453125
1536		60.546875
1537		64.453125
1538		60.546875
1539		64.453125
1540		60.546875
1541		64.453125
1542		60.546875
1543		64.453125
1544		60.546875
1545		64.453125
1546		60.546875
1547		62.500000
1548		60.546875
1549		64.453125
1550		58.593750
1551		64.453125
1552		58.593750
1553		62.500000
1554		60.546875
1555		62.500000
1556		58.593750
1557		62.500000
1558		58.593750
1559		62.500000
1560		58.593750
1561		60.546875
1562		58.593750
1563		60.546875
1564		58.593750
1565		60.546875
1566		56.640625
1567		60.546875
1568		56.640625
1569		60.546875
1570		56.640625
1571		60.546875
1572		56.640625
1573		60.546875
1574		54.687500
1575		58.593750
1576		54.687500
1577		58.593750
1578		52.734375
1579		58.593750
1580		54.687500
1581		56.640625
1582		54.687500
1583		56.640625
1584		52.734375
1585		56.640625
1586		52.734375
1587		56.640625
1588		52.734375
1589		56.640625
1590		52.734375
1591		54.687500
1592		50.781250
1593		54.687500
1594		50.781250
1595		54.687500
1596		50.781250
1597		52.734375
1598		48.828125
1599		52.734375
1600		48.828125
1601		50.781250
1602		46.875000
1603		50.781250
1604		46.875000
1605		50.781250
1606		46.875000
1607		50.781250
1608		44.921875
1609		48.828125
1610		44.921875
1611		48.828125
1612		44.921875
1613		46.875000
1614		42.968750
1615		46.875000
1616		42.968750
1617		46.875000
1618		41.015625
1619		44.921875
1620		41.015625
1621		44.921875
1622		39.062500
1623		42.968750
1624		39.062500
1625		42.968750
1626		39.062500
1627		42.968750
1628		37.109375
1629		41.015625
1630		37.109375
1631		41.015625
1632		35.156250
1633		39.062500
1634		35.156250
1635		39.062500
1636		33.203125
1637		37.109375
1638		33.203125
1639		37.109375
1640		33.203125
1641		37.109375
1642		31.250000
1643		35.156250
1644		31.250000
1645		35.156250
1646		27.343750
1647		33.203125
1648		29.296875
1649		31.250000
1650		27.343750
1651		31.250000
1652		25.390625
1653		29.296875
1654		25.390625
1655		29.296875
1656		25.390625
1657		29.296875
1658		23.437500
1659		27.343750
1660		21.484375
1661		25.390625
1662		21.484375
1663		25.390625
1664		21.484375
1665		23.437500
1666		19.531250
1667		21.484375
1668		17.578125
1669		21.484375
1670		15.625000
1671		21.484375
1672		17.578125
1673		19.531250
1674		15.625000
1675		17.578125
1676		13.671875
1677		17.578125
1678		13.671875
1679		17.578125
1680		11.718750
1681		15.625000
1682		9.765625
1683		15.625000
1684		9.765625
1685		13.671875
1686		7.812500
1687		11.718750
1688		7.812500
1689		11.718750
1690		7.812500
1691		9.765625
1692		3.906250
1693		9.765625
1694		3.906250
1695		7.812500
1696		1.953125
1697		5.859375
1698		1.953125
1699		5.859375
1700		0.000000
1701		3.906250
1702		0.000000
1703		3.906250
1704		-1.953125
1705		1.953125
1706		-1.953125
1707		1.953125
1708		-3.906250
1709		0.000000
1710		-5.859375
1711		0.000000
1712		-5.859375
1713		-1.953125
1714		-7.812500
1715		-3.906250
1716		-7.812500
1717		-3.906250
1718		-9.765625
1719		-5.859375
1720		-9.765625
1721		-5.859375
1722		-11.718750
1723		-7.812500
1724		-11.718750
1725		-9.765625
1726		-13.671875
1727		-9.765625
1728		-13.671875
1729		-11.718750
1730		-15.625000
1731		-11.718750
1732		-15.625000
1733		-13.671875
1734		-17.578125
1735		-13.671875
1736		-19.531250
1737		-13.671875
1738		-19.531250
1739		-15.625000
1740		-21.484375
1741		-17.578125
1742		-21.484375
1743		-17.578125
1744		-23.437500
1745		-19.531250
1746		-25.390625
1747		-21.484375
1748		-25.390625
1749		-21.484375
1750		-27.343750
1751		-23.437500
1752		-27.343750
1753		-23.437500
1754		-27.343750
1755		-25.390625
1756		-29.296875
1757		-25.390625
1758		-31.250000
1759		-25.390625
1760		-33.203125
1761		-27.343750
1762		-33.203125
1763		-29.296875
1764		-33.203125
1765		-29.296875
1766		-35.156250
1767		-31.250000
1768		-35.156250
1769		-31.250000
1770		-37.109375
1771		-31.250000
1772		-39.062500
1773		-33.203125
1774		-39.062500
1775		-35.156250
1776		-41.015625
1777		-37.109375
1778		-41.015625
1779		-37.109375
1780		-41.015625
1781		-37.109375
1782		-41.015625
1783		-39.062500
1784		-42.968750
1785		-39.062500
1786		-44.921875
1787		-41.015625
1788		-46.875000
1789		-41.015625
1790		-44.921875
1791		-42.968750
1792		-46.875000
1793		-42.968750
1794		-46.875000
1795		-44.921875
1796		-48.828125
1797		-44.921875
1798		-50.781250
1799		-46.875000
1800		-50.781250
1801		-46.875000
1802		-50.781250
1803		-46.875000
1804		-50.781250
1805		-48.828125
1806		-52.734375
1807		-48.828125
1808		-52.734375
1809		-50.781250
1810		-54.687500
1811		-50.781250
1812		-54.687500
1813		-50.781250
1814		-54.687500
1815		-52.734375
1816		-56.640625
1817		-52.734375
1818		-56.640625
1819		-52.734375
1820		-56.640625
1821		-54.687500
1822		-58.593750
1823		-54.687500
1824		-58.593750
1825		-56.640625
1826		-60.546875
1827		-56.640625
1828		-60.546875
1829		-56.640625
1830		-60.546875
1831		-58.593750
1832		-60.546875
1833		-58.593750
1834		-62.500000
1835		-56.640625
1836		-62.500000
1837		-58.593750
1838		-62.500000
1839		-60.546875
1840		-62.500000
1841		-60.546875
1842		-64.453125
1843		-60.546875
1844		-64.453125
1845		-60.546875
1846		-64.453125
1847		-60.546875
1848		-66.406250
1849		-60.546875
1850		-64.453125
1851		-62.500000
1852		-66.406250
1853		-62.500000
1854		-66.406250
1855		-62.500000
1856		-66.406250
1857		-62.500000
1858		-66.406250
1859		-64.453125
1860		-68.359375
1861		-62.500000
1862		-68.359375
1863		-64.453125
1864		-68.359375
1865		-64.453125
1866		-68.359375
1867		-64.453125
1868		-68.359375
1869		-64.453125
1870		-68.359375
1871		-64.453125
1872		-68.359375
1873		-64.453125
1874		-68.359375
1875		-64.453125
1876		-68.359375
1877		-66.406250
1878		-70.312500
1879		-64.453125
1880		-68.359375
1881		-66.406250
1882		-70.312500
1883		-66.406250
1884		-70.312500
1885		-66.406250
1886		-68.359375
1887		-66.406250
1888		-70.312500
1889		-66.406250
1890		-70.312500
1891		-64.453125
1892		-68.359375
1893		-66.406250
1894		-70.312500
1895		-64.453125
1896		-68.359375
1897		-64.453125
1898		-68.359375
1899		-66.406250
1900		-68.359375
1901		-64.453125
1902		-68.359375
1903		-64.453125
1904		-68.359375
1905		-64.453125
1906		-68.359375
1907		-64.453125
1908		-68.359375
1909		-66.406250
1910		-68.359375
1911		-64.453125
1912		-68.359375
1913		-64.453125
1914		-68.359375
1915		-64.453125
1916		-66.406250
1917		-64.453125
1918		-68.359375
1919		-64.453125
1920		-68.359375
1921		-62.500000
1922		-66.406250
1923		-62.500000
1924		-66.406250
1925		-62.500000
1926		-64.453125
1927		-62.500000
1928		-64.453125
1929		-62.500000
1930		-66.406250
1931		-62.500000
1932		-64.453125
1933		-60.546875
1934		-64.453125
1935		-60.546875
1936		-64.453125
1937		-60.546875
1938		-64.453125
1939		-60.546875
1940		-64.453125
1941		-58.593750
1942		-62.500000
1943		-58.593750
1944		-62.500000
1945		-58.593750
1946		-62.500000
1947		-56.640625
1948		-60.546875
1949		-56.640625
1950		-60.546875
1951		-56.640625
1952		-60.546875
1953		-54.687500
1954		-58.593750
1955		-54.687500
1956		-58.593750
1957		-54.687500
1958		-56.640625
1959		-54.687500
1960		-56.640625
1961		-52.734375
1962		-56.640625
1963		-52.734375
1964		-54.687500
1965		-50.781250
1966		-54.687500
1967		-50.781250
1968		-52.734375
1969		-50.781250
1970		-52.734375
1971		-48.828125
1972		-52.734375
1973		-48.828125
1974		-52.734375
1975		-46.875000
1976		-50.781250
1977		-46.875000
1978		-50.781250
1979		-46.875000
1980		-50.781250
1981		-44.921875
1982		-48.828125
1983		-44.921875
1984		-48.828125
1985		-44.921875
1986		-46.875000
1987		-42.968750
1988		-44.921875
1989		-41.015625
1990		-44.921875
1991		-41.015625
1992		-42.968750
1993		-41.015625
1994		-42.968750
1995		-39.062500
1996		-42.968750
1997		-39.062500
1998		-41.015625
1999		-37.109375
2000		-41.015625
2001		-37.109375
2002		-39.062500
2003		-35.156250
2004		-37.109375
2005		-35.156250
2006		-39.062500
2007		-33.203125
2008		-37.109375
2009		-33.203125
2010		-35.156250
2011		-31.250000
2012		-35.156250
2013		-31.250000
2014		-33.203125
2015		-29.296875
2016		-31.250000
2017		-27.343750
2018		-31.250000
2019		-27.343750
2020		-29.296875
2021		-25.390625
2022		-29.296875
2023		-25.390625
2024		-27.343750
2025		-25.390625
2026		-27.343750
2027		-23.437500
2028		-25.390625
2029		-21.484375
2030		-25.390625
2031		-19.531250
2032		-23.437500
2033		-19.531250
2034		-21.484375
2035		-19.531250
2036		-21.484375
2037		-17.578125
2038		-19.531250
2039		-15.625000
2040		-19.531250
2041		-13.671875
2042		-17.578125
2043		-15.625000
2044		-17.578125
2045		-11.718750
2046		-15.625000
2047		-11.718750
2048		-15.625000
2049		-11.718750
2050		-13.671875
2051		-9.765625
2052		-11.718750
2053		-7.812500
2054		-11.718750
2055		-7.812500
2056		-9.765625
2057		-5.859375
2058		-9.765625
2059		-3.906250
2060		-7.812500
2061		-3.906250
2062		-5.859375
2063		-1.953125
2064		-5.859375
2065		-1.953125
2066		-5.859375
2067		0.000000
2068		-3.906250
2069		0.000000
2070		-1.953125
2071		1.953125
2072		0.000000
2073		3.906250
2074		0.000000
2075		3.906250
2076		0.000000
2077		5.859375
2078		1.953125
2079		5.859375
2080		1.953125
2081		7.812500
2082		3.906250
2083		7.812500
2084		5.859375
2085		9.765625
2086		7.812500
2087		9.765625
2088		7.812500
2089		11.718750
2090		9.765625
2091		11.718750
2092		9.765625
2093		15.625000
2094		11.718750
2095		13.671875
2096		11.718750
2097		15.625000
2098		13.671875
2099		17.578125
2100		13.671875
2101		17.578125
2102		15.625000
2103		19.531250
2104		15.625000
2105		19.531250
2106		17.578125
2107		21.484375
2108		17.578125
2109		23.437500
2110		19.531250
2111		23.437500
2112		21.484375
2113		23.437500
2114		21.484375
2115		25.390625
2116		21.484375
2117		25.390625
2118		23.437500
2119		27.343750
2120		25.390625
2121		27.343750
2122		25.390625
2123		29.296875
2124		25.390625
2125		31.250000
2126		27.343750
2127		31.250000
2128		27.343750
2129		33.203125
2130		29.296875
2131		33.203125
2132		31.250000
2133		33.203125
2134		31.250000
2135		35.156250
2136		33.203125
2137		35.156250
2138		33.203125
2139		37.109375
2140		35.156250
2141		37.109375
2142		35.156250
2143		39.062500
2144		35.156250
2145		39.062500
2146		37.109375
2147		41.015625
2148		37.109375
2149		41.015625
2150		37.109375
2151		42.968750
2152		39.062500
2153		42.968750
2154		41.015625
2155		44.921875
2156		41.015625
2157		42.968750
2158		41.015625
2159		44.921875
2160		42.968750
2161		46.875000
2162		42.968750
2163		46.875000
2164		42.968750
2165		46.875000
2166		44.921875
2167		48.828125
2168		44.921875
2169		48.828125
2170		44.921875
2171		48.828125
2172		46.875000
2173		50.781250
2174		46.875000
2175		50.781250
2176		46.875000
2177		50.781250
2178		48.828125
2179		52.734375
2180		48.828125
2181		52.734375
2182		50.781250
2183		54.687500
2184		50.781250
2185		54.687500
2186		50.781250
2187		54.687500
2188		50.781250
2189		54.687500
2190		52.734375
2191		54.687500
2192		50.781250
2193		56.640625
2194		54.687500
2195		56.640625
2196		54.687500
2197		56.640625
2198		54.687500
2199		58.593750
2200		54.687500
2201		58.593750
2202		54.687500
2203		58.593750
2204		56.640625
2205		58.593750
2206		56.640625
2207		60.546875
2208		56.640625
2209		60.546875
2210		56.640625
2211		60.546875
2212		56.640625
2213		60.546875
2214		56.640625
2215		60.546875
2216		58.593750
2217		60.546875
2218		58.593750
2219		62.500000
2220		58.593750
2221		62.500000
2222		58.593750
2223		62.500000
2224		60.546875
2225		62.500000
2226		60.546875
2227		64.453125
2228		60.546875
2229		62.500000
2230		58.593750
2231		64.453125
2232		60.546875
2233		64.453125
2234		60.546875
2235		64.453125
2236		60.546875
2237		64.453125
2238		60.546875
2239		64.453125
2240		60.546875
2241		64.453125
2242		60.546875
2243		64.453125
2244		62.500000
2245		64.453125
2246		60.546875
2247		66.406250
2248		60.546875
2249		64.453125
2250		62.500000
2251		64.453125
2252		60.546875
2253		64.453125
2254		62.500000
2255		64.453125
2256		62.500000
2257		64.453125
2258		60.546875
2259		64.453125
2260		60.546875
2261		64.453125
2262		60.546875
2263		64.453125
2264		60.546875
2265		64.453125
2266		60.546875
2267		64.453125
2268		60.546875
2269		64.453125
2270		62.500000
2271		64.453125
2272		60.546875
2273		64.453125
2274		60.546875
2275		64.453125
2276		60.546875
2277		64.453125
2278		60.546875
2279		64.453125
2280		60.546875
2281		62.500000
2282		60.546875
2283		64.453125
2284		58.593750
2285		64.453125
2286		58.593750
2287		62.500000
2288		58.593750
2289		62.500000
2290		58.593750
2291		62.500000
2292		58.593750
2293		62.500000
2294		58.593750
2295		62.500000
2296		58.593750
2297		60.546875
2298		56.640625
2299		60.546875
2300		56.640625
2301		60.546875
2302		56.640625
2303		60.546875
2304		56.640625
2305		60.546875
2306		56.640625
2307		60.546875
2308		54.687500
2309		58.593750
2310		54.687500
2311		58.593750
2312		54.687500
2313		56.640625
2314		52.734375
2315		56.640625
2316		52.734375
2317		56.640625
2318		52.734375
2319		56.640625
2320		52.734375
2321		54.687500
2322		50.781250
2323		56.640625
2324		50.781250
2325		54.687500
2326		50.781250
2327		54.687500
2328		50.781250
2329		54.687500
2330		50.781250
2331		52.734375
2332		48.828125
2333		52.734375
2334		46.875000
2335		52.734375
2336		46.875000
2337		50.781250
2338		46.875000
2339		50.781250
2340		44.921875
2341		50.781250
2342		44.921875
2343		48.828125
2344		42.968750
2345		48.828125
2346		42.968750
2347		46.875000
2348		42.968750
2349		46.875000
2350		41.015625
2351		44.921875
2352		41.015625
2353		44.921875
2354		41.015625
2355		42.968750
2356		39.062500
2357		42.968750
2358		39.062500
2359		41.015625
2360		37.109375
2361		42.968750
2362		37.109375
2363		41.015625
2364		37.109375
2365		39.062500
2366		35.156250
2367		39.062500
2368		35.156250
2369		39.062500
2370		33.203125
2371		37.109375
2372		33.203125
2373		37.109375
2374		31.250000
2375		35.156250
2376		31.250000
2377		35.156250
2378		29.296875
2379		33.203125
2380		29.296875
2381		31.250000
2382		27.343750
2383		31.250000
2384		27.343750
2385		29.296875
2386		25.390625
2387		29.296875
2388		25.390625
2389		29.296875
2390		23.437500
2391		27.343750
2392		23.437500
2393		25.390625
2394		21.484375
2395		25.390625
2396		21.484375
2397		23.437500
2398		19.531250
2399		23.437500
2400		17.578125
2401		23.437500
2402		17.578125
2403		21.484375
2404		17.578125
2405		19.531250
2406		15.625000
2407		19.531250
2408		13.671875
2409		17.578125
2410		11.718750
2411		17.578125
2412		11.718750
2413		15.625000
2414		11.718750
2415		15.625000
2416		9.765625
2417		13.671875
2418		9.765625
2419		11.718750
2420		7.812500
2421		11.718750
2422		5.859375
2423		9.765625
2424		5.859375
2425		9.765625
2426		3.906250
2427		7.812500
2428		1.953125
2429		7.812500
2430		1.953125
2431		5.859375
2432		0.000000
2433		3.906250
2434		0.000000
2435		3.906250
2436		0.000000
2437		1.953125
2438		-1.953125
2439		1.953125
2440		-3.906250
2441		1.953125
2442		-3.906250
2443		0.000000
2444		-5.859375
2445		-1.953125
2446		-5.859375
2447		-3.906250
2448		-7.812500
2449		-3.906250
2450		-9.765625
2451		-3.906250
2452		-9.765625
2453		-5.859375
2454		-11.718750
2455		-7.812500
2456		-11.718750
2457		-7.812500
2458		-13.671875
2459		-9.765625
2460		-13.671875
2461		-9.765625
2462		-15.625000
2463		-11.718750
2464		-15.625000
2465		-13.671875
2466		-17.578125
2467		-13.671875
2468		-19.531250
2469		-15.625000
2470		-19.531250
2471		-15.625000
2472		-21.484375
2473		-17.578125
2474		-21.484375
2475		-17.578125
2476		-23.437500
2477		-19.531250
2478		-25.390625
2479		-19.531250
2480		-25.390625
2481		-21.484375
2482		-27.343750
2483		-23.437500
2484		-27.343750
2485		-23.437500
2486		-27.343750
2487		-25.390625
2488		-29.296875
2489		-25.390625
2490		-31.250000
2491		-27.343750
2492		-31.250000
2493		-27.343750
2494		-33.203125
2495		-29.296875
2496		-33.203125
2497		-29.296875
2498		-35.156250
2499		-31.250000
2500		-35.156250
2501		-33.203125
2502		-37.109375
2503		-33.203125
2504		-37.109375
2505		-35.156250
2506		-39.062500
2507		-35.156250
2508		-39.062500
2509		-35.156250
2510		-39.062500
2511		-37.109375
2512		-41.015625
2513		-39.062500
2514		-42.968750
2515		-39.062500
2516		-44.921875
2517		-39.062500
2518		-42.968750
2519		-41.015625
2520		-44.921875
2521		-41.015625
2522		-44.921875
2523		-42.968750
2524		-46.875000
2525		-42.968750
2526		-48.828125
2527		-44.921875
2528		-48.828125
2529		-44.921875
2530		-48.828125
2531		-46.875000
2532		-50.781250
2533		-46.875000
2534		-50.781250
2535		-46.875000
2536		-52.734375
2537		-48.828125
2538		-52.734375
2539		-48.828125
2540		-52.734375
2541		-50.781250
2542		-54.687500
2543		-50.781250
2544		-54.687500
2545		-50.781250
2546		-54.687500
2547		-50.781250
2548		-56.640625
2549		-52.734375
2550		-56.640625
2551		-52.734375
2552		-58.593750
2553		-54.687500
2554		-58.593750
2555		-54.687500
2556		-60.546875
2557		-54.687500
2558		-60.546875
2559		-56.640625
2560		-60.546875
2561		-56.640625
2562		-60.546875
2563		-56.640625
2564		-60.546875
2565		-58.593750
2566		-62.500000
2567		-58.593750
2568		-62.500000
2569		-58.593750
2570		-62.500000
2571		-58.593750
2572		-62.500000
2573		-60.546875
2574		-64.453125
2575		-60.546875
2576		-64.453125
2577		-60.546875
2578		-64.453125
2579		-60.546875
2580		-66.406250
2581		-62.500000
2582		-66.406250
2583		-62.500000
2584		-66.406250
2585		-62.500000
2586		-66.406250
2587		-62.500000
2588		-68.359375
2589		-62.500000
2590		-66.406250
2591		-64.453125
2592		-68.359375
2593		-62.500000
2594		-68.359375
2595		-64.453125
2596		-68.359375
2597		-64.453125
2598		-68.359375
2599		-64.453125
2600		-68.359375
2601		-64.453125
2602		-68.359375
2603		-64.453125
2604		-68.359375
2605		-64.453125
2606		-68.359375
2607		-66.406250
2608		-68.359375
2609		-64.453125
2610		-70.312500
2611		-66.406250
2612		-70.312500
2613		-66.406250
2614		-68.359375
2615		-66.406250
2616		-68.359375
2617		-66.406250
2618		-68.359375
2619		-66.406250
2620		-70.312500
2621		-66.406250
2622		-68.359375
2623		-66.406250
2624		-70.312500
2625		-66.406250
2626		-70.312500
2627		-66.406250
2628		-70.312500
2629		-66.406250
2630		-68.359375
2631		-64.453125
2632		-70.312500
2633		-66.406250
2634		-70.312500
2635		-66.406250
2636		-68.359375
2637		-64.453125
2638		-68.359375
2639		-64.453125
2640		-68.359375
2641		-64.453125
2642		-68.359375
2643		-64.453125
2644		-68.359375
2645		-64.453125
2646		-68.359375
2647		-64.453125
2648		-68.359375
2649		-64.453125
2650		-68.359375
2651		-64.453125
2652		-66.406250
2653		-64.453125
2654		-66.406250
2655		-62.500000
2656		-66.406250
2657		-62.500000
2658		-66.406250
2659		-62.500000
2660		-66.406250
2661		-62.500000
2662		-66.406250
2663		-62.500000
2664		-64.453125
2665		-62.500000
2666		-64.453125
2667		-60.546875
2668		-66.406250
2669		-58.593750
2670		-64.453125
2671		-60.546875
2672		-62.500000
2673		-60.546875
2674		-64.453125
2675		-58.593750
2676		-62.500000
2677		-58.593750
2678		-60.546875
2679		-58.593750
2680		-62.500000
2681		-56.640625
2682		-60.546875
2683		-58.593750
2684		-58.593750
2685		-56.640625
2686		-60.546875
2687		-56.640625
2688		-58.593750
2689		-54.687500
2690		-58.593750
2691		-54.687500
2692		-58.593750
2693		-54.687500
2694		-56.640625
2695		-52.734375
2696		-56.640625
2697		-52.734375
2698		-54.687500
2699		-50.781250
2700		-54.687500
2701		-50.781250
2702		-54.687500
2703		-50.781250
2704		-54.687500
2705		-48.828125
2706		-52.734375
2707		-48.828125
2708		-50.781250
2709		-46.875000
2710		-50.781250
2711		-46.875000
2712		-50.781250
2713		-46.875000
2714		-48.828125
2715		-44.921875
2716		-48.828125
2717		-44.921875
2718		-48.828125
2719		-42.968750
2720		-46.875000
2721		-41.015625
2722		-44.921875
2723		-41.015625
2724		-44.921875
2725		-41.015625
2726		-42.968750
2727		-39.062500
2728		-42.968750
2729		-39.062500
2730		-41.015625
2731		-39.062500
2732		-41.015625
2733		-37.109375
2734		-39.062500
2735		-37.109375
2736		-39.062500
2737		-35.156250
2738		-37.109375
2739		-33.203125
2740		-37.109375
2741		-33.203125
2742		-35.156250
2743		-31.250000
2744		-35.156250
2745		-31.250000
2746		-33.203125
2747		-29.296875
2748		-33.203125
2749		-29.296875
2750		-31.250000
2751		-27.343750
2752		-29.296875
2753		-27.343750
2754		-29.296875
2755		-25.390625
2756		-29.296875
2757		-23.437500
2758		-27.343750
2759		-23.437500
2760		-27.343750
2761		-21.484375
2762		-25.390625
2763		-21.484375
2764		-25.390625
2765		-19.531250
2766		-23.437500
2767		-19.531250
2768		-21.484375
2769		-17.578125
2770		-19.531250
2771		-17.578125
2772		-19.531250
2773		-15.625000
2774		-19.531250
2775		-15.625000
2776		-17.578125
2777		-11.718750
2778		-15.625000
2779		-11.718750
2780		-15.625000
2781		-11.718750
2782		-13.671875
2783		-9.765625
2784		-13.671875
2785		-9.765625
2786		-13.671875
2787		-7.812500
2788		-9.765625
2789		-7.812500
2790		-9.765625
2791		-5.859375
2792		-7.812500
2793		-3.906250
2794		-7.812500
2795		-3.906250
2796		-5.859375
2797		-1.953125
2798		-5.859375
2799		-1.953125
2800		-3.906250
2801		0.000000
2802		-3.906250
2803		0.000000
2804		-1.953125
2805		1.953125
2806		-1.953125
2807		3.906250
2808		0.000000
2809		3.906250
2810		0.000000
2811		5.859375
2812		1.953125
2813		5.859375
2814		3.906250
2815		7.812500
2816		3.906250
2817		9.765625
2818		5.859375
2819		7.812500
2820		5.859375
2821		9.765625
2822		7.812500
2823		11.718750
2824		9.765625
2825		11.718750
2826		9.765625
2827		13.671875
2828		9.765625
2829		15.625000
2830		11.718750
2831		15.625000
2832		11.718750
2833		17.578125
2834		13.671875
2835		17.578125
2836		15.625000
2837		17.578125
2838		15.625000
2839		19.531250
2840		17.578125
2841		21.484375
2842		17.578125
2843		23.437500
2844		19.531250
2845		23.437500
2846		19.531250
2847		23.437500
2848		21.484375
2849		25.390625
2850		23.437500
2851		25.390625
2852		23.437500
2853		27.343750
2854		23.437500
2855		27.343750
2856		25.390625
2857		29.296875
2858		27.343750
2859		29.296875
2860		27.343750
2861		31.250000
2862		27.343750
2863		31.250000
2864		29.296875
2865		33.203125
2866		27.343750
2867		33.203125
2868		31.250000
2869		33.203125
2870		31.250000
2871		37.109375
2872		33.203125
2873		37.109375
2874		33.203125
2875		37.109375
2876		35.156250
2877		39.062500
2878		35.156250
2879		39.062500
2880		37.109375
2881		41.015625
2882		35.156250
2883		41.015625
2884		39.062500
2885		41.015625
2886		39.062500
2887		42.968750
2888		39.062500
2889		42.968750
2890		41.015625
2891		44.921875
2892		41.015625
2893		44.921875
2894		41.015625
2895		44.921875
2896		42.968750
2897		46.875000
2898		42.968750
2899		46.875000
2900		44.921875
2901		46.875000
2902		44.921875
2903		48.828125
2904		44.921875
2905		48.828125
2906		46.875000
2907		50.781250
2908		46.875000
2909		50.781250
2910		46.875000
2911		50.781250
2912		48.828125
2913		52.734375
2914		48.828125
2915		54.687500
2916		50.781250
2917		52.734375
2918		50.781250
2919		54.687500
2920		50.781250
2921		54.687500
2922		52.734375
2923		54.687500
2924		52.734375
2925		56.640625
2926		52.734375
2927		56.640625
2928		52.734375
2929		56.640625
2930		52.734375
2931		56.640625
2932		52.734375
2933		56.640625
2934		54.687500
2935		58.593750
2936		54.687500
2937		58.593750
2938		54.687500
2939		58.593750
2940		56.640625
2941		60.546875
2942		56.640625
2943		60.546875
2944		56.640625
2945		60.546875
2946		56.640625
2947		60.546875
2948		56.640625
2949		60.546875
2950		58.593750
2951		60.546875
2952		58.593750
2953		62.500000
2954		58.593750
2955		62.500000
2956		58.593750
2957		62.500000
2958		58.593750
2959		62.500000
2960		60.546875
2961		62.500000
2962		58.593750
2963		62.500000
2964		60.546875
2965		64.453125
2966		60.546875
2967		64.453125
2968		60.546875
2969		62.500000
2970		60.546875
2971		64.453125
2972		60.546875
2973		64.453125
2974		60.546875
2975		64.453125
2976		60.546875
2977		64.453125
2978		60.546875
2979		64.453125
2980		60.546875
2981		64.453125
2982		60.546875
2983		64.453125
2984		60.546875
2985		64.453125
2986		62.500000
2987		64.453125
2988		60.546875
2989		64.453125
2990		60.546875
2991		66.406250
2992		60.546875
2993		64.453125
2994		60.546875
2995		64.453125
2996		60.546875
2997		66.406250
2998		60.546875
2999		64.453125
3000		60.546875
3001		64.453125
3002		60.546875
3003		64.453125
3004		60.546875
3005		64.453125
3006		60.546875
3007		64.453125
3008		60.546875
3009		64.453125
3010		60.546875
3011		64.453125
3012		60.546875
3013		62.500000
3014		60.546875
3015		62.500000
3016		58.593750
3017		62.500000
3018		60.546875
3019		62.500000
3020		58.593750
3021		62.500000
3022		58.593750
3023		62.500000
3024		58.593750
3025		62.500000
3026		58.593750
3027		62.500000
3028		58.593750
3029		60.546875
3030		56.640625
3031		60.546875
3032		56.640625
3033		60.546875
3034		56.640625
3035		60.546875
3036		56.640625
3037		60.546875
3038		54.687500
3039		60.546875
3040		56.640625
3041		58.593750
3042		54.687500
3043		58.593750
3044		54.687500
3045		58.593750
3046		54.687500
3047		58.593750
3048		52.734375
3049		56.640625
3050		52.734375
3051		56.640625
3052		52.734375
3053		54.687500
3054		50.781250
3055		56.640625
3056		50.781250
3057		54.687500
3058		50.781250
3059		54.687500
3060		50.781250
3061		54.687500
3062		48.828125
3063		52.734375
3064		48.828125
3065		52.734375
3066		48.828125
3067		52.734375
3068		46.875000
3069		50.781250
3070		46.875000
3071		50.781250
3072		46.875000
3073		50.781250
3074		44.921875
3075		50.781250
3076		44.921875
3077		48.828125
3078		44.921875
3079		46.875000
3080		42.968750
3081		46.875000
3082		42.968750
3083		44.921875
3084		42.968750
3085		44.921875
3086		41.015625
3087		44.921875
3088		39.062500
3089		44.921875
3090		39.062500
3091		42.968750
3092		39.062500
3093		42.968750
3094		37.109375
3095		41.015625
3096		37.109375
3097		41.015625
3098		35.156250
3099		39.062500
3100		35.156250
3101		39.062500
3102		35.156250
3103		37.109375
3104		33.203125
3105		37.109375
3106		31.250000
3107		35.156250
3108		31.250000
3109		35.156250
3110		29.296875
3111		35.156250
3112		29.296875
3113		33.203125
3114		29.296875
3115		33.203125
3116		27.343750
3117		31.250000
3118		27.343750
3119		29.296875
3120		25.390625
3121		29.296875
3122		23.437500
3123		27.343750
3124		23.437500
3125		27.343750
3126		21.484375
3127		27.343750
3128		21.484375
3129		25.390625
3130		19.531250
3131		23.437500
3132		19.531250
3133		23.437500
3134		17.578125
3135		21.484375
3136		17.578125
3137		21.484375
3138		15.625000
3139		19.531250
3140		13.671875
3141		17.578125
3142		13.671875
3143		17.578125
3144		13.671875
3145		17.578125
3146		11.718750
3147		15.625000
3148		11.718750
3149		13.671875
3150		9.765625
3151		13.671875
3152		9.765625
3153		13.671875
3154		7.812500
3155		9.765625
3156		5.859375
3157		9.765625
3158		5.859375
3159		7.812500
3160		3.906250
3161		7.812500
3162		1.953125
3163		5.859375
3164		1.953125
3165		5.859375
3166		0.000000
3167		3.906250
3168		0.000000
3169		3.906250
3170		-1.953125
3171		1.953125
3172		-1.953125
3173		1.953125
3174		-3.906250
3175		0.000000
3176		-5.859375
3177		0.000000
3178		-5.859375
3179		-1.953125
3180		-7.812500
3181		-3.906250
3182		-7.812500
3183		-3.906250
3184		-9.765625
3185		-5.859375
3186		-9.765625
3187		-5.859375
3188		-11.718750
3189		-7.812500
3190		-13.671875
3191		-9.765625
3192		-13.671875
3193		-9.765625
3194		-15.625000
3195		-11.718750
3196		-15.625000
3197		-11.718750
3198		-17.578125
3199		-13.671875
3200		-19.531250
3201		-13.671875
3202		-19.531250
3203		-15.625000
3204		-19.531250
3205		-17.578125
3206		-21.484375
3207		-17.578125
3208		-23.437500
3209		-19.531250
3210		-25.390625
3211		-19.531250
3212		-23.437500
3213		-21.484375
3214		-25.390625
3215		-23.437500
3216		-27.343750
3217		-23.437500
3218		-27.343750
3219		-23.437500
3220		-29.296875
3221		-25.390625
3222		-31.250000
3223		-27.343750
3224		-31.250000
3225		-27.343750
3226		-33.203125
3227		-27.343750
3228		-33.203125
3229		-29.296875
3230		-35.156250
3231		-31.250000
3232		-35.156250
3233		-31.250000
3234		-37.109375
3235		-31.250000
3236		-37.109375
3237		-35.156250
3238		-39.062500
3239		-35.156250
3240		-41.015625
3241		-35.156250
3242		-41.015625
3243		-37.109375
3244		-41.015625
3245		-37.109375
3246		-42.968750
3247		-39.062500
3248		-42.968750
3249		-39.062500
3250		-44.921875
3251		-41.015625
3252		-44.921875
3253		-41.015625
3254		-46.875000
3255		-42.968750
3256		-46.875000
3257		-42.968750
3258		-48.828125
3259		-42.968750
3260		-48.828125
3261		-44.921875
3262		-48.828125
3263		-44.921875
3264		-50.781250
3265		-46.875000
3266		-52.734375
3267		-46.875000
3268		-52.734375
3269		-48.828125
3270		-54.687500
3271		-48.828125
3272		-54.687500
3273		-50.781250
3274		-54.687500
3275		-48.828125
3276		-56.640625
3277		-50.781250
3278		-56.640625
3279		-50.781250
3280		-56.640625
3281		-52.734375
3282		-58.593750
3283		-52.734375
3284		-58.593750
3285		-52.734375
3286		-58.593750
3287		-54.687500
3288		-58.593750
3289		-54.687500
3290		-60.546875
3291		-54.687500
3292		-60.546875
3293		-56.640625
3294		-62.500000
3295		-56.640625
3296		-62.500000
3297		-56.640625
3298		-62.500000
3299		-58.593750
3300		-62.500000
3301		-58.593750
3302		-62.500000
3303		-58.593750
3304		-64.453125
3305		-58.593750
3306		-64.453125
3307		-60.546875
3308		-64.453125
3309		-60.546875
3310		-64.453125
3311		-60.546875
3312		-66.406250
3313		-60.546875
3314		-66.406250
3315		-60.546875
3316		-66.406250
3317		-62.500000
3318		-66.406250
3319		-62.500000
3320		-66.406250
3321		-64.453125
3322		-66.406250
3323		-64.453125
3324		-68.359375
3325		-62.500000
3326		-68.359375
3327		-62.500000
3328		-68.359375
3329		-64.453125
3330		-68.359375
3331		-64.453125
3332		-68.359375
3333		-64.453125
3334		-68.359375
3335		-64.453125
3336		-68.359375
3337		-64.453125
3338		-70.312500
3339		-66.406250
3340		-70.312500
3341		-64.453125
3342		-68.359375
3343		-66.406250
3344		-68.359375
3345		-66.406250
3346		-68.359375
3347		-66.406250
3348		-70.312500
3349		-66.406250
3350		-70.312500
3351		-66.406250
3352		-70.312500
3353		-66.406250
3354		-68.359375
3355		-66.406250
3356		-70.312500
3357		-66.406250
3358		-70.312500
3359		-66.406250
3360		-68.359375
3361		-66.406250
3362		-70.312500
3363		-66.406250
3364		-68.359375
3365		-66.406250
3366		-68.359375
3367		-66.406250
3368		-70.312500
3369		-64.453125
3370		-68.359375
3371		-66.406250
3372		-68.359375
3373		-64.453125
3374		-68.359375
3375		-66.406250
3376		-68.359375
3377		-66.406250
3378		-68.359375
3379		-64.453125
3380		-68.359375
3381		-64.453125
3382		-66.406250
3383		-64.453125
3384		-68.359375
3385		-64.453125
3386		-66.406250
3387		-64.453125
3388		-66.406250
3389		-64.453125
3390		-66.406250
3391		-62.500000
3392		-66.406250
3393		-62.500000
3394		-64.453125
3395		-62.500000
3396		-64.453125
3397		-60.546875
3398		-64.453125
3399		-62.500000
3400		-64.453125
3401		-60.546875
3402		-64.453125
3403		-60.546875
3404		-62.500000
3405		-60.546875
3406		-62.500000
3407		-58.593750
3408		-62.500000
3409		-58.593750
3410		-60.546875
3411		-58.593750
3412		-60.546875
3413		-58.593750
3414		-60.546875
3415		-58.593750
3416		-60.546875
3417		-56.640625
3418		-58.593750
3419		-56.640625
3420		-58.593750
3421		-54.687500
3422		-58.593750
3423		-54.687500
3424		-56.640625
3425		-54.687500
3426		-56.640625
3427		-52.734375
3428		-54.687500
3429		-52.734375
3430		-54.687500
3431		-52.734375
3432		-54.687500
3433		-50.781250
3434		-52.734375
3435		-50.781250
3436		-52.734375
3437		-48.828125
3438		-52.734375
3439		-48.828125
3440		-50.781250
3441		-48.828125
3442		-52.734375
3443		-44.921875
3444		-52.734375
3445		-42.968750
3446		-50.781250
3447		-42.968750
3448		-46.875000
3449		-42.968750
3450		-46.875000
3451		-42.968750
3452		-44.921875
3453		-42.968750
3454		-44.921875
3455		-41.015625
3456		-42.968750
3457		-41.015625
3458		-46.875000
3459		-37.109375
3460		-44.921875
3461		-35.156250
3462		-44.921875
3463		-35.156250
3464		-41.015625
3465		-37.109375
3466		-39.062500
3467		-37.109375
3468		-39.062500
3469		-35.156250
3470		-37.109375
3471		-33.203125
3472		-37.109375
3473		-33.203125
3474		-37.109375
3475		-29.296875
3476		-37.109375
3477		-27.343750
3478		-35.156250
3479		-27.343750
3480		-35.156250
3481		-25.390625
3482		-31.250000
3483		-27.343750
3484		-29.296875
3485		-27.343750
3486		-29.296875
3487		-25.390625
3488		-29.296875
3489		-25.390625
3490		-27.343750
3491		-23.437500
3492		-29.296875
3493		-19.531250
3494		-27.343750
3495		-17.578125
3496		-27.343750
3497		-17.578125
3498		-23.437500
3499		-19.531250
3500		-21.484375
3501		-19.531250
3502		-21.484375
3503		-17.578125
3504		-19.531250
3505		-15.625000
3506		-17.578125
3507		-15.625000
3508		-19.531250
3509		-9.765625
3510		-19.531250
3511		-9.765625
3512		-17.578125
3513		-7.812500
3514		-15.625000
3515		-9.765625
3516		-11.718750
3517		-9.765625
3518		-11.718750
3519		-7.812500
3520		-9.765625
3521		-7.812500
3522		-9.765625
3523		-5.859375
3524		-7.812500
3525		-3.906250
3526		-9.765625
3527		0.000000
3528		-9.765625
3529		0.000000
3530		-9.765625
3531		1.953125
3532		-3.906250
3533		-1.953125
3534		-3.906250
3535		0.000000
3536		-1.953125
3537		1.953125
3538		-1.953125
3539		1.953125
3540		0.000000
3541		3.906250
3542		-1.953125
3543		7.812500
3544		0.000000
3545		9.765625
3546		0.000000
3547		9.765625
3548		5.859375
3549		7.812500
3550		5.859375
3551		9.765625
3552		7.812500
3553		11.718750
3554		7.812500
3555		11.718750
3556		9.765625
3557		11.718750
3558		5.859375
3559		17.578125
3560		7.812500
3561		17.578125
3562		9.765625
3563		17.578125
3564		9.765625
3565		17.578125
3566		13.671875
3567		17.578125
3568		15.625000
3569		17.578125
3570		15.625000
3571		19.531250
3572		17.578125
3573		19.531250
3574		17.578125
3575		23.437500
3576		15.625000
3577		27.343750
3578		17.578125
3579		27.343750
3580		19.531250
3581		27.343750
3582		21.484375
3583		25.390625
3584		23.437500
3585		27.343750
3586		23.437500
3587		27.343750
3588		25.390625
3589		29.296875
3590		25.390625
3591		31.250000
3592		25.390625
3593		33.203125
3594		25.390625
3595		35.156250
3596		25.390625
3597		35.156250
3598		27.343750
3599		35.156250
3600		31.250000
3601		35.156250
3602		33.203125
3603		35.156250
3604		33.203125
3605		37.109375
3606		33.203125
3607		37.109375
3608		35.156250
3609		37.109375
3610		33.203125
3611		42.968750
3612		33.203125
3613		41.015625
3614		33.203125
3615		42.968750
3616		39.062500
3617		41.015625
3618		39.062500
3619		42.968750
3620		41.015625
3621		42.968750
3622		41.015625
3623		44.921875
3624		41.015625
3625		44.921875
3626		42.968750
3627		44.921875
3628		41.015625
3629		48.828125
3630		42.968750
3631		48.828125
3632		44.921875
3633		46.875000
3634		44.921875
3635		48.828125
3636		44.921875
3637		48.828125
3638		46.875000
3639		48.828125
3640		46.875000
3641		50.781250
3642		46.875000
3643		50.781250
3644		46.875000
3645		52.734375
3646		46.875000
3647		54.687500
3648		48.828125
3649		52.734375
3650		50.781250
3651		52.734375
3652		50.781250
3653		54.687500
3654		50.781250
3655		54.687500
3656		52.734375
3657		54.687500
3658		50.781250
3659		56.640625
3660		52.734375
3661		56.640625
3662		52.734375
3663		58.593750
3664		52.734375
3665		58.593750
3666		54.687500
3667		56.640625
3668		54.687500
3669		58.593750
3670		56.640625
3671		58.593750
3672		56.640625
3673		58.593750
3674		56.640625
3675		60.546875
3676		56.640625
3677		60.546875
3678		56.640625
3679		60.546875
3680		56.640625
3681		60.546875
3682		56.640625
3683		60.546875
3684		58.593750
3685		60.546875
3686		58.593750
3687		62.500000
3688		58.593750
3689		62.500000
3690		58.593750
3691		62.500000
3692		58.593750
3693		62.500000
3694		60.546875
3695		62.500000
3696		60.546875
3697		62.500000
3698		60.546875
3699		64.453125
3700		60.546875
3701		62.500000
3702		60.546875
3703		62.500000
3704		60.546875
3705		64.453125
3706		60.546875
3707		62.500000
3708		60.546875
3709		64.453125
3710		60.546875
3711		64.453125
3712		60.546875
3713		64.453125
3714		60.546875
3715		64.453125
3716		60.546875
3717		64.453125
3718		60.546875
3719		64.453125
3720		62.500000
3721		64.453125
3722		60.546875
3723		64.453125
3724		60.546875
3725		64.453125
3726		60.546875
3727		64.453125
3728		60.546875
3729		64.453125
3730		60.546875
3731		64.453125
3732		60.546875
3733		64.453125
3734		60.546875
3735		64.453125
3736		60.546875
3737		64.453125
3738		58.593750
3739		64.453125
3740		60.546875
3741		62.500000
3742		60.546875
3743		62.500000
3744		60.546875
3745		64.453125
3746		60.546875
3747		64.453125
3748		60.546875
3749		62.500000
3750		58.593750
3751		62.500000
3752		58.593750
3753		62.500000
3754		58.593750
3755		62.500000
3756		58.593750
3757		62.500000
3758		58.593750
3759		60.546875
3760		56.640625
3761		62.500000
3762		58.593750
3763		60.546875
3764		58.593750
3765		60.546875
3766		56.640625
3767		60.546875
3768		56.640625
3769		60.546875
3770		56.640625
3771		58.593750
3772		56.640625
3773		58.593750
3774		56.640625
3775		58.593750
3776		56.640625
3777		58.593750
3778		52.734375
3779		58.593750
3780		54.687500
3781		58.593750
3782		54.687500
3783		56.640625
3784		52.734375
3785		56.640625
3786		52.734375
3787		56.640625
3788		52.734375
3789		54.687500
3790		52.734375
3791		54.687500
3792		50.781250
3793		54.687500
3794		48.828125
3795		54.687500
3796		48.828125
3797		52.734375
3798		46.875000
3799		52.734375
3800		48.828125
3801		50.781250
3802		46.875000
3803		50.781250
3804		46.875000
3805		50.781250
3806		46.875000
3807		48.828125
3808		46.875000
3809		48.828125
3810		44.921875
3811		48.828125
3812		42.968750
3813		48.828125
3814		42.968750
3815		46.875000
3816		42.968750
3817		44.921875
3818		41.015625
3819		44.921875
3820		41.015625
3821		44.921875
3822		39.062500
3823		42.968750
3824		39.062500
3825		42.968750
3826		39.062500
3827		42.968750
3828		37.109375
3829		42.968750
3830		35.156250
3831		41.015625
3832		37.109375
3833		39.062500
3834		35.156250
3835		39.062500
3836		33.203125
3837		37.109375
3838		33.203125
3839		35.156250
3840		33.203125
3841		35.156250
3842		31.250000
3843		35.156250
3844		29.296875
3845		35.156250
3846		29.296875
3847		33.203125
3848		29.296875
3849		31.250000
3850		27.343750
3851		31.250000
3852		25.390625
3853		31.250000
3854		25.390625
3855		29.296875
3856		25.390625
3857		29.296875
3858		23.437500
3859		25.390625
3860		23.437500
3861		25.390625
3862		19.531250
3863		25.390625
3864		19.531250
3865		23.437500
3866		19.531250
3867		21.484375
3868		17.578125
3869		21.484375
3870		17.578125
3871		21.484375
3872		15.625000
3873		19.531250
3874		13.671875
3875		19.531250
3876		13.671875
3877		17.578125
3878		11.718750
3879		17.578125
3880		11.718750
3881		15.625000
3882		11.718750
3883		13.671875
3884		9.765625
3885		13.671875
3886		7.812500
3887		13.671875
3888		7.812500
3889		9.765625
3890		5.859375
3891		9.765625
3892		5.859375
3893		7.812500
3894		1.953125
3895		7.812500
3896		1.953125
3897		5.859375
3898		1.953125
3899		5.859375
3900		0.000000
3901		3.906250
3902		-1.953125
3903		3.906250
3904		-1.953125
3905		1.953125
3906		-1.953125
3907		1.953125
3908		-3.906250
3909		0.000000
3910		-3.906250
3911		-1.953125
3912		-5.859375
3913		-1.953125
3914		-5.859375
3915		-3.906250
3916		-7.812500
3917		-5.859375
3918		-9.765625
3919		-5.859375
3920		-9.765625
3921		-7.812500
3922		-11.718750
3923		-7.812500
3924		-13.671875
3925		-9.765625
3926		-13.671875
3927		-9.765625
3928		-15.625000
3929		-11.718750
3930		-15.625000
3931		-13.671875
3932		-17.578125
3933		-13.671875
3934		-17.578125
3935		-15.625000
3936		-19.531250
3937		-15.625000
3938		-21.484375
3939		-15.625000
3940		-21.484375
3941		-19.531250
3942		-23.437500
3943		-19.531250
3944		-23.437500
3945		-21.484375
3946		-25.390625
3947		-21.484375
3948		-25.390625
3949		-21.484375
3950		-27.343750
3951		-23.437500
3952		-29.296875
3953		-25.390625
3954		-29.296875
3955		-25.390625
3956		-29.296875
3957		-27.343750
3958		-31.250000
3959		-27.343750
3960		-31.250000
3961		-29.296875
3962		-33.203125
3963		-29.296875
3964		-35.156250
3965		-31.250000
3966		-35.156250
3967		-31.250000
3968		-37.109375
3969		-33.203125
3970		-37.109375
3971		-35.156250
3972		-37.109375
3973		-35.156250
3974		-39.062500
3975		-35.156250
3976		-39.062500
3977		-37.109375
3978		-41.015625
3979		-39.062500
3980		-41.015625
3981		-39.062500
3982		-42.968750
3983		-39.062500
3984		-44.921875
3985		-41.015625
3986		-46.875000
3987		-41.015625
3988		-44.921875
3989		-42.968750
3990		-46.875000
3991		-42.968750
3992		-46.875000
3993		-44.921875
3994		-48.828125
3995		-44.921875
3996		-48.828125
3997		-46.875000
3998		-50.781250
3999		-46.875000
4000		-50.781250
4001		-48.828125
4002		-50.781250
4003		-48.828125
4004		-52.734375
4005		-48.828125
4006		-52.734375
4007		-50.781250
4008		-54.687500
4009		-50.781250
4010		-54.687500
4011		-52.734375
4012		-54.687500
4013		-52.734375
4014		-56.640625
4015		-52.734375
4016		-58.593750
4017		-52.734375
4018		-56.640625
4019		-54.687500
4020		-58.593750
4021		-54.687500
4022		-58.593750
4023		-56.640625
4024		-60.546875
4025		-56.640625
4026		-60.546875
4027		-56.640625
4028		-60.546875
4029		-58.593750
4030		-60.546875
4031		-56.640625
4032		-62.500000
4033		-58.593750
4034		-62.500000
4035		-58.593750
4036		-64.453125
4037		-60.546875
4038		-62.500000
4039		-60.546875
4040		-64.453125
4041		-60.546875
4042		-64.453125
4043		-60.546875
4044		-64.453125
4045		-62.500000
4046		-66.406250
4047		-62.500000
4048		-66.406250
4049		-62.500000
4050		-66.406250
4051		-62.500000
4052		-66.406250
4053		-62.500000
4054		-66.406250
4055		-64.453125
4056		-66.406250
4057		-64.453125
4058		-68.359375
4059		-64.453125
4060		-68.359375
4061		-64.453125
4062		-68.359375
4063		-64.453125
4064		-68.359375
4065		-64.453125
4066		-70.312500
4067		-64.453125
4068		-70.312500
4069		-64.453125
4070		-68.359375
4071		-66.406250
4072		-68.359375
4073		-66.406250
4074		-70.312500
4075		-66.406250
4076		-68.359375
4077		-66.406250
4078		-68.359375
4079		-66.406250
4080		-70.312500
4081		-64.453125
4082		-70.312500
4083		-66.406250
4084		-68.359375
4085		-66.406250
4086		-70.312500
4087		-66.406250
4088		-70.312500
4089		-66.406250
4090		-70.312500
4091		-66.406250
4092		-70.312500
4093		-66.406250
4094		-68.359375
4095		-66.406250
4096		-70.312500
4097		-64.453125
4098		-70.312500
4099		-64.453125
4100		-68.359375
4101		-66.406250
4102		-68.359375
4103		-66.406250
4104		-68.359375
4105		-66.406250
4106		-68.359375
4107		-66.406250
4108		-68.359375
4109		-64.453125
4110		-68.359375
4111		-64.453125
4112		-68.359375
4113		-64.453125
4114		-68.359375
4115		-62.500000
4116		-68.359375
4117		-62.500000
4118		-68.359375
4119		-62.500000
4120		-66.406250
4121		-64.453125
4122		-66.406250
4123		-64.453125
4124		-66.406250
4125		-62.500000
4126		-64.453125
4127		-62.500000
4128		-64.453125
4129		-60.546875
4130		-66.406250
4131		-60.546875
4132		-64.453125
4133		-58.593750
4134		-64.453125
4135		-60.546875
4136		-62.500000
4137		-60.546875
4138		-64.453125
4139		-58.593750
4140		-62.500000
4141		-58.593750
4142		-60.546875
4143		-58.593750
4144		-62.500000
4145		-58.593750
4146		-60.546875
4147		-56.640625
4148		-60.546875
4149		-54.687500
4150		-60.546875
4151		-54.687500
4152		-58.593750
4153		-56.640625
4154		-56.640625
4155		-54.687500
4156		-58.593750
4157		-54.687500
4158		-56.640625
4159		-54.687500
4160		-56.640625
4161		-52.734375
4162		-56.640625
4163		-50.781250
4164		-54.687500
4165		-48.828125
4166		-54.687500
4167		-50.781250
4168		-52.734375
4169		-50.781250
4170		-50.781250
4171		-48.828125
4172		-50.781250
4173		-48.828125
4174		-50.781250
4175		-46.875000
4176		-48.828125
4177		-46.875000
4178		-48.828125
4179		-44.921875
4180		-48.828125
4181		-42.968750
4182		-48.828125
4183		-42.968750
4184		-46.875000
4185		-42.968750
4186		-44.921875
4187		-42.968750
4188		-44.921875
4189		-41.015625
4190		-42.968750
4191		-41.015625
4192		-42.968750
4193		-39.062500
4194		-42.968750
4195		-37.109375
4196		-41.015625
4197		-37.109375
4198		-41.015625
4199		-35.156250
4200		-41.015625
4201		-35.156250
4202		-37.109375
4203		-35.156250
4204		-37.109375
4205		-33.203125
4206		-35.156250
4207		-33.203125
4208		-33.203125
4209		-29.296875
4210		-33.203125
4211		-31.250000
4212		-31.250000
4213		-29.296875
4214		-33.203125
4215		-27.343750
4216		-31.250000
4217		-25.390625
4218		-29.296875
4219		-25.390625
4220		-27.343750
4221		-25.390625
4222		-27.343750
4223		-23.437500
4224		-25.390625
4225		-21.484375
4226		-25.390625
4227		-21.484375
4228		-23.437500
4229		-21.484375
4230		-23.437500
4231		-17.578125
4232		-23.437500
4233		-17.578125
4234		-21.484375
4235		-17.578125
4236		-19.531250
4237		-15.625000
4238		-17.578125
4239		-15.625000
4240		-17.578125
4241		-13.671875
4242		-17.578125
4243		-11.718750
4244		-15.625000
4245		-11.718750
4246		-13.671875
4247		-9.765625
4248		-13.671875
4249		-9.765625
4250		-11.718750
4251		-9.765625
4252		-11.718750
4253		-7.812500
4254		-9.765625
4255		-5.859375
4256		-7.812500
4257		-5.859375
4258		-7.812500
4259		-3.906250
4260		-5.859375
4261		-3.906250
4262		-3.906250
4263		-1.953125
4264		-5.859375
4265		0.000000
4266		-3.906250
4267		0.000000
4268		-1.953125
4269		1.953125
4270		0.000000
4271		1.953125
4272		0.000000
4273		3.906250
4274		1.953125
4275		3.906250
4276		1.953125
4277		5.859375
4278		3.906250
4279		7.812500
4280		3.906250
4281		7.812500
4282		3.906250
4283		9.765625
4284		7.812500
4285		9.765625
4286		7.812500
4287		11.718750
4288		9.765625
4289		11.718750
4290		9.765625
4291		13.671875
4292		11.718750
4293		15.625000
4294		11.718750
4295		15.625000
4296		13.671875
4297		17.578125
4298		13.671875
4299		17.578125
4300		15.625000
4301		17.578125
4302		17.578125
4303		21.484375
4304		17.578125
4305		19.531250
4306		19.531250
4307		21.484375
4308		17.578125
4309		23.437500
4310		21.484375
4311		23.437500
4312		21.484375
4313		25.390625
4314		23.437500
4315		25.390625
4316		23.437500
4317		27.343750
4318		23.437500
4319		27.343750
4320		25.390625
4321		29.296875
4322		25.390625
4323		29.296875
4324		27.343750
4325		31.250000
4326		29.296875
4327		33.203125
4328		27.343750
4329		33.203125
4330		31.250000
4331		33.203125
4332		31.250000
4333		35.156250
4334		33.203125
4335		35.156250
4336		33.203125
4337		37.109375
4338		35.156250
4339		37.109375
4340		35.156250
4341		39.062500
4342		35.156250
4343		39.062500
4344		37.109375
4345		39.062500
4346		37.109375
4347		41.015625
4348		39.062500
4349		41.015625
4350		39.062500
4351		42.968750
4352		39.062500
4353		42.968750
4354		41.015625
4355		42.968750
4356		41.015625
4357		44.921875
4358		42.968750
4359		44.921875
4360		42.968750
4361		46.875000
4362		42.968750
4363		46.875000
4364		44.921875
4365		46.875000
4366		44.921875
4367		48.828125
4368		46.875000
4369		48.828125
4370		46.875000
4371		50.781250
4372		46.875000
4373		50.781250
4374		48.828125
4375		50.781250
4376		46.875000
4377		52.734375
4378		48.828125
4379		52.734375
4380		50.781250
4381		54.687500
4382		50.781250
4383		52.734375
4384		50.781250
4385		54.687500
4386		50.781250
4387		54.687500
4388		52.734375
4389		54.687500
4390		52.734375
4391		56.640625
4392		52.734375
4393		56.640625
4394		54.687500
4395		56.640625
4396		54.687500
4397		58.593750
4398		54.687500
4399		58.593750
4400		54.687500
4401		58.593750
4402		56.640625
4403		58.593750
4404		56.640625
4405		58.593750
4406		56.640625
4407		60.546875
4408		56.640625
4409		60.546875
4410		56.640625
4411		60.546875
4412		58.593750
4413		60.546875
4414		58.593750
4415		60.546875
4416		58.593750
4417		62.500000
4418		58.593750
4419		60.546875
4420		58.593750
4421		62.500000
4422		60.546875
4423		62.500000
4424		60.546875
4425		62.500000
4426		60.546875
4427		62.500000
4428		60.546875
4429		62.500000
4430		60.546875
4431		62.500000
4432		60.546875
4433		62.500000
4434		60.546875
4435		62.500000
4436		60.546875
4437		64.453125
4438		60.546875
4439		62.500000
4440		60.546875
4441		64.453125
4442		60.546875
4443		64.453125
4444		60.546875
4445		64.453125
4446		60.546875
4447		64.453125
4448		62.500000
4449		64.453125
4450		60.546875
4451		64.453125
4452		62.500000
4453		64.453125
4454		62.500000
4455		64.453125
4456		60.546875
4457		64.453125
4458		60.546875
4459		64.453125
4460		60.546875
4461		64.453125
4462		62.500000
4463		64.453125
4464		60.546875
4465		64.453125
4466		60.546875
4467		64.453125
4468		60.546875
4469		64.453125
4470		60.546875
4471		64.453125
4472		60.546875
4473		64.453125
4474		60.546875
4475		64.453125
4476		60.546875
4477		62.500000
4478		60.546875
4479		62.500000
4480		58.593750
4481		62.500000
4482		60.546875
4483		62.500000
4484		58.593750
4485		62.500000
4486		58.593750
4487		62.500000
4488		58.593750
4489		62.500000
4490		58.593750
4491		62.500000
4492		58.593750
4493		60.546875
4494		58.593750
4495		62.500000
4496		58.593750
4497		60.546875
4498		56.640625
4499		60.546875
4500		56.640625
4501		60.546875
4502		56.640625
4503		60.546875
4504		54.687500
4505		58.593750
4506		56.640625
4507		58.593750
4508		54.687500
4509		58.593750
4510		54.687500
4511		58.593750
4512		54.687500
4513		56.640625
4514		52.734375
4515		56.640625
4516		52.734375
4517		56.640625
4518		52.734375
4519		54.687500
4520		52.734375
4521		56.640625
4522		52.734375
4523		54.687500
4524		50.781250
4525		54.687500
4526		50.781250
4527		52.734375
4528		50.781250
4529		52.734375
4530		48.828125
4531		52.734375
4532		48.828125
4533		52.734375
4534		48.828125
4535		52.734375
4536		46.875000
4537		50.781250
4538		46.875000
4539		48.828125
4540		46.875000
4541		50.781250
4542		44.921875
4543		48.828125
4544		42.968750
4545		48.828125
4546		44.921875
4547		46.875000
4548		42.968750
4549		46.875000
4550		42.968750
4551		44.921875
4552		41.015625
4553		44.921875
4554		39.062500
4555		44.921875
4556		39.062500
4557		42.968750
4558		39.062500
4559		41.015625
4560		37.109375
4561		41.015625
4562		37.109375
4563		41.015625
4564		37.109375
4565		39.062500
4566		35.156250
4567		39.062500
4568		33.203125
4569		37.109375
4570		33.203125
4571		37.109375
4572		33.203125
4573		35.156250
4574		31.250000
4575		35.156250
4576		31.250000
4577		33.203125
4578		29.296875
4579		33.203125
4580		29.296875
4581		31.250000
4582		27.343750
4583		31.250000
4584		27.343750
4585		31.250000
4586		25.390625
4587		29.296875
4588		25.390625
4589		27.343750
4590		23.437500
4591		27.343750
4592		23.437500
4593		25.390625
4594		21.484375
4595		25.390625
4596		21.484375
4597		25.390625
4598		19.531250
4599		23.437500
4600		19.531250
4601		21.484375
4602		17.578125
4603		21.484375
4604		17.578125
4605		19.531250
4606		15.625000
4607		19.531250
4608		15.625000
4609		17.578125
4610		13.671875
4611		15.625000
4612		11.718750
4613		15.625000
4614		11.718750
4615		13.671875
4616		9.765625
4617		13.671875
4618		9.765625
4619		13.671875
4620		7.812500
4621		11.718750
4622		5.859375
4623		9.765625
4624		5.859375
4625		9.765625
4626		5.859375
4627		7.812500
4628		3.906250
4629		7.812500
4630		1.953125
4631		5.859375
4632		1.953125
4633		3.906250
4634		0.000000
4635		3.906250
4636		0.000000
4637		1.953125
4638		-1.953125
4639		1.953125
4640		-1.953125
4641		0.000000
4642		-3.906250
4643		0.000000
4644		-3.906250
4645		0.000000
4646		-5.859375
4647		-3.906250
4648		-7.812500
4649		-3.906250
4650		-7.812500
4651		-5.859375
4652		-9.765625
4653		-5.859375
4654		-9.765625
4655		-5.859375
4656		-11.718750
4657		-7.812500
4658		-13.671875
4659		-9.765625
4660		-13.671875
4661		-9.765625
4662		-15.625000
4663		-11.718750
4664		-17.578125
4665		-11.718750
4666		-17.578125
4667		-13.671875
4668		-17.578125
4669		-15.625000
4670		-19.531250
4671		-15.625000
4672		-19.531250
4673		-17.578125
4674		-21.484375
4675		-17.578125
4676		-23.437500
4677		-19.531250
4678		-23.437500
4679		-21.484375
4680		-25.390625
4681		-21.484375
4682		-27.343750
4683		-21.484375
4684		-27.343750
4685		-23.437500
4686		-27.343750
4687		-25.390625
4688		-29.296875
4689		-25.390625
4690		-29.296875
4691		-27.343750
4692		-31.250000
4693		-27.343750
4694		-33.203125
4695		-29.296875
4696		-33.203125
4697		-29.296875
4698		-35.156250
4699		-31.250000
4700		-35.156250
4701		-33.203125
4702		-35.156250
4703		-33.203125
4704		-37.109375
4705		-33.203125
4706		-37.109375
4707		-35.156250
4708		-39.062500
4709		-37.109375
4710		-41.015625
4711		-37.109375
4712		-41.015625
4713		-39.062500
4714		-42.968750
4715		-39.062500
4716		-42.968750
4717		-39.062500
4718		-44.921875
4719		-41.015625
4720		-44.921875
4721		-41.015625
4722		-44.921875
4723		-42.968750
4724		-46.875000
4725		-42.968750
4726		-46.875000
4727		-44.921875
4728		-48.828125
4729		-44.921875
4730		-48.828125
4731		-46.875000
4732		-50.781250
4733		-46.875000
4734		-50.781250
4735		-46.875000
4736		-50.781250
4737		-48.828125
4738		-52.734375
4739		-48.828125
4740		-52.734375
4741		-50.781250
4742		-54.687500
4743		-50.781250
4744		-54.687500
4745		-52.734375
4746		-54.687500
4747		-52.734375
4748		-56.640625
4749		-52.734375
4750		-56.640625
4751		-54.687500
4752		-58.593750
4753		-54.687500
4754		-58.593750
4755		-56.640625
4756		-58.593750
4757		-56.640625
4758		-60.546875
4759		-56.640625
4760		-60.546875
4761		-56.640625
4762		-60.546875
4763		-58.593750
4764		-62.500000
4765		-58.593750
4766		-62.500000
4767		-58.593750
4768		-62.500000
4769		-60.546875
4770		-64.453125
4771		-60.546875
4772		-62.500000
4773		-60.546875
4774		-64.453125
4775		-60.546875
4776		-64.453125
4777		-60.546875
4778		-64.453125
4779		-62.500000
4780		-66.406250
4781		-62.500000
4782		-66.406250
4783		-62.500000
4784		-66.406250
4785		-62.500000
4786		-66.406250
4787		-62.500000
4788		-66.406250
4789		-64.453125
4790		-66.406250
4791		-64.453125
4792		-68.359375
4793		-62.500000
4794		-66.406250
4795		-64.453125
4796		-68.359375
4797		-64.453125
4798		-68.359375
4799		-64.453125
4800		-68.359375
4801		-66.406250
4802		-68.359375
4803		-64.453125
4804		-68.359375
4805		-66.406250
4806		-68.359375
4807		-66.406250
4808		-68.359375
4809		-64.453125
4810		-68.359375
4811		-66.406250
4812		-68.359375
4813		-66.406250
4814		-70.312500
4815		-66.406250
4816		-68.359375
4817		-66.406250
4818		-70.312500
4819		-66.406250
4820		-68.359375
4821		-66.406250
4822		-68.359375
4823		-66.406250
4824		-68.359375
4825		-66.406250
4826		-68.359375
4827		-66.406250
4828		-68.359375
4829		-66.406250
4830		-68.359375
4831		-66.406250
4832		-68.359375
4833		-66.406250
4834		-68.359375
4835		-66.406250
4836		-68.359375
4837		-64.453125
4838		-68.359375
4839		-66.406250
4840		-68.359375
4841		-66.406250
4842		-68.359375
4843		-64.453125
4844		-66.406250
4845		-64.453125
4846		-66.406250
4847		-64.453125
4848		-68.359375
4849		-64.453125
4850		-66.406250
4851		-64.453125
4852		-66.406250
4853		-64.453125
4854		-66.406250
4855		-62.500000
4856		-66.406250
4857		-62.500000
4858		-66.406250
4859		-62.500000
4860		-66.406250
4861		-62.500000
4862		-64.453125
4863		-62.500000
4864		-64.453125
4865		-60.546875
4866		-64.453125
4867		-60.546875
4868		-62.500000
4869		-60.546875
4870		-64.453125
4871		-60.546875
4872		-62.500000
4873		-60.546875
4874		-62.500000
4875		-58.593750
4876		-62.500000
4877		-58.593750
4878		-60.546875
4879		-58.593750
4880		-60.546875
4881		-56.640625
4882		-58.593750
4883		-56.640625
4884		-58.593750
4885		-56.640625
4886		-58.593750
4887		-54.687500
4888		-56.640625
4889		-54.687500
4890		-56.640625
4891		-54.687500
4892		-56.640625
4893		-52.734375
4894		-56.640625
4895		-52.734375
4896		-54.687500
4897		-52.734375
4898		-54.687500
4899		-50.781250
4900		-52.734375
4901		-50.781250
4902		-52.734375
4903		-48.828125
4904		-52.734375
4905		-48.828125
4906		-50.781250
4907		-48.828125
4908		-50.781250
4909		-46.875000
4910		-48.828125
4911		-46.875000
4912		-48.828125
4913		-46.875000
4914		-48.828125
4915		-42.968750
4916		-46.875000
4917		-44.921875
4918		-46.875000
4919		-42.968750
4920		-44.921875
4921		-42.968750
4922		-44.921875
4923		-41.015625
4924		-42.968750
4925		-41.015625
4926		-42.968750
4927		-39.062500
4928		-41.015625
4929		-39.062500
4930		-41.015625
4931		-37.109375
4932		-39.062500
4933		-35.156250
4934		-39.062500
4935		-35.156250
4936		-37.109375
4937		-35.156250
4938		-37.109375
4939		-33.203125
4940		-35.156250
4941		-33.203125
4942		-33.203125
4943		-31.250000
4944		-35.156250
4945		-29.296875
4946		-33.203125
4947		-29.296875
4948		-31.250000
4949		-27.343750
4950		-31.250000
4951		-27.343750
4952		-29.296875
4953		-25.390625
4954		-27.343750
4955		-25.390625
4956		-27.343750
4957		-23.437500
4958		-25.390625
4959		-23.437500
4960		-25.390625
4961		-21.484375
4962		-25.390625
4963		-19.531250
4964		-23.437500
4965		-19.531250
4966		-21.484375
4967		-17.578125
4968		-21.484375
4969		-17.578125
4970		-19.531250
4971		-15.625000
4972		-19.531250
4973		-15.625000
4974		-17.578125
4975		-13.671875
4976		-15.625000
4977		-11.718750
4978		-15.625000
4979		-11.718750
4980		-13.671875
4981		-11.718750
4982		-11.718750
4983		-7.812500
4984		-11.718750
4985		-7.812500
4986		-9.765625
4987		-7.812500
4988		-9.765625
4989		-5.859375
4990		-7.812500
4991		-3.906250
4992		-7.812500
4993		-3.906250
4994		-5.859375
4995		-1.953125
4996		-5.859375
4997		-1.953125
4998		-3.906250
4999		0.000000
5000		-1.953125
5001		1.953125
5002		-1.953125
5003		1.953125
5004		0.000000
5005		3.906250
5006		0.000000
5007		3.906250
5008		1.953125
5009		5.859375
5010		3.906250
5011		5.859375
5012		3.906250
5013		7.812500
5014		3.906250
5015		9.765625
5016		7.812500
5017		9.765625
5018		7.812500
5019		9.765625
5020		7.812500
5021		13.671875
5022		9.765625
5023		11.718750
5024		9.765625
5025		13.671875
5026		9.765625
5027		15.625000
5028		13.671875
5029		15.625000
5030		13.671875
5031		17.578125
5032		13.671875
5033		19.531250
5034		15.625000
5035		19.531250
5036		17.578125
5037		21.484375
5038		17.578125
5039		21.484375
5040		19.531250
5041		23.437500
5042		19.531250
5043		23.437500
5044		21.484375
5045		25.390625
5046		21.484375
5047		25.390625
5048		23.437500
5049		27.343750
5050		25.390625
5051		27.343750
5052		25.390625
5053		29.296875
5054		27.343750
5055		29.296875
5056		27.343750
5057		31.250000
5058		27.343750
5059		33.203125
5060		29.296875
5061		33.203125
5062		31.250000
5063		33.203125
5064		31.250000
5065		35.156250
5066		33.203125
5067		35.156250
5068		33.203125
5069		37.109375
5070		35.156250
5071		37.109375
5072		35.156250
5073		39.062500
5074		37.109375
5075		39.062500
5076		37.109375
5077		39.062500
5078		37.109375
5079		41.015625
5080		39.062500
5081		41.015625
5082		39.062500
5083		42.968750
5084		41.015625
5085		42.968750
5086		41.015625
5087		44.921875
5088		41.015625
5089		44.921875
5090		42.968750
5091		44.921875
5092		42.968750
5093		46.875000
5094		44.921875
5095		46.875000
5096		42.968750
5097		48.828125
5098		44.921875
5099		48.828125
5100		46.875000
5101		50.781250
5102		46.875000
5103		50.781250
5104		46.875000
5105		50.781250
5106		46.875000
5107		50.781250
5108		48.828125
5109		54.687500
5110		48.828125
5111		52.734375
5112		48.828125
5113		52.734375
5114		48.828125
5115		54.687500
5116		48.828125
5117		56.640625
5118		50.781250
5119		54.687500
5120		52.734375
5121		54.687500
5122		52.734375
5123		56.640625
5124		52.734375
5125		56.640625
5126		54.687500
5127		58.593750
5128		54.687500
5129		58.593750
5130		54.687500
5131		58.593750
5132		54.687500
5133		60.546875
5134		54.687500
5135		60.546875
5136		54.687500
5137		58.593750
5138		56.640625
5139		60.546875
5140		56.640625
5141		60.546875
5142		56.640625
5143		62.500000
5144		56.640625
5145		62.500000
5146		56.640625
5147		62.500000
5148		56.640625
5149		62.500000
5150		56.640625
5151		64.453125
5152		60.546875
5153		62.500000
5154		60.546875
5155		62.500000
5156		58.593750
5157		64.453125
5158		56.640625
5159		64.453125
5160		58.593750
5161		64.453125
5162		60.546875
5163		64.453125
5164		58.593750
5165		64.453125
5166		60.546875
5167		64.453125
5168		58.593750
5169		66.406250
5170		60.546875
5171		64.453125
5172		60.546875
5173		64.453125
5174		58.593750
5175		66.406250
5176		60.546875
5177		66.406250
5178		62.500000
5179		64.453125
5180		60.546875
5181		66.406250
5182		58.593750
5183		66.406250
5184		60.546875
5185		68.359375
5186		62.500000
5187		64.453125
5188		62.500000
5189		64.453125
5190		60.546875
5191		66.406250
5192		60.546875
5193		66.406250
5194		60.546875
5195		66.406250
5196		62.500000
5197		66.406250
5198		58.593750
5199		66.406250
5200		60.546875
5201		64.453125
5202		58.593750
5203		66.406250
5204		60.546875
5205		64.453125
5206		60.546875
5207		64.453125
5208		56.640625
5209		66.406250
5210		58.593750
5211		64.453125
5212		60.546875
5213		62.500000
5214		58.593750
5215		66.406250
5216		56.640625
5217		66.406250
5218		56.640625
5219		66.406250
5220		58.593750
5221		62.500000
5222		58.593750
5223		62.500000
5224		58.593750
5225		62.500000
5226		54.687500
5227		64.453125
5228		56.640625
5229		62.500000
5230		58.593750
5231		60.546875
5232		54.687500
5233		64.453125
5234		52.734375
5235		62.500000
5236		56.640625
5237		60.546875
5238		56.640625
5239		58.593750
5240		54.687500
5241		58.593750
5242		52.734375
5243		62.500000
5244		52.734375
5245		58.593750
5246		54.687500
5247		56.640625
5248		50.781250
5249		60.546875
5250		50.781250
5251		58.593750
5252		50.781250
5253		58.593750
5254		52.734375
5255		54.687500
5256		50.781250
5257		54.687500
5258		48.828125
5259		56.640625
5260		48.828125
5261		56.640625
5262		48.828125
5263		52.734375
5264		48.828125
5265		52.734375
5266		44.921875
5267		54.687500
5268		46.875000
5269		54.687500
5270		46.875000
5271		50.781250
5272		46.875000
5273		50.781250
5274		44.921875
5275		50.781250
5276		42.968750
5277		50.781250
5278		42.968750
5279		48.828125
5280		42.968750
5281		46.875000
5282		39.062500
5283		50.781250
5284		42.968750
5285		44.921875
5286		41.015625
5287		46.875000
5288		41.015625
5289		42.968750
5290		39.062500
5291		42.968750
5292		35.156250
5293		44.921875
5294		35.156250
5295		41.015625
5296		37.109375
5297		39.062500
5298		33.203125
5299		41.015625
5300		31.250000
5301		41.015625
5302		31.250000
5303		39.062500
5304		33.203125
5305		37.109375
5306		33.203125
5307		35.156250
5308		29.296875
5309		35.156250
5310		27.343750
5311		37.109375
5312		29.296875
5313		33.203125
5314		27.343750
5315		31.250000
5316		23.437500
5317		33.203125
5318		23.437500
5319		31.250000
5320		25.390625
5321		29.296875
5322		23.437500
5323		27.343750
5324		23.437500
5325		27.343750
5326		19.531250
5327		27.343750
5328		21.484375
5329		25.390625
5330		21.484375
5331		23.437500
5332		17.578125
5333		25.390625
5334		15.625000
5335		23.437500
5336		15.625000
5337		23.437500
5338		15.625000
5339		19.531250
5340		13.671875
5341		19.531250
5342		13.671875
5343		19.531250
5344		11.718750
5345		19.531250
5346		11.718750
5347		15.625000
5348		9.765625
5349		15.625000
5350		7.812500
5351		17.578125
5352		5.859375
5353		13.671875
5354		7.812500
5355		9.765625
5356		5.859375
5357		9.765625
5358		5.859375
5359		9.765625
5360		1.953125
5361		9.765625
5362		1.953125
5363		7.812500
5364		1.953125
5365		5.859375
5366		0.000000
5367		5.859375
5368		0.000000
5369		3.906250
5370		-1.953125
5371		5.859375
5372		-3.906250
5373		1.953125
5374		-3.906250
5375		0.000000
5376		-5.859375
5377		1.953125
5378		-5.859375
5379		0.000000
5380		-5.859375
5381		-1.953125
5382		-7.812500
5383		-3.906250
5384		-9.765625
5385		-3.906250
5386		-9.765625
5387		-5.859375
5388		-11.718750
5389		-7.812500
5390		-11.718750
5391		-7.812500
5392		-13.671875
5393		-9.765625
5394		-15.625000
5395		-9.765625
5396		-15.625000
5397		-11.718750
5398		-17.578125
5399		-13.671875
5400		-17.578125
5401		-13.671875
5402		-17.578125
5403		-15.625000
5404		-19.531250
5405		-17.578125
5406		-21.484375
5407		-17.578125
5408		-21.484375
5409		-19.531250
5410		-23.437500
5411		-19.531250
5412		-23.437500
5413		-21.484375
5414		-25.390625
5415		-21.484375
5416		-27.343750
5417		-23.437500
5418		-27.343750
5419		-23.437500
5420		-27.343750
5421		-25.390625
5422		-29.296875
5423		-25.390625
5424		-31.250000
5425		-27.343750
5426		-31.250000
5427		-29.296875
5428		-31.250000
5429		-29.296875
5430		-33.203125
5431		-29.296875
5432		-35.156250
5433		-31.250000
5434		-35.156250
5435		-33.203125
5436		-39.062500
5437		-33.203125
5438		-37.109375
5439		-33.203125
5440		-39.062500
5441		-35.156250
5442		-41.015625
5443		-35.156250
5444		-41.015625
5445		-35.156250
5446		-42.968750
5447		-37.109375
5448		-42.968750
5449		-37.109375
5450		-44.921875
5451		-39.062500
5452		-44.921875
5453		-39.062500
5454		-44.921875
5455		-41.015625
5456		-44.921875
5457		-42.968750
5458		-46.875000
5459		-42.968750
5460		-48.828125
5461		-42.968750
5462		-50.781250
5463		-44.921875
5464		-50.781250
5465		-44.921875
5466		-50.781250
5467		-46.875000
5468		-52.734375
5469		-46.875000
5470		-52.734375
5471		-46.875000
5472		-52.734375
5473		-48.828125
5474		-54.687500
5475		-50.781250
5476		-54.687500
5477		-50.781250
5478		-54.687500
5479		-50.781250
5480		-56.640625
5481		-50.781250
5482		-56.640625
5483		-50.781250
5484		-56.640625
5485		-52.734375
5486		-58.593750
5487		-52.734375
5488		-58.593750
5489		-54.687500
5490		-58.593750
5491		-54.687500
5492		-60.546875
5493		-54.687500
5494		-60.546875
5495		-54.687500
5496		-60.546875
5497		-56.640625
5498		-62.500000
5499		-56.640625
5500		-62.500000
5501		-56.640625
5502		-62.500000
5503		-58.593750
5504		-62.500000
5505		-58.593750
5506		-62.500000
5507		-58.593750
5508		-64.453125
5509		-60.546875
5510		-64.453125
5511		-60.546875
5512		-64.453125
5513		-60.546875
5514		-66.406250
5515		-60.546875
5516		-64.453125
5517		-60.546875
5518		-66.406250
5519		-62.500000
5520		-66.406250
5521		-62.500000
5522		-66.406250
5523		-62.500000
5524		-66.406250
5525		-62.500000
5526		-68.359375
5527		-62.500000
5528		-66.406250
5529		-62.500000
5530		-68.359375
5531		-62.500000
5532		-68.359375
5533		-62.500000
5534		-68.359375
5535		-64.453125
5536		-68.359375
5537		-62.500000
5538		-68.359375
5539		-64.453125
5540		-68.359375
5541		-64.453125
5542		-68.359375
5543		-64.453125
5544		-70.312500
5545		-64.453125
5546		-68.359375
5547		-64.453125
5548		-70.312500
5549		-64.453125
5550		-70.312500
5551		-64.453125
5552		-68.359375
5553		-64.453125
5554		-68.359375
5555		-64.453125
5556		-68.359375
5557		-64.453125
5558		-68.359375
5559		-66.406250
5560		-70.312500
5561		-64.453125
5562		-70.312500
5563		-64.453125
5564		-68.359375
5565		-64.453125
5566		-70.312500
5567		-64.453125
5568		-68.359375
5569		-64.453125
5570		-68.359375
5571		-64.453125
5572		-68.359375
5573		-64.453125
5574		-66.406250
5575		-64.453125
5576		-68.359375
5577		-64.453125
5578		-66.406250
5579		-64.453125
5580		-66.406250
5581		-64.453125
5582		-68.359375
5583		-62.500000
5584		-66.406250
5585		-62.500000
5586		-66.406250
5587		-62.500000
5588		-66.406250
5589		-62.500000
5590		-64.453125
5591		-62.500000
5592		-66.406250
5593		-62.500000
5594		-64.453125
5595		-60.546875
5596		-64.453125
5597		-60.546875
5598		-66.406250
5599		-58.593750
5600		-64.453125
5601		-60.546875
5602		-62.500000
5603		-58.593750
5604		-62.500000
5605		-58.593750
5606		-64.453125
5607		-58.593750
5608		-60.546875
5609		-58.593750
5610		-62.500000
5611		-58.593750
5612		-60.546875
5613		-56.640625
5614		-60.546875
5615		-56.640625
5616		-62.500000
5617		-54.687500
5618		-58.593750
5619		-56.640625
5620		-58.593750
5621		-54.687500
5622		-58.593750
5623		-54.687500
5624		-56.640625
5625		-54.687500
5626		-56.640625
5627		-52.734375
5628		-54.687500
5629		-50.781250
5630		-54.687500
5631		-50.781250
5632		-54.687500
5633		-50.781250
5634		-52.734375
5635		-48.828125
5636		-52.734375
5637		-48.828125
5638		-52.734375
5639		-48.828125
5640		-50.781250
5641		-46.875000
5642		-50.781250
5643		-46.875000
5644		-50.781250
5645		-44.921875
5646		-48.828125
5647		-42.968750
5648		-46.875000
5649		-42.968750
5650		-48.828125
5651		-42.968750
5652		-44.921875
5653		-42.968750
5654		-44.921875
5655		-41.015625
5656		-44.921875
5657		-41.015625
5658		-42.968750
5659		-39.062500
5660		-41.015625
5661		-39.062500
5662		-41.015625
5663		-37.109375
5664		-39.062500
5665		-37.109375
5666		-39.062500
5667		-35.156250
5668		-37.109375
5669		-35.156250
5670		-37.109375
5671		-33.203125
5672		-37.109375
5673		-33.203125
5674		-35.156250
5675		-31.250000
5676		-35.156250
5677		-29.296875
5678		-33.203125
5679		-29.296875
5680		-33.203125
5681		-27.343750
5682		-31.250000
5683		-25.390625
5684		-29.296875
5685		-25.390625
5686		-29.296875
5687		-25.390625
5688		-27.343750
5689		-23.437500
5690		-27.343750
5691		-23.437500
5692		-25.390625
5693		-21.484375
5694		-25.390625
5695		-21.484375
5696		-23.437500
5697		-19.531250
5698		-23.437500
5699		-17.578125
5700		-21.484375
5701		-17.578125
5702		-19.531250
5703		-15.625000
5704		-19.531250
5705		-15.625000
5706		-17.578125
5707		-13.671875
5708		-17.578125
5709		-11.718750
5710		-15.625000
5711		-11.718750
5712		-13.671875
5713		-11.718750
5714		-13.671875
5715		-7.812500
5716		-11.718750
5717		-9.765625
5718		-11.718750
5719		-7.812500
5720		-9.765625
5721		-5.859375
5722		-9.765625
5723		-3.906250
5724		-7.812500
5725		-3.906250
5726		-5.859375
5727		-3.906250
5728		-5.859375
5729		-1.953125
5730		-3.906250
5731		0.000000
5732		-3.906250
5733		0.000000
5734		-1.953125
5735		1.953125
5736		0.000000
5737		1.953125
5738		0.000000
5739		3.906250
5740		0.000000
5741		3.906250
5742		1.953125
5743		5.859375
5744		3.906250
5745		7.812500
5746		3.906250
5747		7.812500
5748		5.859375
5749		9.765625
5750		5.859375
5751		11.718750
5752		7.812500
5753		11.718750
5754		7.812500
5755		13.671875
5756		9.765625
5757		13.671875
5758		11.718750
5759		15.625000
5760		11.718750
5761		15.625000
5762		11.718750
5763		15.625000
5764		13.671875
5765		17.578125
5766		13.671875
5767		19.531250
5768		17.578125
5769		19.531250
5770		17.578125
5771		21.484375
5772		17.578125
5773		21.484375
5774		19.531250
5775		23.437500
5776		21.484375
5777		25.390625
5778		21.484375
5779		25.390625
5780		23.437500
5781		25.390625
5782		23.437500
5783		27.343750
5784		25.390625
5785		29.296875
5786		25.390625
5787		29.296875
5788		27.343750
5789		31.250000
5790		27.343750
5791		31.250000
5792		29.296875
5793		33.203125
5794		29.296875
5795		33.203125
5796		31.250000
5797		35.156250
5798		31.250000
5799		35.156250
5800		33.203125
5801		37.109375
5802		33.203125
5803		37.109375
5804		35.156250
5805		37.109375
5806		35.156250
5807		39.062500
5808		37.109375
5809		41.015625
5810		37.109375
5811		41.015625
5812		35.156250
5813		41.015625
5814		39.062500
5815		42.968750
5816		39.062500
5817		42.968750
5818		39.062500
5819		44.921875
5820		41.015625
5821		44.921875
5822		42.968750
5823		44.921875
5824		42.968750
5825		46.875000
5826		44.921875
5827		46.875000
5828		42.968750
5829		48.828125
5830		42.968750
5831		48.828125
5832		44.921875
5833		48.828125
5834		46.875000
5835		50.781250
5836		46.875000
5837		50.781250
5838		48.828125
5839		52.734375
5840		48.828125
5841		52.734375
5842		48.828125
5843		52.734375
5844		50.781250
5845		54.687500
5846		50.781250
5847		54.687500
5848		50.781250
5849		54.687500
5850		52.734375
5851		56.640625
5852		52.734375
5853		56.640625
5854		52.734375
5855		56.640625
5856		52.734375
5857		58.593750
5858		54.687500
5859		56.640625
5860		54.687500
5861		58.593750
5862		54.687500
5863		58.593750
5864		54.687500
5865		60.546875
5866		56.640625
5867		60.546875
5868		56.640625
5869		60.546875
5870		56.640625
5871		60.546875
5872		58.593750
5873		60.546875
5874		58.593750
5875		62.500000
5876		58.593750
5877		62.500000
5878		58.593750
5879		62.500000
5880		58.593750
5881		62.500000
5882		58.593750
5883		64.453125
5884		60.546875
5885		62.500000
5886		60.546875
5887		62.500000
5888		60.546875
5889		64.453125
5890		60.546875
5891		64.453125
5892		60.546875
5893		64.453125
5894		60.546875
5895		64.453125
5896		60.546875
5897		64.453125
5898		60.546875
5899		64.453125
5900		60.546875
5901		64.453125
5902		60.546875
5903		64.453125
5904		60.546875
5905		66.406250
5906		62.500000
5907		66.406250
5908		62.500000
5909		64.453125
5910		62.500000
5911		64.453125
5912		62.500000
5913		66.406250
5914		62.500000
5915		66.406250
5916		62.500000
5917		66.406250
5918		62.500000
5919		66.406250
5920		62.500000
5921		66.406250
5922		62.500000
5923		66.406250
5924		62.500000
5925		66.406250
5926		62.500000
5927		66.406250
5928		62.500000
5929		66.406250
5930		60.546875
5931		66.406250
5932		62.500000
5933		66.406250
5934		62.500000
5935		66.406250
5936		60.546875
5937		66.406250
5938		60.546875
5939		64.453125
5940		62.500000
5941		64.453125
5942		60.546875
5943		64.453125
5944		60.546875
5945		64.453125
5946		60.546875
5947		64.453125
5948		58.593750
5949		66.406250
5950		60.546875
5951		64.453125
5952		58.593750
5953		64.453125
5954		58.593750
5955		64.453125
5956		58.593750
5957		62.500000
5958		58.593750
5959		62.500000
5960		58.593750
5961		62.500000
5962		58.593750
5963		62.500000
5964		58.593750
5965		60.546875
5966		56.640625
5967		62.500000
5968		56.640625
5969		60.546875
5970		56.640625
5971		60.546875
5972		56.640625
5973		60.546875
5974		56.640625
5975		58.593750
5976		56.640625
5977		58.593750
5978		54.687500
5979		58.593750
5980		54.687500
5981		58.593750
5982		54.687500
5983		58.593750
5984		52.734375
5985		56.640625
5986		52.734375
5987		56.640625
5988		52.734375
5989		56.640625
5990		50.781250
5991		54.687500
5992		50.781250
5993		54.687500
5994		50.781250
5995		54.687500
5996		48.828125
5997		52.734375
5998		48.828125
5999		52.734375
6000		48.828125
6001		52.734375
6002		48.828125
6003		50.781250
6004		46.875000
6005		50.781250
6006		46.875000
6007		48.828125
6008		44.921875
6009		48.828125
6010		44.921875
6011		48.828125
6012		44.921875
6013		46.875000
6014		42.968750
6015		46.875000
6016		42.968750
6017		46.875000
6018		41.015625
6019		44.921875
6020		41.015625
6021		44.921875
6022		41.015625
6023		42.968750
6024		39.062500
6025		42.968750
6026		39.062500
6027		42.968750
6028		37.109375
6029		41.015625
6030		35.156250
6031		41.015625
6032		35.156250
6033		39.062500
6034		35.156250
6035		39.062500
6036		35.156250
6037		37.109375
6038		33.203125
6039		37.109375
6040		31.250000
6041		37.109375
6042		31.250000
6043		35.156250
6044		29.296875
6045		33.203125
6046		27.343750
6047		33.203125
6048		27.343750
6049		31.250000
6050		25.390625
6051		31.250000
6052		27.343750
6053		29.296875
6054		25.390625
6055		29.296875
6056		23.437500
6057		27.343750
6058		21.484375
6059		27.343750
6060		21.484375
6061		25.390625
6062		21.484375
6063		25.390625
6064		19.531250
6065		23.437500
6066		17.578125
6067		21.484375
6068		17.578125
6069		21.484375
6070		17.578125
6071		19.531250
6072		15.625000
6073		19.531250
6074		13.671875
6075		17.578125
6076		13.671875
6077		17.578125
6078		11.718750
6079		15.625000
6080		11.718750
6081		15.625000
6082		9.765625
6083		13.671875
6084		9.765625
6085		11.718750
6086		7.812500
6087		11.718750
6088		5.859375
6089		9.765625
6090		5.859375
6091		9.765625
6092		3.906250
6093		7.812500
6094		3.906250
6095		5.859375
6096		1.953125
6097		7.812500
6098		1.953125
6099		5.859375
6100		0.000000
6101		3.906250
6102		0.000000
6103		3.906250
6104		-1.953125
6105		1.953125
6106		-1.953125
6107		0.000000
6108		-3.906250
6109		0.000000
6110		-3.906250
6111		-1.953125
6112		-5.859375
6113		-1.953125
6114		-7.812500
6115		-3.906250
6116		-7.812500
6117		-3.906250
6118		-9.765625
6119		-5.859375
6120		-11.718750
6121		-5.859375
6122		-11.718750
6123		-7.812500
6124		-13.671875
6125		-9.765625
6126		-13.671875
6127		-9.765625
6128		-15.625000
6129		-11.718750
6130		-17.578125
6131		-11.718750
6132		-17.578125
6133		-13.671875
6134		-19.531250
6135		-15.625000
6136		-21.484375
6137		-15.625000
6138		-19.531250
6139		-17.578125
6140		-21.484375
6141		-17.578125
6142		-23.437500
6143		-17.578125
6144		-23.437500
6145		-21.484375
6146		-25.390625
6147		-19.531250
6148		-25.390625
6149		-21.484375
6150		-27.343750
6151		-23.437500
6152		-27.343750
6153		-23.437500
6154		-29.296875
6155		-25.390625
6156		-31.250000
6157		-25.390625
6158		-31.250000
6159		-27.343750
6160		-31.250000
6161		-27.343750
6162		-33.203125
6163		-29.296875
6164		-35.156250
6165		-31.250000
6166		-35.156250
6167		-31.250000
6168		-35.156250
6169		-33.203125
6170		-37.109375
6171		-33.203125
6172		-37.109375
6173		-33.203125
6174		-39.062500
6175		-35.156250
6176		-39.062500
6177		-35.156250
6178		-41.015625
6179		-37.109375
6180		-41.015625
6181		-39.062500
6182		-42.968750
6183		-39.062500
6184		-44.921875
6185		-39.062500
6186		-44.921875
6187		-41.015625
6188		-44.921875
6189		-42.968750
6190		-46.875000
6191		-42.968750
6192		-46.875000
6193		-42.968750
6194		-48.828125
6195		-44.921875
6196		-48.828125
6197		-44.921875
6198		-48.828125
6199		-46.875000
6200		-50.781250
6201		-46.875000
6202		-52.734375
6203		-46.875000
6204		-52.734375
6205		-48.828125
6206		-52.734375
6207		-48.828125
6208		-52.734375
6209		-48.828125
6210		-54.687500
6211		-50.781250
6212		-56.640625
6213		-50.781250
6214		-54.687500
6215		-52.734375
6216		-56.640625
6217		-52.734375
6218		-56.640625
6219		-52.734375
6220		-58.593750
6221		-54.687500
6222		-58.593750
6223		-54.687500
6224		-58.593750
6225		-56.640625
6226		-60.546875
6227		-54.687500
6228		-58.593750
6229		-56.640625
6230		-60.546875
6231		-56.640625
6232		-60.546875
6233		-56.640625
6234		-60.546875
6235		-56.640625
6236		-62.500000
6237		-58.593750
6238		-62.500000
6239		-58.593750
6240		-62.500000
6241		-58.593750
6242		-64.453125
6243		-60.546875
6244		-62.500000
6245		-60.546875
6246		-64.453125
6247		-60.546875
6248		-64.453125
6249		-60.546875
6250		-64.453125
6251		-60.546875
6252		-64.453125
6253		-62.500000
6254		-66.406250
6255		-62.500000
6256		-66.406250
6257		-62.500000
6258		-66.406250
6259		-62.500000
6260		-66.406250
6261		-62.500000
6262		-66.406250
6263		-64.453125
6264		-66.406250
6265		-64.453125
6266		-68.359375
6267		-62.500000
6268		-66.406250
6269		-64.453125
6270		-66.406250
6271		-64.453125
6272		-68.359375
6273		-64.453125
6274		-68.359375
6275		-64.453125
6276		-68.359375
6277		-64.453125
6278		-68.359375
6279		-64.453125
6280		-66.406250
6281		-64.453125
6282		-68.359375
6283		-64.453125
6284		-68.359375
6285		-64.453125
6286		-68.359375
6287		-64.453125
6288		-68.359375
6289		-64.453125
6290		-68.359375
6291		-64.453125
6292		-68.359375
6293		-64.453125
6294		-68.359375
6295		-64.453125
6296		-68.359375
6297		-64.453125
6298		-68.359375
6299		-64.453125
6300		-68.359375
6301		-64.453125
6302		-68.359375
6303		-64.453125
6304		-66.406250
6305		-62.500000
6306		-68.359375
6307		-64.453125
6308		-66.406250
6309		-64.453125
6310		-68.359375
6311		-62.500000
6312		-66.406250
6313		-62.500000
6314		-66.406250
6315		-62.500000
6316		-66.406250
6317		-60.546875
6318		-64.453125
6319		-62.500000
6320		-66.406250
6321		-62.500000
6322		-64.453125
6323		-60.546875
6324		-64.453125
6325		-60.546875
6326		-64.453125
6327		-60.546875
6328		-64.453125
6329		-60.546875
6330		-62.500000
6331		-60.546875
6332		-62.500000
6333		-58.593750
6334		-62.500000
6335		-58.593750
6336		-62.500000
6337		-58.593750
6338		-60.546875
6339		-58.593750
6340		-62.500000
6341		-56.640625
6342		-60.546875
6343		-56.640625
6344		-60.546875
6345		-56.640625
6346		-58.593750
6347		-56.640625
6348		-58.593750
6349		-56.640625
6350		-58.593750
6351		-54.687500
6352		-58.593750
6353		-52.734375
6354		-56.640625
6355		-52.734375
6356		-56.640625
6357		-52.734375
6358		-54.687500
6359		-50.781250
6360		-54.687500
6361		-50.781250
6362		-54.687500
6363		-50.781250
6364		-52.734375
6365		-50.781250
6366		-52.734375
6367		-48.828125
6368		-50.781250
6369		-46.875000
6370		-50.781250
6371		-46.875000
6372		-50.781250
6373		-46.875000
6374		-48.828125
6375		-46.875000
6376		-48.828125
6377		-44.921875
6378		-48.828125
6379		-44.921875
6380		-46.875000
6381		-42.968750
6382		-44.921875
6383		-42.968750
6384		-46.875000
6385		-41.015625
6386		-44.921875
6387		-41.015625
6388		-42.968750
6389		-39.062500
6390		-42.968750
6391		-39.062500
6392		-41.015625
6393		-37.109375
6394		-41.015625
6395		-37.109375
6396		-39.062500
6397		-35.156250
6398		-39.062500
6399		-35.156250
6400		-37.109375
6401		-33.203125
6402		-37.109375
6403		-33.203125
6404		-35.156250
6405		-33.203125
6406		-35.156250
6407		-31.250000
6408		-33.203125
6409		-29.296875
6410		-33.203125
6411		-29.296875
6412		-31.250000
6413		-29.296875
6414		-31.250000
6415		-27.343750
6416		-29.296875
6417		-25.390625
6418		-29.296875
6419		-25.390625
6420		-27.343750
6421		-25.390625
6422		-27.343750
6423		-23.437500
6424		-25.390625
6425		-21.484375
6426		-25.390625
6427		-21.484375
6428		-23.437500
6429		-19.531250
6430		-21.484375
6431		-17.578125
6432		-21.484375
6433		-17.578125
6434		-19.531250
6435		-15.625000
6436		-19.531250
6437		-15.625000
6438		-17.578125
6439		-13.671875
6440		-17.578125
6441		-13.671875
6442		-15.625000
6443		-11.718750
6444		-15.625000
6445		-9.765625
6446		-13.671875
6447		-9.765625
6448		-11.718750
6449		-9.765625
6450		-11.718750
6451		-7.812500
6452		-9.765625
6453		-5.859375
6454		-9.765625
6455		-5.859375
6456		-7.812500
6457		-3.906250
6458		-7.812500
6459		-3.906250
6460		-5.859375
6461		-1.953125
6462		-5.859375
6463		0.000000
6464		-3.906250
6465		0.000000
6466		-1.953125
6467		0.000000
6468		-1.953125
6469		1.953125
6470		0.000000
6471		3.906250
6472		0.000000
6473		3.906250
6474		1.953125
6475		5.859375
6476		3.906250
6477		5.859375
6478		3.906250
6479		7.812500
6480		3.906250
6481		9.765625
6482		5.859375
6483		9.765625
6484		7.812500
6485		11.718750
6486		7.812500
6487		11.718750
6488		9.765625
6489		13.671875
6490		11.718750
6491		13.671875
6492		11.718750
6493		15.625000
6494		13.671875
6495		15.625000
6496		13.671875
6497		17.578125
6498		15.625000
6499		17.578125
6500		15.625000
6501		19.531250
6502		17.578125
6503		21.484375
6504		17.578125
6505		21.484375
6506		19.531250
6507		21.484375
6508		19.531250
6509		23.437500
6510		21.484375
6511		25.390625
6512		21.484375
6513		27.343750
6514		23.437500
6515		25.390625
6516		25.390625
6517		27.343750
6518		25.390625
6519		29.296875
6520		25.390625
6521		29.296875
6522		27.343750
6523		31.250000
6524		27.343750
6525		31.250000
6526		29.296875
6527		33.203125
6528		31.250000
6529		33.203125
6530		31.250000
6531		35.156250
6532		33.203125
6533		37.109375
6534		33.203125
6535		37.109375
6536		33.203125
6537		37.109375
6538		35.156250
6539		39.062500
6540		35.156250
6541		39.062500
6542		37.109375
6543		41.015625
6544		37.109375
6545		41.015625
6546		37.109375
6547		42.968750
6548		39.062500
6549		42.968750
6550		39.062500
6551		42.968750
6552		41.015625
6553		44.921875
6554		41.015625
6555		44.921875
6556		41.015625
6557		46.875000
6558		42.968750
6559		46.875000
6560		42.968750
6561		46.875000
6562		44.921875
6563		48.828125
6564		44.921875
6565		48.828125
6566		46.875000
6567		50.781250
6568		46.875000
6569		50.781250
6570		46.875000
6571		50.781250
6572		48.828125
6573		52.734375
6574		48.828125
6575		52.734375
6576		50.781250
6577		52.734375
6578		50.781250
6579		54.687500
6580		50.781250
6581		54.687500
6582		50.781250
6583		56.640625
6584		50.781250
6585		54.687500
6586		52.734375
6587		56.640625
6588		52.734375
6589		56.640625
6590		54.687500
6591		56.640625
6592		54.687500
6593		58.593750
6594		54.687500
6595		58.593750
6596		54.687500
6597		58.593750
6598		56.640625
6599		60.546875
6600		56.640625
6601		58.593750
6602		56.640625
6603		60.546875
6604		56.640625
6605		60.546875
6606		56.640625
6607		60.546875
6608		56.640625
6609		62.500000
6610		58.593750
6611		60.546875
6612		58.593750
6613		62.500000
6614		58.593750
6615		62.500000
6616		60.546875
6617		62.500000
6618		58.593750
6619		64.453125
6620		60.546875
6621		62.500000
6622		60.546875
6623		64.453125
6624		60.546875
6625		64.453125
6626		60.546875
6627		64.453125
6628		60.546875
6629		64.453125
6630		60.546875
6631		64.453125
6632		62.500000
6633		64.453125
6634		62.500000
6635		64.453125
6636		60.546875
6637		64.453125
6638		62.500000
6639		64.453125
6640		62.500000
6641		66.406250
6642		62.500000
6643		64.453125
6644		62.500000
6645		64.453125
6646		62.500000
6647		64.453125
6648		60.546875
6649		66.406250
6650		62.500000
6651		64.453125
6652		62.500000
6653		66.406250
6654		62.500000
6655		64.453125
6656		62.500000
6657		66.406250
6658		60.546875
6659		66.406250
6660		62.500000
6661		66.406250
6662		62.500000
6663		66.406250
6664		62.500000
6665		66.406250
6666		62.500000
6667		64.453125
6668		60.546875
6669		66.406250
6670		62.500000
6671		64.453125
6672		62.500000
6673		64.453125
6674		62.500000
6675		64.453125
6676		60.546875
6677		64.453125
6678		60.546875
6679		64.453125
6680		60.546875
6681		64.453125
6682		60.546875
6683		64.453125
6684		60.546875
6685		62.500000
6686		60.546875
6687		64.453125
6688		58.593750
6689		62.500000
6690		58.593750
6691		62.500000
6692		58.593750
6693		62.500000
6694		58.593750
6695		62.500000
6696		58.593750
6697		62.500000
6698		56.640625
6699		62.500000
6700		58.593750
6701		60.546875
6702		56.640625
6703		60.546875
6704		56.640625
6705		60.546875
6706		56.640625
6707		60.546875
6708		56.640625
6709		58.593750
6710		54.687500
6711		58.593750
6712		54.687500
6713		58.593750
6714		52.734375
6715		58.593750
6716		54.687500
6717		56.640625
6718		52.734375
6719		56.640625
6720		50.781250
6721		56.640625
6722		52.734375
6723		56.640625
6724		50.781250
6725		54.687500
6726		50.781250
6727		54.687500
6728		50.781250
6729		54.687500
6730		48.828125
6731		52.734375
6732		48.828125
6733		52.734375
6734		48.828125
6735		52.734375
6736		46.875000
6737		52.734375
6738		46.875000
6739		50.781250
6740		46.875000
6741		50.781250
6742		44.921875
6743		48.828125
6744		44.921875
6745		46.875000
6746		42.968750
6747		46.875000
6748		42.968750
6749		46.875000
6750		42.968750
6751		44.921875
6752		41.015625
6753		44.921875
6754		41.015625
6755		44.921875
6756		39.062500
6757		44.921875
6758		39.062500
6759		42.968750
6760		37.109375
6761		41.015625
6762		37.109375
6763		41.015625
6764		35.156250
6765		39.062500
6766		35.156250
6767		39.062500
6768		35.156250
6769		37.109375
6770		33.203125
6771		37.109375
6772		33.203125
6773		35.156250
6774		31.250000
6775		35.156250
6776		31.250000
6777		35.156250
6778		29.296875
6779		33.203125
6780		27.343750
6781		33.203125
6782		27.343750
6783		33.203125
6784		27.343750
6785		29.296875
6786		25.390625
6787		29.296875
6788		25.390625
6789		27.343750
6790		23.437500
6791		27.343750
6792		23.437500
6793		25.390625
6794		21.484375
6795		25.390625
6796		19.531250
6797		25.390625
6798		19.531250
6799		23.437500
6800		17.578125
6801		23.437500
6802		17.578125
6803		19.531250
6804		15.625000
6805		19.531250
6806		15.625000
6807		19.531250
6808		13.671875
6809		17.578125
6810		13.671875
6811		15.625000
6812		11.718750
6813		15.625000
6814		9.765625
6815		13.671875
6816		9.765625
6817		13.671875
6818		9.765625
6819		11.718750
6820		7.812500
6821		11.718750
6822		5.859375
6823		9.765625
6824		3.906250
6825		7.812500
6826		3.906250
6827		7.812500
6828		1.953125
6829		5.859375
6830		1.953125
6831		5.859375
6832		0.000000
6833		3.906250
6834		0.000000
6835		3.906250
6836		-1.953125
6837		1.953125
6838		-3.906250
6839		1.953125
6840		-3.906250
6841		0.000000
6842		-5.859375
6843		-1.953125
6844		-5.859375
6845		-1.953125
6846		-7.812500
6847		-1.953125
6848		-7.812500
6849		-3.906250
6850		-9.765625
6851		-5.859375
6852		-9.765625
6853		-7.812500
6854		-11.718750
6855		-7.812500
6856		-11.718750
6857		-9.765625
6858		-15.625000
6859		-9.765625
6860		-15.625000
6861		-11.718750
6862		-15.625000
6863		-11.718750
6864		-17.578125
6865		-13.671875
6866		-17.578125
6867		-13.671875
6868		-19.531250
6869		-15.625000
6870		-19.531250
6871		-15.625000
6872		-21.484375
6873		-17.578125
6874		-23.437500
6875		-17.578125
6876		-23.437500
6877		-19.531250
6878		-25.390625
6879		-21.484375
6880		-25.390625
6881		-21.484375
6882		-27.343750
6883		-23.437500
6884		-29.296875
6885		-23.437500
6886		-29.296875
6887		-25.390625
6888		-31.250000
6889		-25.390625
6890		-31.250000
6891		-27.343750
6892		-33.203125
6893		-29.296875
6894		-33.203125
6895		-29.296875
6896		-33.203125
6897		-31.250000
6898		-35.156250
6899		-31.250000
6900		-35.156250
6901		-31.250000
6902		-37.109375
6903		-33.203125
6904		-37.109375
6905		-35.156250
6906		-39.062500
6907		-35.156250
6908		-39.062500
6909		-37.109375
6910		-41.015625
6911		-37.109375
6912		-42.968750
6913		-39.062500
6914		-42.968750
6915		-39.062500
6916		-44.921875
6917		-41.015625
6918		-44.921875
6919		-39.062500
6920		-44.921875
6921		-42.968750
6922		-46.875000
6923		-42.968750
6924		-46.875000
6925		-42.968750
6926		-46.875000
6927		-44.921875
6928		-48.828125
6929		-44.921875
6930		-48.828125
6931		-46.875000
6932		-50.781250
6933		-46.875000
6934		-50.781250
6935		-48.828125
6936		-50.781250
6937		-48.828125
6938		-52.734375
6939		-48.828125
6940		-54.687500
6941		-50.781250
6942		-54.687500
6943		-50.781250
6944		-54.687500
6945		-50.781250
6946		-54.687500
6947		-52.734375
6948		-56.640625
6949		-52.734375
6950		-56.640625
6951		-52.734375
6952		-56.640625
6953		-54.687500
6954		-58.593750
6955		-54.687500
6956		-58.593750
6957		-54.687500
6958		-58.593750
6959		-56.640625
6960		-60.546875
6961		-56.640625
6962		-60.546875
6963		-56.640625
6964		-60.546875
6965		-56.640625
6966		-62.500000
6967		-58.593750
6968		-60.546875
6969		-58.593750
6970		-62.500000
6971		-58.593750
6972		-62.500000
6973		-58.593750
6974		-64.453125
6975		-60.546875
6976		-62.500000
6977		-60.546875
6978		-64.453125
6979		-60.546875
6980		-64.453125
6981		-60.546875
6982		-64.453125
6983		-60.546875
6984		-66.406250
6985		-60.546875
6986		-64.453125
6987		-60.546875
6988		-66.406250
6989		-62.500000
6990		-66.406250
6991		-62.500000
6992		-66.406250
6993		-62.500000
6994		-66.406250
6995		-62.500000
6996		-66.406250
6997		-62.500000
6998		-68.359375
6999		-64.453125
7000		-68.359375
7001		-64.453125
7002		-66.406250
7003		-64.453125
7004		-68.359375
7005		-64.453125
7006		-68.359375
7007		-64.453125
7008		-68.359375
7009		-64.453125
7010		-68.359375
7011		-64.453125
7012		-68.359375
7013		-64.453125
7014		-68.359375
7015		-64.453125
7016		-68.359375
7017		-64.453125
7018		-68.359375
7019		-64.453125
7020		-68.359375
7021		-64.453125
7022		-68.359375
7023		-64.453125
7024		-68.359375
7025		-64.453125
7026		-68.359375
7027		-64.453125
7028		-68.359375
7029		-62.500000
7030		-68.359375
7031		-64.453125
7032		-66.406250
7033		-64.453125
7034		-68.359375
7035		-62.500000
7036		-66.406250
7037		-64.453125
7038		-66.406250
7039		-62.500000
7040		-66.406250
7041		-62.500000
7042		-66.406250
7043		-62.500000
7044		-66.406250
7045		-62.500000
7046		-66.406250
7047		-62.500000
7048		-66.406250
7049		-62.500000
7050		-66.406250
7051		-60.546875
7052		-64.453125
7053		-62.500000
7054		-64.453125
7055		-60.546875
7056		-64.453125
7057		-60.546875
7058		-64.453125
7059		-60.546875
7060		-64.453125
7061		-60.546875
7062		-62.500000
7063		-60.546875
7064		-62.500000
7065		-58.593750
7066		-62.500000
7067		-58.593750
7068		-60.546875
7069		-58.593750
7070		-62.500000
7071		-58.593750
7072		-60.546875
7073		-56.640625
7074		-60.546875
7075		-56.640625
7076		-60.546875
7077		-56.640625
7078		-58.593750
7079		-56.640625
7080		-60.546875
7081		-54.687500
7082		-58.593750
7083		-54.687500
7084		-56.640625
7085		-54.687500
7086		-56.640625
7087		-52.734375
7088		-56.640625
7089		-52.734375
7090		-56.640625
7091		-52.734375
7092		-54.687500
7093		-50.781250
7094		-54.687500
7095		-50.781250
7096		-52.734375
7097		-48.828125
7098		-52.734375
7099		-48.828125
7100		-52.734375
7101		-48.828125
7102		-50.781250
7103		-46.875000
7104		-50.781250
7105		-46.875000
7106		-48.828125
7107		-46.875000
7108		-48.828125
7109		-44.921875
7110		-46.875000
7111		-44.921875
7112		-46.875000
7113		-42.968750
7114		-46.875000
7115		-42.968750
7116		-44.921875
7117		-42.968750
7118		-44.921875
7119		-41.015625
7120		-42.968750
7121		-39.062500
7122		-42.968750
7123		-39.062500
7124		-41.015625
7125		-39.062500
7126		-41.015625
7127		-37.109375
7128		-39.062500
7129		-37.109375
7130		-39.062500
7131		-35.156250
7132		-37.109375
7133		-35.156250
7134		-37.109375
7135		-33.203125
7136		-35.156250
7137		-33.203125
7138		-35.156250
7139		-31.250000
7140		-35.156250
7141		-31.250000
7142		-35.156250
7143		-29.296875
7144		-31.250000
7145		-29.296875
7146		-31.250000
7147		-27.343750
7148		-29.296875
7149		-27.343750
7150		-29.296875
7151		-25.390625
7152		-27.343750
7153		-23.437500
7154		-27.343750
7155		-23.437500
7156		-25.390625
7157		-21.484375
7158		-25.390625
7159		-21.484375
7160		-23.437500
7161		-19.531250
7162		-23.437500
7163		-19.531250
7164		-21.484375
7165		-17.578125
7166		-21.484375
7167		-15.625000
7168		-19.531250
7169		-15.625000
7170		-17.578125
7171		-15.625000
7172		-17.578125
7173		-13.671875
7174		-15.625000
7175		-11.718750
7176		-15.625000
7177		-11.718750
7178		-13.671875
7179		-9.765625
7180		-11.718750
7181		-9.765625
7182		-11.718750
7183		-7.812500
7184		-11.718750
7185		-5.859375
7186		-9.765625
7187		-5.859375
7188		-7.812500
7189		-3.906250
7190		-7.812500
7191		-3.906250
7192		-5.859375
7193		-1.953125
7194		-3.906250
7195		-1.953125
7196		-3.906250
7197		0.000000
7198		-1.953125
7199		0.000000
7200		-1.953125
7201		1.953125
7202		0.000000
7203		3.906250
7204		0.000000
7205		3.906250
7206		1.953125
7207		5.859375
7208		1.953125
7209		5.859375
7210		3.906250
7211		7.812500
7212		3.906250
7213		9.765625
7214		5.859375
7215		9.765625
7216		5.859375
7217		9.765625
7218		7.812500
7219		11.718750
7220		9.765625
7221		11.718750
7222		11.718750
7223		13.671875
7224		11.718750
7225		15.625000
7226		13.671875
7227		15.625000
7228		13.671875
7229		17.578125
7230		15.625000
7231		17.578125
7232		15.625000
7233		19.531250
7234		15.625000
7235		19.531250
7236		17.578125
7237		21.484375
7238		19.531250
7239		23.437500
7240		19.531250
7241		23.437500
7242		21.484375
7243		23.437500
7244		21.484375
7245		25.390625
7246		23.437500
7247		25.390625
7248		23.437500
7249		27.343750
7250		25.390625
7251		29.296875
7252		25.390625
7253		29.296875
7254		27.343750
7255		29.296875
7256		27.343750
7257		31.250000
7258		29.296875
7259		33.203125
7260		29.296875
7261		33.203125
7262		31.250000
7263		35.156250
7264		31.250000
7265		35.156250
7266		33.203125
7267		37.109375
7268		33.203125
7269		37.109375
7270		33.203125
7271		37.109375
7272		35.156250
7273		39.062500
7274		37.109375
7275		39.062500
7276		37.109375
7277		41.015625
7278		37.109375
7279		41.015625
7280		39.062500
7281		42.968750
7282		39.062500
7283		42.968750
7284		41.015625
7285		42.968750
7286		41.015625
7287		44.921875
7288		42.968750
7289		44.921875
7290		42.968750
7291		46.875000
7292		42.968750
7293		46.875000
7294		44.921875
7295		46.875000
7296		44.921875
7297		48.828125
7298		44.921875
7299		48.828125
7300		46.875000
7301		48.828125
7302		46.875000
7303		50.781250
7304		48.828125
7305		50.781250
7306		48.828125
7307		52.734375
7308		48.828125
7309		52.734375
7310		50.781250
7311		52.734375
7312		50.781250
7313		54.687500
7314		50.781250
7315		54.687500
7316		50.781250
7317		54.687500
7318		50.781250
7319		56.640625
7320		52.734375
7321		56.640625
7322		52.734375
7323		56.640625
7324		54.687500
7325		58.593750
7326		54.687500
7327		58.593750
7328		54.687500
7329		58.593750
7330		56.640625
7331		58.593750
7332		56.640625
7333		58.593750
7334		56.640625
7335		60.546875
7336		56.640625
7337		60.546875
7338		56.640625
7339		60.546875
7340		58.593750
7341		60.546875
7342		56.640625
7343		62.500000
7344		58.593750
7345		62.500000
7346		58.593750
7347		62.500000
7348		58.593750
7349		62.500000
7350		58.593750
7351		62.500000
7352		60.546875
7353		62.500000
7354		60.546875
7355		62.500000
7356		60.546875
7357		62.500000
7358		60.546875
7359		64.453125
7360		60.546875
7361		64.453125
7362		60.546875
7363		64.453125
7364		60.546875
7365		64.453125
7366		60.546875
7367		64.453125
7368		62.500000
7369		64.453125
7370		62.500000
7371		66.406250
7372		62.500000
7373		64.453125
7374		62.500000
7375		66.406250
7376		60.546875
7377		66.406250
7378		62.500000
7379		66.406250
7380		62.500000
7381		66.406250
7382		62.500000
7383		66.406250
7384		62.500000
7385		64.453125
7386		62.500000
7387		66.406250
7388		62.500000
7389		64.453125
7390		62.500000
7391		66.406250
7392		62.500000
7393		66.406250
7394		62.500000
7395		66.406250
7396		62.500000
7397		66.406250
7398		62.500000
7399		66.406250
7400		62.500000
7401		64.453125
7402		62.500000
7403		64.453125
7404		60.546875
7405		66.406250
7406		62.500000
7407		64.453125
7408		60.546875
7409		64.453125
7410		60.546875
7411		64.453125
7412		60.546875
7413		64.453125
7414		60.546875
7415		64.453125
7416		60.546875
7417		64.453125
7418		60.546875
7419		64.453125
7420		60.546875
7421		64.453125
7422		60.546875
7423		62.500000
7424		58.593750
7425		64.453125
7426		58.593750
7427		62.500000
7428		58.593750
7429		62.500000
7430		58.593750
7431		62.500000
7432		58.593750
7433		60.546875
7434		58.593750
7435		60.546875
7436		56.640625
7437		60.546875
7438		56.640625
7439		60.546875
7440		56.640625
7441		58.593750
7442		54.687500
7443		60.546875
7444		54.687500
7445		58.593750
7446		54.687500
7447		58.593750
7448		54.687500
7449		58.593750
7450		52.734375
7451		56.640625
7452		52.734375
7453		56.640625
7454		52.734375
7455		56.640625
7456		52.734375
7457		54.687500
7458		52.734375
7459		54.687500
7460		50.781250
7461		54.687500
7462		50.781250
7463		54.687500
7464		48.828125
7465		52.734375
7466		48.828125
7467		52.734375
7468		48.828125
7469		52.734375
7470		46.875000
7471		50.781250
7472		46.875000
7473		50.781250
7474		46.875000
7475		50.781250
7476		44.921875
7477		48.828125
7478		44.921875
7479		48.828125
7480		42.968750
7481		46.875000
7482		42.968750
7483		46.875000
7484		42.968750
7485		44.921875
7486		41.015625
7487		44.921875
7488		41.015625
7489		44.921875
7490		39.062500
7491		42.968750
7492		39.062500
7493		42.968750
7494		39.062500
7495		41.015625
7496		37.109375
7497		41.015625
7498		37.109375
7499		39.062500
7500		35.156250
7501		39.062500
7502		35.156250
7503		37.109375
7504		33.203125
7505		37.109375
7506		33.203125
7507		35.156250
7508		31.250000
7509		35.156250
7510		29.296875
7511		35.156250
7512		29.296875
7513		33.203125
7514		27.343750
7515		31.250000
7516		27.343750
7517		31.250000
7518		25.390625
7519		31.250000
7520		25.390625
7521		29.296875
7522		23.437500
7523		27.343750
7524		23.437500
7525		27.343750
7526		21.484375
7527		25.390625
7528		21.484375
7529		25.390625
7530		19.531250
7531		23.437500
7532		17.578125
7533		23.437500
7534		17.578125
7535		21.484375
7536		17.578125
7537		21.484375
7538		15.625000
7539		19.531250
7540		15.625000
7541		17.578125
7542		13.671875
7543		17.578125
7544		13.671875
7545		15.625000
7546		11.718750
7547		15.625000
7548		9.765625
7549		13.671875
7550		9.765625
7551		13.671875
7552		7.812500
7553		11.718750
7554		5.859375
7555		11.718750
7556		5.859375
7557		9.765625
7558		5.859375
7559		7.812500
7560		3.906250
7561		7.812500
7562		1.953125
7563		5.859375
7564		1.953125
7565		5.859375
7566		1.953125
7567		5.859375
7568		0.000000
7569		3.906250
7570		-1.953125
7571		1.953125
7572		-1.953125
7573		1.953125
7574		-3.906250
7575		0.000000
7576		-5.859375
7577		-1.953125
7578		-5.859375
7579		-1.953125
7580		-7.812500
7581		-3.906250
7582		-7.812500
7583		-3.906250
7584		-9.765625
7585		-5.859375
7586		-9.765625
7587		-7.812500
7588		-11.718750
7589		-5.859375
7590		-11.718750
7591		-9.765625
7592		-13.671875
7593		-9.765625
7594		-15.625000
7595		-11.718750
7596		-15.625000
7597		-11.718750
7598		-17.578125
7599		-13.671875
7600		-19.531250
7601		-13.671875
7602		-19.531250
7603		-15.625000
7604		-19.531250
7605		-17.578125
7606		-21.484375
7607		-17.578125
7608		-23.437500
7609		-19.531250
7610		-25.390625
7611		-19.531250
7612		-25.390625
7613		-19.531250
7614		-25.390625
7615		-21.484375
7616		-27.343750
7617		-23.437500
7618		-27.343750
7619		-23.437500
7620		-29.296875
7621		-25.390625
7622		-31.250000
7623		-25.390625
7624		-31.250000
7625		-27.343750
7626		-31.250000
7627		-29.296875
7628		-33.203125
7629		-29.296875
7630		-35.156250
7631		-31.250000
7632		-35.156250
7633		-31.250000
7634		-37.109375
7635		-31.250000
7636		-37.109375
7637		-33.203125
7638		-39.062500
7639		-35.156250
7640		-39.062500
7641		-37.109375
7642		-41.015625
7643		-37.109375
7644		-41.015625
7645		-37.109375
7646		-42.968750
7647		-39.062500
7648		-42.968750
7649		-39.062500
7650		-42.968750
7651		-41.015625
7652		-44.921875
7653		-41.015625
7654		-44.921875
7655		-41.015625
7656		-46.875000
7657		-42.968750
7658		-46.875000
7659		-44.921875
7660		-48.828125
7661		-44.921875
7662		-48.828125
7663		-44.921875
7664		-50.781250
7665		-46.875000
7666		-50.781250
7667		-46.875000
7668		-50.781250
7669		-46.875000
7670		-52.734375
7671		-48.828125
7672		-54.687500
7673		-48.828125
7674		-52.734375
7675		-50.781250
7676		-54.687500
7677		-50.781250
7678		-54.687500
7679		-52.734375
7680		-56.640625
7681		-50.781250
7682		-56.640625
7683		-52.734375
7684		-58.593750
7685		-54.687500
7686		-58.593750
7687		-54.687500
7688		-58.593750
7689		-54.687500
7690		-58.593750
7691		-54.687500
7692		-58.593750
7693		-56.640625
7694		-60.546875
7695		-56.640625
7696		-60.546875
7697		-56.640625
7698		-62.500000
7699		-56.640625
7700		-62.500000
7701		-58.593750
7702		-62.500000
7703		-58.593750
7704		-64.453125
7705		-58.593750
7706		-64.453125
7707		-60.546875
7708		-62.500000
7709		-60.546875
7710		-64.453125
7711		-60.546875
7712		-66.406250
7713		-60.546875
7714		-66.406250
7715		-60.546875
7716		-68.359375
7717		-60.546875
7718		-66.406250
7719		-60.546875
7720		-68.359375
7721		-60.546875
7722		-66.406250
7723		-62.500000
7724		-66.406250
7725		-62.500000
7726		-66.406250
7727		-64.453125
7728		-68.359375
7729		-62.500000
7730		-68.359375
7731		-62.500000
7732		-70.312500
7733		-62.500000
7734		-68.359375
7735		-62.500000
7736		-70.312500
7737		-62.500000
7738		-68.359375
7739		-62.500000
7740		-68.359375
7741		-64.453125
7742		-68.359375
7743		-64.453125
7744		-68.359375
7745		-64.453125
7746		-70.312500
7747		-64.453125
7748		-70.312500
7749		-64.453125
7750		-70.312500
7751		-64.453125
7752		-70.312500
7753		-64.453125
7754		-70.312500
7755		-64.453125
7756		-70.312500
7757		-64.453125
7758		-68.359375
7759		-64.453125
7760		-68.359375
7761		-64.453125
7762		-68.359375
7763		-64.453125
7764		-70.312500
7765		-62.500000
7766		-70.312500
7767		-62.500000
7768		-68.359375
7769		-62.500000
7770		-68.359375
7771		-64.453125
7772		-68.359375
7773		-62.500000
7774		-66.406250
7775		-64.453125
7776		-68.359375
7777		-62.500000
7778		-66.406250
7779		-62.500000
7780		-68.359375
7781		-62.500000
7782		-66.406250
7783		-62.500000
7784		-68.359375
7785		-60.546875
7786		-66.406250
7787		-60.546875
7788		-66.406250
7789		-60.546875
7790		-66.406250
7791		-60.546875
7792		-64.453125
7793		-60.546875
7794		-64.453125
7795		-60.546875
7796		-64.453125
7797		-58.593750
7798		-64.453125
7799		-58.593750
7800		-64.453125
7801		-58.593750
7802		-64.453125
7803		-56.640625
7804		-64.453125
7805		-56.640625
7806		-62.500000
7807		-56.640625
7808		-62.500000
7809		-56.640625
7810		-60.546875
7811		-56.640625
7812		-60.546875
7813		-54.687500
7814		-60.546875
7815		-54.687500
7816		-60.546875
7817		-52.734375
7818		-58.593750
7819		-52.734375
7820		-58.593750
7821		-52.734375
7822		-58.593750
7823		-50.781250
7824		-56.640625
7825		-50.781250
7826		-54.687500
7827		-52.734375
7828		-54.687500
7829		-50.781250
7830		-54.687500
7831		-48.828125
7832		-54.687500
7833		-46.875000
7834		-54.687500
7835		-46.875000
7836		-52.734375
7837		-46.875000
7838		-52.734375
7839		-44.921875
7840		-50.781250
7841		-44.921875
7842		-48.828125
7843		-46.875000
7844		-46.875000
7845		-44.921875
7846		-46.875000
7847		-42.968750
7848		-46.875000
7849		-41.015625
7850		-46.875000
7851		-39.062500
7852		-46.875000
7853		-39.062500
7854		-44.921875
7855		-39.062500
7856		-44.921875
7857		-37.109375
7858		-42.968750
7859		-37.109375
7860		-41.015625
7861		-37.109375
7862		-41.015625
7863		-35.156250
7864		-41.015625
7865		-35.156250
7866		-39.062500
7867		-33.203125
7868		-39.062500
7869		-31.250000
7870		-37.109375
7871		-31.250000
7872		-37.109375
7873		-29.296875
7874		-35.156250
7875		-29.296875
7876		-33.203125
7877		-29.296875
7878		-31.250000
7879		-29.296875
7880		-33.203125
7881		-25.390625
7882		-31.250000
7883		-25.390625
7884		-31.250000
7885		-23.437500
7886		-29.296875
7887		-23.437500
7888		-27.343750
7889		-21.484375
7890		-27.343750
7891		-21.484375
7892		-25.390625
7893		-19.531250
7894		-23.437500
7895		-19.531250
7896		-23.437500
7897		-17.578125
7898		-23.437500
7899		-15.625000
7900		-21.484375
7901		-15.625000
7902		-21.484375
7903		-13.671875
7904		-19.531250
7905		-11.718750
7906		-17.578125
7907		-9.765625
7908		-17.578125
7909		-11.718750
7910		-13.671875
7911		-11.718750
7912		-13.671875
7913		-9.765625
7914		-13.671875
7915		-7.812500
7916		-13.671875
7917		-5.859375
7918		-11.718750
7919		-5.859375
7920		-9.765625
7921		-3.906250
7922		-9.765625
7923		-1.953125
7924		-7.812500
7925		-1.953125
7926		-5.859375
7927		-1.953125
7928		-5.859375
7929		-1.953125
7930		-3.906250
7931		1.953125
7932		-3.906250
7933		3.906250
7934		-1.953125
7935		3.906250
7936		-1.953125
7937		5.859375
7938		0.000000
7939		5.859375
7940		0.000000
7941		7.812500
7942		1.953125
7943		5.859375
7944		3.906250
7945		7.812500
7946		3.906250
7947		11.718750
7948		3.906250
7949		11.718750
7950		5.859375
7951		13.671875
7952		7.812500
7953		13.671875
7954		7.812500
7955		15.625000
7956		9.765625
7957		15.625000
7958		9.765625
7959		17.578125
7960		13.671875
7961		17.578125
7962		13.671875
7963		17.578125
7964		13.671875
7965		19.531250
7966		15.625000
7967		19.531250
7968		15.625000
7969		21.484375
7970		17.578125
7971		23.437500
7972		19.531250
7973		23.437500
7974		19.531250
7975		25.390625
7976		21.484375
7977		25.390625
7978		21.484375
7979		25.390625
7980		21.484375
7981		29.296875
7982		23.437500
7983		29.296875
7984		23.437500
7985		29.296875
7986		25.390625
7987		31.250000
7988		25.390625
7989		33.203125
7990		27.343750
7991		33.203125
7992		27.343750
7993		35.156250
7994		29.296875
7995		33.203125
7996		31.250000
7997		35.156250
7998		31.250000
7999		37.109375
8000		31.250000
8001		39.062500
8002		33.203125
8003		39.062500
8004		33.203125
8005		39.062500
8006		33.203125
8007		41.015625
8008		35.156250
8009		41.015625
8010		37.109375
8011		41.015625
8012		37.109375
8013		41.015625
8014		39.062500
8015		44.921875
8016		39.062500
8017		44.921875
8018		39.062500
8019		44.921875
8020		39.062500
8021		46.875000
8022		39.062500
8023		46.875000
8024		41.015625
8025		48.828125
8026		42.968750
8027		48.828125
8028		44.921875
8029		46.875000
8030		44.921875
8031		50.781250
8032		44.921875
8033		50.781250
8034		44.921875
8035		52.734375
8036		44.921875
8037		52.734375
8038		46.875000
8039		52.734375
8040		46.875000
8041		52.734375
8042		46.875000
8043		54.687500
8044		50.781250
8045		52.734375
8046		50.781250
8047		54.687500
8048		48.828125
8049		54.687500
8050		50.781250
8051		56.640625
8052		50.781250
8053		58.593750
8054		50.781250
8055		58.593750
8056		50.781250
8057		58.593750
8058		52.734375
8059		58.593750
8060		52.734375
8061		58.593750
8062		54.687500
8063		58.593750
8064		54.687500
8065		60.546875
8066		54.687500
8067		60.546875
8068		54.687500
8069		60.546875
8070		54.687500
8071		60.546875
8072		54.687500
8073		62.500000
8074		54.687500
8075		62.500000
8076		56.640625
8077		62.500000
8078		58.593750
8079		60.546875
8080		58.593750
8081		62.500000
8082		56.640625
8083		64.453125
8084		58.593750
8085		64.453125
8086		58.593750
8087		64.453125
8088		58.593750
8089		64.453125
8090		58.593750
8091		64.453125
8092		58.593750
8093		64.453125
8094		60.546875
8095		64.453125
8096		60.546875
8097		62.500000
8098		58.593750
8099		66.406250
8100		60.546875
8101		66.406250
8102		60.546875
8103		66.406250
8104		60.546875
8105		66.406250
8106		60.546875
8107		66.406250
8108		60.546875
8109		66.406250
8110		60.546875
8111		66.406250
8112		62.500000
8113		66.406250
8114		60.546875
8115		66.406250
8116		60.546875
8117		66.406250
8118		60.546875
8119		66.406250
8120		60.546875
8121		66.406250
8122		60.546875
8123		66.406250
8124		60.546875
8125		66.406250
8126		60.546875
8127		66.406250
8128		60.546875
8129		64.453125
8130		62.500000
8131		64.453125
8132		60.546875
8133		66.406250
8134		58.593750
8135		66.406250
8136		58.593750
8137		66.406250
8138		60.546875
8139		64.453125
8140		58.593750
8141		66.406250
8142		58.593750
8143		66.406250
8144		60.546875
8145		64.453125
8146		60.546875
8147		64.453125
8148		60.546875
8149		64.453125
8150		58.593750
8151		64.453125
8152		58.593750
8153		64.453125
8154		56.640625
8155		64.453125
8156		56.640625
8157		62.500000
8158		58.593750
8159		64.453125
8160		56.640625
8161		62.500000
8162		56.640625
8163		60.546875
8164		58.593750
8165		60.546875
8166		56.640625
8167		62.500000
8168		54.687500
8169		60.546875
8170		54.687500
8171		60.546875
8172		54.687500
8173		60.546875
8174		52.734375
8175		60.546875
8176		52.734375
8177		58.593750
8178		54.687500
8179		56.640625
8180		54.687500
8181		56.640625
8182		50.781250
8183		58.593750
8184		50.781250
8185		58.593750
8186		50.781250
8187		56.640625
8188		50.781250
8189		56.640625
8190		48.828125
8191		56.640625
8192		48.828125
8193		56.640625
8194		48.828125
8195		54.687500
8196		48.828125
8197		52.734375
8198		46.875000
8199		52.734375
8200		46.875000
8201		52.734375
8202		44.921875
8203		52.734375
8204		44.921875
8205		52.734375
8206		44.921875
8207		50.781250
8208		44.921875
8209		50.781250
8210		42.968750
8211		50.781250
8212		42.968750
8213		46.875000
8214		42.968750
8215		44.921875
8216		41.015625
8217		46.875000
8218		39.062500
8219		44.921875
8220		39.062500
8221		44.921875
8222		37.109375
8223		44.921875
8224		37.109375
8225		44.921875
8226		37.109375
8227		42.968750
8228		37.109375
8229		41.015625
8230		37.109375
8231		41.015625
8232		33.203125
8233		39.062500
8234		33.203125
8235		39.062500
8236		31.250000
8237		39.062500
8238		31.250000
8239		37.109375
8240		29.296875
8241		37.109375
8242		29.296875
8243		35.156250
8244		29.296875
8245		35.156250
8246		29.296875
8247		31.250000
8248		27.343750
8249		31.250000
8250		23.437500
8251		31.250000
8252		23.437500
8253		29.296875
8254		23.437500
8255		29.296875
8256		21.484375
8257		29.296875
8258		19.531250
8259		27.343750
8260		19.531250
8261		25.390625
8262		21.484375
8263		25.390625
8264		19.531250
8265		23.437500
8266		17.578125
8267		23.437500
8268		15.625000
8269		21.484375
8270		15.625000
8271		21.484375
8272		13.671875
8273		21.484375
8274		13.671875
8275		19.531250
8276		11.718750
8277		17.578125
8278		11.718750
8279		17.578125
8280		9.765625
8281		13.671875
8282		7.812500
8283		13.671875
8284		7.812500
8285		13.671875
8286		5.859375
8287		13.671875
8288		5.859375
8289		11.718750
8290		3.906250
8291		11.718750
8292		3.906250
8293		9.765625
8294		1.953125
8295		7.812500
8296		1.953125
8297		5.859375
8298		1.953125
8299		3.906250
8300		-1.953125
8301		5.859375
8302		-1.953125
8303		3.906250
8304		-3.906250
8305		1.953125
8306		-5.859375
8307		1.953125
8308		-5.859375
8309		0.000000
8310		-7.812500
8311		0.000000
8312		-5.859375
8313		-1.953125
8314		-7.812500
8315		-3.906250
8316		-9.765625
8317		-3.906250
8318		-11.718750
8319		-5.859375
8320		-13.671875
8321		-5.859375
8322		-13.671875
8323		-7.812500
8324		-15.625000
8325		-7.812500
8326		-17.578125
8327		-7.812500
8328		-17.578125
8329		-9.765625
8330		-17.578125
8331		-13.671875
8332		-17.578125
8333		-13.671875
8334		-21.484375
8335		-13.671875
8336		-21.484375
8337		-15.625000
8338		-23.437500
8339		-15.625000
8340		-23.437500
8341		-17.578125
8342		-25.390625
8343		-19.531250
8344		-25.390625
8345		-19.531250
8346		-25.390625
8347		-21.484375
8348		-25.390625
8349		-21.484375
8350		-29.296875
8351		-23.437500
8352		-29.296875
8353		-23.437500
8354		-31.250000
8355		-25.390625
8356		-33.203125
8357		-25.390625
8358		-33.203125
8359		-27.343750
8360		-35.156250
8361		-27.343750
8362		-35.156250
8363		-29.296875
8364		-35.156250
8365		-31.250000
8366		-37.109375
8367		-33.203125
8368		-39.062500
8369		-31.250000
8370		-39.062500
8371		-33.203125
8372		-41.015625
8373		-33.203125
8374		-41.015625
8375		-35.156250
8376		-42.968750
8377		-35.156250
8378		-42.968750
8379		-35.156250
8380		-42.968750
8381		-39.062500
8382		-42.968750
8383		-41.015625
8384		-46.875000
8385		-39.062500
8386		-46.875000
8387		-41.015625
8388		-48.828125
8389		-41.015625
8390		-48.828125
8391		-42.968750
8392		-50.781250
8393		-42.968750
8394		-50.781250
8395		-44.921875
8396		-50.781250
8397		-44.921875
8398		-50.781250
8399		-48.828125
8400		-52.734375
8401		-46.875000
8402		-54.687500
8403		-46.875000
8404		-54.687500
8405		-46.875000
8406		-56.640625
8407		-48.828125
8408		-56.640625
8409		-48.828125
8410		-56.640625
8411		-50.781250
8412		-56.640625
8413		-50.781250
8414		-58.593750
8415		-52.734375
8416		-56.640625
8417		-54.687500
8418		-58.593750
8419		-52.734375
8420		-60.546875
8421		-52.734375
8422		-60.546875
8423		-54.687500
8424		-62.500000
8425		-54.687500
8426		-62.500000
8427		-54.687500
8428		-62.500000
8429		-56.640625
8430		-62.500000
8431		-56.640625
8432		-62.500000
8433		-58.593750
8434		-64.453125
8435		-58.593750
8436		-64.453125
8437		-58.593750
8438		-66.406250
8439		-58.593750
8440		-66.406250
8441		-58.593750
8442		-64.453125
8443		-58.593750
8444		-66.406250
8445		-60.546875
8446		-66.406250
8447		-60.546875
8448		-64.453125
8449		-62.500000
8450		-66.406250
8451		-62.500000
8452		-68.359375
8453		-60.546875
8454		-68.359375
8455		-62.500000
8456		-68.359375
8457		-62.500000
8458		-68.359375
8459		-62.500000
8460		-68.359375
8461		-62.500000
8462		-68.359375
8463		-62.500000
8464		-66.406250
8465		-64.453125
8466		-66.406250
8467		-64.453125
8468		-68.359375
8469		-62.500000
8470		-70.312500
8471		-62.500000
8472		-70.312500
8473		-62.500000
8474		-70.312500
8475		-64.453125
8476		-70.312500
8477		-64.453125
8478		-70.312500
8479		-64.453125
8480		-68.359375
8481		-64.453125
8482		-68.359375
8483		-66.406250
8484		-70.312500
8485		-64.453125
8486		-70.312500
8487		-64.453125
8488		-68.359375
8489		-64.453125
8490		-70.312500
8491		-64.453125
8492		-70.312500
8493		-62.500000
8494		-70.312500
8495		-64.453125
8496		-70.312500
8497		-62.500000
8498		-68.359375
8499		-64.453125
8500		-68.359375
8501		-64.453125
8502		-70.312500
8503		-62.500000
8504		-70.312500
8505		-62.500000
8506		-68.359375
8507		-62.500000
8508		-68.359375
8509		-62.500000
8510		-68.359375
8511		-62.500000
8512		-68.359375
8513		-62.500000
8514		-66.406250
8515		-62.500000
8516		-66.406250
8517		-62.500000
8518		-66.406250
8519		-62.500000
8520		-68.359375
8521		-60.546875
8522		-68.359375
8523		-60.546875
8524		-66.406250
8525		-60.546875
8526		-66.406250
8527		-60.546875
8528		-64.453125
8529		-58.593750
8530		-66.406250
8531		-58.593750
8532		-62.500000
8533		-60.546875
8534		-62.500000
8535		-58.593750
8536		-62.500000
8537		-58.593750
8538		-64.453125
8539		-56.640625
8540		-62.500000
8541		-56.640625
8542		-62.500000
8543		-56.640625
8544		-62.500000
8545		-56.640625
8546		-60.546875
8547		-54.687500
8548		-58.593750
8549		-54.687500
8550		-58.593750
8551		-54.687500
8552		-58.593750
8553		-52.734375
8554		-58.593750
8555		-52.734375
8556		-56.640625
8557		-52.734375
8558		-56.640625
8559		-50.781250
8560		-56.640625
8561		-50.781250
8562		-56.640625
8563		-48.828125
8564		-54.687500
8565		-48.828125
8566		-52.734375
8567		-48.828125
8568		-52.734375
8569		-46.875000
8570		-52.734375
8571		-46.875000
8572		-52.734375
8573		-46.875000
8574		-50.781250
8575		-44.921875
8576		-50.781250
8577		-42.968750
8578		-50.781250
8579		-42.968750
8580		-48.828125
8581		-42.968750
8582		-46.875000
8583		-42.968750
8584		-44.921875
8585		-42.968750
8586		-46.875000
8587		-39.062500
8588		-44.921875
8589		-39.062500
8590		-44.921875
8591		-37.109375
8592		-42.968750
8593		-37.109375
8594		-41.015625
8595		-35.156250
8596		-41.015625
8597		-35.156250
8598		-41.015625
8599		-35.156250
8600		-37.109375
8601		-35.156250
8602		-37.109375
8603		-31.250000
8604		-35.156250
8605		-31.250000
8606		-35.156250
8607		-29.296875
8608		-35.156250
8609		-29.296875
8610		-35.156250
8611		-27.343750
8612		-33.203125
8613		-25.390625
8614		-31.250000
8615		-27.343750
8616		-29.296875
8617		-25.390625
8618		-29.296875
8619		-23.437500
8620		-29.296875
8621		-21.484375
8622		-27.343750
8623		-21.484375
8624		-27.343750
8625		-19.531250
8626		-25.390625
8627		-19.531250
8628		-25.390625
8629		-17.578125
8630		-23.437500
8631		-17.578125
8632		-21.484375
8633		-17.578125
8634		-19.531250
8635		-15.625000
8636		-19.531250
8637		-13.671875
8638		-19.531250
8639		-11.718750
8640		-17.578125
8641		-11.718750
8642		-15.625000
8643		-9.765625
8644		-15.625000
8645		-9.765625
8646		-13.671875
8647		-7.812500
8648		-13.671875
8649		-7.812500
8650		-9.765625
8651		-7.812500
8652		-11.718750
8653		-3.906250
8654		-9.765625
8655		-3.906250
8656		-9.765625
8657		-1.953125
8658		-7.812500
8659		-1.953125
8660		-7.812500
8661		0.000000
8662		-3.906250
8663		0.000000
8664		-5.859375
8665		1.953125
8666		-1.953125
8667		1.953125
8668		0.000000
8669		3.906250
8670		0.000000
8671		5.859375
8672		0.000000
8673		5.859375
8674		0.000000
8675		7.812500
8676		1.953125
8677		9.765625
8678		3.906250
8679		9.765625
8680		3.906250
8681		11.718750
8682		5.859375
8683		11.718750
8684		7.812500
8685		11.718750
8686		7.812500
8687		13.671875
8688		9.765625
8689		15.625000
8690		9.765625
8691		15.625000
8692		11.718750
8693		17.578125
8694		11.718750
8695		19.531250
8696		13.671875
8697		19.531250
8698		13.671875
8699		19.531250
8700		17.578125
8701		19.531250
8702		17.578125
8703		21.484375
8704		17.578125
8705		23.437500
8706		19.531250
8707		25.390625
8708		19.531250
8709		25.390625
8710		19.531250
8711		27.343750
8712		21.484375
8713		27.343750
8714		21.484375
8715		29.296875
8716		25.390625
8717		29.296875
8718		25.390625
8719		29.296875
8720		25.390625
8721		31.250000
8722		27.343750
8723		33.203125
8724		27.343750
8725		33.203125
8726		27.343750
8727		35.156250
8728		29.296875
8729		35.156250
8730		29.296875
8731		37.109375
8732		31.250000
8733		37.109375
8734		33.203125
8735		37.109375
8736		33.203125
8737		39.062500
8738		35.156250
8739		41.015625
8740		35.156250
8741		41.015625
8742		35.156250
8743		42.968750
8744		35.156250
8745		42.968750
8746		37.109375
8747		44.921875
8748		39.062500
8749		44.921875
8750		41.015625
8751		42.968750
8752		41.015625
8753		44.921875
8754		41.015625
8755		46.875000
8756		42.968750
8757		46.875000
8758		42.968750
8759		48.828125
8760		42.968750
8761		48.828125
8762		42.968750
8763		50.781250
8764		42.968750
8765		50.781250
8766		46.875000
8767		50.781250
8768		46.875000
8769		50.781250
8770		46.875000
8771		52.734375
8772		46.875000
8773		52.734375
8774		46.875000
8775		54.687500
8776		48.828125
8777		54.687500
8778		48.828125
8779		54.687500
8780		48.828125
8781		56.640625
8782		50.781250
8783		56.640625
8784		52.734375
8785		54.687500
8786		52.734375
8787		56.640625
8788		50.781250
8789		58.593750
8790		52.734375
8791		58.593750
8792		52.734375
8793		58.593750
8794		52.734375
8795		60.546875
8796		54.687500
8797		60.546875
8798		54.687500
8799		60.546875
8800		56.640625
8801		60.546875
8802		56.640625
8803		58.593750
8804		54.687500
8805		62.500000
8806		56.640625
8807		62.500000
8808		56.640625
8809		62.500000
8810		56.640625
8811		64.453125
8812		56.640625
8813		62.500000
8814		58.593750
8815		62.500000
8816		58.593750
8817		64.453125
8818		60.546875
8819		62.500000
8820		58.593750
8821		64.453125
8822		58.593750
8823		64.453125
8824		58.593750
8825		64.453125
8826		58.593750
8827		64.453125
8828		58.593750
8829		64.453125
8830		58.593750
8831		66.406250
8832		60.546875
8833		66.406250
8834		60.546875
8835		64.453125
8836		62.500000
8837		64.453125
8838		60.546875
8839		66.406250
8840		60.546875
8841		66.406250
8842		60.546875
8843		66.406250
8844		60.546875
8845		66.406250
8846		60.546875
8847		66.406250
8848		60.546875
8849		66.406250
8850		60.546875
8851		66.406250
8852		62.500000
8853		64.453125
8854		60.546875
8855		66.406250
8856		60.546875
8857		66.406250
8858		60.546875
8859		66.406250
8860		60.546875
8861		66.406250
8862		60.546875
8863		66.406250
8864		60.546875
8865		66.406250
8866		60.546875
8867		66.406250
8868		60.546875
8869		64.453125
8870		60.546875
8871		64.453125
8872		58.593750
8873		66.406250
8874		58.593750
8875		66.406250
8876		58.593750
8877		66.406250
8878		58.593750
8879		64.453125
8880		58.593750
8881		64.453125
8882		58.593750
8883		64.453125
8884		58.593750
8885		62.500000
8886		60.546875
8887		62.500000
8888		56.640625
8889		64.453125
8890		56.640625
8891		64.453125
8892		56.640625
8893		64.453125
8894		54.687500
8895		62.500000
8896		56.640625
8897		62.500000
8898		54.687500
8899		62.500000
8900		54.687500
8901		62.500000
8902		56.640625
8903		58.593750
8904		54.687500
8905		60.546875
8906		54.687500
8907		60.546875
8908		52.734375
8909		60.546875
8910		50.781250
8911		58.593750
8912		50.781250
8913		58.593750
8914		50.781250
8915		58.593750
8916		52.734375
8917		58.593750
8918		52.734375
8919		56.640625
8920		50.781250
8921		54.687500
8922		48.828125
8923		54.687500
8924		48.828125
8925		54.687500
8926		48.828125
8927		54.687500
8928		46.875000
8929		54.687500
8930		46.875000
8931		52.734375
8932		46.875000
8933		52.734375
8934		46.875000
8935		52.734375
8936		46.875000
8937		50.781250
8938		44.921875
8939		48.828125
8940		42.968750
8941		48.828125
8942		42.968750
8943		48.828125
8944		42.968750
8945		48.828125
8946		41.015625
8947		46.875000
8948		39.062500
8949		46.875000
8950		39.062500
8951		46.875000
8952		41.015625
8953		44.921875
8954		39.062500
8955		42.968750
8956		37.109375
8957		42.968750
8958		37.109375
8959		42.968750
8960		35.156250
8961		42.968750
8962		35.156250
8963		41.015625
8964		33.203125
8965		41.015625
8966		33.203125
8967		39.062500
8968		33.203125
8969		37.109375
8970		33.203125
8971		37.109375
8972		29.296875
8973		37.109375
8974		29.296875
8975		35.156250
8976		27.343750
8977		35.156250
8978		27.343750
8979		33.203125
8980		27.343750
8981		33.203125
8982		25.390625
8983		31.250000
8984		25.390625
8985		31.250000
8986		25.390625
8987		27.343750
8988		23.437500
8989		27.343750
8990		21.484375
8991		27.343750
8992		19.531250
8993		27.343750
8994		17.578125
8995		25.390625
8996		17.578125
8997		25.390625
8998		17.578125
8999		23.437500
9000		15.625000
9001		21.484375
9002		17.578125
9003		21.484375
9004		15.625000
9005		17.578125
9006		13.671875
9007		19.531250
9008		11.718750
9009		17.578125
9010		11.718750
9011		17.578125
9012		9.765625
9013		17.578125
9014		7.812500
9015		15.625000
9016		5.859375
9017		13.671875
9018		7.812500
9019		13.671875
9020		5.859375
9021		9.765625
9022		3.906250
9023		9.765625
9024		1.953125
9025		9.765625
9026		1.953125
9027		7.812500
9028		1.953125
9029		7.812500
9030		0.000000
9031		5.859375
9032		-1.953125
9033		5.859375
9034		-1.953125
9035		3.906250
9036		-1.953125
9037		1.953125
9038		-3.906250
9039		0.000000
9040		-3.906250
9041		0.000000
9042		-7.812500
9043		0.000000
9044		-7.812500
9045		-1.953125
9046		-9.765625
9047		-1.953125
9048		-9.765625
9049		-3.906250
9050		-11.718750
9051		-5.859375
9052		-11.718750
9053		-7.812500
9054		-11.718750
9055		-7.812500
9056		-13.671875
9057		-9.765625
9058		-15.625000
9059		-9.765625
9060		-17.578125
9061		-9.765625
9062		-19.531250
9063		-11.718750
9064		-19.531250
9065		-13.671875
9066		-19.531250
9067		-13.671875
9068		-19.531250
9069		-15.625000
9070		-21.484375
9071		-17.578125
9072		-23.437500
9073		-17.578125
9074		-25.390625
9075		-17.578125
9076		-25.390625
9077		-19.531250
9078		-27.343750
9079		-19.531250
9080		-29.296875
9081		-21.484375
9082		-29.296875
9083		-23.437500
9084		-31.250000
9085		-23.437500
9086		-29.296875
9087		-27.343750
9088		-31.250000
9089		-27.343750
9090		-33.203125
9091		-27.343750
9092		-35.156250
9093		-27.343750
9094		-35.156250
9095		-29.296875
9096		-35.156250
9097		-29.296875
9098		-37.109375
9099		-31.250000
9100		-39.062500
9101		-31.250000
9102		-39.062500
9103		-31.250000
9104		-39.062500
9105		-35.156250
9106		-41.015625
9107		-35.156250
9108		-42.968750
9109		-35.156250
9110		-42.968750
9111		-37.109375
9112		-42.968750
9113		-37.109375
9114		-42.968750
9115		-37.109375
9116		-44.921875
9117		-39.062500
9118		-46.875000
9119		-41.015625
9120		-44.921875
9121		-42.968750
9122		-46.875000
9123		-42.968750
9124		-48.828125
9125		-42.968750
9126		-50.781250
9127		-42.968750
9128		-50.781250
9129		-44.921875
9130		-52.734375
9131		-44.921875
9132		-52.734375
9133		-46.875000
9134		-52.734375
9135		-46.875000
9136		-52.734375
9137		-48.828125
9138		-52.734375
9139		-48.828125
9140		-56.640625
9141		-48.828125
9142		-56.640625
9143		-48.828125
9144		-56.640625
9145		-50.781250
9146		-56.640625
9147		-50.781250
9148		-58.593750
9149		-50.781250
9150		-58.593750
9151		-52.734375
9152		-58.593750
9153		-52.734375
9154		-60.546875
9155		-54.687500
9156		-60.546875
9157		-54.687500
9158		-62.500000
9159		-54.687500
9160		-62.500000
9161		-54.687500
9162		-62.500000
9163		-56.640625
9164		-62.500000
9165		-56.640625
9166		-64.453125
9167		-56.640625
9168		-64.453125
9169		-56.640625
9170		-62.500000
9171		-60.546875
9172		-64.453125
9173		-60.546875
9174		-66.406250
9175		-58.593750
9176		-66.406250
9177		-60.546875
9178		-66.406250
9179		-60.546875
9180		-66.406250
9181		-60.546875
9182		-66.406250
9183		-60.546875
9184		-66.406250
9185		-60.546875
9186		-68.359375
9187		-62.500000
9188		-66.406250
9189		-64.453125
9190		-68.359375
9191		-62.500000
9192		-68.359375
9193		-62.500000
9194		-68.359375
9195		-62.500000
9196		-68.359375
9197		-62.500000
9198		-70.312500
9199		-62.500000
9200		-70.312500
9201		-62.500000
9202		-68.359375
9203		-62.500000
9204		-68.359375
9205		-66.406250
9206		-68.359375
9207		-64.453125
9208		-70.312500
9209		-64.453125
9210		-70.312500
9211		-64.453125
9212		-70.312500
9213		-64.453125
9214		-70.312500
9215		-64.453125
9216		-72.265625
9217		-62.500000
9218		-70.312500
9219		-64.453125
9220		-68.359375
9221		-64.453125
9222		-68.359375
9223		-66.406250
9224		-70.312500
9225		-64.453125
9226		-70.312500
9227		-64.453125
9228		-70.312500
9229		-62.500000
9230		-70.312500
9231		-64.453125
9232		-70.312500
9233		-62.500000
9234		-70.312500
9235		-62.500000
9236		-70.312500
9237		-62.500000
9238		-68.359375
9239		-64.453125
9240		-68.359375
9241		-64.453125
9242		-68.359375
9243		-62.500000
9244		-68.359375
9245		-62.500000
9246		-68.359375
9247		-62.500000
9248		-68.359375
9249		-62.500000
9250		-66.406250
9251		-62.500000
9252		-68.359375
9253		-60.546875
9254		-64.453125
9255		-62.500000
9256		-64.453125
9257		-62.500000
9258		-64.453125
9259		-60.546875
9260		-66.406250
9261		-58.593750
9262		-66.406250
9263		-58.593750
9264		-66.406250
9265		-58.593750
9266		-64.453125
9267		-58.593750
9268		-64.453125
9269		-58.593750
9270		-62.500000
9271		-58.593750
9272		-60.546875
9273		-58.593750
9274		-60.546875
9275		-56.640625
9276		-62.500000
9277		-56.640625
9278		-62.500000
9279		-54.687500
9280		-60.546875
9281		-54.687500
9282		-60.546875
9283		-54.687500
9284		-60.546875
9285		-52.734375
9286		-58.593750
9287		-52.734375
9288		-56.640625
9289		-54.687500
9290		-56.640625
9291		-52.734375
9292		-56.640625
9293		-50.781250
9294		-56.640625
9295		-50.781250
9296		-56.640625
9297		-48.828125
9298		-54.687500
9299		-48.828125
9300		-54.687500
9301		-46.875000
9302		-52.734375
9303		-46.875000
9304		-50.781250
9305		-48.828125
9306		-50.781250
9307		-46.875000
9308		-50.781250
9309		-44.921875
9310		-50.781250
9311		-44.921875
9312		-48.828125
9313		-42.968750
9314		-48.828125
9315		-41.015625
9316		-48.828125
9317		-41.015625
9318		-46.875000
9319		-41.015625
9320		-44.921875
9321		-41.015625
9322		-42.968750
9323		-41.015625
9324		-42.968750
9325		-39.062500
9326		-42.968750
9327		-37.109375
9328		-42.968750
9329		-35.156250
9330		-41.015625
9331		-35.156250
9332		-41.015625
9333		-33.203125
9334		-39.062500
9335		-33.203125
9336		-39.062500
9337		-31.250000
9338		-35.156250
9339		-33.203125
9340		-33.203125
9341		-31.250000
9342		-35.156250
9343		-29.296875
9344		-35.156250
9345		-27.343750
9346		-33.203125
9347		-27.343750
9348		-31.250000
9349		-25.390625
9350		-31.250000
9351		-23.437500
9352		-31.250000
9353		-23.437500
9354		-27.343750
9355		-23.437500
9356		-25.390625
9357		-21.484375
9358		-25.390625
9359		-19.531250
9360		-25.390625
9361		-19.531250
9362		-25.390625
9363		-17.578125
9364		-23.437500
9365		-17.578125
9366		-21.484375
9367		-15.625000
9368		-21.484375
9369		-13.671875
9370		-19.531250
9371		-13.671875
9372		-17.578125
9373		-13.671875
9374		-17.578125
9375		-11.718750
9376		-17.578125
9377		-9.765625
9378		-15.625000
9379		-9.765625
9380		-13.671875
9381		-7.812500
9382		-13.671875
9383		-5.859375
9384		-13.671875
9385		-5.859375
9386		-9.765625
9387		-3.906250
9388		-9.765625
9389		-3.906250
9390		-7.812500
9391		-3.906250
9392		-7.812500
9393		-1.953125
9394		-7.812500
9395		0.000000
9396		-5.859375
9397		1.953125
9398		-3.906250
9399		1.953125
9400		-3.906250
9401		3.906250
9402		-1.953125
9403		3.906250
9404		0.000000
9405		5.859375
9406		1.953125
9407		3.906250
9408		1.953125
9409		5.859375
9410		1.953125
9411		7.812500
9412		1.953125
9413		9.765625
9414		3.906250
9415		9.765625
9416		5.859375
9417		11.718750
9418		7.812500
9419		13.671875
9420		7.812500
9421		13.671875
9422		9.765625
9423		13.671875
9424		11.718750
9425		15.625000
9426		11.718750
9427		17.578125
9428		11.718750
9429		17.578125
9430		11.718750
9431		19.531250
9432		13.671875
9433		21.484375
9434		15.625000
9435		21.484375
9436		17.578125
9437		23.437500
9438		17.578125
9439		23.437500
9440		19.531250
9441		23.437500
9442		19.531250
9443		25.390625
9444		21.484375
9445		27.343750
9446		21.484375
9447		29.296875
9448		21.484375
9449		29.296875
9450		23.437500
9451		29.296875
9452		23.437500
9453		31.250000
9454		23.437500
9455		31.250000
9456		27.343750
9457		31.250000
9458		29.296875
9459		33.203125
9460		27.343750
9461		35.156250
9462		29.296875
9463		35.156250
9464		31.250000
9465		37.109375
9466		31.250000
9467		37.109375
9468		31.250000
9469		39.062500
9470		31.250000
9471		39.062500
9472		33.203125
9473		39.062500
9474		35.156250
9475		39.062500
9476		35.156250
9477		42.968750
9478		35.156250
9479		42.968750
9480		37.109375
9481		42.968750
9482		39.062500
9483		44.921875
9484		39.062500
9485		44.921875
9486		39.062500
9487		46.875000
9488		41.015625
9489		46.875000
9490		42.968750
9491		46.875000
9492		42.968750
9493		46.875000
9494		42.968750
9495		48.828125
9496		42.968750
9497		50.781250
9498		42.968750
9499		50.781250
9500		44.921875
9501		50.781250
9502		44.921875
9503		52.734375
9504		46.875000
9505		52.734375
9506		48.828125
9507		52.734375
9508		48.828125
9509		52.734375
9510		48.828125
9511		54.687500
9512		48.828125
9513		54.687500
9514		50.781250
9515		54.687500
9516		48.828125
9517		56.640625
9518		50.781250
9519		56.640625
9520		50.781250
9521		58.593750
9522		52.734375
9523		56.640625
9524		54.687500
9525		56.640625
9526		52.734375
9527		58.593750
9528		52.734375
9529		58.593750
9530		54.687500
9531		60.546875
9532		54.687500
9533		60.546875
9534		54.687500
9535		60.546875
9536		54.687500
9537		60.546875
9538		54.687500
9539		62.500000
9540		56.640625
9541		60.546875
9542		58.593750
9543		60.546875
9544		56.640625
9545		62.500000
9546		56.640625
9547		62.500000
9548		56.640625
9549		62.500000
9550		58.593750
9551		64.453125
9552		58.593750
9553		64.453125
9554		56.640625
9555		64.453125
9556		58.593750
9557		64.453125
9558		60.546875
9559		62.500000
9560		58.593750
9561		66.406250
9562		58.593750
9563		64.453125
9564		58.593750
9565		66.406250
9566		60.546875
9567		66.406250
9568		60.546875
9569		66.406250
9570		60.546875
9571		66.406250
9572		60.546875
9573		66.406250
9574		62.500000
9575		64.453125
9576		58.593750
9577		66.406250
9578		60.546875
9579		66.406250
9580		60.546875
9581		66.406250
9582		60.546875
9583		66.406250
9584		58.593750
9585		66.406250
9586		60.546875
9587		66.406250
9588		60.546875
9589		66.406250
9590		60.546875
9591		64.453125
9592		62.500000
9593		64.453125
9594		58.593750
9595		66.406250
9596		60.546875
9597		66.406250
9598		60.546875
9599		66.406250
9600		58.593750
9601		66.406250
9602		58.593750
9603		66.406250
9604		58.593750
9605		64.453125
9606		58.593750
9607		64.453125
9608		60.546875
9609		62.500000
9610		58.593750
9611		64.453125
9612		58.593750
9613		64.453125
9614		58.593750
9615		64.453125
9616		56.640625
9617		64.453125
9618		56.640625
9619		64.453125
9620		56.640625
9621		64.453125
9622		56.640625
9623		64.453125
9624		58.593750
9625		60.546875
9626		58.593750
9627		60.546875
9628		54.687500
9629		62.500000
9630		56.640625
9631		62.500000
9632		54.687500
9633		60.546875
9634		54.687500
9635		60.546875
9636		54.687500
9637		60.546875
9638		54.687500
9639		60.546875
9640		54.687500
9641		58.593750
9642		54.687500
9643		56.640625
9644		52.734375
9645		58.593750
9646		52.734375
9647		56.640625
9648		52.734375
9649		56.640625
9650		50.781250
9651		56.640625
9652		50.781250
9653		54.687500
9654		50.781250
9655		54.687500
9656		50.781250
9657		54.687500
9658		50.781250
9659		52.734375
9660		48.828125
9661		52.734375
9662		46.875000
9663		52.734375
9664		46.875000
9665		52.734375
9666		44.921875
9667		52.734375
9668		44.921875
9669		52.734375
9670		42.968750
9671		50.781250
9672		42.968750
9673		48.828125
9674		44.921875
9675		48.828125
9676		42.968750
9677		46.875000
9678		41.015625
9679		46.875000
9680		41.015625
9681		48.828125
9682		39.062500
9683		46.875000
9684		39.062500
9685		44.921875
9686		39.062500
9687		44.921875
9688		37.109375
9689		44.921875
9690		37.109375
9691		42.968750
9692		37.109375
9693		41.015625
9694		35.156250
9695		41.015625
9696		33.203125
9697		39.062500
9698		33.203125
9699		39.062500
9700		31.250000
9701		39.062500
9702		31.250000
9703		37.109375
9704		31.250000
9705		37.109375
9706		29.296875
9707		35.156250
9708		29.296875
9709		33.203125
9710		29.296875
9711		31.250000
9712		25.390625
9713		31.250000
9714		25.390625
9715		31.250000
9716		23.437500
9717		31.250000
9718		23.437500
9719		29.296875
9720		21.484375
9721		29.296875
9722		21.484375
9723		27.343750
9724		21.484375
9725		27.343750
9726		21.484375
9727		23.437500
9728		17.578125
9729		25.390625
9730		15.625000
9731		23.437500
9732		15.625000
9733		21.484375
9734		15.625000
9735		21.484375
9736		13.671875
9737		21.484375
9738		11.718750
9739		19.531250
9740		11.718750
9741		17.578125
9742		11.718750
9743		15.625000
9744		11.718750
9745		13.671875
9746		7.812500
9747		13.671875
9748		7.812500
9749		13.671875
9750		5.859375
9751		11.718750
9752		5.859375
9753		11.718750
9754		3.906250
9755		11.718750
9756		1.953125
9757		9.765625
9758		3.906250
9759		7.812500
9760		1.953125
9761		5.859375
9762		0.000000
9763		5.859375
9764		-1.953125
9765		5.859375
9766		-1.953125
9767		3.906250
9768		-3.906250
9769		1.953125
9770		-5.859375
9771		1.953125
9772		-5.859375
9773		0.000000
9774		-7.812500
9775		0.000000
9776		-5.859375
9777		-3.906250
9778		-9.765625
9779		-3.906250
9780		-11.718750
9781		-3.906250
9782		-11.718750
9783		-3.906250
9784		-11.718750
9785		-5.859375
9786		-13.671875
9787		-7.812500
9788		-15.625000
9789		-9.765625
9790		-15.625000
9791		-9.765625
9792		-15.625000
9793		-13.671875
9794		-17.578125
9795		-13.671875
9796		-19.531250
9797		-13.671875
9798		-21.484375
9799		-13.671875
9800		-21.484375
9801		-13.671875
9802		-23.437500
9803		-15.625000
9804		-23.437500
9805		-17.578125
9806		-25.390625
9807		-19.531250
9808		-25.390625
9809		-19.531250
9810		-25.390625
9811		-23.437500
9812		-27.343750
9813		-23.437500
9814		-29.296875
9815		-23.437500
9816		-31.250000
9817		-23.437500
9818		-31.250000
9819		-23.437500
9820		-33.203125
9821		-25.390625
9822		-33.203125
9823		-27.343750
9824		-33.203125
9825		-27.343750
9826		-33.203125
9827		-31.250000
9828		-35.156250
9829		-31.250000
9830		-37.109375
9831		-31.250000
9832		-37.109375
9833		-31.250000
9834		-39.062500
9835		-33.203125
9836		-39.062500
9837		-33.203125
9838		-41.015625
9839		-35.156250
9840		-42.968750
9841		-35.156250
9842		-41.015625
9843		-37.109375
9844		-41.015625
9845		-39.062500
9846		-44.921875
9847		-41.015625
9848		-46.875000
9849		-39.062500
9850		-46.875000
9851		-41.015625
9852		-46.875000
9853		-41.015625
9854		-48.828125
9855		-42.968750
9856		-48.828125
9857		-42.968750
9858		-50.781250
9859		-44.921875
9860		-50.781250
9861		-46.875000
9862		-52.734375
9863		-46.875000
9864		-52.734375
9865		-46.875000
9866		-54.687500
9867		-46.875000
9868		-52.734375
9869		-46.875000
9870		-54.687500
9871		-48.828125
9872		-56.640625
9873		-48.828125
9874		-56.640625
9875		-50.781250
9876		-54.687500
9877		-52.734375
9878		-56.640625
9879		-52.734375
9880		-58.593750
9881		-52.734375
9882		-60.546875
9883		-52.734375
9884		-60.546875
9885		-52.734375
9886		-60.546875
9887		-54.687500
9888		-60.546875
9889		-54.687500
9890		-60.546875
9891		-54.687500
9892		-60.546875
9893		-56.640625
9894		-62.500000
9895		-58.593750
9896		-62.500000
9897		-56.640625
9898		-64.453125
9899		-56.640625
9900		-64.453125
9901		-58.593750
9902		-64.453125
9903		-58.593750
9904		-66.406250
9905		-58.593750
9906		-66.406250
9907		-60.546875
9908		-66.406250
9909		-60.546875
9910		-64.453125
9911		-62.500000
9912		-64.453125
9913		-62.500000
9914		-68.359375
9915		-60.546875
9916		-68.359375
9917		-60.546875
9918		-68.359375
9919		-62.500000
9920		-66.406250
9921		-62.500000
9922		-68.359375
9923		-62.500000
9924		-70.312500
9925		-62.500000
9926		-68.359375
9927		-64.453125
9928		-68.359375
9929		-64.453125
9930		-68.359375
9931		-64.453125
9932		-70.312500
9933		-64.453125
9934		-70.312500
9935		-64.453125
9936		-70.312500
9937		-66.406250
9938		-70.312500
9939		-64.453125
9940		-70.312500
9941		-64.453125
9942		-70.312500
9943		-64.453125
9944		-68.359375
9945		-66.406250
9946		-68.359375
9947		-64.453125
9948		-70.312500
9949		-64.453125
9950		-70.312500
9951		-64.453125
9952		-70.312500
9953		-64.453125
9954		-70.312500
9955		-64.453125
9956		-70.312500
9957		-66.406250
9958		-70.312500
9959		-64.453125
9960		-68.359375
9961		-66.406250
9962		-68.359375
9963		-66.406250
9964		-70.312500
9965		-64.453125
9966		-70.312500
9967		-64.453125
9968		-70.312500
9969		-66.406250
9970		-70.312500
9971		-64.453125
9972		-70.312500
9973		-62.500000
9974		-68.359375
9975		-62.500000
9976		-70.312500
9977		-64.453125
9978		-66.406250
9979		-64.453125
9980		-68.359375
9981		-64.453125
9982		-68.359375
9983		-62.500000
9984		-68.359375
9985		-62.500000
9986		-68.359375
9987		-60.546875
9988		-68.359375
9989		-60.546875
9990		-66.406250
9991		-58.593750
9992		-66.406250
9993		-60.546875
9994		-64.453125
9995		-62.500000
9996		-64.453125
9997		-60.546875
9998		-64.453125
9999		-58.593750
10000		-64.453125
