Channel              :		CH1
Frequency            :		1.061kHz
Period               :		0.942ms
PK-PK                :		242.2mV
Probe attenuation    :		1X
Voltage per ADC value:		0.122070mV
Time interval        :		2.00000us

index		CH1_Voltage(mV)
1		83.984375
2		83.984375
3		87.890625
4		82.031250
5		85.937500
6		80.078125
7		83.984375
8		78.125000
9		82.031250
10		76.171875
11		80.078125
12		74.218750
13		78.125000
14		70.312500
15		76.171875
16		68.359375
17		74.218750
18		66.406250
19		70.312500
20		64.453125
21		68.359375
22		60.546875
23		66.406250
24		58.593750
25		64.453125
26		56.640625
27		60.546875
28		52.734375
29		58.593750
30		50.781250
31		54.687500
32		46.875000
33		52.734375
34		44.921875
35		50.781250
36		42.968750
37		46.875000
38		39.062500
39		44.921875
40		37.109375
41		41.015625
42		33.203125
43		39.062500
44		31.250000
45		37.109375
46		27.343750
47		33.203125
48		25.390625
49		29.296875
50		21.484375
51		27.343750
52		19.531250
53		23.437500
54		15.625000
55		21.484375
56		13.671875
57		17.578125
58		9.765625
59		15.625000
60		7.812500
61		11.718750
62		3.906250
63		9.765625
64		0.000000
65		5.859375
66		-1.953125
67		3.906250
68		-5.859375
69		0.000000
70		-7.812500
71		-3.906250
72		-11.718750
73		-5.859375
74		-15.625000
75		-9.765625
76		-17.578125
77		-11.718750
78		-21.484375
79		-15.625000
80		-23.437500
81		-17.578125
82		-27.343750
83		-21.484375
84		-29.296875
85		-25.390625
86		-33.203125
87		-27.343750
88		-35.156250
89		-31.250000
90		-39.062500
91		-33.203125
92		-41.015625
93		-37.109375
94		-44.921875
95		-39.062500
96		-46.875000
97		-41.015625
98		-50.781250
99		-44.921875
100		-52.734375
101		-46.875000
102		-54.687500
103		-50.781250
104		-58.593750
105		-52.734375
106		-60.546875
107		-56.640625
108		-62.500000
109		-58.593750
110		-66.406250
111		-60.546875
112		-68.359375
113		-64.453125
114		-70.312500
115		-66.406250
116		-74.218750
117		-68.359375
118		-76.171875
119		-70.312500
120		-78.125000
121		-74.218750
122		-80.078125
123		-74.218750
124		-82.031250
125		-78.125000
126		-83.984375
127		-80.078125
128		-85.937500
129		-82.031250
130		-87.890625
131		-83.984375
132		-89.843750
133		-85.937500
134		-91.796875
135		-87.890625
136		-93.750000
137		-89.843750
138		-95.703125
139		-91.796875
140		-97.656250
141		-93.750000
142		-97.656250
143		-93.750000
144		-99.609375
145		-95.703125
146		-101.562500
147		-97.656250
148		-101.562500
149		-97.656250
150		-103.515625
151		-99.609375
152		-105.468750
153		-99.609375
154		-105.468750
155		-101.562500
156		-107.421875
157		-103.515625
158		-107.421875
159		-103.515625
160		-109.375000
161		-105.468750
162		-109.375000
163		-105.468750
164		-109.375000
165		-105.468750
166		-109.375000
167		-105.468750
168		-111.328125
169		-107.421875
170		-111.328125
171		-107.421875
172		-111.328125
173		-107.421875
174		-111.328125
175		-107.421875
176		-111.328125
177		-107.421875
178		-111.328125
179		-107.421875
180		-111.328125
181		-107.421875
182		-111.328125
183		-107.421875
184		-109.375000
185		-107.421875
186		-109.375000
187		-107.421875
188		-109.375000
189		-105.468750
190		-109.375000
191		-105.468750
192		-109.375000
193		-105.468750
194		-109.375000
195		-103.515625
196		-107.421875
197		-103.515625
198		-105.468750
199		-103.515625
200		-105.468750
201		-101.562500
202		-103.515625
203		-99.609375
204		-103.515625
205		-99.609375
206		-101.562500
207		-97.656250
208		-99.609375
209		-95.703125
210		-99.609375
211		-93.750000
212		-97.656250
213		-93.750000
214		-95.703125
215		-91.796875
216		-93.750000
217		-89.843750
218		-91.796875
219		-87.890625
220		-89.843750
221		-85.937500
222		-87.890625
223		-83.984375
224		-85.937500
225		-82.031250
226		-83.984375
227		-80.078125
228		-82.031250
229		-78.125000
230		-80.078125
231		-76.171875
232		-78.125000
233		-74.218750
234		-76.171875
235		-70.312500
236		-72.265625
237		-68.359375
238		-70.312500
239		-66.406250
240		-68.359375
241		-62.500000
242		-66.406250
243		-60.546875
244		-62.500000
245		-58.593750
246		-60.546875
247		-56.640625
248		-58.593750
249		-52.734375
250		-54.687500
251		-50.781250
252		-52.734375
253		-46.875000
254		-48.828125
255		-44.921875
256		-46.875000
257		-41.015625
258		-42.968750
259		-39.062500
260		-41.015625
261		-35.156250
262		-37.109375
263		-33.203125
264		-35.156250
265		-29.296875
266		-31.250000
267		-25.390625
268		-29.296875
269		-23.437500
270		-25.390625
271		-19.531250
272		-23.437500
273		-17.578125
274		-19.531250
275		-13.671875
276		-17.578125
277		-11.718750
278		-13.671875
279		-7.812500
280		-9.765625
281		-5.859375
282		-7.812500
283		-1.953125
284		-3.906250
285		1.953125
286		-1.953125
287		3.906250
288		1.953125
289		7.812500
290		3.906250
291		9.765625
292		7.812500
293		13.671875
294		11.718750
295		15.625000
296		13.671875
297		19.531250
298		17.578125
299		21.484375
300		19.531250
301		25.390625
302		23.437500
303		27.343750
304		25.390625
305		31.250000
306		29.296875
307		35.156250
308		31.250000
309		37.109375
310		35.156250
311		39.062500
312		37.109375
313		42.968750
314		41.015625
315		44.921875
316		42.968750
317		48.828125
318		44.921875
319		50.781250
320		48.828125
321		54.687500
322		50.781250
323		56.640625
324		54.687500
325		58.593750
326		56.640625
327		60.546875
328		58.593750
329		64.453125
330		60.546875
331		66.406250
332		64.453125
333		68.359375
334		66.406250
335		70.312500
336		68.359375
337		74.218750
338		70.312500
339		76.171875
340		72.265625
341		78.125000
342		76.171875
343		80.078125
344		78.125000
345		82.031250
346		80.078125
347		83.984375
348		82.031250
349		85.937500
350		83.984375
351		87.890625
352		85.937500
353		89.843750
354		87.890625
355		91.796875
356		89.843750
357		93.750000
358		91.796875
359		95.703125
360		91.796875
361		97.656250
362		93.750000
363		99.609375
364		95.703125
365		99.609375
366		97.656250
367		101.562500
368		99.609375
369		103.515625
370		99.609375
371		105.468750
372		101.562500
373		105.468750
374		103.515625
375		107.421875
376		103.515625
377		107.421875
378		105.468750
379		109.375000
380		107.421875
381		109.375000
382		107.421875
383		111.328125
384		109.375000
385		113.281250
386		109.375000
387		113.281250
388		109.375000
389		113.281250
390		111.328125
391		115.234375
392		111.328125
393		115.234375
394		113.281250
395		115.234375
396		113.281250
397		117.187500
398		113.281250
399		117.187500
400		113.281250
401		117.187500
402		113.281250
403		117.187500
404		113.281250
405		117.187500
406		115.234375
407		117.187500
408		115.234375
409		119.140625
410		115.234375
411		119.140625
412		115.234375
413		119.140625
414		115.234375
415		117.187500
416		115.234375
417		117.187500
418		115.234375
419		117.187500
420		115.234375
421		117.187500
422		113.281250
423		117.187500
424		113.281250
425		117.187500
426		113.281250
427		117.187500
428		113.281250
429		117.187500
430		111.328125
431		115.234375
432		111.328125
433		115.234375
434		109.375000
435		113.281250
436		109.375000
437		113.281250
438		109.375000
439		113.281250
440		107.421875
441		111.328125
442		107.421875
443		111.328125
444		105.468750
445		109.375000
446		105.468750
447		109.375000
448		103.515625
449		107.421875
450		103.515625
451		107.421875
452		99.609375
453		105.468750
454		99.609375
455		103.515625
456		97.656250
457		103.515625
458		95.703125
459		101.562500
460		95.703125
461		99.609375
462		93.750000
463		97.656250
464		91.796875
465		95.703125
466		89.843750
467		93.750000
468		87.890625
469		93.750000
470		85.937500
471		91.796875
472		83.984375
473		89.843750
474		82.031250
475		87.890625
476		80.078125
477		85.937500
478		78.125000
479		83.984375
480		76.171875
481		80.078125
482		74.218750
483		78.125000
484		72.265625
485		76.171875
486		70.312500
487		74.218750
488		66.406250
489		72.265625
490		64.453125
491		70.312500
492		62.500000
493		66.406250
494		60.546875
495		64.453125
496		56.640625
497		62.500000
498		54.687500
499		60.546875
500		52.734375
501		56.640625
502		48.828125
503		54.687500
504		46.875000
505		50.781250
506		44.921875
507		48.828125
508		41.015625
509		46.875000
510		37.109375
511		42.968750
512		35.156250
513		41.015625
514		33.203125
515		37.109375
516		29.296875
517		33.203125
518		25.390625
519		31.250000
520		23.437500
521		29.296875
522		19.531250
523		25.390625
524		17.578125
525		23.437500
526		13.671875
527		19.531250
528		11.718750
529		17.578125
530		7.812500
531		13.671875
532		5.859375
533		9.765625
534		1.953125
535		7.812500
536		0.000000
537		3.906250
538		-3.906250
539		1.953125
540		-7.812500
541		-1.953125
542		-9.765625
543		-5.859375
544		-13.671875
545		-7.812500
546		-15.625000
547		-11.718750
548		-19.531250
549		-13.671875
550		-21.484375
551		-17.578125
552		-25.390625
553		-19.531250
554		-27.343750
555		-23.437500
556		-31.250000
557		-25.390625
558		-33.203125
559		-29.296875
560		-37.109375
561		-31.250000
562		-41.015625
563		-35.156250
564		-42.968750
565		-37.109375
566		-44.921875
567		-41.015625
568		-48.828125
569		-44.921875
570		-50.781250
571		-46.875000
572		-54.687500
573		-48.828125
574		-56.640625
575		-52.734375
576		-58.593750
577		-54.687500
578		-62.500000
579		-56.640625
580		-64.453125
581		-60.546875
582		-66.406250
583		-62.500000
584		-70.312500
585		-64.453125
586		-72.265625
587		-66.406250
588		-76.171875
589		-70.312500
590		-78.125000
591		-70.312500
592		-78.125000
593		-74.218750
594		-82.031250
595		-76.171875
596		-83.984375
597		-78.125000
598		-85.937500
599		-82.031250
600		-87.890625
601		-83.984375
602		-89.843750
603		-85.937500
604		-91.796875
605		-85.937500
606		-95.703125
607		-87.890625
608		-93.750000
609		-89.843750
610		-95.703125
611		-91.796875
612		-97.656250
613		-93.750000
614		-101.562500
615		-95.703125
616		-99.609375
617		-97.656250
618		-101.562500
619		-97.656250
620		-105.468750
621		-97.656250
622		-105.468750
623		-99.609375
624		-107.421875
625		-99.609375
626		-107.421875
627		-101.562500
628		-107.421875
629		-101.562500
630		-107.421875
631		-105.468750
632		-109.375000
633		-105.468750
634		-109.375000
635		-105.468750
636		-111.328125
637		-105.468750
638		-113.281250
639		-105.468750
640		-111.328125
641		-105.468750
642		-113.281250
643		-105.468750
644		-111.328125
645		-105.468750
646		-111.328125
647		-107.421875
648		-111.328125
649		-107.421875
650		-111.328125
651		-109.375000
652		-111.328125
653		-107.421875
654		-111.328125
655		-105.468750
656		-113.281250
657		-105.468750
658		-113.281250
659		-105.468750
660		-111.328125
661		-105.468750
662		-111.328125
663		-105.468750
664		-109.375000
665		-103.515625
666		-107.421875
667		-103.515625
668		-107.421875
669		-103.515625
670		-107.421875
671		-99.609375
672		-107.421875
673		-99.609375
674		-105.468750
675		-97.656250
676		-103.515625
677		-97.656250
678		-103.515625
679		-95.703125
680		-101.562500
681		-93.750000
682		-99.609375
683		-93.750000
684		-97.656250
685		-93.750000
686		-95.703125
687		-91.796875
688		-95.703125
689		-87.890625
690		-93.750000
691		-85.937500
692		-89.843750
693		-83.984375
694		-89.843750
695		-82.031250
696		-87.890625
697		-80.078125
698		-85.937500
699		-78.125000
700		-82.031250
701		-78.125000
702		-80.078125
703		-76.171875
704		-78.125000
705		-70.312500
706		-76.171875
707		-68.359375
708		-74.218750
709		-66.406250
710		-72.265625
711		-64.453125
712		-68.359375
713		-60.546875
714		-66.406250
715		-60.546875
716		-64.453125
717		-58.593750
718		-58.593750
719		-54.687500
720		-56.640625
721		-50.781250
722		-54.687500
723		-48.828125
724		-52.734375
725		-44.921875
726		-50.781250
727		-42.968750
728		-46.875000
729		-39.062500
730		-42.968750
731		-37.109375
732		-41.015625
733		-35.156250
734		-37.109375
735		-31.250000
736		-33.203125
737		-29.296875
738		-31.250000
739		-23.437500
740		-29.296875
741		-21.484375
742		-27.343750
743		-17.578125
744		-23.437500
745		-15.625000
746		-21.484375
747		-11.718750
748		-17.578125
749		-9.765625
750		-13.671875
751		-7.812500
752		-9.765625
753		-3.906250
754		-5.859375
755		0.000000
756		-3.906250
757		3.906250
758		-1.953125
759		5.859375
760		0.000000
761		9.765625
762		3.906250
763		11.718750
764		5.859375
765		15.625000
766		11.718750
767		17.578125
768		15.625000
769		19.531250
770		17.578125
771		23.437500
772		19.531250
773		27.343750
774		21.484375
775		31.250000
776		25.390625
777		33.203125
778		27.343750
779		35.156250
780		31.250000
781		41.015625
782		35.156250
783		41.015625
784		39.062500
785		42.968750
786		41.015625
787		46.875000
788		42.968750
789		50.781250
790		44.921875
791		52.734375
792		46.875000
793		56.640625
794		50.781250
795		58.593750
796		54.687500
797		60.546875
798		54.687500
799		64.453125
800		58.593750
801		64.453125
802		62.500000
803		66.406250
804		64.453125
805		72.265625
806		64.453125
807		72.265625
808		68.359375
809		76.171875
810		70.312500
811		78.125000
812		70.312500
813		80.078125
814		74.218750
815		82.031250
816		76.171875
817		83.984375
818		80.078125
819		83.984375
820		82.031250
821		85.937500
822		82.031250
823		89.843750
824		83.984375
825		91.796875
826		85.937500
827		93.750000
828		87.890625
829		95.703125
830		89.843750
831		97.656250
832		91.796875
833		99.609375
834		93.750000
835		99.609375
836		95.703125
837		99.609375
838		97.656250
839		103.515625
840		97.656250
841		105.468750
842		99.609375
843		107.421875
844		99.609375
845		107.421875
846		101.562500
847		109.375000
848		103.515625
849		109.375000
850		103.515625
851		111.328125
852		107.421875
853		109.375000
854		107.421875
855		111.328125
856		107.421875
857		113.281250
858		109.375000
859		115.234375
860		109.375000
861		115.234375
862		109.375000
863		117.187500
864		109.375000
865		117.187500
866		111.328125
867		117.187500
868		113.281250
869		117.187500
870		113.281250
871		117.187500
872		113.281250
873		119.140625
874		113.281250
875		121.093750
876		113.281250
877		119.140625
878		113.281250
879		121.093750
880		113.281250
881		119.140625
882		113.281250
883		121.093750
884		113.281250
885		119.140625
886		115.234375
887		119.140625
888		115.234375
889		119.140625
890		113.281250
891		121.093750
892		113.281250
893		121.093750
894		111.328125
895		119.140625
896		111.328125
897		119.140625
898		111.328125
899		119.140625
900		111.328125
901		119.140625
902		113.281250
903		115.234375
904		113.281250
905		115.234375
906		109.375000
907		115.234375
908		109.375000
909		117.187500
910		107.421875
911		115.234375
912		107.421875
913		113.281250
914		107.421875
915		113.281250
916		105.468750
917		113.281250
918		105.468750
919		111.328125
920		105.468750
921		107.421875
922		101.562500
923		107.421875
924		99.609375
925		107.421875
926		99.609375
927		105.468750
928		97.656250
929		105.468750
930		95.703125
931		103.515625
932		93.750000
933		101.562500
934		93.750000
935		99.609375
936		91.796875
937		97.656250
938		91.796875
939		95.703125
940		87.890625
941		95.703125
942		85.937500
943		93.750000
944		83.984375
945		91.796875
946		82.031250
947		87.890625
948		78.125000
949		87.890625
950		78.125000
951		83.984375
952		76.171875
953		82.031250
954		74.218750
955		80.078125
956		72.265625
957		78.125000
958		68.359375
959		76.171875
960		66.406250
961		74.218750
962		64.453125
963		70.312500
964		62.500000
965		68.359375
966		60.546875
967		66.406250
968		58.593750
969		62.500000
970		54.687500
971		60.546875
972		52.734375
973		58.593750
974		48.828125
975		58.593750
976		44.921875
977		54.687500
978		42.968750
979		50.781250
980		39.062500
981		48.828125
982		37.109375
983		44.921875
984		35.156250
985		42.968750
986		33.203125
987		39.062500
988		31.250000
989		35.156250
990		25.390625
991		33.203125
992		23.437500
993		31.250000
994		19.531250
995		27.343750
996		15.625000
997		25.390625
998		13.671875
999		21.484375
1000		11.718750
1001		19.531250
1002		9.765625
1003		15.625000
1004		5.859375
1005		11.718750
1006		0.000000
1007		7.812500
1008		-1.953125
1009		7.812500
1010		-3.906250
1011		3.906250
1012		-5.859375
1013		0.000000
1014		-9.765625
1015		-1.953125
1016		-13.671875
1017		-5.859375
1018		-15.625000
1019		-7.812500
1020		-17.578125
1021		-13.671875
1022		-21.484375
1023		-15.625000
1024		-27.343750
1025		-17.578125
1026		-29.296875
1027		-21.484375
1028		-31.250000
1029		-23.437500
1030		-35.156250
1031		-27.343750
1032		-39.062500
1033		-29.296875
1034		-41.015625
1035		-33.203125
1036		-42.968750
1037		-37.109375
1038		-44.921875
1039		-41.015625
1040		-50.781250
1041		-42.968750
1042		-52.734375
1043		-44.921875
1044		-56.640625
1045		-46.875000
1046		-58.593750
1047		-50.781250
1048		-60.546875
1049		-52.734375
1050		-64.453125
1051		-56.640625
1052		-64.453125
1053		-58.593750
1054		-66.406250
1055		-62.500000
1056		-70.312500
1057		-64.453125
1058		-74.218750
1059		-66.406250
1060		-76.171875
1061		-68.359375
1062		-78.125000
1063		-70.312500
1064		-80.078125
1065		-72.265625
1066		-82.031250
1067		-76.171875
1068		-83.984375
1069		-76.171875
1070		-85.937500
1071		-82.031250
1072		-87.890625
1073		-83.984375
1074		-91.796875
1075		-83.984375
1076		-93.750000
1077		-85.937500
1078		-95.703125
1079		-87.890625
1080		-97.656250
1081		-89.843750
1082		-99.609375
1083		-91.796875
1084		-99.609375
1085		-93.750000
1086		-101.562500
1087		-93.750000
1088		-101.562500
1089		-97.656250
1090		-105.468750
1091		-97.656250
1092		-105.468750
1093		-99.609375
1094		-105.468750
1095		-99.609375
1096		-109.375000
1097		-101.562500
1098		-109.375000
1099		-101.562500
1100		-109.375000
1101		-103.515625
1102		-111.328125
1103		-103.515625
1104		-109.375000
1105		-105.468750
1106		-111.328125
1107		-107.421875
1108		-113.281250
1109		-105.468750
1110		-113.281250
1111		-107.421875
1112		-113.281250
1113		-107.421875
1114		-115.234375
1115		-107.421875
1116		-115.234375
1117		-107.421875
1118		-115.234375
1119		-107.421875
1120		-113.281250
1121		-109.375000
1122		-113.281250
1123		-109.375000
1124		-113.281250
1125		-107.421875
1126		-115.234375
1127		-107.421875
1128		-115.234375
1129		-107.421875
1130		-113.281250
1131		-107.421875
1132		-113.281250
1133		-105.468750
1134		-113.281250
1135		-105.468750
1136		-113.281250
1137		-105.468750
1138		-109.375000
1139		-105.468750
1140		-107.421875
1141		-103.515625
1142		-109.375000
1143		-101.562500
1144		-107.421875
1145		-101.562500
1146		-107.421875
1147		-99.609375
1148		-105.468750
1149		-99.609375
1150		-105.468750
1151		-97.656250
1152		-103.515625
1153		-95.703125
1154		-99.609375
1155		-95.703125
1156		-97.656250
1157		-93.750000
1158		-97.656250
1159		-91.796875
1160		-97.656250
1161		-89.843750
1162		-95.703125
1163		-87.890625
1164		-93.750000
1165		-85.937500
1166		-91.796875
1167		-83.984375
1168		-89.843750
1169		-82.031250
1170		-85.937500
1171		-80.078125
1172		-83.984375
1173		-80.078125
1174		-82.031250
1175		-76.171875
1176		-80.078125
1177		-72.265625
1178		-78.125000
1179		-70.312500
1180		-76.171875
1181		-68.359375
1182		-74.218750
1183		-64.453125
1184		-72.265625
1185		-64.453125
1186		-68.359375
1187		-62.500000
1188		-64.453125
1189		-60.546875
1190		-62.500000
1191		-56.640625
1192		-60.546875
1193		-52.734375
1194		-58.593750
1195		-48.828125
1196		-54.687500
1197		-46.875000
1198		-52.734375
1199		-44.921875
1200		-48.828125
1201		-41.015625
1202		-46.875000
1203		-39.062500
1204		-41.015625
1205		-37.109375
1206		-39.062500
1207		-33.203125
1208		-35.156250
1209		-29.296875
1210		-35.156250
1211		-25.390625
1212		-31.250000
1213		-23.437500
1214		-29.296875
1215		-19.531250
1216		-25.390625
1217		-17.578125
1218		-23.437500
1219		-13.671875
1220		-19.531250
1221		-11.718750
1222		-13.671875
1223		-9.765625
1224		-11.718750
1225		-5.859375
1226		-9.765625
1227		-1.953125
1228		-5.859375
1229		1.953125
1230		-1.953125
1231		3.906250
1232		0.000000
1233		7.812500
1234		1.953125
1235		9.765625
1236		5.859375
1237		13.671875
1238		9.765625
1239		15.625000
1240		13.671875
1241		17.578125
1242		15.625000
1243		21.484375
1244		17.578125
1245		27.343750
1246		19.531250
1247		29.296875
1248		23.437500
1249		31.250000
1250		25.390625
1251		35.156250
1252		29.296875
1253		37.109375
1254		31.250000
1255		39.062500
1256		37.109375
1257		41.015625
1258		39.062500
1259		44.921875
1260		41.015625
1261		48.828125
1262		44.921875
1263		50.781250
1264		44.921875
1265		54.687500
1266		48.828125
1267		56.640625
1268		50.781250
1269		58.593750
1270		52.734375
1271		62.500000
1272		58.593750
1273		62.500000
1274		60.546875
1275		64.453125
1276		60.546875
1277		68.359375
1278		62.500000
1279		70.312500
1280		66.406250
1281		74.218750
1282		70.312500
1283		76.171875
1284		70.312500
1285		78.125000
1286		72.265625
1287		80.078125
1288		76.171875
1289		80.078125
1290		78.125000
1291		83.984375
1292		80.078125
1293		85.937500
1294		80.078125
1295		87.890625
1296		82.031250
1297		89.843750
1298		83.984375
1299		91.796875
1300		85.937500
1301		93.750000
1302		87.890625
1303		95.703125
1304		91.796875
1305		97.656250
1306		93.750000
1307		97.656250
1308		93.750000
1309		99.609375
1310		93.750000
1311		101.562500
1312		95.703125
1313		103.515625
1314		97.656250
1315		103.515625
1316		99.609375
1317		105.468750
1318		99.609375
1319		107.421875
1320		101.562500
1321		107.421875
1322		103.515625
1323		107.421875
1324		105.468750
1325		109.375000
1326		105.468750
1327		111.328125
1328		105.468750
1329		113.281250
1330		105.468750
1331		113.281250
1332		107.421875
1333		115.234375
1334		107.421875
1335		113.281250
1336		107.421875
1337		115.234375
1338		109.375000
1339		115.234375
1340		111.328125
1341		115.234375
1342		111.328125
1343		115.234375
1344		109.375000
1345		117.187500
1346		111.328125
1347		117.187500
1348		111.328125
1349		117.187500
1350		111.328125
1351		117.187500
1352		111.328125
1353		117.187500
1354		111.328125
1355		119.140625
1356		113.281250
1357		117.187500
1358		113.281250
1359		117.187500
1360		111.328125
1361		119.140625
1362		111.328125
1363		117.187500
1364		109.375000
1365		117.187500
1366		111.328125
1367		117.187500
1368		109.375000
1369		117.187500
1370		109.375000
1371		115.234375
1372		111.328125
1373		115.234375
1374		111.328125
1375		113.281250
1376		107.421875
1377		113.281250
1378		107.421875
1379		113.281250
1380		105.468750
1381		113.281250
1382		105.468750
1383		111.328125
1384		103.515625
1385		111.328125
1386		103.515625
1387		109.375000
1388		103.515625
1389		109.375000
1390		101.562500
1391		107.421875
1392		101.562500
1393		105.468750
1394		99.609375
1395		105.468750
1396		97.656250
1397		105.468750
1398		95.703125
1399		103.515625
1400		95.703125
1401		101.562500
1402		93.750000
1403		99.609375
1404		91.796875
1405		99.609375
1406		91.796875
1407		95.703125
1408		89.843750
1409		93.750000
1410		85.937500
1411		93.750000
1412		85.937500
1413		91.796875
1414		83.984375
1415		89.843750
1416		80.078125
1417		87.890625
1418		78.125000
1419		85.937500
1420		78.125000
1421		83.984375
1422		76.171875
1423		82.031250
1424		74.218750
1425		78.125000
1426		70.312500
1427		76.171875
1428		68.359375
1429		76.171875
1430		66.406250
1431		72.265625
1432		62.500000
1433		70.312500
1434		60.546875
1435		68.359375
1436		58.593750
1437		66.406250
1438		56.640625
1439		64.453125
1440		54.687500
1441		58.593750
1442		52.734375
1443		56.640625
1444		48.828125
1445		54.687500
1446		44.921875
1447		52.734375
1448		41.015625
1449		50.781250
1450		39.062500
1451		48.828125
1452		37.109375
1453		44.921875
1454		33.203125
1455		42.968750
1456		33.203125
1457		37.109375
1458		29.296875
1459		35.156250
1460		25.390625
1461		31.250000
1462		21.484375
1463		31.250000
1464		19.531250
1465		27.343750
1466		15.625000
1467		25.390625
1468		13.671875
1469		21.484375
1470		9.765625
1471		17.578125
1472		9.765625
1473		15.625000
1474		5.859375
1475		11.718750
1476		1.953125
1477		7.812500
1478		-1.953125
1479		5.859375
1480		-5.859375
1481		1.953125
1482		-7.812500
1483		0.000000
1484		-11.718750
1485		-3.906250
1486		-15.625000
1487		-5.859375
1488		-15.625000
1489		-9.765625
1490		-19.531250
1491		-11.718750
1492		-21.484375
1493		-17.578125
1494		-27.343750
1495		-19.531250
1496		-29.296875
1497		-21.484375
1498		-33.203125
1499		-23.437500
1500		-37.109375
1501		-27.343750
1502		-39.062500
1503		-31.250000
1504		-41.015625
1505		-35.156250
1506		-42.968750
1507		-35.156250
1508		-46.875000
1509		-41.015625
1510		-50.781250
1511		-42.968750
1512		-52.734375
1513		-44.921875
1514		-56.640625
1515		-48.828125
1516		-58.593750
1517		-50.781250
1518		-62.500000
1519		-52.734375
1520		-64.453125
1521		-56.640625
1522		-66.406250
1523		-58.593750
1524		-68.359375
1525		-62.500000
1526		-70.312500
1527		-66.406250
1528		-74.218750
1529		-68.359375
1530		-76.171875
1531		-68.359375
1532		-80.078125
1533		-72.265625
1534		-82.031250
1535		-74.218750
1536		-83.984375
1537		-76.171875
1538		-85.937500
1539		-78.125000
1540		-85.937500
1541		-80.078125
1542		-87.890625
1543		-83.984375
1544		-91.796875
1545		-85.937500
1546		-93.750000
1547		-85.937500
1548		-95.703125
1549		-87.890625
1550		-97.656250
1551		-89.843750
1552		-99.609375
1553		-91.796875
1554		-101.562500
1555		-95.703125
1556		-101.562500
1557		-95.703125
1558		-103.515625
1559		-99.609375
1560		-103.515625
1561		-99.609375
1562		-107.421875
1563		-99.609375
1564		-109.375000
1565		-101.562500
1566		-109.375000
1567		-103.515625
1568		-111.328125
1569		-103.515625
1570		-111.328125
1571		-103.515625
1572		-113.281250
1573		-105.468750
1574		-111.328125
1575		-107.421875
1576		-113.281250
1577		-109.375000
1578		-115.234375
1579		-109.375000
1580		-115.234375
1581		-109.375000
1582		-115.234375
1583		-109.375000
1584		-117.187500
1585		-109.375000
1586		-117.187500
1587		-109.375000
1588		-117.187500
1589		-109.375000
1590		-117.187500
1591		-111.328125
1592		-115.234375
1593		-111.328125
1594		-117.187500
1595		-111.328125
1596		-117.187500
1597		-109.375000
1598		-117.187500
1599		-109.375000
1600		-117.187500
1601		-109.375000
1602		-115.234375
1603		-109.375000
1604		-115.234375
1605		-109.375000
1606		-115.234375
1607		-107.421875
1608		-111.328125
1609		-109.375000
1610		-111.328125
1611		-107.421875
1612		-111.328125
1613		-105.468750
1614		-111.328125
1615		-105.468750
1616		-109.375000
1617		-103.515625
1618		-109.375000
1619		-103.515625
1620		-109.375000
1621		-99.609375
1622		-107.421875
1623		-99.609375
1624		-103.515625
1625		-99.609375
1626		-101.562500
1627		-97.656250
1628		-101.562500
1629		-93.750000
1630		-101.562500
1631		-93.750000
1632		-99.609375
1633		-91.796875
1634		-97.656250
1635		-89.843750
1636		-95.703125
1637		-87.890625
1638		-93.750000
1639		-85.937500
1640		-91.796875
1641		-83.984375
1642		-87.890625
1643		-82.031250
1644		-83.984375
1645		-80.078125
1646		-85.937500
1647		-76.171875
1648		-82.031250
1649		-76.171875
1650		-80.078125
1651		-72.265625
1652		-76.171875
1653		-70.312500
1654		-74.218750
1655		-66.406250
1656		-72.265625
1657		-64.453125
1658		-70.312500
1659		-62.500000
1660		-66.406250
1661		-60.546875
1662		-62.500000
1663		-56.640625
1664		-62.500000
1665		-52.734375
1666		-58.593750
1667		-48.828125
1668		-54.687500
1669		-46.875000
1670		-52.734375
1671		-44.921875
1672		-50.781250
1673		-42.968750
1674		-48.828125
1675		-41.015625
1676		-42.968750
1677		-37.109375
1678		-39.062500
1679		-33.203125
1680		-39.062500
1681		-29.296875
1682		-37.109375
1683		-27.343750
1684		-33.203125
1685		-23.437500
1686		-29.296875
1687		-21.484375
1688		-27.343750
1689		-17.578125
1690		-23.437500
1691		-15.625000
1692		-19.531250
1693		-13.671875
1694		-15.625000
1695		-9.765625
1696		-13.671875
1697		-5.859375
1698		-9.765625
1699		-1.953125
1700		-7.812500
1701		0.000000
1702		-3.906250
1703		3.906250
1704		-1.953125
1705		5.859375
1706		1.953125
1707		9.765625
1708		3.906250
1709		11.718750
1710		9.765625
1711		13.671875
1712		11.718750
1713		17.578125
1714		13.671875
1715		21.484375
1716		17.578125
1717		23.437500
1718		19.531250
1719		29.296875
1720		23.437500
1721		31.250000
1722		25.390625
1723		33.203125
1724		29.296875
1725		35.156250
1726		33.203125
1727		39.062500
1728		35.156250
1729		41.015625
1730		37.109375
1731		46.875000
1732		41.015625
1733		46.875000
1734		42.968750
1735		50.781250
1736		44.921875
1737		52.734375
1738		48.828125
1739		54.687500
1740		50.781250
1741		58.593750
1742		52.734375
1743		60.546875
1744		56.640625
1745		62.500000
1746		60.546875
1747		66.406250
1748		60.546875
1749		68.359375
1750		62.500000
1751		70.312500
1752		66.406250
1753		72.265625
1754		68.359375
1755		74.218750
1756		70.312500
1757		78.125000
1758		70.312500
1759		80.078125
1760		76.171875
1761		80.078125
1762		78.125000
1763		83.984375
1764		78.125000
1765		85.937500
1766		80.078125
1767		87.890625
1768		82.031250
1769		89.843750
1770		83.984375
1771		91.796875
1772		85.937500
1773		93.750000
1774		87.890625
1775		95.703125
1776		91.796875
1777		95.703125
1778		91.796875
1779		95.703125
1780		93.750000
1781		99.609375
1782		93.750000
1783		101.562500
1784		95.703125
1785		103.515625
1786		97.656250
1787		105.468750
1788		97.656250
1789		105.468750
1790		99.609375
1791		105.468750
1792		101.562500
1793		107.421875
1794		103.515625
1795		107.421875
1796		103.515625
1797		107.421875
1798		105.468750
1799		111.328125
1800		105.468750
1801		111.328125
1802		107.421875
1803		111.328125
1804		107.421875
1805		113.281250
1806		107.421875
1807		113.281250
1808		109.375000
1809		113.281250
1810		109.375000
1811		113.281250
1812		111.328125
1813		113.281250
1814		109.375000
1815		117.187500
1816		109.375000
1817		117.187500
1818		109.375000
1819		117.187500
1820		109.375000
1821		117.187500
1822		111.328125
1823		117.187500
1824		109.375000
1825		117.187500
1826		111.328125
1827		117.187500
1828		113.281250
1829		115.234375
1830		111.328125
1831		117.187500
1832		111.328125
1833		117.187500
1834		111.328125
1835		117.187500
1836		111.328125
1837		117.187500
1838		109.375000
1839		115.234375
1840		109.375000
1841		117.187500
1842		109.375000
1843		115.234375
1844		111.328125
1845		113.281250
1846		109.375000
1847		113.281250
1848		107.421875
1849		115.234375
1850		105.468750
1851		113.281250
1852		105.468750
1853		113.281250
1854		105.468750
1855		111.328125
1856		103.515625
1857		111.328125
1858		103.515625
1859		109.375000
1860		103.515625
1861		107.421875
1862		103.515625
1863		105.468750
1864		99.609375
1865		105.468750
1866		97.656250
1867		105.468750
1868		97.656250
1869		103.515625
1870		95.703125
1871		103.515625
1872		93.750000
1873		101.562500
1874		93.750000
1875		99.609375
1876		91.796875
1877		97.656250
1878		91.796875
1879		95.703125
1880		85.937500
1881		93.750000
1882		85.937500
1883		93.750000
1884		83.984375
1885		91.796875
1886		82.031250
1887		89.843750
1888		80.078125
1889		87.890625
1890		78.125000
1891		85.937500
1892		76.171875
1893		83.984375
1894		76.171875
1895		80.078125
1896		72.265625
1897		78.125000
1898		70.312500
1899		76.171875
1900		66.406250
1901		74.218750
1902		64.453125
1903		72.265625
1904		60.546875
1905		70.312500
1906		60.546875
1907		68.359375
1908		56.640625
1909		66.406250
1910		56.640625
1911		62.500000
1912		54.687500
1913		58.593750
1914		50.781250
1915		56.640625
1916		44.921875
1917		54.687500
1918		44.921875
1919		52.734375
1920		41.015625
1921		48.828125
1922		39.062500
1923		46.875000
1924		35.156250
1925		42.968750
1926		33.203125
1927		41.015625
1928		31.250000
1929		37.109375
1930		27.343750
1931		33.203125
1932		23.437500
1933		33.203125
1934		19.531250
1935		29.296875
1936		17.578125
1937		25.390625
1938		13.671875
1939		23.437500
1940		11.718750
1941		19.531250
1942		7.812500
1943		17.578125
1944		7.812500
1945		11.718750
1946		3.906250
1947		9.765625
1948		0.000000
1949		7.812500
1950		-3.906250
1951		5.859375
1952		-5.859375
1953		1.953125
1954		-9.765625
1955		-1.953125
1956		-11.718750
1957		-3.906250
1958		-15.625000
1959		-7.812500
1960		-17.578125
1961		-9.765625
1962		-19.531250
1963		-15.625000
1964		-23.437500
1965		-17.578125
1966		-27.343750
1967		-19.531250
1968		-29.296875
1969		-23.437500
1970		-35.156250
1971		-25.390625
1972		-37.109375
1973		-29.296875
1974		-41.015625
1975		-31.250000
1976		-42.968750
1977		-35.156250
1978		-44.921875
1979		-39.062500
1980		-46.875000
1981		-42.968750
1982		-52.734375
1983		-44.921875
1984		-54.687500
1985		-46.875000
1986		-56.640625
1987		-48.828125
1988		-60.546875
1989		-52.734375
1990		-62.500000
1991		-54.687500
1992		-66.406250
1993		-56.640625
1994		-66.406250
1995		-60.546875
1996		-68.359375
1997		-64.453125
1998		-74.218750
1999		-66.406250
2000		-76.171875
2001		-66.406250
2002		-78.125000
2003		-68.359375
2004		-80.078125
2005		-72.265625
2006		-82.031250
2007		-74.218750
2008		-85.937500
2009		-76.171875
2010		-87.890625
2011		-80.078125
2012		-87.890625
2013		-82.031250
2014		-89.843750
2015		-83.984375
2016		-93.750000
2017		-85.937500
2018		-95.703125
2019		-87.890625
2020		-97.656250
2021		-89.843750
2022		-99.609375
2023		-91.796875
2024		-101.562500
2025		-93.750000
2026		-103.515625
2027		-93.750000
2028		-101.562500
2029		-97.656250
2030		-103.515625
2031		-99.609375
2032		-107.421875
2033		-101.562500
2034		-109.375000
2035		-101.562500
2036		-109.375000
2037		-101.562500
2038		-111.328125
2039		-103.515625
2040		-111.328125
2041		-103.515625
2042		-113.281250
2043		-105.468750
2044		-111.328125
2045		-105.468750
2046		-111.328125
2047		-109.375000
2048		-113.281250
2049		-109.375000
2050		-115.234375
2051		-109.375000
2052		-117.187500
2053		-109.375000
2054		-117.187500
2055		-109.375000
2056		-117.187500
2057		-109.375000
2058		-117.187500
2059		-109.375000
2060		-117.187500
2061		-109.375000
2062		-115.234375
2063		-111.328125
2064		-115.234375
2065		-111.328125
2066		-117.187500
2067		-111.328125
2068		-117.187500
2069		-109.375000
2070		-117.187500
2071		-109.375000
2072		-117.187500
2073		-109.375000
2074		-117.187500
2075		-109.375000
2076		-115.234375
2077		-107.421875
2078		-115.234375
2079		-107.421875
2080		-111.328125
2081		-109.375000
2082		-113.281250
2083		-105.468750
2084		-113.281250
2085		-105.468750
2086		-111.328125
2087		-103.515625
2088		-109.375000
2089		-103.515625
2090		-109.375000
2091		-101.562500
2092		-107.421875
2093		-99.609375
2094		-105.468750
2095		-99.609375
2096		-103.515625
2097		-99.609375
2098		-101.562500
2099		-97.656250
2100		-101.562500
2101		-93.750000
2102		-99.609375
2103		-91.796875
2104		-97.656250
2105		-89.843750
2106		-95.703125
2107		-87.890625
2108		-93.750000
2109		-85.937500
2110		-91.796875
2111		-85.937500
2112		-89.843750
2113		-83.984375
2114		-85.937500
2115		-82.031250
2116		-83.984375
2117		-78.125000
2118		-83.984375
2119		-76.171875
2120		-82.031250
2121		-72.265625
2122		-78.125000
2123		-70.312500
2124		-76.171875
2125		-68.359375
2126		-72.265625
2127		-64.453125
2128		-70.312500
2129		-64.453125
2130		-66.406250
2131		-62.500000
2132		-64.453125
2133		-56.640625
2134		-62.500000
2135		-54.687500
2136		-60.546875
2137		-52.734375
2138		-56.640625
2139		-48.828125
2140		-54.687500
2141		-46.875000
2142		-50.781250
2143		-42.968750
2144		-48.828125
2145		-41.015625
2146		-44.921875
2147		-39.062500
2148		-41.015625
2149		-35.156250
2150		-39.062500
2151		-31.250000
2152		-37.109375
2153		-29.296875
2154		-33.203125
2155		-25.390625
2156		-31.250000
2157		-23.437500
2158		-27.343750
2159		-19.531250
2160		-23.437500
2161		-15.625000
2162		-21.484375
2163		-13.671875
2164		-15.625000
2165		-11.718750
2166		-13.671875
2167		-5.859375
2168		-11.718750
2169		-1.953125
2170		-7.812500
2171		0.000000
2172		-5.859375
2173		1.953125
2174		-1.953125
2175		5.859375
2176		1.953125
2177		7.812500
2178		3.906250
2179		11.718750
2180		7.812500
2181		13.671875
2182		11.718750
2183		17.578125
2184		11.718750
2185		21.484375
2186		17.578125
2187		23.437500
2188		19.531250
2189		27.343750
2190		21.484375
2191		29.296875
2192		25.390625
2193		31.250000
2194		27.343750
2195		35.156250
2196		31.250000
2197		37.109375
2198		35.156250
2199		39.062500
2200		37.109375
2201		44.921875
2202		39.062500
2203		46.875000
2204		42.968750
2205		50.781250
2206		44.921875
2207		52.734375
2208		46.875000
2209		54.687500
2210		48.828125
2211		56.640625
2212		50.781250
2213		58.593750
2214		56.640625
2215		60.546875
2216		58.593750
2217		66.406250
2218		58.593750
2219		68.359375
2220		62.500000
2221		70.312500
2222		64.453125
2223		72.265625
2224		66.406250
2225		74.218750
2226		68.359375
2227		76.171875
2228		70.312500
2229		78.125000
2230		74.218750
2231		80.078125
2232		76.171875
2233		82.031250
2234		78.125000
2235		83.984375
2236		80.078125
2237		87.890625
2238		82.031250
2239		89.843750
2240		83.984375
2241		89.843750
2242		85.937500
2243		91.796875
2244		85.937500
2245		93.750000
2246		87.890625
2247		95.703125
2248		91.796875
2249		95.703125
2250		93.750000
2251		99.609375
2252		93.750000
2253		101.562500
2254		93.750000
2255		101.562500
2256		95.703125
2257		103.515625
2258		97.656250
2259		105.468750
2260		97.656250
2261		105.468750
2262		99.609375
2263		107.421875
2264		103.515625
2265		105.468750
2266		103.515625
2267		107.421875
2268		103.515625
2269		109.375000
2270		103.515625
2271		111.328125
2272		105.468750
2273		111.328125
2274		105.468750
2275		113.281250
2276		105.468750
2277		113.281250
2278		107.421875
2279		113.281250
2280		109.375000
2281		113.281250
2282		111.328125
2283		113.281250
2284		109.375000
2285		115.234375
2286		109.375000
2287		115.234375
2288		109.375000
2289		117.187500
2290		111.328125
2291		117.187500
2292		109.375000
2293		117.187500
2294		111.328125
2295		117.187500
2296		111.328125
2297		117.187500
2298		113.281250
2299		115.234375
2300		111.328125
2301		115.234375
2302		111.328125
2303		117.187500
2304		109.375000
2305		117.187500
2306		111.328125
2307		117.187500
2308		109.375000
2309		117.187500
2310		109.375000
2311		115.234375
2312		109.375000
2313		117.187500
2314		109.375000
2315		113.281250
2316		109.375000
2317		113.281250
2318		107.421875
2319		115.234375
2320		107.421875
2321		113.281250
2322		105.468750
2323		113.281250
2324		105.468750
2325		111.328125
2326		105.468750
2327		111.328125
2328		101.562500
2329		109.375000
2330		101.562500
2331		109.375000
2332		103.515625
2333		105.468750
2334		99.609375
2335		105.468750
2336		97.656250
2337		105.468750
2338		97.656250
2339		103.515625
2340		95.703125
2341		103.515625
2342		93.750000
2343		101.562500
2344		91.796875
2345		101.562500
2346		91.796875
2347		97.656250
2348		91.796875
2349		95.703125
2350		89.843750
2351		93.750000
2352		85.937500
2353		91.796875
2354		83.984375
2355		91.796875
2356		82.031250
2357		89.843750
2358		80.078125
2359		87.890625
2360		78.125000
2361		85.937500
2362		78.125000
2363		83.984375
2364		76.171875
2365		82.031250
2366		74.218750
2367		78.125000
2368		70.312500
2369		76.171875
2370		68.359375
2371		74.218750
2372		64.453125
2373		74.218750
2374		62.500000
2375		70.312500
2376		60.546875
2377		68.359375
2378		58.593750
2379		66.406250
2380		56.640625
2381		64.453125
2382		54.687500
2383		60.546875
2384		50.781250
2385		56.640625
2386		48.828125
2387		56.640625
2388		44.921875
2389		52.734375
2390		42.968750
2391		48.828125
2392		41.015625
2393		48.828125
2394		37.109375
2395		44.921875
2396		35.156250
2397		41.015625
2398		31.250000
2399		37.109375
2400		29.296875
2401		35.156250
2402		25.390625
2403		31.250000
2404		21.484375
2405		29.296875
2406		19.531250
2407		27.343750
2408		17.578125
2409		23.437500
2410		13.671875
2411		21.484375
2412		9.765625
2413		19.531250
2414		7.812500
2415		15.625000
2416		5.859375
2417		11.718750
2418		0.000000
2419		7.812500
2420		-1.953125
2421		5.859375
2422		-5.859375
2423		3.906250
2424		-7.812500
2425		0.000000
2426		-9.765625
2427		-3.906250
2428		-15.625000
2429		-5.859375
2430		-17.578125
2431		-9.765625
2432		-19.531250
2433		-13.671875
2434		-21.484375
2435		-15.625000
2436		-27.343750
2437		-17.578125
2438		-29.296875
2439		-21.484375
2440		-33.203125
2441		-23.437500
2442		-35.156250
2443		-27.343750
2444		-39.062500
2445		-31.250000
2446		-41.015625
2447		-33.203125
2448		-42.968750
2449		-37.109375
2450		-44.921875
2451		-41.015625
2452		-50.781250
2453		-42.968750
2454		-52.734375
2455		-44.921875
2456		-54.687500
2457		-48.828125
2458		-58.593750
2459		-50.781250
2460		-62.500000
2461		-52.734375
2462		-64.453125
2463		-56.640625
2464		-66.406250
2465		-60.546875
2466		-68.359375
2467		-62.500000
2468		-72.265625
2469		-66.406250
2470		-74.218750
2471		-66.406250
2472		-76.171875
2473		-68.359375
2474		-80.078125
2475		-72.265625
2476		-82.031250
2477		-74.218750
2478		-83.984375
2479		-76.171875
2480		-85.937500
2481		-78.125000
2482		-85.937500
2483		-82.031250
2484		-87.890625
2485		-83.984375
2486		-91.796875
2487		-85.937500
2488		-93.750000
2489		-85.937500
2490		-95.703125
2491		-89.843750
2492		-97.656250
2493		-89.843750
2494		-99.609375
2495		-91.796875
2496		-99.609375
2497		-93.750000
2498		-101.562500
2499		-95.703125
2500		-101.562500
2501		-97.656250
2502		-105.468750
2503		-99.609375
2504		-107.421875
2505		-97.656250
2506		-107.421875
2507		-99.609375
2508		-109.375000
2509		-101.562500
2510		-109.375000
2511		-103.515625
2512		-111.328125
2513		-103.515625
2514		-111.328125
2515		-105.468750
2516		-111.328125
2517		-107.421875
2518		-111.328125
2519		-107.421875
2520		-113.281250
2521		-107.421875
2522		-115.234375
2523		-107.421875
2524		-115.234375
2525		-107.421875
2526		-115.234375
2527		-107.421875
2528		-115.234375
2529		-107.421875
2530		-115.234375
2531		-109.375000
2532		-115.234375
2533		-109.375000
2534		-113.281250
2535		-109.375000
2536		-115.234375
2537		-107.421875
2538		-115.234375
2539		-107.421875
2540		-115.234375
2541		-107.421875
2542		-115.234375
2543		-107.421875
2544		-113.281250
2545		-107.421875
2546		-113.281250
2547		-105.468750
2548		-113.281250
2549		-105.468750
2550		-109.375000
2551		-105.468750
2552		-109.375000
2553		-105.468750
2554		-109.375000
2555		-103.515625
2556		-109.375000
2557		-101.562500
2558		-107.421875
2559		-101.562500
2560		-107.421875
2561		-99.609375
2562		-105.468750
2563		-97.656250
2564		-103.515625
2565		-97.656250
2566		-101.562500
2567		-97.656250
2568		-99.609375
2569		-95.703125
2570		-99.609375
2571		-91.796875
2572		-97.656250
2573		-91.796875
2574		-95.703125
2575		-89.843750
2576		-95.703125
2577		-85.937500
2578		-91.796875
2579		-85.937500
2580		-89.843750
2581		-83.984375
2582		-87.890625
2583		-82.031250
2584		-83.984375
2585		-80.078125
2586		-82.031250
2587		-76.171875
2588		-82.031250
2589		-74.218750
2590		-80.078125
2591		-72.265625
2592		-78.125000
2593		-70.312500
2594		-76.171875
2595		-68.359375
2596		-74.218750
2597		-64.453125
2598		-70.312500
2599		-62.500000
2600		-66.406250
2601		-60.546875
2602		-62.500000
2603		-58.593750
2604		-62.500000
2605		-52.734375
2606		-60.546875
2607		-50.781250
2608		-56.640625
2609		-48.828125
2610		-52.734375
2611		-44.921875
2612		-50.781250
2613		-42.968750
2614		-48.828125
2615		-39.062500
2616		-44.921875
2617		-39.062500
2618		-41.015625
2619		-35.156250
2620		-37.109375
2621		-31.250000
2622		-37.109375
2623		-27.343750
2624		-33.203125
2625		-23.437500
2626		-29.296875
2627		-21.484375
2628		-27.343750
2629		-19.531250
2630		-23.437500
2631		-15.625000
2632		-21.484375
2633		-13.671875
2634		-15.625000
2635		-9.765625
2636		-13.671875
2637		-7.812500
2638		-11.718750
2639		-3.906250
2640		-7.812500
2641		0.000000
2642		-5.859375
2643		1.953125
2644		-3.906250
2645		5.859375
2646		0.000000
2647		7.812500
2648		3.906250
2649		11.718750
2650		7.812500
2651		13.671875
2652		11.718750
2653		15.625000
2654		13.671875
2655		21.484375
2656		15.625000
2657		25.390625
2658		19.531250
2659		27.343750
2660		21.484375
2661		29.296875
2662		25.390625
2663		33.203125
2664		27.343750
2665		35.156250
2666		29.296875
2667		37.109375
2668		35.156250
2669		39.062500
2670		37.109375
2671		44.921875
2672		39.062500
2673		46.875000
2674		41.015625
2675		48.828125
2676		42.968750
2677		52.734375
2678		46.875000
2679		56.640625
2680		50.781250
2681		58.593750
2682		52.734375
2683		60.546875
2684		56.640625
2685		60.546875
2686		58.593750
2687		64.453125
2688		60.546875
2689		68.359375
2690		62.500000
2691		70.312500
2692		64.453125
2693		72.265625
2694		66.406250
2695		76.171875
2696		70.312500
2697		78.125000
2698		72.265625
2699		78.125000
2700		74.218750
2701		80.078125
2702		78.125000
2703		82.031250
2704		80.078125
2705		85.937500
2706		80.078125
2707		87.890625
2708		82.031250
2709		89.843750
2710		83.984375
2711		91.796875
2712		85.937500
2713		93.750000
2714		85.937500
2715		93.750000
2716		89.843750
2717		95.703125
2718		91.796875
2719		95.703125
2720		93.750000
2721		97.656250
2722		93.750000
2723		101.562500
2724		95.703125
2725		103.515625
2726		95.703125
2727		103.515625
2728		97.656250
2729		105.468750
2730		99.609375
2731		105.468750
2732		99.609375
2733		109.375000
2734		101.562500
2735		107.421875
2736		105.468750
2737		109.375000
2738		105.468750
2739		113.281250
2740		105.468750
2741		113.281250
2742		107.421875
2743		113.281250
2744		107.421875
2745		113.281250
2746		107.421875
2747		115.234375
2748		109.375000
2749		115.234375
2750		107.421875
2751		115.234375
2752		111.328125
2753		115.234375
2754		111.328125
2755		115.234375
2756		109.375000
2757		117.187500
2758		111.328125
2759		119.140625
2760		111.328125
2761		117.187500
2762		111.328125
2763		119.140625
2764		111.328125
2765		119.140625
2766		111.328125
2767		119.140625
2768		113.281250
2769		117.187500
2770		113.281250
2771		117.187500
2772		111.328125
2773		119.140625
2774		111.328125
2775		119.140625
2776		111.328125
2777		119.140625
2778		111.328125
2779		119.140625
2780		111.328125
2781		117.187500
2782		111.328125
2783		117.187500
2784		111.328125
2785		117.187500
2786		111.328125
2787		115.234375
2788		109.375000
2789		115.234375
2790		107.421875
2791		115.234375
2792		107.421875
2793		115.234375
2794		107.421875
2795		113.281250
2796		105.468750
2797		113.281250
2798		105.468750
2799		111.328125
2800		103.515625
2801		111.328125
2802		105.468750
2803		109.375000
2804		103.515625
2805		107.421875
2806		99.609375
2807		107.421875
2808		99.609375
2809		107.421875
2810		97.656250
2811		105.468750
2812		95.703125
2813		103.515625
2814		95.703125
2815		103.515625
2816		93.750000
2817		99.609375
2818		93.750000
2819		99.609375
2820		91.796875
2821		95.703125
2822		87.890625
2823		95.703125
2824		85.937500
2825		93.750000
2826		85.937500
2827		91.796875
2828		83.984375
2829		89.843750
2830		80.078125
2831		87.890625
2832		78.125000
2833		85.937500
2834		78.125000
2835		85.937500
2836		76.171875
2837		82.031250
2838		74.218750
2839		78.125000
2840		70.312500
2841		78.125000
2842		68.359375
2843		76.171875
2844		66.406250
2845		74.218750
2846		64.453125
2847		70.312500
2848		60.546875
2849		68.359375
2850		58.593750
2851		66.406250
2852		56.640625
2853		62.500000
2854		54.687500
2855		60.546875
2856		50.781250
2857		58.593750
2858		48.828125
2859		56.640625
2860		44.921875
2861		54.687500
2862		42.968750
2863		50.781250
2864		41.015625
2865		48.828125
2866		39.062500
2867		44.921875
2868		35.156250
2869		42.968750
2870		33.203125
2871		37.109375
2872		29.296875
2873		35.156250
2874		25.390625
2875		33.203125
2876		21.484375
2877		29.296875
2878		19.531250
2879		27.343750
2880		15.625000
2881		25.390625
2882		13.671875
2883		21.484375
2884		9.765625
2885		17.578125
2886		7.812500
2887		13.671875
2888		5.859375
2889		11.718750
2890		0.000000
2891		9.765625
2892		-1.953125
2893		5.859375
2894		-5.859375
2895		3.906250
2896		-7.812500
2897		0.000000
2898		-11.718750
2899		-3.906250
2900		-13.671875
2901		-5.859375
2902		-15.625000
2903		-7.812500
2904		-19.531250
2905		-13.671875
2906		-23.437500
2907		-15.625000
2908		-25.390625
2909		-17.578125
2910		-29.296875
2911		-21.484375
2912		-31.250000
2913		-25.390625
2914		-35.156250
2915		-27.343750
2916		-39.062500
2917		-31.250000
2918		-39.062500
2919		-33.203125
2920		-42.968750
2921		-37.109375
2922		-46.875000
2923		-41.015625
2924		-50.781250
2925		-41.015625
2926		-52.734375
2927		-42.968750
2928		-56.640625
2929		-46.875000
2930		-58.593750
2931		-50.781250
2932		-60.546875
2933		-52.734375
2934		-62.500000
2935		-54.687500
2936		-64.453125
2937		-58.593750
2938		-66.406250
2939		-62.500000
2940		-70.312500
2941		-64.453125
2942		-72.265625
2943		-66.406250
2944		-76.171875
2945		-68.359375
2946		-78.125000
2947		-70.312500
2948		-80.078125
2949		-72.265625
2950		-82.031250
2951		-74.218750
2952		-83.984375
2953		-76.171875
2954		-85.937500
2955		-80.078125
2956		-87.890625
2957		-82.031250
2958		-89.843750
2959		-83.984375
2960		-93.750000
2961		-85.937500
2962		-93.750000
2963		-87.890625
2964		-95.703125
2965		-87.890625
2966		-97.656250
2967		-89.843750
2968		-99.609375
2969		-91.796875
2970		-99.609375
2971		-95.703125
2972		-99.609375
2973		-95.703125
2974		-103.515625
2975		-97.656250
2976		-103.515625
2977		-97.656250
2978		-107.421875
2979		-99.609375
2980		-107.421875
2981		-99.609375
2982		-107.421875
2983		-101.562500
2984		-109.375000
2985		-101.562500
2986		-107.421875
2987		-103.515625
2988		-107.421875
2989		-105.468750
2990		-111.328125
2991		-103.515625
2992		-111.328125
2993		-105.468750
2994		-111.328125
2995		-105.468750
2996		-113.281250
2997		-105.468750
2998		-113.281250
2999		-105.468750
3000		-113.281250
3001		-105.468750
3002		-113.281250
3003		-107.421875
3004		-111.328125
3005		-107.421875
3006		-111.328125
3007		-107.421875
3008		-113.281250
3009		-107.421875
3010		-113.281250
3011		-105.468750
3012		-113.281250
3013		-105.468750
3014		-111.328125
3015		-105.468750
3016		-111.328125
3017		-105.468750
3018		-111.328125
3019		-103.515625
3020		-107.421875
3021		-105.468750
3022		-107.421875
3023		-103.515625
3024		-109.375000
3025		-101.562500
3026		-107.421875
3027		-99.609375
3028		-107.421875
3029		-99.609375
3030		-105.468750
3031		-99.609375
3032		-105.468750
3033		-95.703125
3034		-103.515625
3035		-95.703125
3036		-101.562500
3037		-95.703125
3038		-97.656250
3039		-93.750000
3040		-97.656250
3041		-91.796875
3042		-97.656250
3043		-89.843750
3044		-95.703125
3045		-87.890625
3046		-93.750000
3047		-85.937500
3048		-91.796875
3049		-83.984375
3050		-89.843750
3051		-82.031250
3052		-87.890625
3053		-80.078125
3054		-83.984375
3055		-80.078125
3056		-82.031250
3057		-76.171875
3058		-80.078125
3059		-74.218750
3060		-78.125000
3061		-70.312500
3062		-78.125000
3063		-68.359375
3064		-74.218750
3065		-66.406250
3066		-70.312500
3067		-64.453125
3068		-68.359375
3069		-60.546875
3070		-66.406250
3071		-60.546875
3072		-62.500000
3073		-56.640625
3074		-60.546875
3075		-52.734375
3076		-58.593750
3077		-50.781250
3078		-56.640625
3079		-48.828125
3080		-52.734375
3081		-44.921875
3082		-50.781250
3083		-41.015625
3084		-46.875000
3085		-39.062500
3086		-42.968750
3087		-37.109375
3088		-39.062500
3089		-35.156250
3090		-37.109375
3091		-31.250000
3092		-35.156250
3093		-27.343750
3094		-33.203125
3095		-25.390625
3096		-29.296875
3097		-21.484375
3098		-25.390625
3099		-19.531250
3100		-23.437500
3101		-15.625000
3102		-19.531250
3103		-11.718750
3104		-15.625000
3105		-9.765625
3106		-11.718750
3107		-7.812500
3108		-9.765625
3109		-1.953125
3110		-7.812500
3111		0.000000
3112		-5.859375
3113		3.906250
3114		-1.953125
3115		5.859375
3116		0.000000
3117		9.765625
3118		3.906250
3119		11.718750
3120		7.812500
3121		13.671875
3122		11.718750
3123		17.578125
3124		15.625000
3125		21.484375
3126		15.625000
3127		25.390625
3128		19.531250
3129		27.343750
3130		21.484375
3131		29.296875
3132		25.390625
3133		33.203125
3134		27.343750
3135		37.109375
3136		31.250000
3137		39.062500
3138		35.156250
3139		41.015625
3140		39.062500
3141		42.968750
3142		39.062500
3143		48.828125
3144		42.968750
3145		50.781250
3146		44.921875
3147		52.734375
3148		48.828125
3149		54.687500
3150		50.781250
3151		58.593750
3152		52.734375
3153		60.546875
3154		54.687500
3155		62.500000
3156		60.546875
3157		64.453125
3158		60.546875
3159		68.359375
3160		64.453125
3161		70.312500
3162		66.406250
3163		72.265625
3164		68.359375
3165		76.171875
3166		70.312500
3167		78.125000
3168		72.265625
3169		80.078125
3170		74.218750
3171		82.031250
3172		78.125000
3173		82.031250
3174		80.078125
3175		85.937500
3176		80.078125
3177		87.890625
3178		82.031250
3179		89.843750
3180		85.937500
3181		93.750000
3182		87.890625
3183		93.750000
3184		87.890625
3185		95.703125
3186		89.843750
3187		97.656250
3188		93.750000
3189		97.656250
3190		95.703125
3191		99.609375
3192		95.703125
3193		101.562500
3194		97.656250
3195		103.515625
3196		97.656250
3197		105.468750
3198		99.609375
3199		107.421875
3200		101.562500
3201		107.421875
3202		101.562500
3203		109.375000
3204		103.515625
3205		109.375000
3206		105.468750
3207		109.375000
3208		107.421875
3209		111.328125
3210		107.421875
3211		113.281250
3212		107.421875
3213		113.281250
3214		107.421875
3215		115.234375
3216		109.375000
3217		115.234375
3218		109.375000
3219		117.187500
3220		111.328125
3221		117.187500
3222		113.281250
3223		117.187500
3224		113.281250
3225		117.187500
3226		113.281250
3227		119.140625
3228		111.328125
3229		119.140625
3230		113.281250
3231		121.093750
3232		113.281250
3233		119.140625
3234		113.281250
3235		119.140625
3236		113.281250
3237		121.093750
3238		113.281250
3239		119.140625
3240		117.187500
3241		119.140625
3242		115.234375
3243		121.093750
3244		113.281250
3245		121.093750
3246		113.281250
3247		121.093750
3248		113.281250
3249		119.140625
3250		113.281250
3251		119.140625
3252		113.281250
3253		119.140625
3254		113.281250
3255		119.140625
3256		113.281250
3257		117.187500
3258		111.328125
3259		117.187500
3260		111.328125
3261		117.187500
3262		109.375000
3263		117.187500
3264		109.375000
3265		115.234375
3266		107.421875
3267		115.234375
3268		107.421875
3269		115.234375
3270		107.421875
3271		113.281250
3272		107.421875
3273		111.328125
3274		105.468750
3275		109.375000
3276		103.515625
3277		109.375000
3278		101.562500
3279		109.375000
3280		101.562500
3281		107.421875
3282		99.609375
3283		107.421875
3284		97.656250
3285		105.468750
3286		95.703125
3287		103.515625
3288		95.703125
3289		101.562500
3290		95.703125
3291		99.609375
3292		91.796875
3293		97.656250
3294		89.843750
3295		95.703125
3296		87.890625
3297		95.703125
3298		85.937500
3299		93.750000
3300		83.984375
3301		91.796875
3302		82.031250
3303		89.843750
3304		80.078125
3305		87.890625
3306		80.078125
3307		83.984375
3308		78.125000
3309		82.031250
3310		74.218750
3311		82.031250
3312		70.312500
3313		78.125000
3314		68.359375
3315		78.125000
3316		66.406250
3317		76.171875
3318		64.453125
3319		70.312500
3320		62.500000
3321		68.359375
3322		60.546875
3323		66.406250
3324		58.593750
3325		62.500000
3326		54.687500
3327		60.546875
3328		52.734375
3329		60.546875
3330		48.828125
3331		56.640625
3332		46.875000
3333		54.687500
3334		42.968750
3335		50.781250
3336		41.015625
3337		48.828125
3338		39.062500
3339		46.875000
3340		37.109375
3341		41.015625
3342		33.203125
3343		39.062500
3344		29.296875
3345		35.156250
3346		25.390625
3347		35.156250
3348		23.437500
3349		31.250000
3350		19.531250
3351		29.296875
3352		17.578125
3353		25.390625
3354		13.671875
3355		23.437500
3356		11.718750
3357		17.578125
3358		9.765625
3359		15.625000
3360		5.859375
3361		11.718750
3362		1.953125
3363		11.718750
3364		-1.953125
3365		5.859375
3366		-3.906250
3367		3.906250
3368		-7.812500
3369		1.953125
3370		-9.765625
3371		-1.953125
3372		-11.718750
3373		-5.859375
3374		-13.671875
3375		-9.765625
3376		-17.578125
3377		-11.718750
3378		-23.437500
3379		-13.671875
3380		-25.390625
3381		-17.578125
3382		-27.343750
3383		-21.484375
3384		-33.203125
3385		-23.437500
3386		-33.203125
3387		-25.390625
3388		-37.109375
3389		-29.296875
3390		-39.062500
3391		-33.203125
3392		-41.015625
3393		-37.109375
3394		-46.875000
3395		-39.062500
3396		-48.828125
3397		-41.015625
3398		-50.781250
3399		-42.968750
3400		-54.687500
3401		-44.921875
3402		-56.640625
3403		-48.828125
3404		-58.593750
3405		-50.781250
3406		-60.546875
3407		-54.687500
3408		-62.500000
3409		-58.593750
3410		-66.406250
3411		-60.546875
3412		-70.312500
3413		-62.500000
3414		-72.265625
3415		-64.453125
3416		-74.218750
3417		-66.406250
3418		-76.171875
3419		-68.359375
3420		-80.078125
3421		-70.312500
3422		-80.078125
3423		-74.218750
3424		-82.031250
3425		-78.125000
3426		-83.984375
3427		-80.078125
3428		-87.890625
3429		-80.078125
3430		-89.843750
3431		-82.031250
3432		-89.843750
3433		-83.984375
3434		-91.796875
3435		-83.984375
3436		-93.750000
3437		-85.937500
3438		-95.703125
3439		-89.843750
3440		-95.703125
3441		-89.843750
3442		-97.656250
3443		-93.750000
3444		-99.609375
3445		-93.750000
3446		-101.562500
3447		-93.750000
3448		-103.515625
3449		-95.703125
3450		-103.515625
3451		-95.703125
3452		-105.468750
3453		-97.656250
3454		-107.421875
3455		-99.609375
3456		-105.468750
3457		-99.609375
3458		-105.468750
3459		-103.515625
3460		-107.421875
3461		-103.515625
3462		-109.375000
3463		-101.562500
3464		-109.375000
3465		-101.562500
3466		-109.375000
3467		-103.515625
3468		-111.328125
3469		-103.515625
3470		-111.328125
3471		-103.515625
3472		-111.328125
3473		-103.515625
3474		-109.375000
3475		-105.468750
3476		-109.375000
3477		-105.468750
3478		-111.328125
3479		-105.468750
3480		-109.375000
3481		-103.515625
3482		-109.375000
3483		-103.515625
3484		-109.375000
3485		-105.468750
3486		-109.375000
3487		-103.515625
3488		-107.421875
3489		-103.515625
3490		-107.421875
3491		-103.515625
3492		-105.468750
3493		-101.562500
3494		-105.468750
3495		-101.562500
3496		-107.421875
3497		-99.609375
3498		-105.468750
3499		-97.656250
3500		-103.515625
3501		-97.656250
3502		-103.515625
3503		-95.703125
3504		-101.562500
3505		-95.703125
3506		-101.562500
3507		-93.750000
3508		-97.656250
3509		-93.750000
3510		-95.703125
3511		-91.796875
3512		-95.703125
3513		-87.890625
3514		-93.750000
3515		-85.937500
3516		-93.750000
3517		-85.937500
3518		-89.843750
3519		-82.031250
3520		-87.890625
3521		-82.031250
3522		-87.890625
3523		-80.078125
3524		-85.937500
3525		-78.125000
3526		-80.078125
3527		-76.171875
3528		-80.078125
3529		-72.265625
3530		-78.125000
3531		-70.312500
3532		-78.125000
3533		-68.359375
3534		-74.218750
3535		-66.406250
3536		-70.312500
3537		-62.500000
3538		-68.359375
3539		-60.546875
3540		-66.406250
3541		-58.593750
3542		-62.500000
3543		-56.640625
3544		-58.593750
3545		-54.687500
3546		-58.593750
3547		-50.781250
3548		-54.687500
3549		-46.875000
3550		-52.734375
3551		-44.921875
3552		-50.781250
3553		-41.015625
3554		-46.875000
3555		-39.062500
3556		-42.968750
3557		-37.109375
3558		-39.062500
3559		-35.156250
3560		-37.109375
3561		-31.250000
3562		-35.156250
3563		-25.390625
3564		-31.250000
3565		-23.437500
3566		-29.296875
3567		-21.484375
3568		-27.343750
3569		-19.531250
3570		-23.437500
3571		-15.625000
3572		-21.484375
3573		-11.718750
3574		-17.578125
3575		-11.718750
3576		-11.718750
3577		-7.812500
3578		-9.765625
3579		-3.906250
3580		-9.765625
3581		0.000000
3582		-3.906250
3583		3.906250
3584		-1.953125
3585		5.859375
3586		0.000000
3587		7.812500
3588		3.906250
3589		11.718750
3590		7.812500
3591		15.625000
3592		11.718750
3593		17.578125
3594		13.671875
3595		19.531250
3596		17.578125
3597		25.390625
3598		19.531250
3599		29.296875
3600		21.484375
3601		31.250000
3602		25.390625
3603		33.203125
3604		27.343750
3605		37.109375
3606		29.296875
3607		39.062500
3608		33.203125
3609		41.015625
3610		39.062500
3611		42.968750
3612		41.015625
3613		46.875000
3614		42.968750
3615		50.781250
3616		44.921875
3617		52.734375
3618		48.828125
3619		56.640625
3620		50.781250
3621		58.593750
3622		52.734375
3623		60.546875
3624		54.687500
3625		62.500000
3626		60.546875
3627		64.453125
3628		62.500000
3629		66.406250
3630		64.453125
3631		70.312500
3632		64.453125
3633		74.218750
3634		68.359375
3635		76.171875
3636		70.312500
3637		78.125000
3638		72.265625
3639		80.078125
3640		74.218750
3641		82.031250
3642		78.125000
3643		83.984375
3644		80.078125
3645		85.937500
3646		82.031250
3647		87.890625
3648		83.984375
3649		89.843750
3650		83.984375
3651		91.796875
3652		87.890625
3653		93.750000
3654		89.843750
3655		97.656250
3656		91.796875
3657		99.609375
3658		91.796875
3659		99.609375
3660		95.703125
3661		99.609375
3662		97.656250
3663		101.562500
3664		97.656250
3665		103.515625
3666		99.609375
3667		105.468750
3668		101.562500
3669		107.421875
3670		101.562500
3671		107.421875
3672		103.515625
3673		109.375000
3674		103.515625
3675		111.328125
3676		107.421875
3677		111.328125
3678		107.421875
3679		111.328125
3680		107.421875
3681		115.234375
3682		109.375000
3683		115.234375
3684		109.375000
3685		115.234375
3686		109.375000
3687		117.187500
3688		111.328125
3689		117.187500
3690		111.328125
3691		119.140625
3692		113.281250
3693		117.187500
3694		115.234375
3695		117.187500
3696		115.234375
3697		119.140625
3698		113.281250
3699		121.093750
3700		113.281250
3701		121.093750
3702		115.234375
3703		123.046875
3704		115.234375
3705		121.093750
3706		115.234375
3707		121.093750
3708		115.234375
3709		121.093750
3710		117.187500
3711		121.093750
3712		117.187500
3713		121.093750
3714		115.234375
3715		123.046875
3716		115.234375
3717		123.046875
3718		115.234375
3719		123.046875
3720		115.234375
3721		121.093750
3722		115.234375
3723		121.093750
3724		113.281250
3725		121.093750
3726		115.234375
3727		119.140625
3728		115.234375
3729		119.140625
3730		113.281250
3731		119.140625
3732		111.328125
3733		119.140625
3734		111.328125
3735		119.140625
3736		109.375000
3737		117.187500
3738		109.375000
3739		117.187500
3740		107.421875
3741		115.234375
3742		107.421875
3743		115.234375
3744		109.375000
3745		111.328125
3746		107.421875
3747		111.328125
3748		103.515625
3749		111.328125
3750		103.515625
3751		111.328125
3752		101.562500
3753		109.375000
3754		99.609375
3755		107.421875
3756		99.609375
3757		105.468750
3758		97.656250
3759		103.515625
3760		97.656250
3761		101.562500
3762		95.703125
3763		99.609375
3764		91.796875
3765		99.609375
3766		91.796875
3767		97.656250
3768		89.843750
3769		97.656250
3770		87.890625
3771		93.750000
3772		83.984375
3773		91.796875
3774		83.984375
3775		91.796875
3776		82.031250
3777		87.890625
3778		80.078125
3779		85.937500
3780		76.171875
3781		83.984375
3782		74.218750
3783		82.031250
3784		72.265625
3785		80.078125
3786		70.312500
3787		78.125000
3788		68.359375
3789		74.218750
3790		66.406250
3791		72.265625
3792		64.453125
3793		72.265625
3794		62.500000
3795		66.406250
3796		58.593750
3797		64.453125
3798		54.687500
3799		62.500000
3800		52.734375
3801		60.546875
3802		48.828125
3803		58.593750
3804		46.875000
3805		54.687500
3806		44.921875
3807		52.734375
3808		41.015625
3809		48.828125
3810		41.015625
3811		44.921875
3812		37.109375
3813		42.968750
3814		33.203125
3815		39.062500
3816		29.296875
3817		37.109375
3818		25.390625
3819		35.156250
3820		25.390625
3821		31.250000
3822		21.484375
3823		29.296875
3824		17.578125
3825		27.343750
3826		17.578125
3827		23.437500
3828		13.671875
3829		19.531250
3830		9.765625
3831		15.625000
3832		5.859375
3833		13.671875
3834		1.953125
3835		11.718750
3836		0.000000
3837		7.812500
3838		-3.906250
3839		3.906250
3840		-5.859375
3841		1.953125
3842		-9.765625
3843		0.000000
3844		-9.765625
3845		-5.859375
3846		-13.671875
3847		-9.765625
3848		-17.578125
3849		-11.718750
3850		-21.484375
3851		-13.671875
3852		-23.437500
3853		-17.578125
3854		-27.343750
3855		-19.531250
3856		-29.296875
3857		-23.437500
3858		-33.203125
3859		-25.390625
3860		-35.156250
3861		-27.343750
3862		-37.109375
3863		-33.203125
3864		-41.015625
3865		-35.156250
3866		-44.921875
3867		-35.156250
3868		-46.875000
3869		-39.062500
3870		-50.781250
3871		-42.968750
3872		-54.687500
3873		-44.921875
3874		-56.640625
3875		-48.828125
3876		-58.593750
3877		-50.781250
3878		-60.546875
3879		-54.687500
3880		-62.500000
3881		-56.640625
3882		-66.406250
3883		-58.593750
3884		-68.359375
3885		-60.546875
3886		-70.312500
3887		-64.453125
3888		-72.265625
3889		-64.453125
3890		-74.218750
3891		-68.359375
3892		-78.125000
3893		-70.312500
3894		-78.125000
3895		-72.265625
3896		-80.078125
3897		-76.171875
3898		-83.984375
3899		-76.171875
3900		-85.937500
3901		-78.125000
3902		-87.890625
3903		-80.078125
3904		-89.843750
3905		-82.031250
3906		-89.843750
3907		-83.984375
3908		-93.750000
3909		-85.937500
3910		-93.750000
3911		-87.890625
3912		-93.750000
3913		-89.843750
3914		-95.703125
3915		-91.796875
3916		-99.609375
3917		-91.796875
3918		-101.562500
3919		-91.796875
3920		-101.562500
3921		-95.703125
3922		-101.562500
3923		-95.703125
3924		-103.515625
3925		-95.703125
3926		-103.515625
3927		-97.656250
3928		-103.515625
3929		-99.609375
3930		-105.468750
3931		-99.609375
3932		-105.468750
3933		-99.609375
3934		-107.421875
3935		-99.609375
3936		-107.421875
3937		-101.562500
3938		-107.421875
3939		-101.562500
3940		-109.375000
3941		-101.562500
3942		-109.375000
3943		-101.562500
3944		-109.375000
3945		-101.562500
3946		-107.421875
3947		-103.515625
3948		-107.421875
3949		-103.515625
3950		-109.375000
3951		-101.562500
3952		-109.375000
3953		-101.562500
3954		-109.375000
3955		-101.562500
3956		-107.421875
3957		-101.562500
3958		-107.421875
3959		-99.609375
3960		-105.468750
3961		-99.609375
3962		-105.468750
3963		-99.609375
3964		-103.515625
3965		-99.609375
3966		-103.515625
3967		-97.656250
3968		-103.515625
3969		-95.703125
3970		-103.515625
3971		-95.703125
3972		-101.562500
3973		-93.750000
3974		-101.562500
3975		-93.750000
3976		-99.609375
3977		-91.796875
3978		-95.703125
3979		-91.796875
3980		-93.750000
3981		-89.843750
3982		-93.750000
3983		-87.890625
3984		-91.796875
3985		-83.984375
3986		-89.843750
3987		-83.984375
3988		-89.843750
3989		-82.031250
3990		-87.890625
3991		-80.078125
3992		-85.937500
3993		-78.125000
3994		-82.031250
3995		-76.171875
3996		-80.078125
3997		-76.171875
3998		-78.125000
3999		-72.265625
4000		-78.125000
4001		-68.359375
4002		-74.218750
4003		-66.406250
4004		-74.218750
4005		-64.453125
4006		-70.312500
4007		-62.500000
4008		-66.406250
4009		-60.546875
4010		-66.406250
4011		-58.593750
4012		-60.546875
4013		-56.640625
4014		-58.593750
4015		-52.734375
4016		-56.640625
4017		-48.828125
4018		-56.640625
4019		-46.875000
4020		-52.734375
4021		-44.921875
4022		-48.828125
4023		-41.015625
4024		-46.875000
4025		-39.062500
4026		-42.968750
4027		-37.109375
4028		-41.015625
4029		-35.156250
4030		-37.109375
4031		-31.250000
4032		-33.203125
4033		-27.343750
4034		-31.250000
4035		-23.437500
4036		-29.296875
4037		-21.484375
4038		-25.390625
4039		-17.578125
4040		-23.437500
4041		-15.625000
4042		-19.531250
4043		-11.718750
4044		-17.578125
4045		-9.765625
4046		-13.671875
4047		-7.812500
4048		-9.765625
4049		-3.906250
4050		-5.859375
4051		0.000000
4052		-3.906250
4053		3.906250
4054		-1.953125
4055		5.859375
4056		1.953125
4057		9.765625
4058		3.906250
4059		13.671875
4060		7.812500
4061		15.625000
4062		11.718750
4063		17.578125
4064		15.625000
4065		19.531250
4066		17.578125
4067		25.390625
4068		19.531250
4069		29.296875
4070		23.437500
4071		31.250000
4072		25.390625
4073		33.203125
4074		27.343750
4075		37.109375
4076		33.203125
4077		39.062500
4078		33.203125
4079		41.015625
4080		39.062500
4081		42.968750
4082		41.015625
4083		46.875000
4084		42.968750
4085		52.734375
4086		46.875000
4087		52.734375
4088		48.828125
4089		54.687500
4090		48.828125
4091		58.593750
4092		52.734375
4093		60.546875
4094		56.640625
4095		64.453125
4096		60.546875
4097		64.453125
4098		62.500000
4099		66.406250
4100		64.453125
4101		72.265625
4102		64.453125
4103		74.218750
4104		68.359375
4105		76.171875
4106		70.312500
4107		78.125000
4108		72.265625
4109		80.078125
4110		74.218750
4111		82.031250
4112		76.171875
4113		83.984375
4114		82.031250
4115		85.937500
4116		83.984375
4117		87.890625
4118		83.984375
4119		89.843750
4120		85.937500
4121		93.750000
4122		87.890625
4123		93.750000
4124		87.890625
4125		97.656250
4126		91.796875
4127		97.656250
4128		91.796875
4129		99.609375
4130		95.703125
4131		99.609375
4132		97.656250
4133		101.562500
4134		97.656250
4135		103.515625
4136		99.609375
4137		107.421875
4138		101.562500
4139		107.421875
4140		101.562500
4141		109.375000
4142		103.515625
4143		111.328125
4144		105.468750
4145		111.328125
4146		107.421875
4147		111.328125
4148		109.375000
4149		113.281250
4150		109.375000
4151		115.234375
4152		109.375000
4153		115.234375
4154		109.375000
4155		117.187500
4156		111.328125
4157		119.140625
4158		111.328125
4159		119.140625
4160		113.281250
4161		119.140625
4162		113.281250
4163		119.140625
4164		115.234375
4165		119.140625
4166		117.187500
4167		119.140625
4168		115.234375
4169		123.046875
4170		115.234375
4171		123.046875
4172		115.234375
4173		123.046875
4174		115.234375
4175		123.046875
4176		115.234375
4177		125.000000
4178		117.187500
4179		123.046875
4180		119.140625
4181		121.093750
4182		119.140625
4183		121.093750
4184		117.187500
4185		123.046875
4186		117.187500
4187		123.046875
4188		115.234375
4189		123.046875
4190		117.187500
4191		123.046875
4192		115.234375
4193		123.046875
4194		115.234375
4195		123.046875
4196		115.234375
4197		121.093750
4198		117.187500
4199		119.140625
4200		115.234375
4201		119.140625
4202		113.281250
4203		121.093750
4204		113.281250
4205		119.140625
4206		111.328125
4207		119.140625
4208		111.328125
4209		119.140625
4210		109.375000
4211		117.187500
4212		109.375000
4213		117.187500
4214		111.328125
4215		113.281250
4216		109.375000
4217		113.281250
4218		105.468750
4219		113.281250
4220		103.515625
4221		111.328125
4222		103.515625
4223		111.328125
4224		101.562500
4225		109.375000
4226		101.562500
4227		109.375000
4228		99.609375
4229		107.421875
4230		99.609375
4231		105.468750
4232		97.656250
4233		101.562500
4234		95.703125
4235		101.562500
4236		93.750000
4237		101.562500
4238		91.796875
4239		97.656250
4240		89.843750
4241		97.656250
4242		87.890625
4243		95.703125
4244		85.937500
4245		93.750000
4246		83.984375
4247		91.796875
4248		83.984375
4249		87.890625
4250		80.078125
4251		85.937500
4252		76.171875
4253		85.937500
4254		74.218750
4255		82.031250
4256		72.265625
4257		80.078125
4258		70.312500
4259		78.125000
4260		68.359375
4261		76.171875
4262		66.406250
4263		74.218750
4264		64.453125
4265		70.312500
4266		62.500000
4267		66.406250
4268		58.593750
4269		64.453125
4270		56.640625
4271		64.453125
4272		52.734375
4273		60.546875
4274		48.828125
4275		58.593750
4276		46.875000
4277		56.640625
4278		44.921875
4279		52.734375
4280		42.968750
4281		48.828125
4282		41.015625
4283		44.921875
4284		37.109375
4285		42.968750
4286		33.203125
4287		41.015625
4288		29.296875
4289		37.109375
4290		27.343750
4291		37.109375
4292		23.437500
4293		33.203125
4294		21.484375
4295		29.296875
4296		19.531250
4297		25.390625
4298		15.625000
4299		21.484375
4300		13.671875
4301		19.531250
4302		7.812500
4303		15.625000
4304		5.859375
4305		13.671875
4306		1.953125
4307		11.718750
4308		0.000000
4309		9.765625
4310		-3.906250
4311		5.859375
4312		-5.859375
4313		1.953125
4314		-7.812500
4315		0.000000
4316		-9.765625
4317		-5.859375
4318		-15.625000
4319		-7.812500
4320		-17.578125
4321		-11.718750
4322		-21.484375
4323		-11.718750
4324		-23.437500
4325		-17.578125
4326		-27.343750
4327		-19.531250
4328		-29.296875
4329		-23.437500
4330		-31.250000
4331		-25.390625
4332		-33.203125
4333		-29.296875
4334		-37.109375
4335		-31.250000
4336		-42.968750
4337		-33.203125
4338		-44.921875
4339		-37.109375
4340		-48.828125
4341		-39.062500
4342		-50.781250
4343		-41.015625
4344		-52.734375
4345		-44.921875
4346		-54.687500
4347		-46.875000
4348		-56.640625
4349		-50.781250
4350		-58.593750
4351		-54.687500
4352		-62.500000
4353		-56.640625
4354		-64.453125
4355		-56.640625
4356		-68.359375
4357		-60.546875
4358		-70.312500
4359		-62.500000
4360		-72.265625
4361		-62.500000
4362		-74.218750
4363		-66.406250
4364		-76.171875
4365		-70.312500
4366		-78.125000
4367		-72.265625
4368		-80.078125
4369		-74.218750
4370		-82.031250
4371		-76.171875
4372		-85.937500
4373		-78.125000
4374		-85.937500
4375		-80.078125
4376		-89.843750
4377		-82.031250
4378		-89.843750
4379		-83.984375
4380		-91.796875
4381		-85.937500
4382		-91.796875
4383		-87.890625
4384		-93.750000
4385		-89.843750
4386		-97.656250
4387		-89.843750
4388		-99.609375
4389		-89.843750
4390		-99.609375
4391		-91.796875
4392		-99.609375
4393		-91.796875
4394		-101.562500
4395		-93.750000
4396		-101.562500
4397		-95.703125
4398		-103.515625
4399		-95.703125
4400		-101.562500
4401		-99.609375
4402		-105.468750
4403		-97.656250
4404		-105.468750
4405		-99.609375
4406		-107.421875
4407		-99.609375
4408		-107.421875
4409		-99.609375
4410		-107.421875
4411		-99.609375
4412		-107.421875
4413		-99.609375
4414		-107.421875
4415		-101.562500
4416		-105.468750
4417		-101.562500
4418		-105.468750
4419		-103.515625
4420		-107.421875
4421		-101.562500
4422		-107.421875
4423		-101.562500
4424		-107.421875
4425		-99.609375
4426		-107.421875
4427		-99.609375
4428		-107.421875
4429		-99.609375
4430		-107.421875
4431		-99.609375
4432		-103.515625
4433		-99.609375
4434		-103.515625
4435		-99.609375
4436		-103.515625
4437		-97.656250
4438		-103.515625
4439		-97.656250
4440		-101.562500
4441		-95.703125
4442		-101.562500
4443		-93.750000
4444		-99.609375
4445		-93.750000
4446		-99.609375
4447		-91.796875
4448		-97.656250
4449		-91.796875
4450		-93.750000
4451		-89.843750
4452		-93.750000
4453		-89.843750
4454		-93.750000
4455		-85.937500
4456		-89.843750
4457		-83.984375
4458		-89.843750
4459		-83.984375
4460		-87.890625
4461		-80.078125
4462		-85.937500
4463		-78.125000
4464		-83.984375
4465		-76.171875
4466		-80.078125
4467		-76.171875
4468		-78.125000
4469		-74.218750
4470		-76.171875
4471		-70.312500
4472		-76.171875
4473		-68.359375
4474		-74.218750
4475		-66.406250
4476		-70.312500
4477		-64.453125
4478		-68.359375
4479		-60.546875
4480		-66.406250
4481		-58.593750
4482		-64.453125
4483		-56.640625
4484		-60.546875
4485		-54.687500
4486		-56.640625
4487		-50.781250
4488		-54.687500
4489		-48.828125
4490		-54.687500
4491		-44.921875
4492		-50.781250
4493		-42.968750
4494		-46.875000
4495		-41.015625
4496		-44.921875
4497		-37.109375
4498		-41.015625
4499		-35.156250
4500		-37.109375
4501		-33.203125
4502		-35.156250
4503		-29.296875
4504		-33.203125
4505		-25.390625
4506		-31.250000
4507		-23.437500
4508		-27.343750
4509		-19.531250
4510		-23.437500
4511		-17.578125
4512		-21.484375
4513		-13.671875
4514		-19.531250
4515		-9.765625
4516		-15.625000
4517		-7.812500
4518		-9.765625
4519		-5.859375
4520		-7.812500
4521		-1.953125
4522		-5.859375
4523		1.953125
4524		-1.953125
4525		3.906250
4526		0.000000
4527		5.859375
4528		1.953125
4529		9.765625
4530		5.859375
4531		13.671875
4532		9.765625
4533		15.625000
4534		13.671875
4535		19.531250
4536		15.625000
4537		21.484375
4538		19.531250
4539		25.390625
4540		21.484375
4541		27.343750
4542		25.390625
4543		31.250000
4544		27.343750
4545		35.156250
4546		31.250000
4547		39.062500
4548		33.203125
4549		41.015625
4550		37.109375
4551		42.968750
4552		39.062500
4553		44.921875
4554		41.015625
4555		50.781250
4556		44.921875
4557		50.781250
4558		48.828125
4559		52.734375
4560		50.781250
4561		56.640625
4562		52.734375
4563		58.593750
4564		52.734375
4565		62.500000
4566		56.640625
4567		64.453125
4568		62.500000
4569		66.406250
4570		64.453125
4571		70.312500
4572		64.453125
4573		70.312500
4574		68.359375
4575		74.218750
4576		70.312500
4577		76.171875
4578		72.265625
4579		78.125000
4580		74.218750
4581		82.031250
4582		76.171875
4583		83.984375
4584		80.078125
4585		83.984375
4586		82.031250
4587		87.890625
4588		83.984375
4589		87.890625
4590		85.937500
4591		91.796875
4592		87.890625
4593		93.750000
4594		89.843750
4595		93.750000
4596		91.796875
4597		95.703125
4598		91.796875
4599		97.656250
4600		95.703125
4601		99.609375
4602		97.656250
4603		101.562500
4604		97.656250
4605		103.515625
4606		99.609375
4607		105.468750
4608		101.562500
4609		105.468750
4610		101.562500
4611		107.421875
4612		105.468750
4613		109.375000
4614		105.468750
4615		111.328125
4616		105.468750
4617		111.328125
4618		109.375000
4619		111.328125
4620		109.375000
4621		113.281250
4622		111.328125
4623		115.234375
4624		111.328125
4625		115.234375
4626		113.281250
4627		117.187500
4628		113.281250
4629		117.187500
4630		113.281250
4631		117.187500
4632		115.234375
4633		119.140625
4634		115.234375
4635		119.140625
4636		117.187500
4637		119.140625
4638		115.234375
4639		121.093750
4640		117.187500
4641		121.093750
4642		117.187500
4643		121.093750
4644		117.187500
4645		121.093750
4646		119.140625
4647		121.093750
4648		119.140625
4649		121.093750
4650		119.140625
4651		123.046875
4652		119.140625
4653		121.093750
4654		117.187500
4655		123.046875
4656		117.187500
4657		123.046875
4658		119.140625
4659		123.046875
4660		119.140625
4661		123.046875
4662		119.140625
4663		121.093750
4664		117.187500
4665		121.093750
4666		117.187500
4667		121.093750
4668		117.187500
4669		121.093750
4670		117.187500
4671		119.140625
4672		115.234375
4673		119.140625
4674		115.234375
4675		119.140625
4676		115.234375
4677		117.187500
4678		113.281250
4679		117.187500
4680		113.281250
4681		117.187500
4682		113.281250
4683		115.234375
4684		111.328125
4685		115.234375
4686		109.375000
4687		113.281250
4688		107.421875
4689		113.281250
4690		107.421875
4691		111.328125
4692		107.421875
4693		111.328125
4694		105.468750
4695		109.375000
4696		103.515625
4697		107.421875
4698		101.562500
4699		105.468750
4700		101.562500
4701		105.468750
4702		99.609375
4703		103.515625
4704		97.656250
4705		101.562500
4706		95.703125
4707		101.562500
4708		93.750000
4709		97.656250
4710		91.796875
4711		97.656250
4712		89.843750
4713		95.703125
4714		87.890625
4715		93.750000
4716		85.937500
4717		91.796875
4718		83.984375
4719		89.843750
4720		82.031250
4721		87.890625
4722		80.078125
4723		85.937500
4724		78.125000
4725		82.031250
4726		76.171875
4727		80.078125
4728		74.218750
4729		78.125000
4730		70.312500
4731		76.171875
4732		68.359375
4733		74.218750
4734		66.406250
4735		70.312500
4736		64.453125
4737		68.359375
4738		60.546875
4739		66.406250
4740		58.593750
4741		64.453125
4742		56.640625
4743		60.546875
4744		52.734375
4745		58.593750
4746		50.781250
4747		56.640625
4748		48.828125
4749		52.734375
4750		44.921875
4751		50.781250
4752		42.968750
4753		46.875000
4754		39.062500
4755		44.921875
4756		37.109375
4757		42.968750
4758		33.203125
4759		39.062500
4760		31.250000
4761		37.109375
4762		27.343750
4763		33.203125
4764		25.390625
4765		29.296875
4766		21.484375
4767		27.343750
4768		19.531250
4769		25.390625
4770		15.625000
4771		21.484375
4772		11.718750
4773		17.578125
4774		9.765625
4775		15.625000
4776		5.859375
4777		11.718750
4778		3.906250
4779		9.765625
4780		0.000000
4781		5.859375
4782		-1.953125
4783		3.906250
4784		-5.859375
4785		0.000000
4786		-9.765625
4787		-3.906250
4788		-11.718750
4789		-5.859375
4790		-15.625000
4791		-9.765625
4792		-17.578125
4793		-11.718750
4794		-19.531250
4795		-15.625000
4796		-23.437500
4797		-17.578125
4798		-27.343750
4799		-21.484375
4800		-29.296875
4801		-23.437500
4802		-33.203125
4803		-27.343750
4804		-35.156250
4805		-29.296875
4806		-39.062500
4807		-33.203125
4808		-41.015625
4809		-35.156250
4810		-42.968750
4811		-39.062500
4812		-46.875000
4813		-41.015625
4814		-48.828125
4815		-44.921875
4816		-52.734375
4817		-46.875000
4818		-54.687500
4819		-48.828125
4820		-56.640625
4821		-52.734375
4822		-60.546875
4823		-54.687500
4824		-62.500000
4825		-56.640625
4826		-64.453125
4827		-60.546875
4828		-66.406250
4829		-62.500000
4830		-70.312500
4831		-64.453125
4832		-70.312500
4833		-66.406250
4834		-74.218750
4835		-68.359375
4836		-76.171875
4837		-72.265625
4838		-78.125000
4839		-74.218750
4840		-80.078125
4841		-74.218750
4842		-82.031250
4843		-78.125000
4844		-83.984375
4845		-80.078125
4846		-85.937500
4847		-82.031250
4848		-87.890625
4849		-83.984375
4850		-89.843750
4851		-83.984375
4852		-89.843750
4853		-85.937500
4854		-91.796875
4855		-87.890625
4856		-93.750000
4857		-89.843750
4858		-95.703125
4859		-91.796875
4860		-95.703125
4861		-91.796875
4862		-97.656250
4863		-93.750000
4864		-97.656250
4865		-93.750000
4866		-99.609375
4867		-95.703125
4868		-101.562500
4869		-95.703125
4870		-101.562500
4871		-97.656250
4872		-103.515625
4873		-99.609375
4874		-103.515625
4875		-99.609375
4876		-103.515625
4877		-99.609375
4878		-103.515625
4879		-99.609375
4880		-103.515625
4881		-101.562500
4882		-105.468750
4883		-101.562500
4884		-105.468750
4885		-101.562500
4886		-105.468750
4887		-101.562500
4888		-105.468750
4889		-101.562500
4890		-105.468750
4891		-101.562500
4892		-105.468750
4893		-101.562500
4894		-103.515625
4895		-101.562500
4896		-105.468750
4897		-101.562500
4898		-105.468750
4899		-99.609375
4900		-103.515625
4901		-99.609375
4902		-103.515625
4903		-99.609375
4904		-103.515625
4905		-97.656250
4906		-101.562500
4907		-97.656250
4908		-101.562500
4909		-97.656250
4910		-99.609375
4911		-95.703125
4912		-99.609375
4913		-95.703125
4914		-97.656250
4915		-93.750000
4916		-95.703125
4917		-91.796875
4918		-95.703125
4919		-91.796875
4920		-93.750000
4921		-89.843750
4922		-93.750000
4923		-87.890625
4924		-91.796875
4925		-85.937500
4926		-89.843750
4927		-85.937500
4928		-87.890625
4929		-83.984375
4930		-85.937500
4931		-82.031250
4932		-83.984375
4933		-80.078125
4934		-82.031250
4935		-78.125000
4936		-82.031250
4937		-76.171875
4938		-78.125000
4939		-74.218750
4940		-78.125000
4941		-72.265625
4942		-74.218750
4943		-70.312500
4944		-72.265625
4945		-66.406250
4946		-70.312500
4947		-64.453125
4948		-68.359375
4949		-62.500000
4950		-64.453125
4951		-60.546875
4952		-62.500000
4953		-58.593750
4954		-60.546875
4955		-54.687500
4956		-58.593750
4957		-52.734375
4958		-56.640625
4959		-50.781250
4960		-52.734375
4961		-46.875000
4962		-48.828125
4963		-44.921875
4964		-46.875000
4965		-41.015625
4966		-44.921875
4967		-39.062500
4968		-41.015625
4969		-35.156250
4970		-39.062500
4971		-33.203125
4972		-35.156250
4973		-29.296875
4974		-33.203125
4975		-27.343750
4976		-29.296875
4977		-25.390625
4978		-27.343750
4979		-21.484375
4980		-23.437500
4981		-17.578125
4982		-19.531250
4983		-15.625000
4984		-17.578125
4985		-11.718750
4986		-15.625000
4987		-9.765625
4988		-11.718750
4989		-5.859375
4990		-9.765625
4991		-1.953125
4992		-5.859375
4993		0.000000
4994		-1.953125
4995		1.953125
4996		0.000000
4997		5.859375
4998		3.906250
4999		9.765625
5000		7.812500
5001		11.718750
5002		9.765625
5003		15.625000
5004		13.671875
5005		17.578125
5006		15.625000
5007		21.484375
5008		19.531250
5009		25.390625
5010		21.484375
5011		27.343750
5012		25.390625
5013		29.296875
5014		27.343750
5015		33.203125
5016		31.250000
5017		35.156250
5018		33.203125
5019		39.062500
5020		35.156250
5021		41.015625
5022		39.062500
5023		44.921875
5024		42.968750
5025		46.875000
5026		44.921875
5027		50.781250
5028		46.875000
5029		52.734375
5030		50.781250
5031		54.687500
5032		52.734375
5033		58.593750
5034		56.640625
5035		60.546875
5036		58.593750
5037		62.500000
5038		60.546875
5039		66.406250
5040		64.453125
5041		68.359375
5042		64.453125
5043		72.265625
5044		68.359375
5045		74.218750
5046		70.312500
5047		76.171875
5048		74.218750
5049		78.125000
5050		76.171875
5051		80.078125
5052		78.125000
5053		82.031250
5054		80.078125
5055		83.984375
5056		82.031250
5057		85.937500
5058		83.984375
5059		87.890625
5060		85.937500
5061		89.843750
5062		87.890625
5063		91.796875
5064		89.843750
5065		95.703125
5066		91.796875
5067		95.703125
5068		93.750000
5069		97.656250
5070		95.703125
5071		99.609375
5072		97.656250
5073		101.562500
5074		99.609375
5075		103.515625
5076		99.609375
5077		105.468750
5078		101.562500
5079		105.468750
5080		103.515625
5081		107.421875
5082		105.468750
5083		107.421875
5084		105.468750
5085		109.375000
5086		107.421875
5087		111.328125
5088		107.421875
5089		111.328125
5090		109.375000
5091		113.281250
5092		109.375000
5093		115.234375
5094		111.328125
5095		115.234375
5096		113.281250
5097		117.187500
5098		113.281250
5099		117.187500
5100		113.281250
5101		117.187500
5102		115.234375
5103		119.140625
5104		115.234375
5105		119.140625
5106		117.187500
5107		119.140625
5108		117.187500
5109		121.093750
5110		117.187500
5111		121.093750
5112		117.187500
5113		121.093750
5114		117.187500
5115		123.046875
5116		119.140625
5117		123.046875
5118		119.140625
5119		123.046875
5120		119.140625
5121		123.046875
5122		119.140625
5123		123.046875
5124		119.140625
5125		123.046875
5126		119.140625
5127		123.046875
5128		119.140625
5129		123.046875
5130		119.140625
5131		123.046875
5132		119.140625
5133		123.046875
5134		119.140625
5135		123.046875
5136		119.140625
5137		121.093750
5138		117.187500
5139		121.093750
5140		117.187500
5141		121.093750
5142		117.187500
5143		121.093750
5144		115.234375
5145		121.093750
5146		115.234375
5147		119.140625
5148		115.234375
5149		119.140625
5150		113.281250
5151		117.187500
5152		113.281250
5153		117.187500
5154		113.281250
5155		117.187500
5156		111.328125
5157		115.234375
5158		109.375000
5159		113.281250
5160		109.375000
5161		113.281250
5162		107.421875
5163		111.328125
5164		107.421875
5165		109.375000
5166		105.468750
5167		109.375000
5168		103.515625
5169		107.421875
5170		103.515625
5171		105.468750
5172		99.609375
5173		105.468750
5174		99.609375
5175		103.515625
5176		97.656250
5177		101.562500
5178		95.703125
5179		99.609375
5180		93.750000
5181		99.609375
5182		91.796875
5183		97.656250
5184		89.843750
5185		95.703125
5186		87.890625
5187		93.750000
5188		85.937500
5189		91.796875
5190		83.984375
5191		89.843750
5192		82.031250
5193		87.890625
5194		80.078125
5195		83.984375
5196		78.125000
5197		83.984375
5198		76.171875
5199		80.078125
5200		74.218750
5201		78.125000
5202		70.312500
5203		76.171875
5204		68.359375
5205		74.218750
5206		66.406250
5207		70.312500
5208		64.453125
5209		68.359375
5210		60.546875
5211		68.359375
5212		58.593750
5213		64.453125
5214		56.640625
5215		60.546875
5216		52.734375
5217		58.593750
5218		50.781250
5219		54.687500
5220		48.828125
5221		52.734375
5222		44.921875
5223		50.781250
5224		42.968750
5225		46.875000
5226		39.062500
5227		44.921875
5228		37.109375
5229		42.968750
5230		33.203125
5231		39.062500
5232		31.250000
5233		35.156250
5234		27.343750
5235		33.203125
5236		25.390625
5237		29.296875
5238		21.484375
5239		27.343750
5240		19.531250
5241		23.437500
5242		15.625000
5243		21.484375
5244		13.671875
5245		17.578125
5246		9.765625
5247		15.625000
5248		7.812500
5249		11.718750
5250		3.906250
5251		9.765625
5252		0.000000
5253		5.859375
5254		-1.953125
5255		1.953125
5256		-5.859375
5257		0.000000
5258		-7.812500
5259		-3.906250
5260		-11.718750
5261		-5.859375
5262		-15.625000
5263		-9.765625
5264		-17.578125
5265		-11.718750
5266		-21.484375
5267		-15.625000
5268		-23.437500
5269		-17.578125
5270		-27.343750
5271		-21.484375
5272		-29.296875
5273		-23.437500
5274		-33.203125
5275		-27.343750
5276		-35.156250
5277		-31.250000
5278		-39.062500
5279		-33.203125
5280		-41.015625
5281		-35.156250
5282		-44.921875
5283		-39.062500
5284		-46.875000
5285		-41.015625
5286		-48.828125
5287		-44.921875
5288		-52.734375
5289		-46.875000
5290		-54.687500
5291		-48.828125
5292		-56.640625
5293		-52.734375
5294		-60.546875
5295		-54.687500
5296		-62.500000
5297		-58.593750
5298		-64.453125
5299		-60.546875
5300		-68.359375
5301		-62.500000
5302		-70.312500
5303		-64.453125
5304		-72.265625
5305		-66.406250
5306		-74.218750
5307		-68.359375
5308		-76.171875
5309		-72.265625
5310		-80.078125
5311		-74.218750
5312		-80.078125
5313		-76.171875
5314		-82.031250
5315		-78.125000
5316		-83.984375
5317		-80.078125
5318		-85.937500
5319		-82.031250
5320		-87.890625
5321		-83.984375
5322		-89.843750
5323		-85.937500
5324		-91.796875
5325		-87.890625
5326		-93.750000
5327		-89.843750
5328		-93.750000
5329		-89.843750
5330		-95.703125
5331		-91.796875
5332		-97.656250
5333		-93.750000
5334		-97.656250
5335		-93.750000
5336		-99.609375
5337		-95.703125
5338		-101.562500
5339		-95.703125
5340		-101.562500
5341		-97.656250
5342		-101.562500
5343		-97.656250
5344		-103.515625
5345		-99.609375
5346		-103.515625
5347		-99.609375
5348		-105.468750
5349		-101.562500
5350		-105.468750
5351		-101.562500
5352		-105.468750
5353		-101.562500
5354		-105.468750
5355		-101.562500
5356		-107.421875
5357		-101.562500
5358		-105.468750
5359		-103.515625
5360		-107.421875
5361		-101.562500
5362		-105.468750
5363		-103.515625
5364		-107.421875
5365		-103.515625
5366		-105.468750
5367		-103.515625
5368		-105.468750
5369		-103.515625
5370		-105.468750
5371		-101.562500
5372		-105.468750
5373		-101.562500
5374		-105.468750
5375		-101.562500
5376		-103.515625
5377		-101.562500
5378		-103.515625
5379		-99.609375
5380		-103.515625
5381		-99.609375
5382		-103.515625
5383		-97.656250
5384		-101.562500
5385		-95.703125
5386		-99.609375
5387		-95.703125
5388		-99.609375
5389		-95.703125
5390		-97.656250
5391		-93.750000
5392		-95.703125
5393		-91.796875
5394		-95.703125
5395		-89.843750
5396		-93.750000
5397		-87.890625
5398		-91.796875
5399		-87.890625
5400		-89.843750
5401		-85.937500
5402		-87.890625
5403		-83.984375
5404		-87.890625
5405		-82.031250
5406		-85.937500
5407		-80.078125
5408		-82.031250
5409		-78.125000
5410		-80.078125
5411		-74.218750
5412		-78.125000
5413		-74.218750
5414		-76.171875
5415		-72.265625
5416		-74.218750
5417		-70.312500
5418		-72.265625
5419		-66.406250
5420		-70.312500
5421		-64.453125
5422		-66.406250
5423		-62.500000
5424		-64.453125
5425		-60.546875
5426		-62.500000
5427		-56.640625
5428		-58.593750
5429		-54.687500
5430		-58.593750
5431		-52.734375
5432		-54.687500
5433		-48.828125
5434		-50.781250
5435		-46.875000
5436		-48.828125
5437		-42.968750
5438		-46.875000
5439		-41.015625
5440		-44.921875
5441		-37.109375
5442		-41.015625
5443		-35.156250
5444		-37.109375
5445		-33.203125
5446		-35.156250
5447		-29.296875
5448		-31.250000
5449		-25.390625
5450		-29.296875
5451		-23.437500
5452		-25.390625
5453		-19.531250
5454		-21.484375
5455		-17.578125
5456		-19.531250
5457		-13.671875
5458		-15.625000
5459		-11.718750
5460		-13.671875
5461		-7.812500
5462		-11.718750
5463		-3.906250
5464		-7.812500
5465		-1.953125
5466		-3.906250
5467		1.953125
5468		-1.953125
5469		3.906250
5470		1.953125
5471		7.812500
5472		3.906250
5473		9.765625
5474		7.812500
5475		13.671875
5476		11.718750
5477		17.578125
5478		13.671875
5479		19.531250
5480		17.578125
5481		23.437500
5482		19.531250
5483		25.390625
5484		23.437500
5485		29.296875
5486		25.390625
5487		31.250000
5488		29.296875
5489		35.156250
5490		31.250000
5491		37.109375
5492		35.156250
5493		39.062500
5494		37.109375
5495		42.968750
5496		39.062500
5497		44.921875
5498		42.968750
5499		48.828125
5500		46.875000
5501		52.734375
5502		48.828125
5503		54.687500
5504		50.781250
5505		56.640625
5506		54.687500
5507		60.546875
5508		56.640625
5509		60.546875
5510		60.546875
5511		64.453125
5512		62.500000
5513		66.406250
5514		64.453125
5515		70.312500
5516		66.406250
5517		72.265625
5518		68.359375
5519		74.218750
5520		70.312500
5521		78.125000
5522		74.218750
5523		78.125000
5524		76.171875
5525		80.078125
5526		78.125000
5527		82.031250
5528		80.078125
5529		85.937500
5530		82.031250
5531		87.890625
5532		83.984375
5533		87.890625
5534		85.937500
5535		89.843750
5536		87.890625
5537		93.750000
5538		89.843750
5539		93.750000
5540		91.796875
5541		95.703125
5542		93.750000
5543		97.656250
5544		95.703125
5545		99.609375
5546		97.656250
5547		101.562500
5548		97.656250
5549		103.515625
5550		99.609375
5551		103.515625
5552		101.562500
5553		105.468750
5554		103.515625
5555		107.421875
5556		103.515625
5557		109.375000
5558		103.515625
5559		109.375000
5560		107.421875
5561		111.328125
5562		107.421875
5563		111.328125
5564		109.375000
5565		113.281250
5566		109.375000
5567		113.281250
5568		111.328125
5569		115.234375
5570		111.328125
5571		115.234375
5572		113.281250
5573		117.187500
5574		113.281250
5575		117.187500
5576		115.234375
5577		117.187500
5578		115.234375
5579		119.140625
5580		115.234375
5581		119.140625
5582		115.234375
5583		119.140625
5584		117.187500
5585		121.093750
5586		117.187500
5587		121.093750
5588		117.187500
5589		121.093750
5590		117.187500
5591		121.093750
5592		117.187500
5593		121.093750
5594		117.187500
5595		121.093750
5596		117.187500
5597		121.093750
5598		117.187500
5599		121.093750
5600		117.187500
5601		121.093750
5602		117.187500
5603		121.093750
5604		117.187500
5605		121.093750
5606		117.187500
5607		121.093750
5608		117.187500
5609		121.093750
5610		117.187500
5611		119.140625
5612		115.234375
5613		119.140625
5614		115.234375
5615		119.140625
5616		115.234375
5617		119.140625
5618		115.234375
5619		117.187500
5620		113.281250
5621		117.187500
5622		113.281250
5623		117.187500
5624		111.328125
5625		115.234375
5626		111.328125
5627		115.234375
5628		109.375000
5629		113.281250
5630		109.375000
5631		113.281250
5632		107.421875
5633		111.328125
5634		105.468750
5635		111.328125
5636		105.468750
5637		109.375000
5638		103.515625
5639		109.375000
5640		103.515625
5641		107.421875
5642		101.562500
5643		105.468750
5644		99.609375
5645		103.515625
5646		97.656250
5647		101.562500
5648		97.656250
5649		101.562500
5650		93.750000
5651		99.609375
5652		93.750000
5653		97.656250
5654		91.796875
5655		95.703125
5656		89.843750
5657		93.750000
5658		87.890625
5659		91.796875
5660		85.937500
5661		89.843750
5662		83.984375
5663		87.890625
5664		82.031250
5665		85.937500
5666		78.125000
5667		83.984375
5668		76.171875
5669		82.031250
5670		74.218750
5671		80.078125
5672		72.265625
5673		78.125000
5674		70.312500
5675		74.218750
5676		66.406250
5677		72.265625
5678		64.453125
5679		70.312500
5680		62.500000
5681		66.406250
5682		58.593750
5683		64.453125
5684		56.640625
5685		62.500000
5686		54.687500
5687		60.546875
5688		50.781250
5689		58.593750
5690		48.828125
5691		54.687500
5692		46.875000
5693		50.781250
5694		42.968750
5695		48.828125
5696		41.015625
5697		46.875000
5698		37.109375
5699		42.968750
5700		35.156250
5701		41.015625
5702		33.203125
5703		37.109375
5704		29.296875
5705		35.156250
5706		25.390625
5707		31.250000
5708		23.437500
5709		29.296875
5710		19.531250
5711		25.390625
5712		17.578125
5713		21.484375
5714		13.671875
5715		19.531250
5716		11.718750
5717		15.625000
5718		7.812500
5719		13.671875
5720		5.859375
5721		9.765625
5722		1.953125
5723		7.812500
5724		-1.953125
5725		3.906250
5726		-3.906250
5727		1.953125
5728		-7.812500
5729		-1.953125
5730		-11.718750
5731		-3.906250
5732		-13.671875
5733		-7.812500
5734		-15.625000
5735		-11.718750
5736		-19.531250
5737		-13.671875
5738		-23.437500
5739		-17.578125
5740		-25.390625
5741		-19.531250
5742		-29.296875
5743		-23.437500
5744		-31.250000
5745		-25.390625
5746		-33.203125
5747		-29.296875
5748		-37.109375
5749		-31.250000
5750		-41.015625
5751		-35.156250
5752		-42.968750
5753		-37.109375
5754		-44.921875
5755		-41.015625
5756		-48.828125
5757		-42.968750
5758		-50.781250
5759		-46.875000
5760		-52.734375
5761		-48.828125
5762		-56.640625
5763		-50.781250
5764		-58.593750
5765		-54.687500
5766		-60.546875
5767		-56.640625
5768		-64.453125
5769		-58.593750
5770		-66.406250
5771		-60.546875
5772		-68.359375
5773		-64.453125
5774		-70.312500
5775		-66.406250
5776		-74.218750
5777		-68.359375
5778		-76.171875
5779		-70.312500
5780		-78.125000
5781		-72.265625
5782		-80.078125
5783		-76.171875
5784		-82.031250
5785		-78.125000
5786		-83.984375
5787		-80.078125
5788		-85.937500
5789		-82.031250
5790		-87.890625
5791		-83.984375
5792		-89.843750
5793		-83.984375
5794		-91.796875
5795		-87.890625
5796		-91.796875
5797		-87.890625
5798		-93.750000
5799		-89.843750
5800		-95.703125
5801		-91.796875
5802		-97.656250
5803		-91.796875
5804		-99.609375
5805		-93.750000
5806		-99.609375
5807		-95.703125
5808		-101.562500
5809		-97.656250
5810		-101.562500
5811		-97.656250
5812		-103.515625
5813		-99.609375
5814		-103.515625
5815		-99.609375
5816		-103.515625
5817		-101.562500
5818		-105.468750
5819		-101.562500
5820		-105.468750
5821		-101.562500
5822		-107.421875
5823		-103.515625
5824		-105.468750
5825		-103.515625
5826		-107.421875
5827		-103.515625
5828		-107.421875
5829		-103.515625
5830		-107.421875
5831		-103.515625
5832		-107.421875
5833		-103.515625
5834		-107.421875
5835		-103.515625
5836		-107.421875
5837		-103.515625
5838		-107.421875
5839		-103.515625
5840		-107.421875
5841		-103.515625
5842		-107.421875
5843		-103.515625
5844		-107.421875
5845		-101.562500
5846		-105.468750
5847		-101.562500
5848		-105.468750
5849		-101.562500
5850		-103.515625
5851		-99.609375
5852		-103.515625
5853		-99.609375
5854		-101.562500
5855		-97.656250
5856		-101.562500
5857		-97.656250
5858		-101.562500
5859		-95.703125
5860		-99.609375
5861		-95.703125
5862		-97.656250
5863		-93.750000
5864		-95.703125
5865		-91.796875
5866		-93.750000
5867		-91.796875
5868		-93.750000
5869		-89.843750
5870		-91.796875
5871		-87.890625
5872		-89.843750
5873		-85.937500
5874		-87.890625
5875		-83.984375
5876		-85.937500
5877		-82.031250
5878		-83.984375
5879		-80.078125
5880		-83.984375
5881		-78.125000
5882		-80.078125
5883		-74.218750
5884		-78.125000
5885		-74.218750
5886		-78.125000
5887		-70.312500
5888		-74.218750
5889		-68.359375
5890		-72.265625
5891		-66.406250
5892		-68.359375
5893		-64.453125
5894		-68.359375
5895		-62.500000
5896		-64.453125
5897		-58.593750
5898		-62.500000
5899		-54.687500
5900		-60.546875
5901		-54.687500
5902		-56.640625
5903		-50.781250
5904		-54.687500
5905		-48.828125
5906		-52.734375
5907		-44.921875
5908		-48.828125
5909		-42.968750
5910		-46.875000
5911		-41.015625
5912		-42.968750
5913		-37.109375
5914		-39.062500
5915		-35.156250
5916		-37.109375
5917		-31.250000
5918		-35.156250
5919		-27.343750
5920		-31.250000
5921		-25.390625
5922		-27.343750
5923		-23.437500
5924		-25.390625
5925		-19.531250
5926		-23.437500
5927		-17.578125
5928		-21.484375
5929		-13.671875
5930		-15.625000
5931		-9.765625
5932		-11.718750
5933		-7.812500
5934		-9.765625
5935		-3.906250
5936		-7.812500
5937		0.000000
5938		-5.859375
5939		1.953125
5940		-1.953125
5941		5.859375
5942		1.953125
5943		7.812500
5944		3.906250
5945		9.765625
5946		7.812500
5947		13.671875
5948		11.718750
5949		17.578125
5950		13.671875
5951		19.531250
5952		17.578125
5953		23.437500
5954		19.531250
5955		27.343750
5956		23.437500
5957		29.296875
5958		25.390625
5959		33.203125
5960		29.296875
5961		35.156250
5962		33.203125
5963		37.109375
5964		35.156250
5965		41.015625
5966		37.109375
5967		44.921875
5968		41.015625
5969		46.875000
5970		42.968750
5971		48.828125
5972		44.921875
5973		52.734375
5974		48.828125
5975		54.687500
5976		50.781250
5977		58.593750
5978		52.734375
5979		58.593750
5980		56.640625
5981		62.500000
5982		60.546875
5983		64.453125
5984		62.500000
5985		68.359375
5986		64.453125
5987		70.312500
5988		66.406250
5989		72.265625
5990		68.359375
5991		76.171875
5992		72.265625
5993		78.125000
5994		74.218750
5995		80.078125
5996		76.171875
5997		80.078125
5998		78.125000
5999		82.031250
6000		80.078125
6001		85.937500
6002		83.984375
6003		87.890625
6004		83.984375
6005		87.890625
6006		85.937500
6007		91.796875
6008		87.890625
6009		91.796875
6010		89.843750
6011		95.703125
6012		91.796875
6013		95.703125
6014		93.750000
6015		97.656250
6016		95.703125
6017		99.609375
6018		97.656250
6019		101.562500
6020		99.609375
6021		103.515625
6022		99.609375
6023		103.515625
6024		101.562500
6025		105.468750
6026		103.515625
6027		107.421875
6028		103.515625
6029		109.375000
6030		105.468750
6031		109.375000
6032		107.421875
6033		111.328125
6034		107.421875
6035		111.328125
6036		109.375000
6037		113.281250
6038		111.328125
6039		113.281250
6040		111.328125
6041		115.234375
6042		111.328125
6043		115.234375
6044		113.281250
6045		115.234375
6046		113.281250
6047		117.187500
6048		115.234375
6049		117.187500
6050		115.234375
6051		119.140625
6052		115.234375
6053		119.140625
6054		115.234375
6055		119.140625
6056		117.187500
6057		119.140625
6058		117.187500
6059		119.140625
6060		117.187500
6061		121.093750
6062		117.187500
6063		121.093750
6064		117.187500
6065		121.093750
6066		117.187500
6067		121.093750
6068		117.187500
6069		121.093750
6070		117.187500
6071		121.093750
6072		117.187500
6073		121.093750
6074		117.187500
6075		121.093750
6076		117.187500
6077		121.093750
6078		115.234375
6079		121.093750
6080		117.187500
6081		119.140625
6082		115.234375
6083		119.140625
6084		115.234375
6085		119.140625
6086		115.234375
6087		119.140625
6088		115.234375
6089		117.187500
6090		113.281250
6091		117.187500
6092		113.281250
6093		117.187500
6094		111.328125
6095		115.234375
6096		111.328125
6097		115.234375
6098		109.375000
6099		113.281250
6100		107.421875
6101		115.234375
6102		105.468750
6103		115.234375
6104		103.515625
6105		113.281250
6106		105.468750
6107		109.375000
6108		103.515625
6109		107.421875
6110		103.515625
6111		107.421875
6112		101.562500
6113		105.468750
6114		99.609375
6115		103.515625
6116		99.609375
6117		101.562500
6118		95.703125
6119		103.515625
6120		91.796875
6121		101.562500
6122		91.796875
6123		99.609375
6124		91.796875
6125		95.703125
6126		89.843750
6127		93.750000
6128		87.890625
6129		91.796875
6130		85.937500
6131		89.843750
6132		83.984375
6133		87.890625
6134		80.078125
6135		87.890625
6136		76.171875
6137		85.937500
6138		74.218750
6139		83.984375
6140		74.218750
6141		80.078125
6142		72.265625
6143		76.171875
6144		70.312500
6145		74.218750
6146		68.359375
6147		72.265625
6148		64.453125
6149		70.312500
6150		60.546875
6151		70.312500
6152		58.593750
6153		68.359375
6154		54.687500
6155		66.406250
6156		54.687500
6157		62.500000
6158		52.734375
6159		56.640625
6160		50.781250
6161		54.687500
6162		46.875000
6163		52.734375
6164		44.921875
6165		48.828125
6166		41.015625
6167		46.875000
6168		37.109375
6169		46.875000
6170		33.203125
6171		42.968750
6172		31.250000
6173		41.015625
6174		29.296875
6175		35.156250
6176		27.343750
6177		31.250000
6178		23.437500
6179		29.296875
6180		21.484375
6181		25.390625
6182		17.578125
6183		23.437500
6184		11.718750
6185		21.484375
6186		7.812500
6187		19.531250
6188		5.859375
6189		17.578125
6190		5.859375
6191		11.718750
6192		1.953125
6193		7.812500
6194		0.000000
6195		3.906250
6196		-3.906250
6197		1.953125
6198		-5.859375
6199		-1.953125
6200		-9.765625
6201		-3.906250
6202		-15.625000
6203		-3.906250
6204		-19.531250
6205		-7.812500
6206		-19.531250
6207		-11.718750
6208		-21.484375
6209		-15.625000
6210		-25.390625
6211		-19.531250
6212		-27.343750
6213		-23.437500
6214		-31.250000
6215		-25.390625
6216		-33.203125
6217		-29.296875
6218		-39.062500
6219		-29.296875
6220		-42.968750
6221		-33.203125
6222		-44.921875
6223		-35.156250
6224		-44.921875
6225		-41.015625
6226		-46.875000
6227		-42.968750
6228		-50.781250
6229		-44.921875
6230		-52.734375
6231		-48.828125
6232		-56.640625
6233		-50.781250
6234		-60.546875
6235		-52.734375
6236		-62.500000
6237		-54.687500
6238		-66.406250
6239		-56.640625
6240		-68.359375
6241		-58.593750
6242		-68.359375
6243		-64.453125
6244		-70.312500
6245		-66.406250
6246		-74.218750
6247		-68.359375
6248		-76.171875
6249		-70.312500
6250		-78.125000
6251		-72.265625
6252		-82.031250
6253		-72.265625
6254		-83.984375
6255		-74.218750
6256		-85.937500
6257		-76.171875
6258		-85.937500
6259		-82.031250
6260		-87.890625
6261		-83.984375
6262		-89.843750
6263		-85.937500
6264		-91.796875
6265		-87.890625
6266		-93.750000
6267		-89.843750
6268		-97.656250
6269		-87.890625
6270		-99.609375
6271		-87.890625
6272		-101.562500
6273		-91.796875
6274		-99.609375
6275		-93.750000
6276		-99.609375
6277		-95.703125
6278		-101.562500
6279		-97.656250
6280		-101.562500
6281		-99.609375
6282		-103.515625
6283		-99.609375
6284		-105.468750
6285		-99.609375
6286		-105.468750
6287		-99.609375
6288		-109.375000
6289		-99.609375
6290		-107.421875
6291		-101.562500
6292		-107.421875
6293		-103.515625
6294		-107.421875
6295		-105.468750
6296		-107.421875
6297		-105.468750
6298		-107.421875
6299		-105.468750
6300		-109.375000
6301		-105.468750
6302		-109.375000
6303		-105.468750
6304		-111.328125
6305		-103.515625
6306		-109.375000
6307		-105.468750
6308		-107.421875
6309		-105.468750
6310		-107.421875
6311		-105.468750
6312		-107.421875
6313		-105.468750
6314		-107.421875
6315		-103.515625
6316		-107.421875
6317		-103.515625
6318		-105.468750
6319		-101.562500
6320		-107.421875
6321		-101.562500
6322		-107.421875
6323		-99.609375
6324		-103.515625
6325		-99.609375
6326		-103.515625
6327		-99.609375
6328		-101.562500
6329		-99.609375
6330		-101.562500
6331		-97.656250
6332		-99.609375
6333		-95.703125
6334		-99.609375
6335		-95.703125
6336		-97.656250
6337		-93.750000
6338		-95.703125
6339		-91.796875
6340		-93.750000
6341		-89.843750
6342		-91.796875
6343		-87.890625
6344		-91.796875
6345		-85.937500
6346		-89.843750
6347		-85.937500
6348		-87.890625
6349		-83.984375
6350		-85.937500
6351		-82.031250
6352		-83.984375
6353		-80.078125
6354		-82.031250
6355		-76.171875
6356		-78.125000
6357		-74.218750
6358		-76.171875
6359		-72.265625
6360		-74.218750
6361		-70.312500
6362		-72.265625
6363		-68.359375
6364		-70.312500
6365		-64.453125
6366		-68.359375
6367		-62.500000
6368		-64.453125
6369		-60.546875
6370		-62.500000
6371		-56.640625
6372		-60.546875
6373		-54.687500
6374		-56.640625
6375		-52.734375
6376		-54.687500
6377		-48.828125
6378		-52.734375
6379		-46.875000
6380		-48.828125
6381		-44.921875
6382		-46.875000
6383		-41.015625
6384		-42.968750
6385		-39.062500
6386		-39.062500
6387		-35.156250
6388		-37.109375
6389		-31.250000
6390		-33.203125
6391		-29.296875
6392		-31.250000
6393		-25.390625
6394		-29.296875
6395		-23.437500
6396		-25.390625
6397		-19.531250
6398		-23.437500
6399		-17.578125
6400		-19.531250
6401		-13.671875
6402		-15.625000
6403		-9.765625
6404		-13.671875
6405		-7.812500
6406		-9.765625
6407		-5.859375
6408		-7.812500
6409		-1.953125
6410		-3.906250
6411		1.953125
6412		-1.953125
6413		3.906250
6414		1.953125
6415		7.812500
6416		5.859375
6417		9.765625
6418		7.812500
6419		13.671875
6420		11.718750
6421		17.578125
6422		13.671875
6423		19.531250
6424		17.578125
6425		23.437500
6426		19.531250
6427		27.343750
6428		23.437500
6429		29.296875
6430		25.390625
6431		31.250000
6432		29.296875
6433		35.156250
6434		33.203125
6435		37.109375
6436		35.156250
6437		41.015625
6438		37.109375
6439		42.968750
6440		41.015625
6441		44.921875
6442		42.968750
6443		48.828125
6444		44.921875
6445		52.734375
6446		48.828125
6447		54.687500
6448		50.781250
6449		56.640625
6450		54.687500
6451		58.593750
6452		56.640625
6453		62.500000
6454		58.593750
6455		64.453125
6456		60.546875
6457		66.406250
6458		64.453125
6459		68.359375
6460		66.406250
6461		72.265625
6462		68.359375
6463		74.218750
6464		72.265625
6465		76.171875
6466		74.218750
6467		78.125000
6468		76.171875
6469		80.078125
6470		76.171875
6471		83.984375
6472		80.078125
6473		83.984375
6474		82.031250
6475		85.937500
6476		83.984375
6477		87.890625
6478		85.937500
6479		89.843750
6480		87.890625
6481		91.796875
6482		89.843750
6483		93.750000
6484		91.796875
6485		95.703125
6486		93.750000
6487		99.609375
6488		95.703125
6489		99.609375
6490		95.703125
6491		99.609375
6492		97.656250
6493		101.562500
6494		99.609375
6495		103.515625
6496		101.562500
6497		105.468750
6498		101.562500
6499		105.468750
6500		103.515625
6501		107.421875
6502		105.468750
6503		109.375000
6504		103.515625
6505		111.328125
6506		107.421875
6507		111.328125
6508		107.421875
6509		111.328125
6510		109.375000
6511		113.281250
6512		109.375000
6513		113.281250
6514		111.328125
6515		115.234375
6516		111.328125
6517		115.234375
6518		113.281250
6519		115.234375
6520		111.328125
6521		117.187500
6522		113.281250
6523		117.187500
6524		115.234375
6525		117.187500
6526		115.234375
6527		119.140625
6528		115.234375
6529		119.140625
6530		115.234375
6531		119.140625
6532		117.187500
6533		119.140625
6534		117.187500
6535		119.140625
6536		117.187500
6537		119.140625
6538		115.234375
6539		119.140625
6540		115.234375
6541		121.093750
6542		117.187500
6543		119.140625
6544		115.234375
6545		119.140625
6546		115.234375
6547		121.093750
6548		115.234375
6549		119.140625
6550		115.234375
6551		119.140625
6552		115.234375
6553		119.140625
6554		113.281250
6555		119.140625
6556		115.234375
6557		117.187500
6558		113.281250
6559		117.187500
6560		113.281250
6561		117.187500
6562		111.328125
6563		115.234375
6564		111.328125
6565		115.234375
6566		111.328125
6567		115.234375
6568		109.375000
6569		113.281250
6570		109.375000
6571		111.328125
6572		107.421875
6573		111.328125
6574		105.468750
6575		109.375000
6576		105.468750
6577		109.375000
6578		103.515625
6579		107.421875
6580		103.515625
6581		107.421875
6582		101.562500
6583		105.468750
6584		99.609375
6585		103.515625
6586		97.656250
6587		101.562500
6588		95.703125
6589		101.562500
6590		95.703125
6591		99.609375
6592		93.750000
6593		97.656250
6594		91.796875
6595		95.703125
6596		89.843750
6597		93.750000
6598		87.890625
6599		91.796875
6600		85.937500
6601		89.843750
6602		83.984375
6603		87.890625
6604		82.031250
6605		85.937500
6606		80.078125
6607		83.984375
6608		76.171875
6609		82.031250
6610		76.171875
6611		80.078125
6612		72.265625
6613		78.125000
6614		70.312500
6615		74.218750
6616		68.359375
6617		72.265625
6618		66.406250
6619		70.312500
6620		62.500000
6621		68.359375
6622		60.546875
6623		66.406250
6624		58.593750
6625		62.500000
6626		54.687500
6627		60.546875
6628		52.734375
6629		58.593750
6630		50.781250
6631		54.687500
6632		46.875000
6633		52.734375
6634		44.921875
6635		48.828125
6636		42.968750
6637		46.875000
6638		39.062500
6639		44.921875
6640		35.156250
6641		41.015625
6642		33.203125
6643		39.062500
6644		31.250000
6645		35.156250
6646		27.343750
6647		33.203125
6648		25.390625
6649		29.296875
6650		21.484375
6651		27.343750
6652		19.531250
6653		23.437500
6654		15.625000
6655		21.484375
6656		11.718750
6657		17.578125
6658		9.765625
6659		13.671875
6660		5.859375
6661		11.718750
6662		3.906250
6663		7.812500
6664		0.000000
6665		5.859375
6666		-1.953125
6667		1.953125
6668		-5.859375
6669		0.000000
6670		-9.765625
6671		-3.906250
6672		-11.718750
6673		-7.812500
6674		-15.625000
6675		-9.765625
6676		-17.578125
6677		-13.671875
6678		-21.484375
6679		-15.625000
6680		-23.437500
6681		-19.531250
6682		-27.343750
6683		-21.484375
6684		-29.296875
6685		-25.390625
6686		-33.203125
6687		-27.343750
6688		-37.109375
6689		-31.250000
6690		-39.062500
6691		-33.203125
6692		-42.968750
6693		-37.109375
6694		-44.921875
6695		-39.062500
6696		-48.828125
6697		-42.968750
6698		-50.781250
6699		-44.921875
6700		-52.734375
6701		-48.828125
6702		-56.640625
6703		-50.781250
6704		-58.593750
6705		-54.687500
6706		-60.546875
6707		-54.687500
6708		-64.453125
6709		-58.593750
6710		-66.406250
6711		-62.500000
6712		-68.359375
6713		-62.500000
6714		-70.312500
6715		-66.406250
6716		-74.218750
6717		-68.359375
6718		-76.171875
6719		-70.312500
6720		-78.125000
6721		-74.218750
6722		-82.031250
6723		-76.171875
6724		-82.031250
6725		-76.171875
6726		-83.984375
6727		-80.078125
6728		-85.937500
6729		-82.031250
6730		-87.890625
6731		-83.984375
6732		-89.843750
6733		-85.937500
6734		-91.796875
6735		-87.890625
6736		-93.750000
6737		-89.843750
6738		-97.656250
6739		-91.796875
6740		-99.609375
6741		-91.796875
6742		-97.656250
6743		-93.750000
6744		-99.609375
6745		-95.703125
6746		-101.562500
6747		-97.656250
6748		-101.562500
6749		-99.609375
6750		-103.515625
6751		-99.609375
6752		-105.468750
6753		-101.562500
6754		-105.468750
6755		-101.562500
6756		-107.421875
6757		-101.562500
6758		-107.421875
6759		-103.515625
6760		-107.421875
6761		-105.468750
6762		-109.375000
6763		-105.468750
6764		-109.375000
6765		-105.468750
6766		-109.375000
6767		-107.421875
6768		-109.375000
6769		-107.421875
6770		-109.375000
6771		-107.421875
6772		-113.281250
6773		-105.468750
6774		-111.328125
6775		-105.468750
6776		-111.328125
6777		-107.421875
6778		-111.328125
6779		-107.421875
6780		-109.375000
6781		-107.421875
6782		-109.375000
6783		-107.421875
6784		-109.375000
6785		-107.421875
6786		-109.375000
6787		-105.468750
6788		-109.375000
6789		-105.468750
6790		-109.375000
6791		-103.515625
6792		-109.375000
6793		-103.515625
6794		-105.468750
6795		-103.515625
6796		-105.468750
6797		-101.562500
6798		-105.468750
6799		-101.562500
6800		-103.515625
6801		-99.609375
6802		-101.562500
6803		-99.609375
6804		-101.562500
6805		-97.656250
6806		-99.609375
6807		-93.750000
6808		-99.609375
6809		-93.750000
6810		-97.656250
6811		-93.750000
6812		-95.703125
6813		-91.796875
6814		-93.750000
6815		-89.843750
6816		-91.796875
6817		-87.890625
6818		-89.843750
6819		-85.937500
6820		-87.890625
6821		-83.984375
6822		-85.937500
6823		-82.031250
6824		-85.937500
6825		-78.125000
6826		-82.031250
6827		-78.125000
6828		-80.078125
6829		-76.171875
6830		-78.125000
6831		-74.218750
6832		-76.171875
6833		-70.312500
6834		-74.218750
6835		-68.359375
6836		-70.312500
6837		-66.406250
6838		-68.359375
6839		-64.453125
6840		-66.406250
6841		-60.546875
6842		-64.453125
6843		-58.593750
6844		-60.546875
6845		-54.687500
6846		-58.593750
6847		-52.734375
6848		-54.687500
6849		-50.781250
6850		-52.734375
6851		-46.875000
6852		-48.828125
6853		-44.921875
6854		-46.875000
6855		-41.015625
6856		-42.968750
6857		-37.109375
6858		-41.015625
6859		-35.156250
6860		-37.109375
6861		-33.203125
6862		-35.156250
6863		-29.296875
6864		-31.250000
6865		-27.343750
6866		-29.296875
6867		-23.437500
6868		-25.390625
6869		-21.484375
6870		-23.437500
6871		-17.578125
6872		-19.531250
6873		-13.671875
6874		-19.531250
6875		-9.765625
6876		-13.671875
6877		-7.812500
6878		-11.718750
6879		-5.859375
6880		-7.812500
6881		-1.953125
6882		-3.906250
6883		1.953125
6884		-1.953125
6885		3.906250
6886		1.953125
6887		5.859375
6888		3.906250
6889		9.765625
6890		7.812500
6891		13.671875
6892		11.718750
6893		17.578125
6894		13.671875
6895		19.531250
6896		17.578125
6897		21.484375
6898		19.531250
6899		25.390625
6900		23.437500
6901		27.343750
6902		25.390625
6903		31.250000
6904		29.296875
6905		33.203125
6906		31.250000
6907		37.109375
6908		35.156250
6909		39.062500
6910		37.109375
6911		42.968750
6912		41.015625
6913		44.921875
6914		42.968750
6915		48.828125
6916		44.921875
6917		50.781250
6918		48.828125
6919		52.734375
6920		50.781250
6921		56.640625
6922		54.687500
6923		58.593750
6924		54.687500
6925		60.546875
6926		58.593750
6927		64.453125
6928		60.546875
6929		66.406250
6930		64.453125
6931		68.359375
6932		66.406250
6933		72.265625
6934		68.359375
6935		74.218750
6936		70.312500
6937		76.171875
6938		74.218750
6939		78.125000
6940		76.171875
6941		80.078125
6942		78.125000
6943		82.031250
6944		80.078125
6945		83.984375
6946		82.031250
6947		85.937500
6948		83.984375
6949		87.890625
6950		85.937500
6951		89.843750
6952		87.890625
6953		91.796875
6954		89.843750
6955		93.750000
6956		91.796875
6957		95.703125
6958		93.750000
6959		97.656250
6960		95.703125
6961		99.609375
6962		95.703125
6963		101.562500
6964		97.656250
6965		101.562500
6966		99.609375
6967		103.515625
6968		101.562500
6969		105.468750
6970		101.562500
6971		107.421875
6972		103.515625
6973		107.421875
6974		105.468750
6975		109.375000
6976		105.468750
6977		109.375000
6978		107.421875
6979		111.328125
6980		107.421875
6981		111.328125
6982		109.375000
6983		113.281250
6984		109.375000
6985		113.281250
6986		111.328125
6987		115.234375
6988		111.328125
6989		115.234375
6990		111.328125
6991		115.234375
6992		113.281250
6993		115.234375
6994		113.281250
6995		117.187500
6996		115.234375
6997		117.187500
6998		115.234375
6999		119.140625
7000		115.234375
7001		119.140625
7002		115.234375
7003		119.140625
7004		115.234375
7005		119.140625
7006		115.234375
7007		119.140625
7008		115.234375
7009		119.140625
7010		115.234375
7011		119.140625
7012		115.234375
7013		119.140625
7014		115.234375
7015		119.140625
7016		115.234375
7017		119.140625
7018		115.234375
7019		119.140625
7020		115.234375
7021		119.140625
7022		115.234375
7023		119.140625
7024		115.234375
7025		117.187500
7026		113.281250
7027		117.187500
7028		113.281250
7029		117.187500
7030		113.281250
7031		115.234375
7032		111.328125
7033		115.234375
7034		111.328125
7035		115.234375
7036		111.328125
7037		113.281250
7038		109.375000
7039		113.281250
7040		109.375000
7041		111.328125
7042		107.421875
7043		111.328125
7044		107.421875
7045		109.375000
7046		105.468750
7047		109.375000
7048		103.515625
7049		107.421875
7050		103.515625
7051		105.468750
7052		101.562500
7053		105.468750
7054		99.609375
7055		103.515625
7056		97.656250
7057		101.562500
7058		97.656250
7059		99.609375
7060		95.703125
7061		99.609375
7062		93.750000
7063		97.656250
7064		91.796875
7065		95.703125
7066		89.843750
7067		93.750000
7068		87.890625
7069		91.796875
7070		85.937500
7071		89.843750
7072		83.984375
7073		87.890625
7074		82.031250
7075		85.937500
7076		80.078125
7077		83.984375
7078		78.125000
7079		82.031250
7080		76.171875
7081		80.078125
7082		72.265625
7083		78.125000
7084		70.312500
7085		76.171875
7086		68.359375
7087		72.265625
7088		66.406250
7089		70.312500
7090		64.453125
7091		68.359375
7092		60.546875
7093		66.406250
7094		58.593750
7095		62.500000
7096		56.640625
7097		60.546875
7098		52.734375
7099		58.593750
7100		50.781250
7101		54.687500
7102		48.828125
7103		52.734375
7104		44.921875
7105		50.781250
7106		42.968750
7107		46.875000
7108		39.062500
7109		44.921875
7110		37.109375
7111		41.015625
7112		33.203125
7113		39.062500
7114		31.250000
7115		35.156250
7116		27.343750
7117		33.203125
7118		25.390625
7119		29.296875
7120		21.484375
7121		27.343750
7122		19.531250
7123		23.437500
7124		15.625000
7125		21.484375
7126		13.671875
7127		17.578125
7128		9.765625
7129		15.625000
7130		5.859375
7131		11.718750
7132		3.906250
7133		9.765625
7134		0.000000
7135		5.859375
7136		-1.953125
7137		3.906250
7138		-5.859375
7139		0.000000
7140		-7.812500
7141		-3.906250
7142		-11.718750
7143		-5.859375
7144		-13.671875
7145		-9.765625
7146		-17.578125
7147		-11.718750
7148		-21.484375
7149		-15.625000
7150		-23.437500
7151		-17.578125
7152		-27.343750
7153		-21.484375
7154		-29.296875
7155		-23.437500
7156		-33.203125
7157		-27.343750
7158		-35.156250
7159		-31.250000
7160		-39.062500
7161		-33.203125
7162		-41.015625
7163		-35.156250
7164		-44.921875
7165		-39.062500
7166		-46.875000
7167		-41.015625
7168		-50.781250
7169		-44.921875
7170		-52.734375
7171		-46.875000
7172		-54.687500
7173		-50.781250
7174		-58.593750
7175		-52.734375
7176		-60.546875
7177		-54.687500
7178		-62.500000
7179		-58.593750
7180		-66.406250
7181		-60.546875
7182		-68.359375
7183		-62.500000
7184		-70.312500
7185		-66.406250
7186		-72.265625
7187		-68.359375
7188		-74.218750
7189		-70.312500
7190		-78.125000
7191		-72.265625
7192		-80.078125
7193		-74.218750
7194		-82.031250
7195		-76.171875
7196		-83.984375
7197		-80.078125
7198		-85.937500
7199		-82.031250
7200		-87.890625
7201		-83.984375
7202		-89.843750
7203		-85.937500
7204		-89.843750
7205		-85.937500
7206		-91.796875
7207		-87.890625
7208		-93.750000
7209		-89.843750
7210		-95.703125
7211		-91.796875
7212		-97.656250
7213		-93.750000
7214		-97.656250
7215		-93.750000
7216		-99.609375
7217		-95.703125
7218		-101.562500
7219		-97.656250
7220		-101.562500
7221		-97.656250
7222		-103.515625
7223		-99.609375
7224		-103.515625
7225		-101.562500
7226		-105.468750
7227		-101.562500
7228		-105.468750
7229		-101.562500
7230		-105.468750
7231		-103.515625
7232		-107.421875
7233		-103.515625
7234		-107.421875
7235		-105.468750
7236		-107.421875
7237		-105.468750
7238		-109.375000
7239		-105.468750
7240		-107.421875
7241		-105.468750
7242		-109.375000
7243		-105.468750
7244		-109.375000
7245		-105.468750
7246		-109.375000
7247		-105.468750
7248		-109.375000
7249		-105.468750
7250		-107.421875
7251		-105.468750
7252		-107.421875
7253		-105.468750
7254		-107.421875
7255		-105.468750
7256		-107.421875
7257		-103.515625
7258		-107.421875
7259		-103.515625
7260		-105.468750
7261		-103.515625
7262		-105.468750
7263		-101.562500
7264		-105.468750
7265		-101.562500
7266		-103.515625
7267		-99.609375
7268		-103.515625
7269		-99.609375
7270		-101.562500
7271		-97.656250
7272		-101.562500
7273		-97.656250
7274		-99.609375
7275		-95.703125
7276		-97.656250
7277		-93.750000
7278		-97.656250
7279		-91.796875
7280		-95.703125
7281		-91.796875
7282		-93.750000
7283		-89.843750
7284		-91.796875
7285		-87.890625
7286		-89.843750
7287		-85.937500
7288		-87.890625
7289		-83.984375
7290		-85.937500
7291		-82.031250
7292		-83.984375
7293		-80.078125
7294		-82.031250
7295		-78.125000
7296		-80.078125
7297		-76.171875
7298		-78.125000
7299		-74.218750
7300		-76.171875
7301		-72.265625
7302		-74.218750
7303		-68.359375
7304		-72.265625
7305		-66.406250
7306		-68.359375
7307		-64.453125
7308		-66.406250
7309		-62.500000
7310		-64.453125
7311		-58.593750
7312		-60.546875
7313		-56.640625
7314		-58.593750
7315		-54.687500
7316		-56.640625
7317		-50.781250
7318		-54.687500
7319		-48.828125
7320		-50.781250
7321		-46.875000
7322		-46.875000
7323		-42.968750
7324		-44.921875
7325		-41.015625
7326		-42.968750
7327		-37.109375
7328		-39.062500
7329		-35.156250
7330		-37.109375
7331		-31.250000
7332		-33.203125
7333		-29.296875
7334		-29.296875
7335		-25.390625
7336		-27.343750
7337		-21.484375
7338		-23.437500
7339		-19.531250
7340		-21.484375
7341		-15.625000
7342		-17.578125
7343		-11.718750
7344		-15.625000
7345		-9.765625
7346		-11.718750
7347		-5.859375
7348		-9.765625
7349		-3.906250
7350		-5.859375
7351		-1.953125
7352		-3.906250
7353		1.953125
7354		0.000000
7355		5.859375
7356		1.953125
7357		7.812500
7358		5.859375
7359		11.718750
7360		9.765625
7361		13.671875
7362		11.718750
7363		17.578125
7364		15.625000
7365		19.531250
7366		17.578125
7367		23.437500
7368		21.484375
7369		27.343750
7370		23.437500
7371		29.296875
7372		27.343750
7373		31.250000
7374		29.296875
7375		35.156250
7376		33.203125
7377		39.062500
7378		35.156250
7379		41.015625
7380		39.062500
7381		42.968750
7382		41.015625
7383		46.875000
7384		44.921875
7385		48.828125
7386		46.875000
7387		52.734375
7388		50.781250
7389		54.687500
7390		52.734375
7391		56.640625
7392		54.687500
7393		60.546875
7394		56.640625
7395		62.500000
7396		60.546875
7397		64.453125
7398		62.500000
7399		68.359375
7400		64.453125
7401		70.312500
7402		68.359375
7403		72.265625
7404		70.312500
7405		74.218750
7406		72.265625
7407		76.171875
7408		74.218750
7409		80.078125
7410		76.171875
7411		82.031250
7412		78.125000
7413		83.984375
7414		80.078125
7415		85.937500
7416		83.984375
7417		87.890625
7418		83.984375
7419		89.843750
7420		87.890625
7421		91.796875
7422		89.843750
7423		93.750000
7424		91.796875
7425		95.703125
7426		91.796875
7427		97.656250
7428		93.750000
7429		97.656250
7430		95.703125
7431		99.609375
7432		97.656250
7433		101.562500
7434		99.609375
7435		103.515625
7436		99.609375
7437		103.515625
7438		101.562500
7439		105.468750
7440		103.515625
7441		107.421875
7442		105.468750
7443		109.375000
7444		105.468750
7445		109.375000
7446		107.421875
7447		111.328125
7448		107.421875
7449		111.328125
7450		109.375000
7451		113.281250
7452		111.328125
7453		113.281250
7454		111.328125
7455		115.234375
7456		111.328125
7457		115.234375
7458		113.281250
7459		117.187500
7460		113.281250
7461		117.187500
7462		113.281250
7463		117.187500
7464		115.234375
7465		117.187500
7466		115.234375
7467		119.140625
7468		115.234375
7469		119.140625
7470		117.187500
7471		119.140625
7472		117.187500
7473		119.140625
7474		117.187500
7475		119.140625
7476		117.187500
7477		121.093750
7478		117.187500
7479		121.093750
7480		117.187500
7481		121.093750
7482		117.187500
7483		121.093750
7484		117.187500
7485		121.093750
7486		117.187500
7487		119.140625
7488		117.187500
7489		119.140625
7490		117.187500
7491		119.140625
7492		117.187500
7493		119.140625
7494		115.234375
7495		119.140625
7496		115.234375
7497		119.140625
7498		115.234375
7499		117.187500
7500		115.234375
7501		117.187500
7502		113.281250
7503		117.187500
7504		113.281250
7505		115.234375
7506		111.328125
7507		115.234375
7508		111.328125
7509		115.234375
7510		111.328125
7511		113.281250
7512		109.375000
7513		113.281250
7514		109.375000
7515		111.328125
7516		107.421875
7517		111.328125
7518		105.468750
7519		109.375000
7520		105.468750
7521		109.375000
7522		103.515625
7523		107.421875
7524		101.562500
7525		105.468750
7526		99.609375
7527		103.515625
7528		99.609375
7529		103.515625
7530		97.656250
7531		101.562500
7532		95.703125
7533		99.609375
7534		93.750000
7535		97.656250
7536		91.796875
7537		95.703125
7538		89.843750
7539		93.750000
7540		87.890625
7541		91.796875
7542		85.937500
7543		89.843750
7544		83.984375
7545		89.843750
7546		82.031250
7547		85.937500
7548		80.078125
7549		83.984375
7550		78.125000
7551		82.031250
7552		76.171875
7553		80.078125
7554		74.218750
7555		78.125000
7556		70.312500
7557		76.171875
7558		68.359375
7559		74.218750
7560		66.406250
7561		70.312500
7562		64.453125
7563		68.359375
7564		62.500000
7565		66.406250
7566		58.593750
7567		64.453125
7568		56.640625
7569		60.546875
7570		52.734375
7571		58.593750
7572		50.781250
7573		56.640625
7574		48.828125
7575		52.734375
7576		44.921875
7577		50.781250
7578		42.968750
7579		46.875000
7580		39.062500
7581		44.921875
7582		37.109375
7583		41.015625
7584		33.203125
7585		39.062500
7586		31.250000
7587		37.109375
7588		27.343750
7589		33.203125
7590		25.390625
7591		31.250000
7592		23.437500
7593		27.343750
7594		19.531250
7595		23.437500
7596		15.625000
7597		21.484375
7598		13.671875
7599		17.578125
7600		9.765625
7601		15.625000
7602		7.812500
7603		11.718750
7604		3.906250
7605		9.765625
7606		0.000000
7607		5.859375
7608		-1.953125
7609		3.906250
7610		-5.859375
7611		0.000000
7612		-7.812500
7613		-3.906250
7614		-11.718750
7615		-5.859375
7616		-13.671875
7617		-9.765625
7618		-17.578125
7619		-11.718750
7620		-19.531250
7621		-15.625000
7622		-23.437500
7623		-17.578125
7624		-25.390625
7625		-21.484375
7626		-29.296875
7627		-23.437500
7628		-31.250000
7629		-27.343750
7630		-35.156250
7631		-29.296875
7632		-37.109375
7633		-33.203125
7634		-41.015625
7635		-35.156250
7636		-42.968750
7637		-39.062500
7638		-46.875000
7639		-41.015625
7640		-48.828125
7641		-42.968750
7642		-52.734375
7643		-46.875000
7644		-54.687500
7645		-48.828125
7646		-56.640625
7647		-52.734375
7648		-58.593750
7649		-54.687500
7650		-62.500000
7651		-56.640625
7652		-64.453125
7653		-60.546875
7654		-66.406250
7655		-62.500000
7656		-68.359375
7657		-64.453125
7658		-72.265625
7659		-66.406250
7660		-74.218750
7661		-68.359375
7662		-76.171875
7663		-72.265625
7664		-78.125000
7665		-74.218750
7666		-80.078125
7667		-76.171875
7668		-82.031250
7669		-78.125000
7670		-83.984375
7671		-80.078125
7672		-85.937500
7673		-82.031250
7674		-87.890625
7675		-83.984375
7676		-89.843750
7677		-85.937500
7678		-91.796875
7679		-87.890625
7680		-93.750000
7681		-89.843750
7682		-93.750000
7683		-89.843750
7684		-95.703125
7685		-91.796875
7686		-97.656250
7687		-93.750000
7688		-97.656250
7689		-95.703125
7690		-99.609375
7691		-95.703125
7692		-99.609375
7693		-95.703125
7694		-101.562500
7695		-97.656250
7696		-101.562500
7697		-97.656250
7698		-103.515625
7699		-99.609375
7700		-103.515625
7701		-101.562500
7702		-103.515625
7703		-101.562500
7704		-105.468750
7705		-101.562500
7706		-105.468750
7707		-101.562500
7708		-105.468750
7709		-103.515625
7710		-105.468750
7711		-103.515625
7712		-105.468750
7713		-103.515625
7714		-107.421875
7715		-103.515625
7716		-105.468750
7717		-103.515625
7718		-107.421875
7719		-103.515625
7720		-105.468750
7721		-103.515625
7722		-105.468750
7723		-103.515625
7724		-105.468750
7725		-103.515625
7726		-105.468750
7727		-101.562500
7728		-105.468750
7729		-101.562500
7730		-103.515625
7731		-101.562500
7732		-103.515625
7733		-99.609375
7734		-103.515625
7735		-99.609375
7736		-101.562500
7737		-99.609375
7738		-101.562500
7739		-97.656250
7740		-99.609375
7741		-97.656250
7742		-99.609375
7743		-95.703125
7744		-97.656250
7745		-93.750000
7746		-95.703125
7747		-93.750000
7748		-95.703125
7749		-91.796875
7750		-93.750000
7751		-89.843750
7752		-93.750000
7753		-87.890625
7754		-89.843750
7755		-85.937500
7756		-89.843750
7757		-83.984375
7758		-87.890625
7759		-82.031250
7760		-85.937500
7761		-82.031250
7762		-83.984375
7763		-78.125000
7764		-82.031250
7765		-78.125000
7766		-80.078125
7767		-76.171875
7768		-78.125000
7769		-72.265625
7770		-76.171875
7771		-70.312500
7772		-74.218750
7773		-66.406250
7774		-70.312500
7775		-66.406250
7776		-70.312500
7777		-62.500000
7778		-66.406250
7779		-60.546875
7780		-62.500000
7781		-58.593750
7782		-60.546875
7783		-56.640625
7784		-58.593750
7785		-52.734375
7786		-56.640625
7787		-50.781250
7788		-54.687500
7789		-46.875000
7790		-50.781250
7791		-44.921875
7792		-48.828125
7793		-39.062500
7794		-44.921875
7795		-39.062500
7796		-41.015625
7797		-37.109375
7798		-39.062500
7799		-33.203125
7800		-37.109375
7801		-31.250000
7802		-33.203125
7803		-27.343750
7804		-31.250000
7805		-25.390625
7806		-27.343750
7807		-21.484375
7808		-23.437500
7809		-19.531250
7810		-21.484375
7811		-15.625000
7812		-17.578125
7813		-13.671875
7814		-15.625000
7815		-9.765625
7816		-13.671875
7817		-3.906250
7818		-11.718750
7819		-3.906250
7820		-5.859375
7821		0.000000
7822		-3.906250
7823		1.953125
7824		0.000000
7825		5.859375
7826		3.906250
7827		9.765625
7828		5.859375
7829		11.718750
7830		9.765625
7831		13.671875
7832		11.718750
7833		17.578125
7834		13.671875
7835		23.437500
7836		17.578125
7837		23.437500
7838		21.484375
7839		27.343750
7840		23.437500
7841		33.203125
7842		27.343750
7843		33.203125
7844		27.343750
7845		35.156250
7846		33.203125
7847		37.109375
7848		35.156250
7849		42.968750
7850		37.109375
7851		44.921875
7852		41.015625
7853		46.875000
7854		44.921875
7855		50.781250
7856		46.875000
7857		52.734375
7858		46.875000
7859		56.640625
7860		50.781250
7861		58.593750
7862		54.687500
7863		60.546875
7864		58.593750
7865		62.500000
7866		60.546875
7867		66.406250
7868		60.546875
7869		70.312500
7870		64.453125
7871		70.312500
7872		68.359375
7873		72.265625
7874		68.359375
7875		78.125000
7876		72.265625
7877		78.125000
7878		74.218750
7879		80.078125
7880		78.125000
7881		82.031250
7882		78.125000
7883		83.984375
7884		80.078125
7885		87.890625
7886		83.984375
7887		87.890625
7888		85.937500
7889		89.843750
7890		85.937500
7891		95.703125
7892		85.937500
7893		95.703125
7894		89.843750
7895		97.656250
7896		93.750000
7897		97.656250
7898		95.703125
7899		99.609375
7900		95.703125
7901		101.562500
7902		95.703125
7903		103.515625
7904		99.609375
7905		103.515625
7906		101.562500
7907		105.468750
7908		99.609375
7909		109.375000
7910		101.562500
7911		111.328125
7912		105.468750
7913		109.375000
7914		107.421875
7915		111.328125
7916		107.421875
7917		111.328125
7918		107.421875
7919		115.234375
7920		107.421875
7921		115.234375
7922		111.328125
7923		115.234375
7924		109.375000
7925		119.140625
7926		111.328125
7927		117.187500
7928		111.328125
7929		119.140625
7930		115.234375
7931		117.187500
7932		115.234375
7933		119.140625
7934		115.234375
7935		121.093750
7936		115.234375
7937		121.093750
7938		117.187500
7939		119.140625
7940		117.187500
7941		121.093750
7942		115.234375
7943		123.046875
7944		117.187500
7945		123.046875
7946		119.140625
7947		121.093750
7948		119.140625
7949		121.093750
7950		117.187500
7951		123.046875
7952		117.187500
7953		125.000000
7954		119.140625
7955		123.046875
7956		119.140625
7957		121.093750
7958		115.234375
7959		125.000000
7960		117.187500
7961		123.046875
7962		117.187500
7963		121.093750
7964		117.187500
7965		121.093750
7966		117.187500
7967		121.093750
7968		113.281250
7969		123.046875
7970		113.281250
7971		121.093750
7972		115.234375
7973		119.140625
7974		111.328125
7975		121.093750
7976		111.328125
7977		121.093750
7978		109.375000
7979		117.187500
7980		111.328125
7981		115.234375
7982		111.328125
7983		115.234375
7984		109.375000
7985		115.234375
7986		107.421875
7987		115.234375
7988		107.421875
7989		111.328125
7990		107.421875
7991		111.328125
7992		101.562500
7993		111.328125
7994		101.562500
7995		109.375000
7996		103.515625
7997		107.421875
7998		101.562500
7999		105.468750
8000		99.609375
8001		103.515625
8002		95.703125
8003		103.515625
8004		95.703125
8005		101.562500
8006		95.703125
8007		99.609375
8008		89.843750
8009		99.609375
8010		89.843750
8011		97.656250
8012		87.890625
8013		95.703125
8014		87.890625
8015		91.796875
8016		83.984375
8017		89.843750
8018		80.078125
8019		87.890625
8020		80.078125
8021		85.937500
8022		78.125000
8023		83.984375
8024		76.171875
8025		82.031250
8026		74.218750
8027		78.125000
8028		70.312500
8029		78.125000
8030		70.312500
8031		74.218750
8032		66.406250
8033		72.265625
8034		64.453125
8035		70.312500
8036		60.546875
8037		68.359375
8038		60.546875
8039		66.406250
8040		56.640625
8041		62.500000
8042		54.687500
8043		60.546875
8044		52.734375
8045		56.640625
8046		48.828125
8047		54.687500
8048		46.875000
8049		50.781250
8050		42.968750
8051		48.828125
8052		41.015625
8053		44.921875
8054		37.109375
8055		44.921875
8056		35.156250
8057		39.062500
8058		31.250000
8059		37.109375
8060		29.296875
8061		33.203125
8062		25.390625
8063		31.250000
8064		23.437500
8065		27.343750
8066		19.531250
8067		25.390625
8068		15.625000
8069		23.437500
8070		13.671875
8071		19.531250
8072		11.718750
8073		15.625000
8074		7.812500
8075		13.671875
8076		3.906250
8077		9.765625
8078		1.953125
8079		7.812500
8080		-1.953125
8081		3.906250
8082		-3.906250
8083		0.000000
8084		-7.812500
8085		-1.953125
8086		-9.765625
8087		-5.859375
8088		-13.671875
8089		-7.812500
8090		-17.578125
8091		-11.718750
8092		-19.531250
8093		-13.671875
8094		-21.484375
8095		-17.578125
8096		-25.390625
8097		-21.484375
8098		-29.296875
8099		-23.437500
8100		-33.203125
8101		-27.343750
8102		-35.156250
8103		-29.296875
8104		-39.062500
8105		-31.250000
8106		-41.015625
8107		-35.156250
8108		-44.921875
8109		-37.109375
8110		-46.875000
8111		-39.062500
8112		-48.828125
8113		-42.968750
8114		-50.781250
8115		-46.875000
8116		-54.687500
8117		-48.828125
8118		-58.593750
8119		-52.734375
8120		-60.546875
8121		-54.687500
8122		-62.500000
8123		-56.640625
8124		-64.453125
8125		-58.593750
8126		-68.359375
8127		-60.546875
8128		-70.312500
8129		-64.453125
8130		-72.265625
8131		-66.406250
8132		-74.218750
8133		-70.312500
8134		-76.171875
8135		-72.265625
8136		-80.078125
8137		-72.265625
8138		-82.031250
8139		-76.171875
8140		-85.937500
8141		-78.125000
8142		-85.937500
8143		-80.078125
8144		-87.890625
8145		-80.078125
8146		-89.843750
8147		-83.984375
8148		-89.843750
8149		-85.937500
8150		-91.796875
8151		-87.890625
8152		-93.750000
8153		-89.843750
8154		-95.703125
8155		-89.843750
8156		-99.609375
8157		-91.796875
8158		-99.609375
8159		-93.750000
8160		-99.609375
8161		-95.703125
8162		-101.562500
8163		-95.703125
8164		-101.562500
8165		-97.656250
8166		-103.515625
8167		-99.609375
8168		-105.468750
8169		-99.609375
8170		-105.468750
8171		-101.562500
8172		-107.421875
8173		-101.562500
8174		-107.421875
8175		-101.562500
8176		-107.421875
8177		-103.515625
8178		-109.375000
8179		-103.515625
8180		-109.375000
8181		-103.515625
8182		-109.375000
8183		-105.468750
8184		-109.375000
8185		-105.468750
8186		-109.375000
8187		-105.468750
8188		-109.375000
8189		-105.468750
8190		-111.328125
8191		-105.468750
8192		-109.375000
8193		-105.468750
8194		-109.375000
8195		-103.515625
8196		-109.375000
8197		-103.515625
8198		-107.421875
8199		-105.468750
8200		-107.421875
8201		-103.515625
8202		-107.421875
8203		-103.515625
8204		-107.421875
8205		-101.562500
8206		-107.421875
8207		-101.562500
8208		-107.421875
8209		-99.609375
8210		-103.515625
8211		-99.609375
8212		-103.515625
8213		-97.656250
8214		-101.562500
8215		-97.656250
8216		-99.609375
8217		-95.703125
8218		-99.609375
8219		-93.750000
8220		-97.656250
8221		-93.750000
8222		-95.703125
8223		-91.796875
8224		-95.703125
8225		-89.843750
8226		-93.750000
8227		-89.843750
8228		-91.796875
8229		-85.937500
8230		-89.843750
8231		-85.937500
8232		-87.890625
8233		-83.984375
8234		-85.937500
8235		-82.031250
8236		-85.937500
8237		-80.078125
8238		-82.031250
8239		-76.171875
8240		-80.078125
8241		-74.218750
8242		-78.125000
8243		-72.265625
8244		-76.171875
8245		-70.312500
8246		-72.265625
8247		-68.359375
8248		-70.312500
8249		-66.406250
8250		-68.359375
8251		-62.500000
8252		-64.453125
8253		-60.546875
8254		-62.500000
8255		-58.593750
8256		-60.546875
8257		-54.687500
8258		-58.593750
8259		-52.734375
8260		-54.687500
8261		-48.828125
8262		-52.734375
8263		-46.875000
8264		-50.781250
8265		-44.921875
8266		-46.875000
8267		-41.015625
8268		-42.968750
8269		-39.062500
8270		-41.015625
8271		-35.156250
8272		-37.109375
8273		-33.203125
8274		-35.156250
8275		-29.296875
8276		-31.250000
8277		-27.343750
8278		-29.296875
8279		-23.437500
8280		-25.390625
8281		-19.531250
8282		-23.437500
8283		-17.578125
8284		-19.531250
8285		-15.625000
8286		-15.625000
8287		-11.718750
8288		-13.671875
8289		-7.812500
8290		-11.718750
8291		-5.859375
8292		-7.812500
8293		-1.953125
8294		-3.906250
8295		0.000000
8296		-1.953125
8297		3.906250
8298		1.953125
8299		7.812500
8300		5.859375
8301		9.765625
8302		7.812500
8303		13.671875
8304		11.718750
8305		15.625000
8306		13.671875
8307		19.531250
8308		15.625000
8309		21.484375
8310		19.531250
8311		25.390625
8312		23.437500
8313		27.343750
8314		25.390625
8315		31.250000
8316		27.343750
8317		35.156250
8318		31.250000
8319		37.109375
8320		33.203125
8321		39.062500
8322		37.109375
8323		42.968750
8324		41.015625
8325		44.921875
8326		42.968750
8327		48.828125
8328		44.921875
8329		50.781250
8330		48.828125
8331		54.687500
8332		48.828125
8333		56.640625
8334		54.687500
8335		58.593750
8336		56.640625
8337		60.546875
8338		58.593750
8339		64.453125
8340		62.500000
8341		66.406250
8342		62.500000
8343		68.359375
8344		66.406250
8345		70.312500
8346		68.359375
8347		74.218750
8348		70.312500
8349		76.171875
8350		72.265625
8351		78.125000
8352		76.171875
8353		80.078125
8354		78.125000
8355		82.031250
8356		80.078125
8357		83.984375
8358		82.031250
8359		85.937500
8360		83.984375
8361		87.890625
8362		85.937500
8363		89.843750
8364		87.890625
8365		93.750000
8366		89.843750
8367		93.750000
8368		91.796875
8369		95.703125
8370		93.750000
8371		97.656250
8372		95.703125
8373		99.609375
8374		95.703125
8375		101.562500
8376		97.656250
8377		101.562500
8378		99.609375
8379		103.515625
8380		99.609375
8381		105.468750
8382		101.562500
8383		107.421875
8384		103.515625
8385		107.421875
8386		105.468750
8387		109.375000
8388		105.468750
8389		111.328125
8390		107.421875
8391		111.328125
8392		107.421875
8393		113.281250
8394		109.375000
8395		113.281250
8396		109.375000
8397		115.234375
8398		111.328125
8399		115.234375
8400		113.281250
8401		115.234375
8402		113.281250
8403		117.187500
8404		113.281250
8405		117.187500
8406		113.281250
8407		117.187500
8408		115.234375
8409		119.140625
8410		115.234375
8411		119.140625
8412		115.234375
8413		119.140625
8414		117.187500
8415		119.140625
8416		115.234375
8417		119.140625
8418		117.187500
8419		119.140625
8420		117.187500
8421		121.093750
8422		117.187500
8423		121.093750
8424		117.187500
8425		121.093750
8426		117.187500
8427		121.093750
8428		117.187500
8429		121.093750
8430		115.234375
8431		121.093750
8432		117.187500
8433		121.093750
8434		115.234375
8435		119.140625
8436		115.234375
8437		119.140625
8438		115.234375
8439		119.140625
8440		115.234375
8441		119.140625
8442		113.281250
8443		117.187500
8444		113.281250
8445		117.187500
8446		113.281250
8447		117.187500
8448		111.328125
8449		115.234375
8450		111.328125
8451		115.234375
8452		111.328125
8453		113.281250
8454		109.375000
8455		113.281250
8456		107.421875
8457		111.328125
8458		107.421875
8459		111.328125
8460		105.468750
8461		109.375000
8462		105.468750
8463		109.375000
8464		103.515625
8465		107.421875
8466		101.562500
8467		105.468750
8468		99.609375
8469		105.468750
8470		99.609375
8471		103.515625
8472		97.656250
8473		101.562500
8474		95.703125
8475		99.609375
8476		93.750000
8477		99.609375
8478		93.750000
8479		97.656250
8480		91.796875
8481		95.703125
8482		87.890625
8483		93.750000
8484		87.890625
8485		91.796875
8486		85.937500
8487		89.843750
8488		83.984375
8489		87.890625
8490		82.031250
8491		85.937500
8492		80.078125
8493		83.984375
8494		76.171875
8495		82.031250
8496		74.218750
8497		80.078125
8498		72.265625
8499		76.171875
8500		70.312500
8501		74.218750
8502		68.359375
8503		72.265625
8504		64.453125
8505		70.312500
8506		62.500000
8507		66.406250
8508		60.546875
8509		64.453125
8510		56.640625
8511		62.500000
8512		54.687500
8513		58.593750
8514		52.734375
8515		56.640625
8516		48.828125
8517		54.687500
8518		46.875000
8519		50.781250
8520		42.968750
8521		48.828125
8522		41.015625
8523		46.875000
8524		37.109375
8525		42.968750
8526		35.156250
8527		41.015625
8528		33.203125
8529		37.109375
8530		29.296875
8531		35.156250
8532		25.390625
8533		31.250000
8534		23.437500
8535		29.296875
8536		19.531250
8537		25.390625
8538		17.578125
8539		23.437500
8540		13.671875
8541		19.531250
8542		11.718750
8543		17.578125
8544		7.812500
8545		13.671875
8546		5.859375
8547		9.765625
8548		1.953125
8549		7.812500
8550		0.000000
8551		3.906250
8552		-3.906250
8553		1.953125
8554		-7.812500
8555		0.000000
8556		-11.718750
8557		-3.906250
8558		-13.671875
8559		-7.812500
8560		-15.625000
8561		-11.718750
8562		-19.531250
8563		-13.671875
8564		-21.484375
8565		-17.578125
8566		-25.390625
8567		-19.531250
8568		-29.296875
8569		-23.437500
8570		-31.250000
8571		-25.390625
8572		-35.156250
8573		-29.296875
8574		-37.109375
8575		-31.250000
8576		-39.062500
8577		-35.156250
8578		-42.968750
8579		-37.109375
8580		-46.875000
8581		-41.015625
8582		-48.828125
8583		-42.968750
8584		-50.781250
8585		-44.921875
8586		-54.687500
8587		-48.828125
8588		-56.640625
8589		-52.734375
8590		-60.546875
8591		-54.687500
8592		-62.500000
8593		-56.640625
8594		-64.453125
8595		-60.546875
8596		-66.406250
8597		-62.500000
8598		-70.312500
8599		-64.453125
8600		-72.265625
8601		-68.359375
8602		-74.218750
8603		-70.312500
8604		-76.171875
8605		-72.265625
8606		-78.125000
8607		-74.218750
8608		-82.031250
8609		-76.171875
8610		-83.984375
8611		-78.125000
8612		-85.937500
8613		-80.078125
8614		-87.890625
8615		-82.031250
8616		-89.843750
8617		-83.984375
8618		-91.796875
8619		-85.937500
8620		-91.796875
8621		-87.890625
8622		-93.750000
8623		-89.843750
8624		-95.703125
8625		-91.796875
8626		-97.656250
8627		-93.750000
8628		-99.609375
8629		-93.750000
8630		-101.562500
8631		-95.703125
8632		-101.562500
8633		-97.656250
8634		-101.562500
8635		-97.656250
8636		-103.515625
8637		-99.609375
8638		-103.515625
8639		-101.562500
8640		-105.468750
8641		-101.562500
8642		-105.468750
8643		-101.562500
8644		-107.421875
8645		-101.562500
8646		-107.421875
8647		-103.515625
8648		-109.375000
8649		-103.515625
8650		-109.375000
8651		-103.515625
8652		-109.375000
8653		-105.468750
8654		-109.375000
8655		-105.468750
8656		-109.375000
8657		-105.468750
8658		-109.375000
8659		-105.468750
8660		-109.375000
8661		-105.468750
8662		-109.375000
8663		-105.468750
8664		-109.375000
8665		-105.468750
8666		-109.375000
8667		-105.468750
8668		-107.421875
8669		-105.468750
8670		-107.421875
8671		-103.515625
8672		-107.421875
8673		-103.515625
8674		-107.421875
8675		-103.515625
8676		-105.468750
8677		-101.562500
8678		-105.468750
8679		-101.562500
8680		-103.515625
8681		-99.609375
8682		-103.515625
8683		-99.609375
8684		-101.562500
8685		-99.609375
8686		-101.562500
8687		-97.656250
8688		-99.609375
8689		-95.703125
8690		-97.656250
8691		-93.750000
8692		-97.656250
8693		-93.750000
8694		-95.703125
8695		-91.796875
8696		-93.750000
8697		-89.843750
8698		-91.796875
8699		-87.890625
8700		-89.843750
8701		-85.937500
8702		-89.843750
8703		-83.984375
8704		-85.937500
8705		-82.031250
8706		-85.937500
8707		-80.078125
8708		-82.031250
8709		-78.125000
8710		-80.078125
8711		-76.171875
8712		-78.125000
8713		-74.218750
8714		-76.171875
8715		-72.265625
8716		-74.218750
8717		-70.312500
8718		-72.265625
8719		-66.406250
8720		-68.359375
8721		-64.453125
8722		-66.406250
8723		-60.546875
8724		-64.453125
8725		-58.593750
8726		-62.500000
8727		-56.640625
8728		-58.593750
8729		-54.687500
8730		-56.640625
8731		-50.781250
8732		-52.734375
8733		-48.828125
8734		-50.781250
8735		-44.921875
8736		-46.875000
8737		-42.968750
8738		-44.921875
8739		-39.062500
8740		-42.968750
8741		-37.109375
8742		-39.062500
8743		-35.156250
8744		-37.109375
8745		-31.250000
8746		-33.203125
8747		-29.296875
8748		-31.250000
8749		-25.390625
8750		-27.343750
8751		-21.484375
8752		-25.390625
8753		-19.531250
8754		-21.484375
8755		-15.625000
8756		-17.578125
8757		-13.671875
8758		-15.625000
8759		-9.765625
8760		-13.671875
8761		-7.812500
8762		-9.765625
8763		-3.906250
8764		-7.812500
8765		0.000000
8766		-1.953125
8767		1.953125
8768		0.000000
8769		5.859375
8770		3.906250
8771		7.812500
8772		5.859375
8773		11.718750
8774		7.812500
8775		13.671875
8776		11.718750
8777		17.578125
8778		15.625000
8779		19.531250
8780		17.578125
8781		23.437500
8782		21.484375
8783		27.343750
8784		23.437500
8785		29.296875
8786		25.390625
8787		31.250000
8788		29.296875
8789		35.156250
8790		33.203125
8791		37.109375
8792		35.156250
8793		41.015625
8794		39.062500
8795		42.968750
8796		41.015625
8797		46.875000
8798		44.921875
8799		48.828125
8800		46.875000
8801		52.734375
8802		48.828125
8803		54.687500
8804		52.734375
8805		56.640625
8806		54.687500
8807		60.546875
8808		56.640625
8809		62.500000
8810		60.546875
8811		64.453125
8812		62.500000
8813		66.406250
8814		64.453125
8815		70.312500
8816		68.359375
8817		72.265625
8818		70.312500
8819		74.218750
8820		72.265625
8821		76.171875
8822		74.218750
8823		78.125000
8824		76.171875
8825		82.031250
8826		78.125000
8827		83.984375
8828		80.078125
8829		85.937500
8830		82.031250
8831		87.890625
8832		83.984375
8833		89.843750
8834		85.937500
8835		91.796875
8836		87.890625
8837		93.750000
8838		89.843750
8839		93.750000
8840		91.796875
8841		95.703125
8842		93.750000
8843		97.656250
8844		95.703125
8845		99.609375
8846		97.656250
8847		101.562500
8848		99.609375
8849		103.515625
8850		99.609375
8851		103.515625
8852		101.562500
8853		105.468750
8854		103.515625
8855		107.421875
8856		103.515625
8857		107.421875
8858		105.468750
8859		109.375000
8860		105.468750
8861		109.375000
8862		107.421875
8863		111.328125
8864		109.375000
8865		113.281250
8866		109.375000
8867		113.281250
8868		111.328125
8869		113.281250
8870		111.328125
8871		115.234375
8872		113.281250
8873		115.234375
8874		111.328125
8875		117.187500
8876		113.281250
8877		117.187500
8878		115.234375
8879		117.187500
8880		115.234375
8881		117.187500
8882		115.234375
8883		119.140625
8884		115.234375
8885		119.140625
8886		115.234375
8887		119.140625
8888		115.234375
8889		119.140625
8890		117.187500
8891		119.140625
8892		115.234375
8893		119.140625
8894		117.187500
8895		121.093750
8896		117.187500
8897		119.140625
8898		115.234375
8899		119.140625
8900		115.234375
8901		119.140625
8902		115.234375
8903		119.140625
8904		115.234375
8905		119.140625
8906		115.234375
8907		119.140625
8908		115.234375
8909		119.140625
8910		115.234375
8911		117.187500
8912		113.281250
8913		117.187500
8914		113.281250
8915		117.187500
8916		111.328125
8917		115.234375
8918		111.328125
8919		115.234375
8920		111.328125
8921		115.234375
8922		109.375000
8923		113.281250
8924		109.375000
8925		113.281250
8926		107.421875
8927		111.328125
8928		107.421875
8929		111.328125
8930		105.468750
8931		111.328125
8932		105.468750
8933		107.421875
8934		103.515625
8935		107.421875
8936		101.562500
8937		105.468750
8938		99.609375
8939		103.515625
8940		99.609375
8941		103.515625
8942		97.656250
8943		101.562500
8944		95.703125
8945		99.609375
8946		93.750000
8947		97.656250
8948		91.796875
8949		97.656250
8950		89.843750
8951		93.750000
8952		89.843750
8953		93.750000
8954		87.890625
8955		91.796875
8956		83.984375
8957		89.843750
8958		82.031250
8959		87.890625
8960		80.078125
8961		85.937500
8962		78.125000
8963		83.984375
8964		76.171875
8965		80.078125
8966		74.218750
8967		78.125000
8968		72.265625
8969		76.171875
8970		70.312500
8971		74.218750
8972		66.406250
8973		72.265625
8974		64.453125
8975		70.312500
8976		62.500000
8977		66.406250
8978		60.546875
8979		64.453125
8980		56.640625
8981		62.500000
8982		54.687500
8983		58.593750
8984		50.781250
8985		56.640625
8986		48.828125
8987		54.687500
8988		46.875000
8989		50.781250
8990		42.968750
8991		48.828125
8992		41.015625
8993		46.875000
8994		37.109375
8995		42.968750
8996		35.156250
8997		41.015625
8998		33.203125
8999		37.109375
9000		29.296875
9001		35.156250
9002		25.390625
9003		31.250000
9004		23.437500
9005		29.296875
9006		19.531250
9007		25.390625
9008		15.625000
9009		21.484375
9010		13.671875
9011		19.531250
9012		9.765625
9013		15.625000
9014		7.812500
9015		13.671875
9016		5.859375
9017		9.765625
9018		1.953125
9019		7.812500
9020		-1.953125
9021		3.906250
9022		-3.906250
9023		1.953125
9024		-7.812500
9025		-1.953125
9026		-9.765625
9027		-3.906250
9028		-13.671875
9029		-7.812500
9030		-17.578125
9031		-11.718750
9032		-19.531250
9033		-13.671875
9034		-21.484375
9035		-17.578125
9036		-25.390625
9037		-19.531250
9038		-29.296875
9039		-23.437500
9040		-31.250000
9041		-25.390625
9042		-33.203125
9043		-29.296875
9044		-37.109375
9045		-31.250000
9046		-39.062500
9047		-35.156250
9048		-42.968750
9049		-37.109375
9050		-44.921875
9051		-41.015625
9052		-48.828125
9053		-42.968750
9054		-50.781250
9055		-46.875000
9056		-52.734375
9057		-48.828125
9058		-58.593750
9059		-50.781250
9060		-60.546875
9061		-54.687500
9062		-62.500000
9063		-56.640625
9064		-64.453125
9065		-58.593750
9066		-66.406250
9067		-62.500000
9068		-70.312500
9069		-64.453125
9070		-72.265625
9071		-66.406250
9072		-74.218750
9073		-68.359375
9074		-76.171875
9075		-72.265625
9076		-78.125000
9077		-72.265625
9078		-80.078125
9079		-76.171875
9080		-82.031250
9081		-78.125000
9082		-83.984375
9083		-80.078125
9084		-85.937500
9085		-82.031250
9086		-87.890625
9087		-83.984375
9088		-89.843750
9089		-85.937500
9090		-91.796875
9091		-87.890625
9092		-93.750000
9093		-89.843750
9094		-95.703125
9095		-89.843750
9096		-97.656250
9097		-91.796875
9098		-97.656250
9099		-93.750000
9100		-99.609375
9101		-95.703125
9102		-101.562500
9103		-95.703125
9104		-101.562500
9105		-97.656250
9106		-101.562500
9107		-99.609375
9108		-103.515625
9109		-99.609375
9110		-105.468750
9111		-99.609375
9112		-105.468750
9113		-101.562500
9114		-105.468750
9115		-103.515625
9116		-107.421875
9117		-101.562500
9118		-107.421875
9119		-103.515625
9120		-107.421875
9121		-103.515625
9122		-109.375000
9123		-103.515625
9124		-109.375000
9125		-105.468750
9126		-109.375000
9127		-105.468750
9128		-109.375000
9129		-105.468750
9130		-109.375000
9131		-105.468750
9132		-109.375000
9133		-105.468750
9134		-109.375000
9135		-105.468750
9136		-109.375000
9137		-105.468750
9138		-109.375000
9139		-105.468750
9140		-107.421875
9141		-103.515625
9142		-107.421875
9143		-103.515625
9144		-107.421875
9145		-103.515625
9146		-105.468750
9147		-103.515625
9148		-105.468750
9149		-101.562500
9150		-105.468750
9151		-101.562500
9152		-103.515625
9153		-99.609375
9154		-103.515625
9155		-97.656250
9156		-101.562500
9157		-97.656250
9158		-99.609375
9159		-95.703125
9160		-99.609375
9161		-95.703125
9162		-99.609375
9163		-93.750000
9164		-95.703125
9165		-91.796875
9166		-95.703125
9167		-89.843750
9168		-93.750000
9169		-89.843750
9170		-91.796875
9171		-87.890625
9172		-89.843750
9173		-85.937500
9174		-87.890625
9175		-83.984375
9176		-85.937500
9177		-82.031250
9178		-83.984375
9179		-80.078125
9180		-82.031250
9181		-78.125000
9182		-80.078125
9183		-76.171875
9184		-78.125000
9185		-72.265625
9186		-76.171875
9187		-70.312500
9188		-72.265625
9189		-68.359375
9190		-70.312500
9191		-66.406250
9192		-68.359375
9193		-62.500000
9194		-66.406250
9195		-60.546875
9196		-64.453125
9197		-58.593750
9198		-60.546875
9199		-56.640625
9200		-58.593750
9201		-52.734375
9202		-54.687500
9203		-50.781250
9204		-52.734375
9205		-46.875000
9206		-50.781250
9207		-44.921875
9208		-46.875000
9209		-42.968750
9210		-44.921875
9211		-39.062500
9212		-41.015625
9213		-37.109375
9214		-39.062500
9215		-33.203125
9216		-35.156250
9217		-31.250000
9218		-33.203125
9219		-27.343750
9220		-29.296875
9221		-23.437500
9222		-27.343750
9223		-21.484375
9224		-23.437500
9225		-17.578125
9226		-21.484375
9227		-15.625000
9228		-19.531250
9229		-11.718750
9230		-15.625000
9231		-9.765625
9232		-11.718750
9233		-5.859375
9234		-7.812500
9235		-3.906250
9236		-5.859375
9237		0.000000
9238		-1.953125
9239		3.906250
9240		0.000000
9241		5.859375
9242		3.906250
9243		9.765625
9244		7.812500
9245		11.718750
9246		9.765625
9247		15.625000
9248		13.671875
9249		17.578125
9250		15.625000
9251		21.484375
9252		19.531250
9253		25.390625
9254		21.484375
9255		27.343750
9256		25.390625
9257		29.296875
9258		27.343750
9259		33.203125
9260		31.250000
9261		35.156250
9262		33.203125
9263		39.062500
9264		37.109375
9265		41.015625
9266		39.062500
9267		44.921875
9268		41.015625
9269		46.875000
9270		44.921875
9271		48.828125
9272		46.875000
9273		52.734375
9274		50.781250
9275		54.687500
9276		52.734375
9277		58.593750
9278		54.687500
9279		60.546875
9280		58.593750
9281		62.500000
9282		60.546875
9283		66.406250
9284		62.500000
9285		68.359375
9286		66.406250
9287		70.312500
9288		68.359375
9289		72.265625
9290		68.359375
9291		74.218750
9292		72.265625
9293		78.125000
9294		74.218750
9295		80.078125
9296		76.171875
9297		82.031250
9298		80.078125
9299		83.984375
9300		82.031250
9301		85.937500
9302		83.984375
9303		87.890625
9304		85.937500
9305		89.843750
9306		87.890625
9307		91.796875
9308		89.843750
9309		93.750000
9310		91.796875
9311		95.703125
9312		91.796875
9313		97.656250
9314		93.750000
9315		99.609375
9316		95.703125
9317		99.609375
9318		97.656250
9319		101.562500
9320		99.609375
9321		103.515625
9322		101.562500
9323		105.468750
9324		101.562500
9325		105.468750
9326		103.515625
9327		107.421875
9328		105.468750
9329		109.375000
9330		105.468750
9331		109.375000
9332		107.421875
9333		111.328125
9334		107.421875
9335		111.328125
9336		109.375000
9337		113.281250
9338		109.375000
9339		113.281250
9340		111.328125
9341		115.234375
9342		111.328125
9343		115.234375
9344		113.281250
9345		117.187500
9346		113.281250
9347		117.187500
9348		113.281250
9349		117.187500
9350		115.234375
9351		119.140625
9352		115.234375
9353		119.140625
9354		115.234375
9355		119.140625
9356		115.234375
9357		119.140625
9358		117.187500
9359		119.140625
9360		117.187500
9361		119.140625
9362		115.234375
9363		121.093750
9364		117.187500
9365		119.140625
9366		117.187500
9367		119.140625
9368		115.234375
9369		119.140625
9370		117.187500
9371		119.140625
9372		117.187500
9373		119.140625
9374		115.234375
9375		119.140625
9376		115.234375
9377		119.140625
9378		115.234375
9379		119.140625
9380		115.234375
9381		119.140625
9382		115.234375
9383		117.187500
9384		113.281250
9385		117.187500
9386		113.281250
9387		117.187500
9388		113.281250
9389		117.187500
9390		111.328125
9391		115.234375
9392		111.328125
9393		115.234375
9394		109.375000
9395		113.281250
9396		109.375000
9397		113.281250
9398		107.421875
9399		111.328125
9400		107.421875
9401		111.328125
9402		105.468750
9403		109.375000
9404		105.468750
9405		109.375000
9406		103.515625
9407		107.421875
9408		101.562500
9409		105.468750
9410		99.609375
9411		105.468750
9412		97.656250
9413		103.515625
9414		97.656250
9415		101.562500
9416		93.750000
9417		101.562500
9418		93.750000
9419		99.609375
9420		91.796875
9421		95.703125
9422		89.843750
9423		95.703125
9424		89.843750
9425		93.750000
9426		87.890625
9427		91.796875
9428		83.984375
9429		89.843750
9430		82.031250
9431		87.890625
9432		80.078125
9433		85.937500
9434		78.125000
9435		83.984375
9436		76.171875
9437		80.078125
9438		74.218750
9439		78.125000
9440		70.312500
9441		76.171875
9442		70.312500
9443		74.218750
9444		66.406250
9445		72.265625
9446		62.500000
9447		70.312500
9448		60.546875
9449		68.359375
9450		56.640625
9451		64.453125
9452		56.640625
9453		62.500000
9454		54.687500
9455		60.546875
9456		50.781250
9457		56.640625
9458		48.828125
9459		54.687500
9460		44.921875
9461		50.781250
9462		41.015625
9463		48.828125
9464		39.062500
9465		46.875000
9466		35.156250
9467		44.921875
9468		35.156250
9469		41.015625
9470		31.250000
9471		37.109375
9472		29.296875
9473		35.156250
9474		25.390625
9475		31.250000
9476		23.437500
9477		27.343750
9478		19.531250
9479		25.390625
9480		13.671875
9481		21.484375
9482		13.671875
9483		21.484375
9484		9.765625
9485		17.578125
9486		5.859375
9487		13.671875
9488		3.906250
9489		9.765625
9490		1.953125
9491		7.812500
9492		-1.953125
9493		3.906250
9494		-3.906250
9495		0.000000
9496		-9.765625
9497		-1.953125
9498		-11.718750
9499		-3.906250
9500		-15.625000
9501		-7.812500
9502		-19.531250
9503		-9.765625
9504		-21.484375
9505		-13.671875
9506		-23.437500
9507		-17.578125
9508		-25.390625
9509		-21.484375
9510		-29.296875
9511		-23.437500
9512		-33.203125
9513		-27.343750
9514		-35.156250
9515		-27.343750
9516		-39.062500
9517		-31.250000
9518		-42.968750
9519		-33.203125
9520		-44.921875
9521		-37.109375
9522		-46.875000
9523		-39.062500
9524		-50.781250
9525		-42.968750
9526		-50.781250
9527		-46.875000
9528		-54.687500
9529		-48.828125
9530		-58.593750
9531		-50.781250
9532		-60.546875
9533		-54.687500
9534		-64.453125
9535		-56.640625
9536		-66.406250
9537		-58.593750
9538		-68.359375
9539		-60.546875
9540		-70.312500
9541		-62.500000
9542		-72.265625
9543		-66.406250
9544		-74.218750
9545		-70.312500
9546		-78.125000
9547		-72.265625
9548		-80.078125
9549		-72.265625
9550		-82.031250
9551		-74.218750
9552		-83.984375
9553		-76.171875
9554		-85.937500
9555		-80.078125
9556		-87.890625
9557		-80.078125
9558		-87.890625
9559		-82.031250
9560		-89.843750
9561		-85.937500
9562		-91.796875
9563		-87.890625
9564		-95.703125
9565		-87.890625
9566		-97.656250
9567		-89.843750
9568		-97.656250
9569		-91.796875
9570		-99.609375
9571		-93.750000
9572		-101.562500
9573		-93.750000
9574		-101.562500
9575		-95.703125
9576		-101.562500
9577		-97.656250
9578		-103.515625
9579		-99.609375
9580		-105.468750
9581		-99.609375
9582		-105.468750
9583		-99.609375
9584		-107.421875
9585		-99.609375
9586		-109.375000
9587		-101.562500
9588		-109.375000
9589		-101.562500
9590		-109.375000
9591		-103.515625
9592		-109.375000
9593		-103.515625
9594		-109.375000
9595		-105.468750
9596		-109.375000
9597		-105.468750
9598		-111.328125
9599		-103.515625
9600		-111.328125
9601		-103.515625
9602		-111.328125
9603		-103.515625
9604		-111.328125
9605		-103.515625
9606		-111.328125
9607		-103.515625
9608		-111.328125
9609		-103.515625
9610		-109.375000
9611		-105.468750
9612		-107.421875
9613		-105.468750
9614		-109.375000
9615		-101.562500
9616		-109.375000
9617		-101.562500
9618		-109.375000
9619		-99.609375
9620		-107.421875
9621		-99.609375
9622		-107.421875
9623		-99.609375
9624		-105.468750
9625		-97.656250
9626		-103.515625
9627		-97.656250
9628		-101.562500
9629		-97.656250
9630		-101.562500
9631		-95.703125
9632		-101.562500
9633		-93.750000
9634		-99.609375
9635		-91.796875
9636		-97.656250
9637		-89.843750
9638		-95.703125
9639		-87.890625
9640		-95.703125
9641		-85.937500
9642		-93.750000
9643		-85.937500
9644		-89.843750
9645		-85.937500
9646		-87.890625
9647		-83.984375
9648		-87.890625
9649		-78.125000
9650		-85.937500
9651		-78.125000
9652		-83.984375
9653		-76.171875
9654		-82.031250
9655		-72.265625
9656		-78.125000
9657		-72.265625
9658		-78.125000
9659		-68.359375
9660		-72.265625
9661		-68.359375
9662		-70.312500
9663		-66.406250
9664		-68.359375
9665		-62.500000
9666		-66.406250
9667		-58.593750
9668		-64.453125
9669		-56.640625
9670		-60.546875
9671		-54.687500
9672		-58.593750
9673		-50.781250
9674		-56.640625
9675		-48.828125
9676		-52.734375
9677		-46.875000
9678		-48.828125
9679		-44.921875
9680		-44.921875
9681		-39.062500
9682		-44.921875
9683		-37.109375
9684		-42.968750
9685		-33.203125
9686		-39.062500
9687		-29.296875
9688		-35.156250
9689		-27.343750
9690		-33.203125
9691		-23.437500
9692		-31.250000
9693		-23.437500
9694		-25.390625
9695		-19.531250
9696		-23.437500
9697		-17.578125
9698		-19.531250
9699		-13.671875
9700		-17.578125
9701		-9.765625
9702		-15.625000
9703		-5.859375
9704		-13.671875
9705		-1.953125
9706		-7.812500
9707		-1.953125
9708		-5.859375
9709		1.953125
9710		-1.953125
9711		3.906250
9712		1.953125
9713		7.812500
9714		5.859375
9715		11.718750
9716		7.812500
9717		15.625000
9718		9.765625
9719		17.578125
9720		11.718750
9721		21.484375
9722		15.625000
9723		25.390625
9724		19.531250
9725		25.390625
9726		21.484375
9727		29.296875
9728		25.390625
9729		31.250000
9730		29.296875
9731		35.156250
9732		31.250000
9733		39.062500
9734		33.203125
9735		41.015625
9736		37.109375
9737		44.921875
9738		39.062500
9739		46.875000
9740		42.968750
9741		48.828125
9742		44.921875
9743		52.734375
9744		48.828125
9745		54.687500
9746		50.781250
9747		56.640625
9748		54.687500
9749		58.593750
9750		54.687500
9751		62.500000
9752		58.593750
9753		66.406250
9754		60.546875
9755		68.359375
9756		62.500000
9757		70.312500
9758		64.453125
9759		72.265625
9760		68.359375
9761		74.218750
9762		72.265625
9763		76.171875
9764		74.218750
9765		78.125000
9766		74.218750
9767		82.031250
9768		76.171875
9769		83.984375
9770		78.125000
9771		85.937500
9772		80.078125
9773		87.890625
9774		82.031250
9775		89.843750
9776		83.984375
9777		91.796875
9778		87.890625
9779		91.796875
9780		89.843750
9781		93.750000
9782		91.796875
9783		97.656250
9784		91.796875
9785		97.656250
9786		93.750000
9787		99.609375
9788		95.703125
9789		101.562500
9790		97.656250
9791		103.515625
9792		97.656250
9793		103.515625
9794		99.609375
9795		105.468750
9796		103.515625
9797		107.421875
9798		103.515625
9799		109.375000
9800		103.515625
9801		109.375000
9802		103.515625
9803		111.328125
9804		105.468750
9805		113.281250
9806		105.468750
9807		113.281250
9808		107.421875
9809		115.234375
9810		107.421875
9811		115.234375
9812		111.328125
9813		113.281250
9814		111.328125
9815		115.234375
9816		111.328125
9817		117.187500
9818		111.328125
9819		119.140625
9820		111.328125
9821		119.140625
9822		113.281250
9823		119.140625
9824		113.281250
9825		119.140625
9826		113.281250
9827		119.140625
9828		115.234375
9829		119.140625
9830		115.234375
9831		119.140625
9832		113.281250
9833		121.093750
9834		113.281250
9835		121.093750
9836		113.281250
9837		121.093750
9838		113.281250
9839		121.093750
9840		115.234375
9841		121.093750
9842		113.281250
9843		121.093750
9844		113.281250
9845		121.093750
9846		115.234375
9847		119.140625
9848		115.234375
9849		117.187500
9850		113.281250
9851		121.093750
9852		111.328125
9853		119.140625
9854		111.328125
9855		119.140625
9856		111.328125
9857		119.140625
9858		111.328125
9859		117.187500
9860		109.375000
9861		117.187500
9862		111.328125
9863		115.234375
9864		109.375000
9865		113.281250
9866		107.421875
9867		113.281250
9868		105.468750
9869		115.234375
9870		105.468750
9871		113.281250
9872		103.515625
9873		111.328125
9874		103.515625
9875		109.375000
9876		101.562500
9877		109.375000
9878		101.562500
9879		107.421875
9880		101.562500
9881		105.468750
9882		97.656250
9883		103.515625
9884		97.656250
9885		103.515625
9886		93.750000
9887		101.562500
9888		91.796875
9889		99.609375
9890		89.843750
9891		97.656250
9892		89.843750
9893		97.656250
9894		87.890625
9895		95.703125
9896		87.890625
9897		91.796875
9898		85.937500
9899		89.843750
9900		82.031250
9901		87.890625
9902		80.078125
9903		85.937500
9904		76.171875
9905		83.984375
9906		74.218750
9907		83.984375
9908		72.265625
9909		80.078125
9910		70.312500
9911		78.125000
9912		70.312500
9913		74.218750
9914		68.359375
9915		72.265625
9916		62.500000
9917		70.312500
9918		60.546875
9919		70.312500
9920		58.593750
9921		66.406250
9922		56.640625
9923		62.500000
9924		52.734375
9925		60.546875
9926		48.828125
9927		58.593750
9928		48.828125
9929		56.640625
9930		46.875000
9931		50.781250
9932		44.921875
9933		48.828125
9934		39.062500
9935		46.875000
9936		37.109375
9937		44.921875
9938		33.203125
9939		41.015625
9940		31.250000
9941		39.062500
9942		27.343750
9943		35.156250
9944		25.390625
9945		33.203125
9946		23.437500
9947		29.296875
9948		21.484375
9949		25.390625
9950		15.625000
9951		23.437500
9952		13.671875
9953		21.484375
9954		9.765625
9955		17.578125
9956		7.812500
9957		15.625000
9958		3.906250
9959		11.718750
9960		1.953125
9961		9.765625
9962		-1.953125
9963		5.859375
9964		-3.906250
9965		1.953125
9966		-7.812500
9967		-1.953125
9968		-9.765625
9969		-3.906250
9970		-15.625000
9971		-5.859375
9972		-17.578125
9973		-9.765625
9974		-19.531250
9975		-11.718750
9976		-23.437500
9977		-15.625000
9978		-25.390625
9979		-17.578125
9980		-27.343750
9981		-23.437500
9982		-31.250000
9983		-25.390625
9984		-35.156250
9985		-27.343750
9986		-39.062500
9987		-31.250000
9988		-41.015625
9989		-33.203125
9990		-42.968750
9991		-35.156250
9992		-46.875000
9993		-39.062500
9994		-48.828125
9995		-42.968750
9996		-50.781250
9997		-44.921875
9998		-54.687500
9999		-48.828125
10000		-56.640625
