Channel              :		CH1
Frequency            :		1.241kHz
Period               :		0.806ms
PK-PK                :		109.4mV
Probe attenuation    :		1X
Voltage per ADC value:		0.244141mV
Time interval        :		2.00000us

index		CH1_Voltage(mV)
1		46.875000
2		46.875000
3		39.062500
4		42.968750
5		39.062500
6		42.968750
7		35.156250
8		42.968750
9		35.156250
10		39.062500
11		35.156250
12		39.062500
13		31.250000
14		35.156250
15		31.250000
16		35.156250
17		31.250000
18		35.156250
19		27.343750
20		31.250000
21		27.343750
22		31.250000
23		23.437500
24		27.343750
25		23.437500
26		27.343750
27		23.437500
28		27.343750
29		19.531250
30		23.437500
31		19.531250
32		23.437500
33		19.531250
34		23.437500
35		15.625000
36		19.531250
37		15.625000
38		19.531250
39		11.718750
40		19.531250
41		11.718750
42		15.625000
43		11.718750
44		15.625000
45		7.812500
46		11.718750
47		7.812500
48		11.718750
49		7.812500
50		11.718750
51		7.812500
52		11.718750
53		3.906250
54		7.812500
55		3.906250
56		7.812500
57		3.906250
58		7.812500
59		0.000000
60		3.906250
61		0.000000
62		3.906250
63		0.000000
64		3.906250
65		0.000000
66		3.906250
67		-3.906250
68		3.906250
69		-3.906250
70		0.000000
71		-3.906250
72		0.000000
73		-3.906250
74		0.000000
75		-3.906250
76		0.000000
77		-3.906250
78		-3.906250
79		-7.812500
80		-3.906250
81		-7.812500
82		-3.906250
83		-7.812500
84		-3.906250
85		-7.812500
86		-3.906250
87		-7.812500
88		-3.906250
89		-7.812500
90		-3.906250
91		-7.812500
92		-3.906250
93		-7.812500
94		-7.812500
95		-7.812500
96		-3.906250
97		-11.718750
98		-7.812500
99		-7.812500
100		-7.812500
101		-7.812500
102		-7.812500
103		-11.718750
104		-7.812500
105		-11.718750
106		-3.906250
107		-7.812500
108		-7.812500
109		-7.812500
110		-3.906250
111		-7.812500
112		-7.812500
113		-7.812500
114		-3.906250
115		-7.812500
116		-3.906250
117		-7.812500
118		-3.906250
119		-7.812500
120		-3.906250
121		-7.812500
122		-3.906250
123		-7.812500
124		-3.906250
125		-7.812500
126		-3.906250
127		-7.812500
128		-3.906250
129		-3.906250
130		0.000000
131		-3.906250
132		0.000000
133		-3.906250
134		0.000000
135		-3.906250
136		0.000000
137		-3.906250
138		0.000000
139		-3.906250
140		0.000000
141		0.000000
142		3.906250
143		0.000000
144		3.906250
145		0.000000
146		3.906250
147		0.000000
148		7.812500
149		3.906250
150		7.812500
151		3.906250
152		7.812500
153		3.906250
154		7.812500
155		3.906250
156		11.718750
157		7.812500
158		11.718750
159		7.812500
160		11.718750
161		7.812500
162		11.718750
163		11.718750
164		15.625000
165		11.718750
166		15.625000
167		11.718750
168		15.625000
169		15.625000
170		19.531250
171		15.625000
172		19.531250
173		19.531250
174		19.531250
175		19.531250
176		23.437500
177		19.531250
178		23.437500
179		23.437500
180		27.343750
181		23.437500
182		27.343750
183		23.437500
184		27.343750
185		27.343750
186		31.250000
187		27.343750
188		31.250000
189		27.343750
190		31.250000
191		31.250000
192		35.156250
193		31.250000
194		35.156250
195		35.156250
196		39.062500
197		35.156250
198		39.062500
199		35.156250
200		39.062500
201		39.062500
202		42.968750
203		39.062500
204		42.968750
205		39.062500
206		46.875000
207		42.968750
208		46.875000
209		42.968750
210		50.781250
211		46.875000
212		46.875000
213		46.875000
214		50.781250
215		46.875000
216		50.781250
217		50.781250
218		54.687500
219		50.781250
220		54.687500
221		50.781250
222		54.687500
223		54.687500
224		58.593750
225		54.687500
226		58.593750
227		54.687500
228		58.593750
229		58.593750
230		62.500000
231		58.593750
232		62.500000
233		58.593750
234		62.500000
235		62.500000
236		66.406250
237		62.500000
238		66.406250
239		62.500000
240		70.312500
241		66.406250
242		70.312500
243		66.406250
244		70.312500
245		66.406250
246		70.312500
247		66.406250
248		70.312500
249		70.312500
250		74.218750
251		70.312500
252		74.218750
253		70.312500
254		74.218750
255		70.312500
256		74.218750
257		74.218750
258		78.125000
259		74.218750
260		78.125000
261		74.218750
262		78.125000
263		74.218750
264		78.125000
265		74.218750
266		82.031250
267		78.125000
268		82.031250
269		78.125000
270		82.031250
271		78.125000
272		82.031250
273		78.125000
274		82.031250
275		82.031250
276		82.031250
277		78.125000
278		85.937500
279		82.031250
280		85.937500
281		82.031250
282		85.937500
283		82.031250
284		85.937500
285		82.031250
286		85.937500
287		82.031250
288		85.937500
289		82.031250
290		85.937500
291		82.031250
292		85.937500
293		82.031250
294		89.843750
295		85.937500
296		85.937500
297		85.937500
298		89.843750
299		85.937500
300		89.843750
301		85.937500
302		89.843750
303		85.937500
304		89.843750
305		85.937500
306		89.843750
307		85.937500
308		89.843750
309		85.937500
310		89.843750
311		85.937500
312		85.937500
313		85.937500
314		85.937500
315		85.937500
316		89.843750
317		82.031250
318		85.937500
319		82.031250
320		85.937500
321		82.031250
322		85.937500
323		82.031250
324		85.937500
325		82.031250
326		85.937500
327		82.031250
328		85.937500
329		82.031250
330		85.937500
331		82.031250
332		85.937500
333		82.031250
334		85.937500
335		78.125000
336		85.937500
337		78.125000
338		85.937500
339		78.125000
340		82.031250
341		78.125000
342		82.031250
343		78.125000
344		82.031250
345		78.125000
346		78.125000
347		74.218750
348		78.125000
349		74.218750
350		78.125000
351		74.218750
352		78.125000
353		74.218750
354		78.125000
355		70.312500
356		78.125000
357		70.312500
358		74.218750
359		70.312500
360		74.218750
361		70.312500
362		74.218750
363		70.312500
364		70.312500
365		66.406250
366		70.312500
367		66.406250
368		70.312500
369		66.406250
370		70.312500
371		62.500000
372		66.406250
373		62.500000
374		66.406250
375		62.500000
376		66.406250
377		58.593750
378		66.406250
379		58.593750
380		62.500000
381		54.687500
382		62.500000
383		54.687500
384		58.593750
385		54.687500
386		58.593750
387		54.687500
388		58.593750
389		50.781250
390		54.687500
391		50.781250
392		54.687500
393		50.781250
394		54.687500
395		46.875000
396		50.781250
397		46.875000
398		50.781250
399		42.968750
400		46.875000
401		42.968750
402		46.875000
403		42.968750
404		46.875000
405		39.062500
406		42.968750
407		39.062500
408		42.968750
409		35.156250
410		42.968750
411		35.156250
412		39.062500
413		35.156250
414		39.062500
415		31.250000
416		35.156250
417		31.250000
418		35.156250
419		31.250000
420		35.156250
421		27.343750
422		31.250000
423		27.343750
424		31.250000
425		23.437500
426		31.250000
427		23.437500
428		27.343750
429		23.437500
430		27.343750
431		19.531250
432		23.437500
433		19.531250
434		23.437500
435		15.625000
436		23.437500
437		15.625000
438		19.531250
439		15.625000
440		19.531250
441		15.625000
442		19.531250
443		11.718750
444		15.625000
445		11.718750
446		15.625000
447		7.812500
448		15.625000
449		7.812500
450		11.718750
451		7.812500
452		11.718750
453		7.812500
454		11.718750
455		3.906250
456		7.812500
457		3.906250
458		7.812500
459		3.906250
460		7.812500
461		3.906250
462		7.812500
463		0.000000
464		3.906250
465		0.000000
466		3.906250
467		0.000000
468		3.906250
469		0.000000
470		3.906250
471		-3.906250
472		0.000000
473		-3.906250
474		0.000000
475		-3.906250
476		0.000000
477		-3.906250
478		0.000000
479		-7.812500
480		-3.906250
481		-7.812500
482		-3.906250
483		-7.812500
484		-3.906250
485		-7.812500
486		-3.906250
487		-7.812500
488		-3.906250
489		-7.812500
490		-3.906250
491		-7.812500
492		-3.906250
493		-7.812500
494		-3.906250
495		-11.718750
496		-3.906250
497		-7.812500
498		-7.812500
499		-11.718750
500		-7.812500
501		-11.718750
502		-7.812500
503		-11.718750
504		-7.812500
505		-11.718750
506		-7.812500
507		-11.718750
508		-7.812500
509		-11.718750
510		-7.812500
511		-11.718750
512		-7.812500
513		-11.718750
514		-7.812500
515		-7.812500
516		-7.812500
517		-11.718750
518		-7.812500
519		-7.812500
520		-7.812500
521		-7.812500
522		-3.906250
523		-7.812500
524		-3.906250
525		-7.812500
526		-3.906250
527		-7.812500
528		-3.906250
529		-7.812500
530		-3.906250
531		-7.812500
532		-3.906250
533		-7.812500
534		-3.906250
535		-3.906250
536		0.000000
537		-3.906250
538		0.000000
539		-3.906250
540		0.000000
541		-3.906250
542		0.000000
543		0.000000
544		0.000000
545		0.000000
546		3.906250
547		0.000000
548		3.906250
549		0.000000
550		3.906250
551		0.000000
552		3.906250
553		3.906250
554		7.812500
555		3.906250
556		7.812500
557		3.906250
558		7.812500
559		3.906250
560		7.812500
561		7.812500
562		11.718750
563		7.812500
564		11.718750
565		11.718750
566		11.718750
567		11.718750
568		15.625000
569		11.718750
570		15.625000
571		15.625000
572		19.531250
573		15.625000
574		19.531250
575		15.625000
576		19.531250
577		19.531250
578		23.437500
579		19.531250
580		23.437500
581		19.531250
582		23.437500
583		19.531250
584		27.343750
585		23.437500
586		27.343750
587		23.437500
588		27.343750
589		27.343750
590		31.250000
591		27.343750
592		31.250000
593		27.343750
594		35.156250
595		31.250000
596		35.156250
597		31.250000
598		35.156250
599		35.156250
600		39.062500
601		35.156250
602		39.062500
603		35.156250
604		39.062500
605		39.062500
606		42.968750
607		39.062500
608		42.968750
609		39.062500
610		42.968750
611		42.968750
612		46.875000
613		42.968750
614		46.875000
615		46.875000
616		50.781250
617		46.875000
618		50.781250
619		46.875000
620		50.781250
621		50.781250
622		54.687500
623		50.781250
624		54.687500
625		50.781250
626		58.593750
627		54.687500
628		58.593750
629		54.687500
630		58.593750
631		54.687500
632		62.500000
633		58.593750
634		62.500000
635		58.593750
636		62.500000
637		58.593750
638		62.500000
639		62.500000
640		66.406250
641		62.500000
642		66.406250
643		62.500000
644		66.406250
645		66.406250
646		70.312500
647		66.406250
648		70.312500
649		66.406250
650		70.312500
651		70.312500
652		70.312500
653		70.312500
654		74.218750
655		70.312500
656		74.218750
657		70.312500
658		74.218750
659		70.312500
660		74.218750
661		74.218750
662		78.125000
663		74.218750
664		78.125000
665		74.218750
666		78.125000
667		74.218750
668		78.125000
669		78.125000
670		82.031250
671		78.125000
672		82.031250
673		78.125000
674		82.031250
675		78.125000
676		82.031250
677		78.125000
678		82.031250
679		78.125000
680		85.937500
681		82.031250
682		85.937500
683		82.031250
684		82.031250
685		82.031250
686		85.937500
687		82.031250
688		85.937500
689		82.031250
690		85.937500
691		82.031250
692		85.937500
693		82.031250
694		85.937500
695		82.031250
696		85.937500
697		82.031250
698		85.937500
699		82.031250
700		85.937500
701		82.031250
702		89.843750
703		82.031250
704		85.937500
705		82.031250
706		89.843750
707		85.937500
708		89.843750
709		82.031250
710		89.843750
711		82.031250
712		89.843750
713		82.031250
714		89.843750
715		85.937500
716		85.937500
717		82.031250
718		85.937500
719		82.031250
720		85.937500
721		82.031250
722		85.937500
723		82.031250
724		85.937500
725		82.031250
726		85.937500
727		82.031250
728		85.937500
729		82.031250
730		85.937500
731		82.031250
732		85.937500
733		82.031250
734		85.937500
735		82.031250
736		85.937500
737		78.125000
738		82.031250
739		78.125000
740		82.031250
741		78.125000
742		82.031250
743		78.125000
744		82.031250
745		78.125000
746		82.031250
747		78.125000
748		82.031250
749		74.218750
750		78.125000
751		74.218750
752		78.125000
753		74.218750
754		78.125000
755		74.218750
756		78.125000
757		74.218750
758		78.125000
759		70.312500
760		74.218750
761		70.312500
762		74.218750
763		66.406250
764		74.218750
765		70.312500
766		70.312500
767		66.406250
768		70.312500
769		66.406250
770		70.312500
771		66.406250
772		70.312500
773		62.500000
774		66.406250
775		62.500000
776		66.406250
777		62.500000
778		66.406250
779		58.593750
780		62.500000
781		58.593750
782		62.500000
783		58.593750
784		62.500000
785		54.687500
786		58.593750
787		54.687500
788		58.593750
789		54.687500
790		58.593750
791		50.781250
792		54.687500
793		50.781250
794		54.687500
795		50.781250
796		54.687500
797		46.875000
798		50.781250
799		46.875000
800		50.781250
801		42.968750
802		46.875000
803		42.968750
804		46.875000
805		42.968750
806		46.875000
807		39.062500
808		42.968750
809		39.062500
810		42.968750
811		39.062500
812		42.968750
813		35.156250
814		39.062500
815		35.156250
816		39.062500
817		31.250000
818		35.156250
819		31.250000
820		35.156250
821		31.250000
822		35.156250
823		27.343750
824		31.250000
825		27.343750
826		31.250000
827		23.437500
828		31.250000
829		23.437500
830		27.343750
831		23.437500
832		27.343750
833		19.531250
834		23.437500
835		19.531250
836		23.437500
837		19.531250
838		23.437500
839		15.625000
840		19.531250
841		15.625000
842		19.531250
843		15.625000
844		19.531250
845		11.718750
846		15.625000
847		11.718750
848		15.625000
849		11.718750
850		15.625000
851		7.812500
852		11.718750
853		7.812500
854		11.718750
855		7.812500
856		11.718750
857		3.906250
858		7.812500
859		3.906250
860		7.812500
861		3.906250
862		7.812500
863		3.906250
864		7.812500
865		0.000000
866		3.906250
867		0.000000
868		3.906250
869		-3.906250
870		3.906250
871		-3.906250
872		0.000000
873		-3.906250
874		0.000000
875		-3.906250
876		0.000000
877		-3.906250
878		0.000000
879		-3.906250
880		0.000000
881		-7.812500
882		-3.906250
883		-7.812500
884		-3.906250
885		-7.812500
886		-3.906250
887		-7.812500
888		-3.906250
889		-7.812500
890		-3.906250
891		-7.812500
892		-3.906250
893		-7.812500
894		-7.812500
895		-11.718750
896		-7.812500
897		-11.718750
898		-7.812500
899		-11.718750
900		-7.812500
901		-11.718750
902		-7.812500
903		-11.718750
904		-7.812500
905		-11.718750
906		-7.812500
907		-11.718750
908		-7.812500
909		-11.718750
910		-7.812500
911		-11.718750
912		-7.812500
913		-11.718750
914		-7.812500
915		-11.718750
916		-7.812500
917		-11.718750
918		-7.812500
919		-11.718750
920		-7.812500
921		-11.718750
922		-7.812500
923		-11.718750
924		-7.812500
925		-11.718750
926		-3.906250
927		-7.812500
928		-3.906250
929		-7.812500
930		-3.906250
931		-7.812500
932		-3.906250
933		-7.812500
934		-3.906250
935		-7.812500
936		-3.906250
937		-7.812500
938		-3.906250
939		-3.906250
940		-3.906250
941		-3.906250
942		0.000000
943		-3.906250
944		0.000000
945		-3.906250
946		0.000000
947		-3.906250
948		0.000000
949		0.000000
950		3.906250
951		0.000000
952		3.906250
953		0.000000
954		3.906250
955		0.000000
956		3.906250
957		3.906250
958		7.812500
959		3.906250
960		7.812500
961		3.906250
962		7.812500
963		7.812500
964		7.812500
965		7.812500
966		11.718750
967		7.812500
968		11.718750
969		11.718750
970		11.718750
971		11.718750
972		15.625000
973		11.718750
974		15.625000
975		11.718750
976		19.531250
977		15.625000
978		19.531250
979		15.625000
980		19.531250
981		15.625000
982		23.437500
983		19.531250
984		23.437500
985		19.531250
986		23.437500
987		19.531250
988		27.343750
989		23.437500
990		27.343750
991		23.437500
992		27.343750
993		27.343750
994		31.250000
995		27.343750
996		31.250000
997		27.343750
998		31.250000
999		31.250000
1000		35.156250
1001		31.250000
1002		35.156250
1003		35.156250
1004		39.062500
1005		35.156250
1006		39.062500
1007		35.156250
1008		39.062500
1009		39.062500
1010		42.968750
1011		39.062500
1012		42.968750
1013		39.062500
1014		46.875000
1015		42.968750
1016		46.875000
1017		42.968750
1018		46.875000
1019		46.875000
1020		50.781250
1021		46.875000
1022		50.781250
1023		46.875000
1024		50.781250
1025		50.781250
1026		54.687500
1027		50.781250
1028		54.687500
1029		50.781250
1030		58.593750
1031		54.687500
1032		58.593750
1033		54.687500
1034		58.593750
1035		54.687500
1036		62.500000
1037		58.593750
1038		62.500000
1039		58.593750
1040		62.500000
1041		58.593750
1042		62.500000
1043		62.500000
1044		66.406250
1045		62.500000
1046		66.406250
1047		62.500000
1048		66.406250
1049		66.406250
1050		70.312500
1051		66.406250
1052		70.312500
1053		66.406250
1054		70.312500
1055		66.406250
1056		70.312500
1057		70.312500
1058		74.218750
1059		70.312500
1060		74.218750
1061		70.312500
1062		74.218750
1063		70.312500
1064		74.218750
1065		74.218750
1066		78.125000
1067		74.218750
1068		78.125000
1069		74.218750
1070		78.125000
1071		74.218750
1072		78.125000
1073		74.218750
1074		78.125000
1075		78.125000
1076		82.031250
1077		78.125000
1078		82.031250
1079		78.125000
1080		82.031250
1081		78.125000
1082		82.031250
1083		78.125000
1084		82.031250
1085		82.031250
1086		82.031250
1087		82.031250
1088		85.937500
1089		82.031250
1090		85.937500
1091		82.031250
1092		85.937500
1093		82.031250
1094		85.937500
1095		82.031250
1096		85.937500
1097		82.031250
1098		85.937500
1099		82.031250
1100		85.937500
1101		82.031250
1102		85.937500
1103		82.031250
1104		85.937500
1105		82.031250
1106		85.937500
1107		82.031250
1108		85.937500
1109		82.031250
1110		85.937500
1111		82.031250
1112		85.937500
1113		82.031250
1114		85.937500
1115		82.031250
1116		85.937500
1117		82.031250
1118		85.937500
1119		82.031250
1120		85.937500
1121		82.031250
1122		85.937500
1123		82.031250
1124		85.937500
1125		82.031250
1126		85.937500
1127		82.031250
1128		85.937500
1129		82.031250
1130		85.937500
1131		82.031250
1132		85.937500
1133		82.031250
1134		85.937500
1135		82.031250
1136		85.937500
1137		82.031250
1138		85.937500
1139		78.125000
1140		82.031250
1141		78.125000
1142		82.031250
1143		78.125000
1144		82.031250
1145		78.125000
1146		82.031250
1147		78.125000
1148		82.031250
1149		78.125000
1150		82.031250
1151		74.218750
1152		82.031250
1153		74.218750
1154		78.125000
1155		74.218750
1156		78.125000
1157		74.218750
1158		78.125000
1159		74.218750
1160		78.125000
1161		70.312500
1162		74.218750
1163		70.312500
1164		74.218750
1165		70.312500
1166		74.218750
1167		66.406250
1168		74.218750
1169		66.406250
1170		70.312500
1171		66.406250
1172		70.312500
1173		66.406250
1174		70.312500
1175		62.500000
1176		66.406250
1177		62.500000
1178		66.406250
1179		62.500000
1180		66.406250
1181		58.593750
1182		62.500000
1183		58.593750
1184		62.500000
1185		58.593750
1186		62.500000
1187		58.593750
1188		58.593750
1189		54.687500
1190		58.593750
1191		54.687500
1192		58.593750
1193		50.781250
1194		54.687500
1195		50.781250
1196		54.687500
1197		50.781250
1198		54.687500
1199		46.875000
1200		54.687500
1201		46.875000
1202		50.781250
1203		46.875000
1204		46.875000
1205		42.968750
1206		46.875000
1207		42.968750
1208		46.875000
1209		42.968750
1210		42.968750
1211		39.062500
1212		42.968750
1213		39.062500
1214		42.968750
1215		35.156250
1216		39.062500
1217		35.156250
1218		39.062500
1219		35.156250
1220		39.062500
1221		31.250000
1222		35.156250
1223		31.250000
1224		35.156250
1225		27.343750
1226		35.156250
1227		27.343750
1228		31.250000
1229		27.343750
1230		31.250000
1231		23.437500
1232		27.343750
1233		23.437500
1234		27.343750
1235		19.531250
1236		23.437500
1237		19.531250
1238		23.437500
1239		19.531250
1240		23.437500
1241		15.625000
1242		23.437500
1243		15.625000
1244		19.531250
1245		15.625000
1246		19.531250
1247		11.718750
1248		15.625000
1249		11.718750
1250		15.625000
1251		11.718750
1252		15.625000
1253		7.812500
1254		11.718750
1255		7.812500
1256		11.718750
1257		7.812500
1258		11.718750
1259		3.906250
1260		7.812500
1261		3.906250
1262		7.812500
1263		3.906250
1264		7.812500
1265		0.000000
1266		7.812500
1267		0.000000
1268		3.906250
1269		0.000000
1270		3.906250
1271		0.000000
1272		3.906250
1273		-3.906250
1274		3.906250
1275		-3.906250
1276		0.000000
1277		-3.906250
1278		0.000000
1279		-3.906250
1280		0.000000
1281		-7.812500
1282		-3.906250
1283		-3.906250
1284		-3.906250
1285		-7.812500
1286		-3.906250
1287		-7.812500
1288		-3.906250
1289		-7.812500
1290		-3.906250
1291		-7.812500
1292		-3.906250
1293		-7.812500
1294		-3.906250
1295		-11.718750
1296		-3.906250
1297		-7.812500
1298		-7.812500
1299		-11.718750
1300		-7.812500
1301		-11.718750
1302		-7.812500
1303		-11.718750
1304		-7.812500
1305		-11.718750
1306		-7.812500
1307		-11.718750
1308		-7.812500
1309		-11.718750
1310		-7.812500
1311		-11.718750
1312		-7.812500
1313		-11.718750
1314		-7.812500
1315		-11.718750
1316		-7.812500
1317		-11.718750
1318		-7.812500
1319		-11.718750
1320		-7.812500
1321		-11.718750
1322		-7.812500
1323		-11.718750
1324		-7.812500
1325		-11.718750
1326		-7.812500
1327		-7.812500
1328		-7.812500
1329		-7.812500
1330		-3.906250
1331		-11.718750
1332		-3.906250
1333		-7.812500
1334		-3.906250
1335		-7.812500
1336		-3.906250
1337		-7.812500
1338		-3.906250
1339		-7.812500
1340		-3.906250
1341		-7.812500
1342		-3.906250
1343		-7.812500
1344		0.000000
1345		-3.906250
1346		0.000000
1347		-3.906250
1348		0.000000
1349		-3.906250
1350		0.000000
1351		-3.906250
1352		0.000000
1353		0.000000
1354		3.906250
1355		0.000000
1356		3.906250
1357		0.000000
1358		3.906250
1359		0.000000
1360		7.812500
1361		3.906250
1362		7.812500
1363		3.906250
1364		7.812500
1365		3.906250
1366		7.812500
1367		3.906250
1368		11.718750
1369		7.812500
1370		11.718750
1371		7.812500
1372		11.718750
1373		11.718750
1374		15.625000
1375		11.718750
1376		15.625000
1377		11.718750
1378		15.625000
1379		15.625000
1380		19.531250
1381		15.625000
1382		19.531250
1383		15.625000
1384		19.531250
1385		19.531250
1386		23.437500
1387		19.531250
1388		23.437500
1389		19.531250
1390		23.437500
1391		23.437500
1392		27.343750
1393		23.437500
1394		27.343750
1395		23.437500
1396		31.250000
1397		27.343750
1398		31.250000
1399		27.343750
1400		31.250000
1401		27.343750
1402		35.156250
1403		31.250000
1404		35.156250
1405		31.250000
1406		35.156250
1407		35.156250
1408		39.062500
1409		35.156250
1410		39.062500
1411		35.156250
1412		39.062500
1413		39.062500
1414		42.968750
1415		39.062500
1416		42.968750
1417		42.968750
1418		46.875000
1419		42.968750
1420		46.875000
1421		42.968750
1422		46.875000
1423		46.875000
1424		50.781250
1425		46.875000
1426		50.781250
1427		46.875000
1428		50.781250
1429		50.781250
1430		54.687500
1431		50.781250
1432		54.687500
1433		50.781250
1434		58.593750
1435		54.687500
1436		58.593750
1437		54.687500
1438		58.593750
1439		58.593750
1440		58.593750
1441		58.593750
1442		62.500000
1443		58.593750
1444		62.500000
1445		62.500000
1446		66.406250
1447		62.500000
1448		66.406250
1449		62.500000
1450		66.406250
1451		62.500000
1452		70.312500
1453		66.406250
1454		70.312500
1455		66.406250
1456		70.312500
1457		66.406250
1458		70.312500
1459		66.406250
1460		74.218750
1461		70.312500
1462		74.218750
1463		70.312500
1464		74.218750
1465		70.312500
1466		74.218750
1467		70.312500
1468		74.218750
1469		74.218750
1470		78.125000
1471		74.218750
1472		78.125000
1473		74.218750
1474		78.125000
1475		74.218750
1476		78.125000
1477		74.218750
1478		78.125000
1479		78.125000
1480		82.031250
1481		78.125000
1482		82.031250
1483		78.125000
1484		82.031250
1485		78.125000
1486		82.031250
1487		78.125000
1488		82.031250
1489		82.031250
1490		82.031250
1491		82.031250
1492		85.937500
1493		82.031250
1494		85.937500
1495		82.031250
1496		85.937500
1497		82.031250
1498		85.937500
1499		82.031250
1500		85.937500
1501		82.031250
1502		85.937500
1503		82.031250
1504		85.937500
1505		82.031250
1506		85.937500
1507		82.031250
1508		85.937500
1509		82.031250
1510		85.937500
1511		82.031250
1512		85.937500
1513		82.031250
1514		85.937500
1515		82.031250
1516		85.937500
1517		82.031250
1518		85.937500
1519		82.031250
1520		85.937500
1521		82.031250
1522		85.937500
1523		82.031250
1524		85.937500
1525		82.031250
1526		85.937500
1527		82.031250
1528		85.937500
1529		82.031250
1530		85.937500
1531		82.031250
1532		85.937500
1533		82.031250
1534		85.937500
1535		82.031250
1536		85.937500
1537		82.031250
1538		85.937500
1539		82.031250
1540		82.031250
1541		78.125000
1542		82.031250
1543		78.125000
1544		82.031250
1545		78.125000
1546		82.031250
1547		78.125000
1548		82.031250
1549		78.125000
1550		82.031250
1551		78.125000
1552		82.031250
1553		74.218750
1554		78.125000
1555		74.218750
1556		78.125000
1557		74.218750
1558		78.125000
1559		74.218750
1560		78.125000
1561		74.218750
1562		78.125000
1563		70.312500
1564		74.218750
1565		70.312500
1566		74.218750
1567		70.312500
1568		74.218750
1569		70.312500
1570		70.312500
1571		66.406250
1572		70.312500
1573		66.406250
1574		70.312500
1575		66.406250
1576		70.312500
1577		62.500000
1578		70.312500
1579		62.500000
1580		66.406250
1581		62.500000
1582		66.406250
1583		58.593750
1584		66.406250
1585		58.593750
1586		62.500000
1587		58.593750
1588		62.500000
1589		58.593750
1590		62.500000
1591		54.687500
1592		58.593750
1593		54.687500
1594		58.593750
1595		50.781250
1596		54.687500
1597		50.781250
1598		54.687500
1599		50.781250
1600		54.687500
1601		46.875000
1602		54.687500
1603		46.875000
1604		50.781250
1605		42.968750
1606		50.781250
1607		42.968750
1608		46.875000
1609		42.968750
1610		46.875000
1611		42.968750
1612		46.875000
1613		39.062500
1614		42.968750
1615		39.062500
1616		42.968750
1617		35.156250
1618		39.062500
1619		35.156250
1620		39.062500
1621		31.250000
1622		39.062500
1623		31.250000
1624		35.156250
1625		31.250000
1626		35.156250
1627		27.343750
1628		35.156250
1629		27.343750
1630		31.250000
1631		27.343750
1632		31.250000
1633		23.437500
1634		27.343750
1635		23.437500
1636		27.343750
1637		23.437500
1638		27.343750
1639		19.531250
1640		23.437500
1641		19.531250
1642		23.437500
1643		15.625000
1644		23.437500
1645		15.625000
1646		19.531250
1647		15.625000
1648		19.531250
1649		11.718750
1650		15.625000
1651		11.718750
1652		15.625000
1653		11.718750
1654		15.625000
1655		7.812500
1656		15.625000
1657		7.812500
1658		11.718750
1659		7.812500
1660		11.718750
1661		3.906250
1662		7.812500
1663		3.906250
1664		7.812500
1665		3.906250
1666		7.812500
1667		0.000000
1668		7.812500
1669		0.000000
1670		3.906250
1671		0.000000
1672		3.906250
1673		0.000000
1674		3.906250
1675		0.000000
1676		0.000000
1677		-3.906250
1678		0.000000
1679		-3.906250
1680		0.000000
1681		-3.906250
1682		0.000000
1683		-3.906250
1684		0.000000
1685		-7.812500
1686		-3.906250
1687		-7.812500
1688		-3.906250
1689		-7.812500
1690		-3.906250
1691		-7.812500
1692		-3.906250
1693		-7.812500
1694		-3.906250
1695		-7.812500
1696		-3.906250
1697		-7.812500
1698		-7.812500
1699		-11.718750
1700		-7.812500
1701		-11.718750
1702		-7.812500
1703		-11.718750
1704		-7.812500
1705		-11.718750
1706		-7.812500
1707		-11.718750
1708		-7.812500
1709		-11.718750
1710		-7.812500
1711		-11.718750
1712		-7.812500
1713		-11.718750
1714		-7.812500
1715		-11.718750
1716		-7.812500
1717		-11.718750
1718		-7.812500
1719		-11.718750
1720		-7.812500
1721		-11.718750
1722		-7.812500
1723		-11.718750
1724		-7.812500
1725		-11.718750
1726		-7.812500
1727		-11.718750
1728		-7.812500
1729		-11.718750
1730		-7.812500
1731		-11.718750
1732		-7.812500
1733		-11.718750
1734		-3.906250
1735		-7.812500
1736		-3.906250
1737		-7.812500
1738		-3.906250
1739		-7.812500
1740		-3.906250
1741		-7.812500
1742		-3.906250
1743		-7.812500
1744		-3.906250
1745		-7.812500
1746		-3.906250
1747		-3.906250
1748		-3.906250
1749		-3.906250
1750		0.000000
1751		-3.906250
1752		0.000000
1753		-3.906250
1754		0.000000
1755		-3.906250
1756		3.906250
1757		0.000000
1758		3.906250
1759		0.000000
1760		3.906250
1761		0.000000
1762		3.906250
1763		0.000000
1764		7.812500
1765		3.906250
1766		7.812500
1767		3.906250
1768		7.812500
1769		3.906250
1770		7.812500
1771		3.906250
1772		11.718750
1773		7.812500
1774		11.718750
1775		7.812500
1776		11.718750
1777		11.718750
1778		15.625000
1779		11.718750
1780		15.625000
1781		11.718750
1782		15.625000
1783		15.625000
1784		19.531250
1785		15.625000
1786		19.531250
1787		15.625000
1788		19.531250
1789		19.531250
1790		23.437500
1791		19.531250
1792		23.437500
1793		19.531250
1794		23.437500
1795		23.437500
1796		27.343750
1797		23.437500
1798		27.343750
1799		27.343750
1800		31.250000
1801		27.343750
1802		31.250000
1803		27.343750
1804		31.250000
1805		31.250000
1806		35.156250
1807		31.250000
1808		35.156250
1809		31.250000
1810		35.156250
1811		35.156250
1812		39.062500
1813		35.156250
1814		39.062500
1815		35.156250
1816		39.062500
1817		39.062500
1818		42.968750
1819		39.062500
1820		42.968750
1821		42.968750
1822		46.875000
1823		42.968750
1824		46.875000
1825		42.968750
1826		46.875000
1827		46.875000
1828		50.781250
1829		46.875000
1830		50.781250
1831		46.875000
1832		50.781250
1833		50.781250
1834		54.687500
1835		50.781250
1836		54.687500
1837		50.781250
1838		58.593750
1839		54.687500
1840		58.593750
1841		54.687500
1842		58.593750
1843		54.687500
1844		62.500000
1845		58.593750
1846		62.500000
1847		58.593750
1848		62.500000
1849		58.593750
1850		62.500000
1851		62.500000
1852		66.406250
1853		62.500000
1854		66.406250
1855		62.500000
1856		66.406250
1857		66.406250
1858		70.312500
1859		66.406250
1860		70.312500
1861		66.406250
1862		70.312500
1863		66.406250
1864		74.218750
1865		70.312500
1866		74.218750
1867		70.312500
1868		74.218750
1869		70.312500
1870		74.218750
1871		70.312500
1872		78.125000
1873		74.218750
1874		78.125000
1875		74.218750
1876		78.125000
1877		74.218750
1878		78.125000
1879		74.218750
1880		78.125000
1881		78.125000
1882		78.125000
1883		78.125000
1884		82.031250
1885		78.125000
1886		82.031250
1887		78.125000
1888		82.031250
1889		78.125000
1890		82.031250
1891		78.125000
1892		82.031250
1893		82.031250
1894		82.031250
1895		82.031250
1896		82.031250
1897		82.031250
1898		85.937500
1899		82.031250
1900		85.937500
1901		82.031250
1902		85.937500
1903		82.031250
1904		85.937500
1905		82.031250
1906		85.937500
1907		82.031250
1908		85.937500
1909		82.031250
1910		85.937500
1911		82.031250
1912		85.937500
1913		82.031250
1914		85.937500
1915		82.031250
1916		85.937500
1917		82.031250
1918		85.937500
1919		82.031250
1920		85.937500
1921		82.031250
1922		85.937500
1923		82.031250
1924		85.937500
1925		82.031250
1926		85.937500
1927		82.031250
1928		85.937500
1929		78.125000
1930		85.937500
1931		82.031250
1932		85.937500
1933		82.031250
1934		85.937500
1935		78.125000
1936		85.937500
1937		78.125000
1938		85.937500
1939		78.125000
1940		85.937500
1941		78.125000
1942		82.031250
1943		78.125000
1944		82.031250
1945		78.125000
1946		82.031250
1947		78.125000
1948		82.031250
1949		74.218750
1950		82.031250
1951		74.218750
1952		82.031250
1953		74.218750
1954		82.031250
1955		74.218750
1956		82.031250
1957		74.218750
1958		78.125000
1959		74.218750
1960		78.125000
1961		74.218750
1962		78.125000
1963		70.312500
1964		78.125000
1965		70.312500
1966		78.125000
1967		70.312500
1968		74.218750
1969		66.406250
1970		74.218750
1971		66.406250
1972		74.218750
1973		66.406250
1974		74.218750
1975		66.406250
1976		70.312500
1977		66.406250
1978		70.312500
1979		62.500000
1980		70.312500
1981		62.500000
1982		70.312500
1983		58.593750
1984		66.406250
1985		58.593750
1986		66.406250
1987		58.593750
1988		66.406250
1989		58.593750
1990		62.500000
1991		54.687500
1992		62.500000
1993		54.687500
1994		58.593750
1995		54.687500
1996		58.593750
1997		50.781250
1998		58.593750
1999		50.781250
2000		58.593750
2001		46.875000
2002		54.687500
2003		46.875000
2004		54.687500
2005		46.875000
2006		54.687500
2007		42.968750
2008		50.781250
2009		42.968750
2010		46.875000
2011		42.968750
2012		46.875000
2013		39.062500
2014		46.875000
2015		39.062500
2016		46.875000
2017		39.062500
2018		42.968750
2019		35.156250
2020		42.968750
2021		31.250000
2022		42.968750
2023		31.250000
2024		39.062500
2025		31.250000
2026		39.062500
2027		31.250000
2028		35.156250
2029		27.343750
2030		35.156250
2031		27.343750
2032		35.156250
2033		23.437500
2034		31.250000
2035		23.437500
2036		31.250000
2037		23.437500
2038		31.250000
2039		19.531250
2040		27.343750
2041		19.531250
2042		27.343750
2043		19.531250
2044		23.437500
2045		19.531250
2046		23.437500
2047		15.625000
2048		23.437500
2049		11.718750
2050		23.437500
2051		11.718750
2052		19.531250
2053		11.718750
2054		19.531250
2055		11.718750
2056		15.625000
2057		7.812500
2058		15.625000
2059		7.812500
2060		15.625000
2061		7.812500
2062		11.718750
2063		3.906250
2064		11.718750
2065		3.906250
2066		11.718750
2067		3.906250
2068		7.812500
2069		0.000000
2070		7.812500
2071		0.000000
2072		7.812500
2073		0.000000
2074		7.812500
2075		-3.906250
2076		3.906250
2077		0.000000
2078		3.906250
2079		-3.906250
2080		0.000000
2081		-3.906250
2082		3.906250
2083		-7.812500
2084		0.000000
2085		-7.812500
2086		0.000000
2087		-7.812500
2088		0.000000
2089		-7.812500
2090		0.000000
2091		-7.812500
2092		-3.906250
2093		-7.812500
2094		-3.906250
2095		-7.812500
2096		-3.906250
2097		-11.718750
2098		-3.906250
2099		-11.718750
2100		-3.906250
2101		-11.718750
2102		-3.906250
2103		-11.718750
2104		-3.906250
2105		-11.718750
2106		-3.906250
2107		-11.718750
2108		-3.906250
2109		-11.718750
2110		-7.812500
2111		-11.718750
2112		-7.812500
2113		-15.625000
2114		-7.812500
2115		-15.625000
2116		-7.812500
2117		-15.625000
2118		-7.812500
2119		-15.625000
2120		-7.812500
2121		-15.625000
2122		-7.812500
2123		-11.718750
2124		-7.812500
2125		-15.625000
2126		-7.812500
2127		-11.718750
2128		-7.812500
2129		-11.718750
2130		-7.812500
2131		-11.718750
2132		-3.906250
2133		-11.718750
2134		-3.906250
2135		-11.718750
2136		-3.906250
2137		-11.718750
2138		-3.906250
2139		-11.718750
2140		-3.906250
2141		-11.718750
2142		-3.906250
2143		-7.812500
2144		-3.906250
2145		-7.812500
2146		-3.906250
2147		-7.812500
2148		-3.906250
2149		-7.812500
2150		0.000000
2151		-7.812500
2152		0.000000
2153		-7.812500
2154		0.000000
2155		-7.812500
2156		0.000000
2157		-3.906250
2158		3.906250
2159		-3.906250
2160		3.906250
2161		0.000000
2162		3.906250
2163		0.000000
2164		3.906250
2165		0.000000
2166		7.812500
2167		0.000000
2168		7.812500
2169		0.000000
2170		7.812500
2171		0.000000
2172		7.812500
2173		3.906250
2174		11.718750
2175		3.906250
2176		11.718750
2177		7.812500
2178		11.718750
2179		7.812500
2180		11.718750
2181		7.812500
2182		15.625000
2183		11.718750
2184		15.625000
2185		11.718750
2186		19.531250
2187		11.718750
2188		19.531250
2189		15.625000
2190		23.437500
2191		15.625000
2192		23.437500
2193		15.625000
2194		23.437500
2195		19.531250
2196		23.437500
2197		19.531250
2198		27.343750
2199		19.531250
2200		27.343750
2201		19.531250
2202		31.250000
2203		23.437500
2204		31.250000
2205		23.437500
2206		31.250000
2207		27.343750
2208		35.156250
2209		27.343750
2210		35.156250
2211		31.250000
2212		35.156250
2213		31.250000
2214		39.062500
2215		31.250000
2216		39.062500
2217		35.156250
2218		42.968750
2219		35.156250
2220		42.968750
2221		35.156250
2222		42.968750
2223		39.062500
2224		46.875000
2225		39.062500
2226		46.875000
2227		42.968750
2228		46.875000
2229		42.968750
2230		46.875000
2231		46.875000
2232		50.781250
2233		46.875000
2234		54.687500
2235		46.875000
2236		54.687500
2237		46.875000
2238		54.687500
2239		50.781250
2240		58.593750
2241		50.781250
2242		58.593750
2243		50.781250
2244		58.593750
2245		54.687500
2246		58.593750
2247		58.593750
2248		62.500000
2249		54.687500
2250		62.500000
2251		58.593750
2252		66.406250
2253		58.593750
2254		66.406250
2255		58.593750
2256		66.406250
2257		62.500000
2258		70.312500
2259		62.500000
2260		70.312500
2261		66.406250
2262		70.312500
2263		66.406250
2264		70.312500
2265		66.406250
2266		74.218750
2267		66.406250
2268		74.218750
2269		66.406250
2270		74.218750
2271		70.312500
2272		74.218750
2273		70.312500
2274		78.125000
2275		70.312500
2276		78.125000
2277		74.218750
2278		78.125000
2279		74.218750
2280		78.125000
2281		74.218750
2282		82.031250
2283		74.218750
2284		82.031250
2285		74.218750
2286		82.031250
2287		74.218750
2288		82.031250
2289		74.218750
2290		82.031250
2291		74.218750
2292		82.031250
2293		78.125000
2294		82.031250
2295		78.125000
2296		82.031250
2297		78.125000
2298		82.031250
2299		78.125000
2300		85.937500
2301		78.125000
2302		85.937500
2303		78.125000
2304		85.937500
2305		78.125000
2306		85.937500
2307		78.125000
2308		85.937500
2309		78.125000
2310		85.937500
2311		78.125000
2312		85.937500
2313		82.031250
2314		85.937500
2315		82.031250
2316		85.937500
2317		82.031250
2318		89.843750
2319		78.125000
2320		85.937500
2321		82.031250
2322		85.937500
2323		82.031250
2324		89.843750
2325		82.031250
2326		85.937500
2327		82.031250
2328		85.937500
2329		82.031250
2330		85.937500
2331		82.031250
2332		85.937500
2333		78.125000
2334		85.937500
2335		78.125000
2336		85.937500
2337		78.125000
2338		85.937500
2339		78.125000
2340		85.937500
2341		78.125000
2342		85.937500
2343		78.125000
2344		85.937500
2345		78.125000
2346		82.031250
2347		78.125000
2348		82.031250
2349		78.125000
2350		82.031250
2351		74.218750
2352		82.031250
2353		74.218750
2354		82.031250
2355		74.218750
2356		82.031250
2357		74.218750
2358		82.031250
2359		74.218750
2360		78.125000
2361		74.218750
2362		78.125000
2363		74.218750
2364		78.125000
2365		70.312500
2366		78.125000
2367		70.312500
2368		78.125000
2369		70.312500
2370		74.218750
2371		66.406250
2372		74.218750
2373		66.406250
2374		74.218750
2375		66.406250
2376		74.218750
2377		66.406250
2378		70.312500
2379		66.406250
2380		70.312500
2381		62.500000
2382		66.406250
2383		62.500000
2384		70.312500
2385		58.593750
2386		66.406250
2387		58.593750
2388		66.406250
2389		58.593750
2390		66.406250
2391		54.687500
2392		62.500000
2393		54.687500
2394		62.500000
2395		54.687500
2396		62.500000
2397		54.687500
2398		58.593750
2399		50.781250
2400		58.593750
2401		50.781250
2402		58.593750
2403		46.875000
2404		54.687500
2405		46.875000
2406		54.687500
2407		46.875000
2408		54.687500
2409		42.968750
2410		50.781250
2411		42.968750
2412		50.781250
2413		42.968750
2414		46.875000
2415		42.968750
2416		46.875000
2417		39.062500
2418		46.875000
2419		35.156250
2420		42.968750
2421		35.156250
2422		42.968750
2423		35.156250
2424		42.968750
2425		31.250000
2426		39.062500
2427		31.250000
2428		39.062500
2429		31.250000
2430		35.156250
2431		31.250000
2432		35.156250
2433		27.343750
2434		35.156250
2435		23.437500
2436		31.250000
2437		23.437500
2438		31.250000
2439		23.437500
2440		27.343750
2441		19.531250
2442		27.343750
2443		19.531250
2444		27.343750
2445		19.531250
2446		23.437500
2447		19.531250
2448		19.531250
2449		15.625000
2450		19.531250
2451		11.718750
2452		19.531250
2453		11.718750
2454		19.531250
2455		11.718750
2456		15.625000
2457		7.812500
2458		15.625000
2459		7.812500
2460		15.625000
2461		7.812500
2462		15.625000
2463		7.812500
2464		11.718750
2465		3.906250
2466		7.812500
2467		3.906250
2468		7.812500
2469		0.000000
2470		7.812500
2471		0.000000
2472		7.812500
2473		0.000000
2474		7.812500
2475		-3.906250
2476		3.906250
2477		-3.906250
2478		3.906250
2479		-3.906250
2480		3.906250
2481		-3.906250
2482		0.000000
2483		-7.812500
2484		0.000000
2485		-7.812500
2486		0.000000
2487		-7.812500
2488		0.000000
2489		-7.812500
2490		0.000000
2491		-7.812500
2492		0.000000
2493		-11.718750
2494		-3.906250
2495		-11.718750
2496		-3.906250
2497		-7.812500
2498		-3.906250
2499		-11.718750
2500		-7.812500
2501		-11.718750
2502		-3.906250
2503		-11.718750
2504		-7.812500
2505		-15.625000
2506		-7.812500
2507		-15.625000
2508		-7.812500
2509		-15.625000
2510		-7.812500
2511		-15.625000
2512		-7.812500
2513		-11.718750
2514		-7.812500
2515		-11.718750
2516		-7.812500
2517		-15.625000
2518		-7.812500
2519		-15.625000
2520		-7.812500
2521		-15.625000
2522		-7.812500
2523		-15.625000
2524		-7.812500
2525		-15.625000
2526		-7.812500
2527		-15.625000
2528		-7.812500
2529		-15.625000
2530		-7.812500
2531		-11.718750
2532		-7.812500
2533		-11.718750
2534		-7.812500
2535		-15.625000
2536		-7.812500
2537		-15.625000
2538		-7.812500
2539		-11.718750
2540		-3.906250
2541		-11.718750
2542		-3.906250
2543		-11.718750
2544		-3.906250
2545		-11.718750
2546		-3.906250
2547		-7.812500
2548		-3.906250
2549		-7.812500
2550		-3.906250
2551		-11.718750
2552		-3.906250
2553		-7.812500
2554		-3.906250
2555		-7.812500
2556		0.000000
2557		-7.812500
2558		0.000000
2559		-7.812500
2560		0.000000
2561		-7.812500
2562		0.000000
2563		-3.906250
2564		0.000000
2565		-3.906250
2566		0.000000
2567		-3.906250
2568		3.906250
2569		0.000000
2570		7.812500
2571		0.000000
2572		7.812500
2573		0.000000
2574		7.812500
2575		3.906250
2576		7.812500
2577		3.906250
2578		11.718750
2579		3.906250
2580		11.718750
2581		7.812500
2582		11.718750
2583		7.812500
2584		11.718750
2585		7.812500
2586		15.625000
2587		11.718750
2588		15.625000
2589		11.718750
2590		19.531250
2591		11.718750
2592		19.531250
2593		11.718750
2594		19.531250
2595		15.625000
2596		23.437500
2597		15.625000
2598		23.437500
2599		19.531250
2600		23.437500
2601		19.531250
2602		27.343750
2603		19.531250
2604		27.343750
2605		23.437500
2606		31.250000
2607		23.437500
2608		31.250000
2609		23.437500
2610		31.250000
2611		27.343750
2612		35.156250
2613		27.343750
2614		35.156250
2615		31.250000
2616		35.156250
2617		31.250000
2618		39.062500
2619		31.250000
2620		39.062500
2621		35.156250
2622		42.968750
2623		35.156250
2624		42.968750
2625		39.062500
2626		42.968750
2627		39.062500
2628		46.875000
2629		39.062500
2630		46.875000
2631		42.968750
2632		46.875000
2633		42.968750
2634		46.875000
2635		42.968750
2636		50.781250
2637		46.875000
2638		50.781250
2639		46.875000
2640		54.687500
2641		46.875000
2642		54.687500
2643		50.781250
2644		58.593750
2645		50.781250
2646		58.593750
2647		50.781250
2648		58.593750
2649		54.687500
2650		58.593750
2651		54.687500
2652		62.500000
2653		54.687500
2654		62.500000
2655		58.593750
2656		62.500000
2657		58.593750
2658		66.406250
2659		58.593750
2660		66.406250
2661		62.500000
2662		66.406250
2663		62.500000
2664		70.312500
2665		66.406250
2666		70.312500
2667		66.406250
2668		70.312500
2669		66.406250
2670		74.218750
2671		66.406250
2672		74.218750
2673		66.406250
2674		74.218750
2675		70.312500
2676		74.218750
2677		70.312500
2678		74.218750
2679		70.312500
2680		78.125000
2681		74.218750
2682		78.125000
2683		74.218750
2684		78.125000
2685		74.218750
2686		78.125000
2687		74.218750
2688		82.031250
2689		74.218750
2690		82.031250
2691		74.218750
2692		82.031250
2693		74.218750
2694		82.031250
2695		74.218750
2696		82.031250
2697		74.218750
2698		82.031250
2699		78.125000
2700		82.031250
2701		78.125000
2702		85.937500
2703		78.125000
2704		85.937500
2705		78.125000
2706		85.937500
2707		78.125000
2708		85.937500
2709		78.125000
2710		85.937500
2711		78.125000
2712		85.937500
2713		78.125000
2714		85.937500
2715		82.031250
2716		85.937500
2717		82.031250
2718		85.937500
2719		78.125000
2720		85.937500
2721		82.031250
2722		85.937500
2723		78.125000
2724		85.937500
2725		78.125000
2726		85.937500
2727		78.125000
2728		85.937500
2729		78.125000
2730		85.937500
2731		82.031250
2732		85.937500
2733		82.031250
2734		85.937500
2735		78.125000
2736		85.937500
2737		78.125000
2738		85.937500
2739		78.125000
2740		85.937500
2741		78.125000
2742		85.937500
2743		78.125000
2744		85.937500
2745		78.125000
2746		85.937500
2747		78.125000
2748		82.031250
2749		78.125000
2750		82.031250
2751		78.125000
2752		82.031250
2753		74.218750
2754		82.031250
2755		74.218750
2756		82.031250
2757		74.218750
2758		82.031250
2759		74.218750
2760		82.031250
2761		74.218750
2762		82.031250
2763		74.218750
2764		78.125000
2765		74.218750
2766		78.125000
2767		74.218750
2768		74.218750
2769		70.312500
2770		78.125000
2771		70.312500
2772		74.218750
2773		70.312500
2774		74.218750
2775		70.312500
2776		74.218750
2777		66.406250
2778		74.218750
2779		66.406250
2780		70.312500
2781		66.406250
2782		70.312500
2783		66.406250
2784		66.406250
2785		62.500000
2786		66.406250
2787		62.500000
2788		66.406250
2789		62.500000
2790		66.406250
2791		58.593750
2792		62.500000
2793		58.593750
2794		62.500000
2795		58.593750
2796		62.500000
2797		54.687500
2798		58.593750
2799		54.687500
2800		58.593750
2801		54.687500
2802		58.593750
2803		50.781250
2804		58.593750
2805		50.781250
2806		54.687500
2807		46.875000
2808		54.687500
2809		46.875000
2810		50.781250
2811		46.875000
2812		50.781250
2813		42.968750
2814		50.781250
2815		42.968750
2816		46.875000
2817		42.968750
2818		46.875000
2819		39.062500
2820		46.875000
2821		39.062500
2822		42.968750
2823		39.062500
2824		42.968750
2825		35.156250
2826		39.062500
2827		35.156250
2828		39.062500
2829		31.250000
2830		39.062500
2831		31.250000
2832		35.156250
2833		31.250000
2834		35.156250
2835		27.343750
2836		31.250000
2837		27.343750
2838		31.250000
2839		23.437500
2840		31.250000
2841		23.437500
2842		27.343750
2843		23.437500
2844		27.343750
2845		19.531250
2846		23.437500
2847		19.531250
2848		23.437500
2849		19.531250
2850		23.437500
2851		15.625000
2852		19.531250
2853		15.625000
2854		19.531250
2855		15.625000
2856		19.531250
2857		11.718750
2858		15.625000
2859		11.718750
2860		15.625000
2861		11.718750
2862		11.718750
2863		7.812500
2864		11.718750
2865		7.812500
2866		11.718750
2867		7.812500
2868		11.718750
2869		3.906250
2870		7.812500
2871		3.906250
2872		7.812500
2873		3.906250
2874		7.812500
2875		0.000000
2876		3.906250
2877		0.000000
2878		3.906250
2879		-3.906250
2880		3.906250
2881		-3.906250
2882		0.000000
2883		-3.906250
2884		0.000000
2885		-3.906250
2886		0.000000
2887		-3.906250
2888		0.000000
2889		-7.812500
2890		0.000000
2891		-7.812500
2892		0.000000
2893		-7.812500
2894		-3.906250
2895		-7.812500
2896		-3.906250
2897		-7.812500
2898		-3.906250
2899		-7.812500
2900		-7.812500
2901		-7.812500
2902		-7.812500
2903		-11.718750
2904		-7.812500
2905		-11.718750
2906		-7.812500
2907		-11.718750
2908		-7.812500
2909		-11.718750
2910		-7.812500
2911		-11.718750
2912		-7.812500
2913		-11.718750
2914		-7.812500
2915		-11.718750
2916		-7.812500
2917		-11.718750
2918		-7.812500
2919		-11.718750
2920		-7.812500
2921		-15.625000
2922		-7.812500
2923		-11.718750
2924		-11.718750
2925		-11.718750
2926		-7.812500
2927		-11.718750
2928		-11.718750
2929		-11.718750
2930		-7.812500
2931		-11.718750
2932		-7.812500
2933		-11.718750
2934		-7.812500
2935		-11.718750
2936		-7.812500
2937		-11.718750
2938		-7.812500
2939		-11.718750
2940		-7.812500
2941		-11.718750
2942		-7.812500
2943		-11.718750
2944		-7.812500
2945		-11.718750
2946		-7.812500
2947		-11.718750
2948		-7.812500
2949		-7.812500
2950		-3.906250
2951		-7.812500
2952		-3.906250
2953		-7.812500
2954		-3.906250
2955		-7.812500
2956		-3.906250
2957		-7.812500
2958		-3.906250
2959		-7.812500
2960		-3.906250
2961		-3.906250
2962		0.000000
2963		-3.906250
2964		0.000000
2965		-3.906250
2966		0.000000
2967		-3.906250
2968		0.000000
2969		-3.906250
2970		3.906250
2971		0.000000
2972		3.906250
2973		0.000000
2974		3.906250
2975		0.000000
2976		3.906250
2977		3.906250
2978		7.812500
2979		3.906250
2980		7.812500
2981		3.906250
2982		11.718750
2983		7.812500
2984		11.718750
2985		7.812500
2986		11.718750
2987		7.812500
2988		11.718750
2989		11.718750
2990		15.625000
2991		11.718750
2992		15.625000
2993		11.718750
2994		15.625000
2995		11.718750
2996		19.531250
2997		15.625000
2998		19.531250
2999		15.625000
3000		23.437500
3001		19.531250
3002		23.437500
3003		19.531250
3004		23.437500
3005		19.531250
3006		27.343750
3007		23.437500
3008		27.343750
3009		23.437500
3010		27.343750
3011		23.437500
3012		31.250000
3013		27.343750
3014		31.250000
3015		27.343750
3016		31.250000
3017		31.250000
3018		35.156250
3019		31.250000
3020		35.156250
3021		31.250000
3022		39.062500
3023		35.156250
3024		39.062500
3025		35.156250
3026		39.062500
3027		39.062500
3028		42.968750
3029		39.062500
3030		42.968750
3031		39.062500
3032		46.875000
3033		42.968750
3034		46.875000
3035		42.968750
3036		46.875000
3037		46.875000
3038		50.781250
3039		46.875000
3040		50.781250
3041		46.875000
3042		50.781250
3043		50.781250
3044		54.687500
3045		50.781250
3046		54.687500
3047		50.781250
3048		54.687500
3049		54.687500
3050		58.593750
3051		54.687500
3052		58.593750
3053		54.687500
3054		58.593750
3055		54.687500
3056		62.500000
3057		58.593750
3058		62.500000
3059		58.593750
3060		62.500000
3061		62.500000
3062		66.406250
3063		62.500000
3064		66.406250
3065		62.500000
3066		66.406250
3067		62.500000
3068		66.406250
3069		66.406250
3070		70.312500
3071		66.406250
3072		70.312500
3073		66.406250
3074		70.312500
3075		70.312500
3076		70.312500
3077		70.312500
3078		74.218750
3079		70.312500
3080		74.218750
3081		70.312500
3082		74.218750
3083		70.312500
3084		74.218750
3085		74.218750
3086		78.125000
3087		74.218750
3088		78.125000
3089		74.218750
3090		78.125000
3091		74.218750
3092		78.125000
3093		74.218750
3094		78.125000
3095		78.125000
3096		82.031250
3097		78.125000
3098		82.031250
3099		78.125000
3100		82.031250
3101		78.125000
3102		82.031250
3103		78.125000
3104		82.031250
3105		78.125000
3106		82.031250
3107		82.031250
3108		82.031250
3109		78.125000
3110		82.031250
3111		82.031250
3112		85.937500
3113		82.031250
3114		85.937500
3115		82.031250
3116		85.937500
3117		82.031250
3118		85.937500
3119		82.031250
3120		85.937500
3121		82.031250
3122		85.937500
3123		82.031250
3124		85.937500
3125		82.031250
3126		85.937500
3127		82.031250
3128		85.937500
3129		82.031250
3130		85.937500
3131		82.031250
3132		85.937500
3133		82.031250
3134		85.937500
3135		82.031250
3136		85.937500
3137		82.031250
3138		85.937500
3139		82.031250
3140		85.937500
3141		82.031250
3142		85.937500
3143		82.031250
3144		82.031250
3145		82.031250
3146		82.031250
3147		78.125000
3148		82.031250
3149		78.125000
3150		82.031250
3151		78.125000
3152		82.031250
3153		78.125000
3154		82.031250
3155		78.125000
3156		82.031250
3157		78.125000
3158		82.031250
3159		78.125000
3160		82.031250
3161		74.218750
3162		78.125000
3163		74.218750
3164		78.125000
3165		74.218750
3166		78.125000
3167		74.218750
3168		78.125000
3169		74.218750
3170		78.125000
3171		74.218750
3172		74.218750
3173		70.312500
3174		74.218750
3175		70.312500
3176		74.218750
3177		70.312500
3178		74.218750
3179		66.406250
3180		74.218750
3181		66.406250
3182		70.312500
3183		66.406250
3184		70.312500
3185		66.406250
3186		70.312500
3187		62.500000
3188		66.406250
3189		62.500000
3190		66.406250
3191		62.500000
3192		66.406250
3193		58.593750
3194		62.500000
3195		58.593750
3196		62.500000
3197		58.593750
3198		62.500000
3199		58.593750
3200		62.500000
3201		54.687500
3202		58.593750
3203		54.687500
3204		58.593750
3205		50.781250
3206		58.593750
3207		50.781250
3208		54.687500
3209		50.781250
3210		54.687500
3211		46.875000
3212		50.781250
3213		46.875000
3214		50.781250
3215		46.875000
3216		50.781250
3217		42.968750
3218		50.781250
3219		42.968750
3220		46.875000
3221		42.968750
3222		46.875000
3223		39.062500
3224		42.968750
3225		39.062500
3226		42.968750
3227		39.062500
3228		39.062500
3229		35.156250
3230		39.062500
3231		35.156250
3232		39.062500
3233		31.250000
3234		35.156250
3235		31.250000
3236		35.156250
3237		31.250000
3238		35.156250
3239		27.343750
3240		31.250000
3241		27.343750
3242		31.250000
3243		23.437500
3244		27.343750
3245		23.437500
3246		27.343750
3247		23.437500
3248		27.343750
3249		19.531250
3250		23.437500
3251		19.531250
3252		23.437500
3253		15.625000
3254		19.531250
3255		15.625000
3256		19.531250
3257		11.718750
3258		19.531250
3259		11.718750
3260		19.531250
3261		11.718750
3262		15.625000
3263		7.812500
3264		15.625000
3265		7.812500
3266		11.718750
3267		7.812500
3268		11.718750
3269		7.812500
3270		11.718750
3271		3.906250
3272		7.812500
3273		3.906250
3274		7.812500
3275		3.906250
3276		7.812500
3277		0.000000
3278		3.906250
3279		0.000000
3280		3.906250
3281		0.000000
3282		3.906250
3283		0.000000
3284		3.906250
3285		-3.906250
3286		0.000000
3287		-3.906250
3288		0.000000
3289		-3.906250
3290		0.000000
3291		-3.906250
3292		0.000000
3293		-7.812500
3294		0.000000
3295		-7.812500
3296		-3.906250
3297		-7.812500
3298		-3.906250
3299		-7.812500
3300		-3.906250
3301		-7.812500
3302		-3.906250
3303		-7.812500
3304		-3.906250
3305		-11.718750
3306		-7.812500
3307		-11.718750
3308		-7.812500
3309		-11.718750
3310		-7.812500
3311		-11.718750
3312		-7.812500
3313		-11.718750
3314		-7.812500
3315		-11.718750
3316		-7.812500
3317		-11.718750
3318		-7.812500
3319		-11.718750
3320		-7.812500
3321		-11.718750
3322		-11.718750
3323		-11.718750
3324		-7.812500
3325		-11.718750
3326		-11.718750
3327		-11.718750
3328		-7.812500
3329		-11.718750
3330		-11.718750
3331		-15.625000
3332		-7.812500
3333		-11.718750
3334		-11.718750
3335		-11.718750
3336		-7.812500
3337		-11.718750
3338		-7.812500
3339		-11.718750
3340		-7.812500
3341		-11.718750
3342		-7.812500
3343		-11.718750
3344		-7.812500
3345		-11.718750
3346		-7.812500
3347		-11.718750
3348		-7.812500
3349		-11.718750
3350		-7.812500
3351		-11.718750
3352		-7.812500
3353		-7.812500
3354		-3.906250
3355		-7.812500
3356		-3.906250
3357		-7.812500
3358		-3.906250
3359		-7.812500
3360		-3.906250
3361		-7.812500
3362		-3.906250
3363		-3.906250
3364		-3.906250
3365		-3.906250
3366		0.000000
3367		-3.906250
3368		0.000000
3369		-3.906250
3370		0.000000
3371		0.000000
3372		0.000000
3373		0.000000
3374		3.906250
3375		0.000000
3376		3.906250
3377		0.000000
3378		7.812500
3379		3.906250
3380		7.812500
3381		3.906250
3382		7.812500
3383		3.906250
3384		7.812500
3385		3.906250
3386		11.718750
3387		7.812500
3388		11.718750
3389		7.812500
3390		11.718750
3391		7.812500
3392		11.718750
3393		11.718750
3394		15.625000
3395		11.718750
3396		15.625000
3397		15.625000
3398		15.625000
3399		15.625000
3400		19.531250
3401		15.625000
3402		19.531250
3403		19.531250
3404		23.437500
3405		19.531250
3406		23.437500
3407		19.531250
3408		23.437500
3409		23.437500
3410		27.343750
3411		23.437500
3412		27.343750
3413		23.437500
3414		27.343750
3415		27.343750
3416		31.250000
3417		27.343750
3418		35.156250
3419		27.343750
3420		35.156250
3421		31.250000
3422		35.156250
3423		31.250000
3424		39.062500
3425		35.156250
3426		39.062500
3427		35.156250
3428		39.062500
3429		35.156250
3430		42.968750
3431		39.062500
3432		42.968750
3433		39.062500
3434		42.968750
3435		42.968750
3436		46.875000
3437		42.968750
3438		46.875000
3439		42.968750
3440		46.875000
3441		42.968750
3442		50.781250
3443		46.875000
3444		50.781250
3445		46.875000
3446		50.781250
3447		50.781250
3448		54.687500
3449		50.781250
3450		54.687500
3451		50.781250
3452		54.687500
3453		54.687500
3454		58.593750
3455		54.687500
3456		58.593750
3457		58.593750
3458		58.593750
3459		58.593750
3460		62.500000
3461		58.593750
3462		62.500000
3463		58.593750
3464		62.500000
3465		62.500000
3466		66.406250
3467		62.500000
3468		66.406250
3469		62.500000
3470		70.312500
3471		62.500000
3472		70.312500
3473		66.406250
3474		70.312500
3475		66.406250
3476		70.312500
3477		66.406250
3478		70.312500
3479		70.312500
3480		74.218750
3481		70.312500
3482		74.218750
3483		70.312500
3484		74.218750
3485		70.312500
3486		74.218750
3487		70.312500
3488		78.125000
3489		74.218750
3490		78.125000
3491		74.218750
3492		78.125000
3493		74.218750
3494		78.125000
3495		74.218750
3496		78.125000
3497		78.125000
3498		78.125000
3499		74.218750
3500		82.031250
3501		78.125000
3502		82.031250
3503		78.125000
3504		82.031250
3505		78.125000
3506		82.031250
3507		78.125000
3508		82.031250
3509		78.125000
3510		82.031250
3511		82.031250
3512		85.937500
3513		82.031250
3514		85.937500
3515		82.031250
3516		85.937500
3517		82.031250
3518		85.937500
3519		82.031250
3520		85.937500
3521		82.031250
3522		85.937500
3523		82.031250
3524		85.937500
3525		82.031250
3526		85.937500
3527		82.031250
3528		85.937500
3529		82.031250
3530		85.937500
3531		82.031250
3532		85.937500
3533		82.031250
3534		85.937500
3535		82.031250
3536		85.937500
3537		82.031250
3538		85.937500
3539		82.031250
3540		85.937500
3541		82.031250
3542		85.937500
3543		82.031250
3544		85.937500
3545		82.031250
3546		85.937500
3547		82.031250
3548		85.937500
3549		82.031250
3550		85.937500
3551		78.125000
3552		82.031250
3553		78.125000
3554		82.031250
3555		78.125000
3556		82.031250
3557		78.125000
3558		82.031250
3559		78.125000
3560		82.031250
3561		78.125000
3562		82.031250
3563		78.125000
3564		78.125000
3565		74.218750
3566		78.125000
3567		74.218750
3568		78.125000
3569		74.218750
3570		78.125000
3571		74.218750
3572		78.125000
3573		74.218750
3574		78.125000
3575		70.312500
3576		74.218750
3577		70.312500
3578		74.218750
3579		70.312500
3580		74.218750
3581		70.312500
3582		74.218750
3583		66.406250
3584		70.312500
3585		66.406250
3586		70.312500
3587		66.406250
3588		70.312500
3589		66.406250
3590		70.312500
3591		62.500000
3592		66.406250
3593		62.500000
3594		66.406250
3595		62.500000
3596		66.406250
3597		58.593750
3598		62.500000
3599		58.593750
3600		62.500000
3601		58.593750
3602		62.500000
3603		54.687500
3604		62.500000
3605		54.687500
3606		58.593750
3607		54.687500
3608		58.593750
3609		50.781250
3610		54.687500
3611		50.781250
3612		54.687500
3613		50.781250
3614		54.687500
3615		46.875000
3616		50.781250
3617		46.875000
3618		50.781250
3619		42.968750
3620		50.781250
3621		42.968750
3622		46.875000
3623		42.968750
3624		46.875000
3625		39.062500
3626		46.875000
3627		39.062500
3628		42.968750
3629		39.062500
3630		42.968750
3631		35.156250
3632		39.062500
3633		35.156250
3634		39.062500
3635		35.156250
3636		39.062500
3637		31.250000
3638		35.156250
3639		31.250000
3640		35.156250
3641		27.343750
3642		31.250000
3643		27.343750
3644		31.250000
3645		23.437500
3646		31.250000
3647		23.437500
3648		27.343750
3649		23.437500
3650		27.343750
3651		19.531250
3652		23.437500
3653		19.531250
3654		23.437500
3655		19.531250
3656		23.437500
3657		15.625000
3658		19.531250
3659		15.625000
3660		19.531250
3661		15.625000
3662		19.531250
3663		11.718750
3664		15.625000
3665		11.718750
3666		15.625000
3667		11.718750
3668		15.625000
3669		7.812500
3670		11.718750
3671		7.812500
3672		11.718750
3673		7.812500
3674		11.718750
3675		3.906250
3676		7.812500
3677		3.906250
3678		7.812500
3679		3.906250
3680		7.812500
3681		0.000000
3682		3.906250
3683		0.000000
3684		3.906250
3685		0.000000
3686		3.906250
3687		-3.906250
3688		0.000000
3689		-3.906250
3690		0.000000
3691		-3.906250
3692		0.000000
3693		-3.906250
3694		0.000000
3695		-3.906250
3696		0.000000
3697		-7.812500
3698		-3.906250
3699		-7.812500
3700		-3.906250
3701		-7.812500
3702		-3.906250
3703		-7.812500
3704		-3.906250
3705		-11.718750
3706		-3.906250
3707		-11.718750
3708		-7.812500
3709		-11.718750
3710		-7.812500
3711		-11.718750
3712		-7.812500
3713		-11.718750
3714		-7.812500
3715		-11.718750
3716		-7.812500
3717		-11.718750
3718		-7.812500
3719		-11.718750
3720		-7.812500
3721		-11.718750
3722		-7.812500
3723		-11.718750
3724		-7.812500
3725		-11.718750
3726		-7.812500
3727		-15.625000
3728		-7.812500
3729		-11.718750
3730		-11.718750
3731		-11.718750
3732		-7.812500
3733		-11.718750
3734		-7.812500
3735		-11.718750
3736		-7.812500
3737		-11.718750
3738		-7.812500
3739		-11.718750
3740		-7.812500
3741		-11.718750
3742		-7.812500
3743		-11.718750
3744		-7.812500
3745		-11.718750
3746		-7.812500
3747		-11.718750
3748		-7.812500
3749		-11.718750
3750		-7.812500
3751		-11.718750
3752		-7.812500
3753		-11.718750
3754		-7.812500
3755		-7.812500
3756		-3.906250
3757		-7.812500
3758		-3.906250
3759		-7.812500
3760		-3.906250
3761		-7.812500
3762		-3.906250
3763		-7.812500
3764		0.000000
3765		-7.812500
3766		-3.906250
3767		-3.906250
3768		0.000000
3769		-7.812500
3770		0.000000
3771		-3.906250
3772		0.000000
3773		-3.906250
3774		3.906250
3775		0.000000
3776		0.000000
3777		0.000000
3778		3.906250
3779		0.000000
3780		3.906250
3781		0.000000
3782		7.812500
3783		3.906250
3784		7.812500
3785		3.906250
3786		7.812500
3787		3.906250
3788		7.812500
3789		7.812500
3790		11.718750
3791		7.812500
3792		11.718750
3793		7.812500
3794		11.718750
3795		11.718750
3796		15.625000
3797		11.718750
3798		15.625000
3799		11.718750
3800		15.625000
3801		15.625000
3802		19.531250
3803		15.625000
3804		19.531250
3805		15.625000
3806		19.531250
3807		19.531250
3808		23.437500
3809		19.531250
3810		23.437500
3811		23.437500
3812		27.343750
3813		23.437500
3814		27.343750
3815		23.437500
3816		27.343750
3817		27.343750
3818		31.250000
3819		27.343750
3820		31.250000
3821		27.343750
3822		31.250000
3823		31.250000
3824		35.156250
3825		31.250000
3826		35.156250
3827		35.156250
3828		39.062500
3829		35.156250
3830		39.062500
3831		35.156250
3832		39.062500
3833		39.062500
3834		42.968750
3835		39.062500
3836		42.968750
3837		39.062500
3838		46.875000
3839		42.968750
3840		46.875000
3841		42.968750
3842		46.875000
3843		42.968750
3844		50.781250
3845		46.875000
3846		50.781250
3847		46.875000
3848		50.781250
3849		50.781250
3850		54.687500
3851		50.781250
3852		54.687500
3853		50.781250
3854		54.687500
3855		54.687500
3856		58.593750
3857		54.687500
3858		58.593750
3859		54.687500
3860		58.593750
3861		58.593750
3862		62.500000
3863		58.593750
3864		62.500000
3865		58.593750
3866		62.500000
3867		58.593750
3868		66.406250
3869		62.500000
3870		66.406250
3871		62.500000
3872		66.406250
3873		62.500000
3874		70.312500
3875		66.406250
3876		70.312500
3877		66.406250
3878		70.312500
3879		66.406250
3880		70.312500
3881		70.312500
3882		74.218750
3883		70.312500
3884		74.218750
3885		70.312500
3886		74.218750
3887		70.312500
3888		74.218750
3889		70.312500
3890		78.125000
3891		70.312500
3892		78.125000
3893		74.218750
3894		78.125000
3895		74.218750
3896		78.125000
3897		74.218750
3898		78.125000
3899		78.125000
3900		78.125000
3901		78.125000
3902		82.031250
3903		78.125000
3904		82.031250
3905		78.125000
3906		82.031250
3907		78.125000
3908		82.031250
3909		78.125000
3910		82.031250
3911		78.125000
3912		82.031250
3913		78.125000
3914		85.937500
3915		78.125000
3916		82.031250
3917		82.031250
3918		85.937500
3919		82.031250
3920		85.937500
3921		82.031250
3922		85.937500
3923		82.031250
3924		85.937500
3925		82.031250
3926		85.937500
3927		82.031250
3928		85.937500
3929		82.031250
3930		85.937500
3931		82.031250
3932		85.937500
3933		82.031250
3934		85.937500
3935		82.031250
3936		85.937500
3937		82.031250
3938		85.937500
3939		82.031250
3940		85.937500
3941		82.031250
3942		85.937500
3943		82.031250
3944		85.937500
3945		82.031250
3946		85.937500
3947		82.031250
3948		85.937500
3949		82.031250
3950		85.937500
3951		78.125000
3952		82.031250
3953		78.125000
3954		82.031250
3955		78.125000
3956		82.031250
3957		78.125000
3958		82.031250
3959		78.125000
3960		82.031250
3961		78.125000
3962		82.031250
3963		78.125000
3964		82.031250
3965		78.125000
3966		82.031250
3967		78.125000
3968		78.125000
3969		74.218750
3970		78.125000
3971		74.218750
3972		78.125000
3973		74.218750
3974		78.125000
3975		74.218750
3976		78.125000
3977		70.312500
3978		78.125000
3979		70.312500
3980		74.218750
3981		70.312500
3982		74.218750
3983		70.312500
3984		74.218750
3985		70.312500
3986		70.312500
3987		66.406250
3988		74.218750
3989		66.406250
3990		70.312500
3991		66.406250
3992		70.312500
3993		62.500000
3994		66.406250
3995		62.500000
3996		66.406250
3997		62.500000
3998		66.406250
3999		62.500000
4000		66.406250
4001		58.593750
4002		62.500000
4003		58.593750
4004		62.500000
4005		58.593750
4006		62.500000
4007		54.687500
4008		58.593750
4009		54.687500
4010		58.593750
4011		54.687500
4012		58.593750
4013		50.781250
4014		54.687500
4015		50.781250
4016		54.687500
4017		50.781250
4018		54.687500
4019		46.875000
4020		50.781250
4021		46.875000
4022		50.781250
4023		42.968750
4024		46.875000
4025		42.968750
4026		46.875000
4027		42.968750
4028		46.875000
4029		39.062500
4030		42.968750
4031		39.062500
4032		42.968750
4033		39.062500
4034		42.968750
4035		35.156250
4036		39.062500
4037		35.156250
4038		39.062500
4039		31.250000
4040		35.156250
4041		31.250000
4042		35.156250
4043		31.250000
4044		35.156250
4045		27.343750
4046		31.250000
4047		27.343750
4048		31.250000
4049		23.437500
4050		27.343750
4051		23.437500
4052		27.343750
4053		23.437500
4054		27.343750
4055		19.531250
4056		23.437500
4057		19.531250
4058		23.437500
4059		19.531250
4060		23.437500
4061		15.625000
4062		19.531250
4063		15.625000
4064		19.531250
4065		15.625000
4066		19.531250
4067		11.718750
4068		15.625000
4069		11.718750
4070		15.625000
4071		7.812500
4072		11.718750
4073		7.812500
4074		11.718750
4075		7.812500
4076		11.718750
4077		7.812500
4078		7.812500
4079		3.906250
4080		7.812500
4081		3.906250
4082		7.812500
4083		3.906250
4084		7.812500
4085		0.000000
4086		3.906250
4087		0.000000
4088		3.906250
4089		0.000000
4090		3.906250
4091		-3.906250
4092		0.000000
4093		-3.906250
4094		0.000000
4095		-3.906250
4096		0.000000
4097		-3.906250
4098		0.000000
4099		-3.906250
4100		0.000000
4101		-7.812500
4102		-3.906250
4103		-7.812500
4104		-3.906250
4105		-7.812500
4106		-3.906250
4107		-7.812500
4108		-3.906250
4109		-11.718750
4110		-3.906250
4111		-11.718750
4112		-7.812500
4113		-11.718750
4114		-7.812500
4115		-11.718750
4116		-7.812500
4117		-11.718750
4118		-7.812500
4119		-11.718750
4120		-7.812500
4121		-11.718750
4122		-7.812500
4123		-11.718750
4124		-7.812500
4125		-11.718750
4126		-7.812500
4127		-11.718750
4128		-11.718750
4129		-11.718750
4130		-11.718750
4131		-15.625000
4132		-7.812500
4133		-15.625000
4134		-11.718750
4135		-11.718750
4136		-7.812500
4137		-15.625000
4138		-7.812500
4139		-11.718750
4140		-11.718750
4141		-11.718750
4142		-7.812500
4143		-15.625000
4144		-7.812500
4145		-11.718750
4146		-7.812500
4147		-11.718750
4148		-7.812500
4149		-11.718750
4150		-7.812500
4151		-11.718750
4152		-7.812500
4153		-11.718750
4154		-7.812500
4155		-11.718750
4156		-7.812500
4157		-11.718750
4158		-7.812500
4159		-11.718750
4160		-3.906250
4161		-7.812500
4162		-7.812500
4163		-7.812500
4164		-3.906250
4165		-7.812500
4166		-3.906250
4167		-7.812500
4168		-3.906250
4169		-7.812500
4170		-3.906250
4171		-3.906250
4172		0.000000
4173		-3.906250
4174		0.000000
4175		-3.906250
4176		0.000000
4177		-3.906250
4178		0.000000
4179		0.000000
4180		3.906250
4181		0.000000
4182		3.906250
4183		0.000000
4184		3.906250
4185		3.906250
4186		7.812500
4187		3.906250
4188		7.812500
4189		3.906250
4190		7.812500
4191		3.906250
4192		11.718750
4193		7.812500
4194		11.718750
4195		7.812500
4196		11.718750
4197		7.812500
4198		11.718750
4199		11.718750
4200		15.625000
4201		11.718750
4202		15.625000
4203		15.625000
4204		15.625000
4205		15.625000
4206		19.531250
4207		15.625000
4208		19.531250
4209		15.625000
4210		23.437500
4211		19.531250
4212		23.437500
4213		19.531250
4214		23.437500
4215		19.531250
4216		27.343750
4217		23.437500
4218		27.343750
4219		23.437500
4220		27.343750
4221		27.343750
4222		31.250000
4223		27.343750
4224		31.250000
4225		31.250000
4226		35.156250
4227		31.250000
4228		35.156250
4229		31.250000
4230		35.156250
4231		35.156250
4232		39.062500
4233		35.156250
4234		39.062500
4235		35.156250
4236		39.062500
4237		39.062500
4238		42.968750
4239		39.062500
4240		42.968750
4241		39.062500
4242		46.875000
4243		42.968750
4244		46.875000
4245		42.968750
4246		50.781250
4247		46.875000
4248		50.781250
4249		46.875000
4250		50.781250
4251		46.875000
4252		54.687500
4253		50.781250
4254		54.687500
4255		50.781250
4256		54.687500
4257		50.781250
4258		54.687500
4259		54.687500
4260		58.593750
4261		54.687500
4262		58.593750
4263		54.687500
4264		62.500000
4265		58.593750
4266		62.500000
4267		58.593750
4268		62.500000
4269		58.593750
4270		62.500000
4271		62.500000
4272		66.406250
4273		62.500000
4274		66.406250
4275		62.500000
4276		66.406250
4277		66.406250
4278		70.312500
4279		66.406250
4280		70.312500
4281		66.406250
4282		70.312500
4283		66.406250
4284		70.312500
4285		70.312500
4286		74.218750
4287		70.312500
4288		74.218750
4289		70.312500
4290		74.218750
4291		70.312500
4292		74.218750
4293		70.312500
4294		78.125000
4295		74.218750
4296		78.125000
4297		74.218750
4298		78.125000
4299		74.218750
4300		78.125000
4301		74.218750
4302		82.031250
4303		74.218750
4304		78.125000
4305		78.125000
4306		82.031250
4307		78.125000
4308		82.031250
4309		78.125000
4310		82.031250
4311		78.125000
4312		82.031250
4313		78.125000
4314		82.031250
4315		78.125000
4316		82.031250
4317		78.125000
4318		82.031250
4319		82.031250
4320		85.937500
4321		82.031250
4322		85.937500
4323		82.031250
4324		85.937500
4325		82.031250
4326		85.937500
4327		82.031250
4328		85.937500
4329		82.031250
4330		85.937500
4331		82.031250
4332		85.937500
4333		82.031250
4334		85.937500
4335		82.031250
4336		85.937500
4337		82.031250
4338		85.937500
4339		82.031250
4340		85.937500
4341		82.031250
4342		85.937500
4343		82.031250
4344		85.937500
4345		82.031250
4346		85.937500
4347		82.031250
4348		85.937500
4349		82.031250
4350		85.937500
4351		82.031250
4352		85.937500
4353		82.031250
4354		85.937500
4355		78.125000
4356		82.031250
4357		78.125000
4358		82.031250
4359		78.125000
4360		82.031250
4361		78.125000
4362		82.031250
4363		78.125000
4364		82.031250
4365		78.125000
4366		82.031250
4367		78.125000
4368		82.031250
4369		74.218750
4370		78.125000
4371		74.218750
4372		78.125000
4373		74.218750
4374		78.125000
4375		74.218750
4376		78.125000
4377		74.218750
4378		78.125000
4379		74.218750
4380		78.125000
4381		70.312500
4382		74.218750
4383		70.312500
4384		74.218750
4385		70.312500
4386		74.218750
4387		70.312500
4388		74.218750
4389		66.406250
4390		70.312500
4391		66.406250
4392		70.312500
4393		66.406250
4394		70.312500
4395		66.406250
4396		70.312500
4397		62.500000
4398		66.406250
4399		62.500000
4400		66.406250
4401		62.500000
4402		66.406250
4403		58.593750
4404		66.406250
4405		58.593750
4406		62.500000
4407		58.593750
4408		62.500000
4409		54.687500
4410		62.500000
4411		54.687500
4412		58.593750
4413		54.687500
4414		58.593750
4415		50.781250
4416		58.593750
4417		50.781250
4418		54.687500
4419		50.781250
4420		54.687500
4421		46.875000
4422		50.781250
4423		46.875000
4424		50.781250
4425		42.968750
4426		50.781250
4427		42.968750
4428		46.875000
4429		42.968750
4430		46.875000
4431		39.062500
4432		42.968750
4433		39.062500
4434		42.968750
4435		39.062500
4436		42.968750
4437		35.156250
4438		39.062500
4439		35.156250
4440		39.062500
4441		35.156250
4442		39.062500
4443		31.250000
4444		35.156250
4445		31.250000
4446		35.156250
4447		27.343750
4448		31.250000
4449		27.343750
4450		31.250000
4451		27.343750
4452		31.250000
4453		23.437500
4454		27.343750
4455		23.437500
4456		27.343750
4457		19.531250
4458		23.437500
4459		19.531250
4460		23.437500
4461		19.531250
4462		23.437500
4463		15.625000
4464		23.437500
4465		15.625000
4466		19.531250
4467		15.625000
4468		19.531250
4469		11.718750
4470		15.625000
4471		11.718750
4472		15.625000
4473		11.718750
4474		15.625000
4475		7.812500
4476		11.718750
4477		7.812500
4478		11.718750
4479		7.812500
4480		11.718750
4481		3.906250
4482		7.812500
4483		3.906250
4484		7.812500
4485		3.906250
4486		7.812500
4487		0.000000
4488		7.812500
4489		0.000000
4490		3.906250
4491		0.000000
4492		3.906250
4493		0.000000
4494		3.906250
4495		-3.906250
4496		0.000000
4497		-3.906250
4498		0.000000
4499		-3.906250
4500		0.000000
4501		-3.906250
4502		0.000000
4503		-7.812500
4504		-3.906250
4505		-7.812500
4506		-3.906250
4507		-7.812500
4508		-3.906250
4509		-7.812500
4510		-3.906250
4511		-7.812500
4512		-3.906250
4513		-11.718750
4514		-3.906250
4515		-11.718750
4516		-7.812500
4517		-11.718750
4518		-7.812500
4519		-11.718750
4520		-7.812500
4521		-11.718750
4522		-7.812500
4523		-11.718750
4524		-7.812500
4525		-11.718750
4526		-7.812500
4527		-11.718750
4528		-7.812500
4529		-15.625000
4530		-7.812500
4531		-11.718750
4532		-7.812500
4533		-11.718750
4534		-11.718750
4535		-11.718750
4536		-7.812500
4537		-11.718750
4538		-7.812500
4539		-11.718750
4540		-11.718750
4541		-11.718750
4542		-7.812500
4543		-11.718750
4544		-7.812500
4545		-11.718750
4546		-7.812500
4547		-11.718750
4548		-7.812500
4549		-11.718750
4550		-7.812500
4551		-11.718750
4552		-7.812500
4553		-11.718750
4554		-7.812500
4555		-11.718750
4556		-7.812500
4557		-11.718750
4558		-7.812500
4559		-11.718750
4560		-7.812500
4561		-7.812500
4562		-3.906250
4563		-7.812500
4564		-3.906250
4565		-7.812500
4566		-3.906250
4567		-7.812500
4568		-3.906250
4569		-7.812500
4570		-3.906250
4571		-7.812500
4572		-3.906250
4573		-3.906250
4574		-3.906250
4575		-3.906250
4576		0.000000
4577		-3.906250
4578		0.000000
4579		-3.906250
4580		0.000000
4581		-3.906250
4582		3.906250
4583		0.000000
4584		3.906250
4585		0.000000
4586		3.906250
4587		0.000000
4588		7.812500
4589		3.906250
4590		7.812500
4591		3.906250
4592		7.812500
4593		3.906250
4594		7.812500
4595		7.812500
4596		11.718750
4597		7.812500
4598		11.718750
4599		7.812500
4600		11.718750
4601		11.718750
4602		15.625000
4603		11.718750
4604		15.625000
4605		11.718750
4606		19.531250
4607		15.625000
4608		19.531250
4609		15.625000
4610		19.531250
4611		15.625000
4612		19.531250
4613		19.531250
4614		23.437500
4615		19.531250
4616		23.437500
4617		23.437500
4618		23.437500
4619		23.437500
4620		27.343750
4621		23.437500
4622		27.343750
4623		23.437500
4624		31.250000
4625		27.343750
4626		31.250000
4627		27.343750
4628		31.250000
4629		31.250000
4630		35.156250
4631		31.250000
4632		35.156250
4633		35.156250
4634		39.062500
4635		35.156250
4636		39.062500
4637		35.156250
4638		39.062500
4639		39.062500
4640		42.968750
4641		39.062500
4642		42.968750
4643		39.062500
4644		42.968750
4645		42.968750
4646		46.875000
4647		42.968750
4648		46.875000
4649		42.968750
4650		46.875000
4651		46.875000
4652		50.781250
4653		46.875000
4654		50.781250
4655		50.781250
4656		54.687500
4657		50.781250
4658		54.687500
4659		50.781250
4660		54.687500
4661		54.687500
4662		58.593750
4663		54.687500
4664		58.593750
4665		54.687500
4666		58.593750
4667		58.593750
4668		58.593750
4669		58.593750
4670		62.500000
4671		58.593750
4672		62.500000
4673		62.500000
4674		66.406250
4675		62.500000
4676		66.406250
4677		62.500000
4678		66.406250
4679		62.500000
4680		66.406250
4681		66.406250
4682		70.312500
4683		66.406250
4684		70.312500
4685		66.406250
4686		70.312500
4687		66.406250
4688		74.218750
4689		70.312500
4690		74.218750
4691		70.312500
4692		74.218750
4693		70.312500
4694		74.218750
4695		70.312500
4696		78.125000
4697		74.218750
4698		78.125000
4699		74.218750
4700		78.125000
4701		74.218750
4702		78.125000
4703		74.218750
4704		78.125000
4705		74.218750
4706		82.031250
4707		78.125000
4708		78.125000
4709		78.125000
4710		82.031250
4711		78.125000
4712		82.031250
4713		78.125000
4714		82.031250
4715		78.125000
4716		82.031250
4717		78.125000
4718		82.031250
4719		78.125000
4720		85.937500
4721		82.031250
4722		85.937500
4723		82.031250
4724		85.937500
4725		82.031250
4726		85.937500
4727		82.031250
4728		85.937500
4729		82.031250
4730		85.937500
4731		82.031250
4732		85.937500
4733		82.031250
4734		85.937500
4735		82.031250
4736		85.937500
4737		82.031250
4738		85.937500
4739		82.031250
4740		85.937500
4741		82.031250
4742		85.937500
4743		82.031250
4744		85.937500
4745		82.031250
4746		85.937500
4747		82.031250
4748		85.937500
4749		82.031250
4750		85.937500
4751		82.031250
4752		85.937500
4753		78.125000
4754		85.937500
4755		82.031250
4756		85.937500
4757		82.031250
4758		85.937500
4759		82.031250
4760		82.031250
4761		78.125000
4762		82.031250
4763		78.125000
4764		82.031250
4765		78.125000
4766		82.031250
4767		78.125000
4768		82.031250
4769		78.125000
4770		82.031250
4771		78.125000
4772		82.031250
4773		78.125000
4774		82.031250
4775		74.218750
4776		78.125000
4777		74.218750
4778		78.125000
4779		74.218750
4780		78.125000
4781		74.218750
4782		78.125000
4783		74.218750
4784		74.218750
4785		70.312500
4786		74.218750
4787		70.312500
4788		74.218750
4789		70.312500
4790		74.218750
4791		70.312500
4792		74.218750
4793		66.406250
4794		70.312500
4795		66.406250
4796		70.312500
4797		66.406250
4798		70.312500
4799		66.406250
4800		70.312500
4801		62.500000
4802		66.406250
4803		62.500000
4804		66.406250
4805		62.500000
4806		66.406250
4807		58.593750
4808		66.406250
4809		58.593750
4810		62.500000
4811		58.593750
4812		62.500000
4813		54.687500
4814		58.593750
4815		54.687500
4816		58.593750
4817		54.687500
4818		58.593750
4819		50.781250
4820		54.687500
4821		50.781250
4822		54.687500
4823		50.781250
4824		54.687500
4825		46.875000
4826		50.781250
4827		46.875000
4828		50.781250
4829		46.875000
4830		50.781250
4831		42.968750
4832		46.875000
4833		42.968750
4834		46.875000
4835		39.062500
4836		42.968750
4837		39.062500
4838		42.968750
4839		39.062500
4840		42.968750
4841		35.156250
4842		39.062500
4843		35.156250
4844		39.062500
4845		31.250000
4846		39.062500
4847		31.250000
4848		35.156250
4849		31.250000
4850		35.156250
4851		27.343750
4852		31.250000
4853		27.343750
4854		31.250000
4855		27.343750
4856		31.250000
4857		23.437500
4858		27.343750
4859		23.437500
4860		27.343750
4861		19.531250
4862		23.437500
4863		19.531250
4864		23.437500
4865		15.625000
4866		23.437500
4867		15.625000
4868		19.531250
4869		15.625000
4870		19.531250
4871		15.625000
4872		19.531250
4873		11.718750
4874		15.625000
4875		11.718750
4876		15.625000
4877		11.718750
4878		15.625000
4879		7.812500
4880		11.718750
4881		7.812500
4882		11.718750
4883		7.812500
4884		11.718750
4885		3.906250
4886		7.812500
4887		3.906250
4888		7.812500
4889		3.906250
4890		7.812500
4891		0.000000
4892		3.906250
4893		0.000000
4894		3.906250
4895		0.000000
4896		3.906250
4897		-3.906250
4898		3.906250
4899		-3.906250
4900		0.000000
4901		-3.906250
4902		0.000000
4903		-3.906250
4904		0.000000
4905		-3.906250
4906		0.000000
4907		-7.812500
4908		-3.906250
4909		-7.812500
4910		-3.906250
4911		-7.812500
4912		-3.906250
4913		-7.812500
4914		-3.906250
4915		-7.812500
4916		-3.906250
4917		-11.718750
4918		-3.906250
4919		-7.812500
4920		-7.812500
4921		-11.718750
4922		-7.812500
4923		-11.718750
4924		-7.812500
4925		-11.718750
4926		-7.812500
4927		-11.718750
4928		-7.812500
4929		-11.718750
4930		-7.812500
4931		-11.718750
4932		-7.812500
4933		-11.718750
4934		-7.812500
4935		-11.718750
4936		-7.812500
4937		-11.718750
4938		-7.812500
4939		-11.718750
4940		-7.812500
4941		-11.718750
4942		-11.718750
4943		-11.718750
4944		-7.812500
4945		-11.718750
4946		-7.812500
4947		-11.718750
4948		-7.812500
4949		-11.718750
4950		-7.812500
4951		-11.718750
4952		-7.812500
4953		-11.718750
4954		-7.812500
4955		-11.718750
4956		-7.812500
4957		-11.718750
4958		-7.812500
4959		-11.718750
4960		-7.812500
4961		-11.718750
4962		-7.812500
4963		-7.812500
4964		-3.906250
4965		-7.812500
4966		-3.906250
4967		-7.812500
4968		-3.906250
4969		-7.812500
4970		-3.906250
4971		-7.812500
4972		-3.906250
4973		-7.812500
4974		-3.906250
4975		-3.906250
4976		0.000000
4977		-3.906250
4978		0.000000
4979		-3.906250
4980		0.000000
4981		-3.906250
4982		0.000000
4983		-3.906250
4984		3.906250
4985		0.000000
4986		3.906250
4987		0.000000
4988		3.906250
4989		0.000000
4990		3.906250
4991		3.906250
4992		7.812500
4993		3.906250
4994		7.812500
4995		3.906250
4996		7.812500
4997		7.812500
4998		7.812500
4999		7.812500
5000		11.718750
5001		7.812500
5002		11.718750
5003		11.718750
5004		15.625000
5005		11.718750
5006		15.625000
5007		11.718750
5008		15.625000
5009		15.625000
5010		19.531250
5011		15.625000
5012		19.531250
5013		15.625000
5014		19.531250
5015		19.531250
5016		23.437500
5017		19.531250
5018		23.437500
5019		19.531250
5020		23.437500
5021		23.437500
5022		27.343750
5023		23.437500
5024		27.343750
5025		23.437500
5026		27.343750
5027		27.343750
5028		31.250000
5029		27.343750
5030		31.250000
5031		31.250000
5032		35.156250
5033		31.250000
5034		35.156250
5035		31.250000
5036		35.156250
5037		35.156250
5038		39.062500
5039		35.156250
5040		39.062500
5041		39.062500
5042		42.968750
5043		39.062500
5044		42.968750
5045		39.062500
5046		42.968750
5047		42.968750
5048		46.875000
5049		42.968750
5050		46.875000
5051		42.968750
5052		46.875000
5053		46.875000
5054		50.781250
5055		46.875000
5056		50.781250
5057		46.875000
5058		50.781250
5059		50.781250
5060		54.687500
5061		50.781250
5062		54.687500
5063		50.781250
5064		58.593750
5065		54.687500
5066		58.593750
5067		54.687500
5068		58.593750
5069		58.593750
5070		62.500000
5071		58.593750
5072		62.500000
5073		58.593750
5074		62.500000
5075		62.500000
5076		66.406250
5077		62.500000
5078		66.406250
5079		62.500000
5080		66.406250
5081		62.500000
5082		66.406250
5083		66.406250
5084		70.312500
5085		66.406250
5086		70.312500
5087		66.406250
5088		70.312500
5089		70.312500
5090		70.312500
5091		70.312500
5092		74.218750
5093		70.312500
5094		74.218750
5095		70.312500
5096		74.218750
5097		74.218750
5098		74.218750
5099		74.218750
5100		78.125000
5101		74.218750
5102		78.125000
5103		74.218750
5104		78.125000
5105		74.218750
5106		78.125000
5107		78.125000
5108		82.031250
5109		78.125000
5110		82.031250
5111		78.125000
5112		82.031250
5113		78.125000
5114		82.031250
5115		78.125000
5116		82.031250
5117		78.125000
5118		82.031250
5119		82.031250
5120		82.031250
5121		82.031250
5122		82.031250
5123		82.031250
5124		85.937500
5125		82.031250
5126		85.937500
5127		82.031250
5128		85.937500
5129		82.031250
5130		85.937500
5131		82.031250
5132		85.937500
5133		82.031250
5134		85.937500
5135		82.031250
5136		85.937500
5137		82.031250
5138		85.937500
5139		82.031250
5140		85.937500
5141		82.031250
5142		85.937500
5143		82.031250
5144		85.937500
5145		82.031250
5146		85.937500
5147		82.031250
5148		85.937500
5149		82.031250
5150		85.937500
5151		82.031250
5152		85.937500
5153		82.031250
5154		85.937500
5155		82.031250
5156		85.937500
5157		82.031250
5158		85.937500
5159		82.031250
5160		85.937500
5161		82.031250
5162		85.937500
5163		82.031250
5164		85.937500
5165		82.031250
5166		82.031250
5167		82.031250
5168		82.031250
5169		78.125000
5170		82.031250
5171		78.125000
5172		82.031250
5173		78.125000
5174		82.031250
5175		78.125000
5176		82.031250
5177		78.125000
5178		78.125000
5179		78.125000
5180		82.031250
5181		74.218750
5182		78.125000
5183		74.218750
5184		78.125000
5185		74.218750
5186		78.125000
5187		74.218750
5188		78.125000
5189		70.312500
5190		74.218750
5191		70.312500
5192		74.218750
5193		70.312500
5194		74.218750
5195		70.312500
5196		74.218750
5197		66.406250
5198		74.218750
5199		66.406250
5200		70.312500
5201		66.406250
5202		70.312500
5203		62.500000
5204		70.312500
5205		62.500000
5206		66.406250
5207		62.500000
5208		66.406250
5209		62.500000
5210		66.406250
5211		62.500000
5212		62.500000
5213		58.593750
5214		62.500000
5215		58.593750
5216		62.500000
5217		54.687500
5218		58.593750
5219		54.687500
5220		58.593750
5221		54.687500
5222		58.593750
5223		50.781250
5224		54.687500
5225		50.781250
5226		54.687500
5227		50.781250
5228		54.687500
5229		46.875000
5230		50.781250
5231		46.875000
5232		50.781250
5233		46.875000
5234		50.781250
5235		42.968750
5236		46.875000
5237		42.968750
5238		46.875000
5239		42.968750
5240		46.875000
5241		39.062500
5242		42.968750
5243		39.062500
5244		42.968750
5245		35.156250
5246		39.062500
5247		35.156250
5248		39.062500
5249		35.156250
5250		39.062500
5251		31.250000
5252		35.156250
5253		31.250000
5254		35.156250
5255		27.343750
5256		31.250000
5257		27.343750
5258		31.250000
5259		27.343750
5260		31.250000
5261		23.437500
5262		27.343750
5263		23.437500
5264		27.343750
5265		23.437500
5266		27.343750
5267		19.531250
5268		23.437500
5269		19.531250
5270		23.437500
5271		15.625000
5272		19.531250
5273		15.625000
5274		19.531250
5275		15.625000
5276		19.531250
5277		11.718750
5278		19.531250
5279		11.718750
5280		15.625000
5281		11.718750
5282		15.625000
5283		7.812500
5284		11.718750
5285		7.812500
5286		11.718750
5287		7.812500
5288		11.718750
5289		3.906250
5290		7.812500
5291		3.906250
5292		7.812500
5293		3.906250
5294		7.812500
5295		0.000000
5296		3.906250
5297		0.000000
5298		3.906250
5299		0.000000
5300		3.906250
5301		0.000000
5302		3.906250
5303		-3.906250
5304		3.906250
5305		-3.906250
5306		0.000000
5307		-3.906250
5308		0.000000
5309		-3.906250
5310		0.000000
5311		-3.906250
5312		0.000000
5313		-7.812500
5314		-3.906250
5315		-7.812500
5316		-3.906250
5317		-7.812500
5318		-3.906250
5319		-7.812500
5320		-3.906250
5321		-7.812500
5322		-3.906250
5323		-7.812500
5324		-7.812500
5325		-11.718750
5326		-3.906250
5327		-11.718750
5328		-7.812500
5329		-11.718750
5330		-7.812500
5331		-11.718750
5332		-7.812500
5333		-11.718750
5334		-7.812500
5335		-11.718750
5336		-7.812500
5337		-11.718750
5338		-7.812500
5339		-11.718750
5340		-7.812500
5341		-11.718750
5342		-7.812500
5343		-11.718750
5344		-7.812500
5345		-11.718750
5346		-7.812500
5347		-11.718750
5348		-7.812500
5349		-11.718750
5350		-7.812500
5351		-11.718750
5352		-7.812500
5353		-11.718750
5354		-7.812500
5355		-11.718750
5356		-7.812500
5357		-11.718750
5358		-7.812500
5359		-11.718750
5360		-7.812500
5361		-11.718750
5362		-7.812500
5363		-7.812500
5364		-3.906250
5365		-7.812500
5366		-3.906250
5367		-7.812500
5368		-3.906250
5369		-7.812500
5370		-3.906250
5371		-7.812500
5372		-3.906250
5373		-7.812500
5374		-3.906250
5375		-7.812500
5376		-3.906250
5377		-3.906250
5378		0.000000
5379		-3.906250
5380		0.000000
5381		-3.906250
5382		0.000000
5383		-3.906250
5384		0.000000
5385		0.000000
5386		3.906250
5387		0.000000
5388		3.906250
5389		0.000000
5390		3.906250
5391		3.906250
5392		7.812500
5393		3.906250
5394		7.812500
5395		3.906250
5396		7.812500
5397		3.906250
5398		7.812500
5399		3.906250
5400		11.718750
5401		7.812500
5402		11.718750
5403		7.812500
5404		11.718750
5405		11.718750
5406		15.625000
5407		11.718750
5408		15.625000
5409		11.718750
5410		15.625000
5411		15.625000
5412		19.531250
5413		15.625000
5414		19.531250
5415		15.625000
5416		23.437500
5417		19.531250
5418		23.437500
5419		19.531250
5420		23.437500
5421		19.531250
5422		27.343750
5423		23.437500
5424		27.343750
5425		23.437500
5426		27.343750
5427		27.343750
5428		31.250000
5429		27.343750
5430		31.250000
5431		27.343750
5432		31.250000
5433		31.250000
5434		35.156250
5435		31.250000
5436		35.156250
5437		31.250000
5438		39.062500
5439		35.156250
5440		39.062500
5441		35.156250
5442		39.062500
5443		35.156250
5444		39.062500
5445		39.062500
5446		42.968750
5447		39.062500
5448		42.968750
5449		42.968750
5450		46.875000
5451		42.968750
5452		46.875000
5453		42.968750
5454		46.875000
5455		46.875000
5456		50.781250
5457		46.875000
5458		50.781250
5459		46.875000
5460		54.687500
5461		50.781250
5462		54.687500
5463		50.781250
5464		54.687500
5465		54.687500
5466		58.593750
5467		54.687500
5468		58.593750
5469		54.687500
5470		58.593750
5471		54.687500
5472		62.500000
5473		58.593750
5474		62.500000
5475		58.593750
5476		66.406250
5477		58.593750
5478		62.500000
5479		62.500000
5480		66.406250
5481		62.500000
5482		66.406250
5483		62.500000
5484		66.406250
5485		66.406250
5486		70.312500
5487		66.406250
5488		70.312500
5489		66.406250
5490		70.312500
5491		70.312500
5492		74.218750
5493		70.312500
5494		74.218750
5495		70.312500
5496		74.218750
5497		70.312500
5498		74.218750
5499		74.218750
5500		78.125000
5501		74.218750
5502		78.125000
5503		74.218750
5504		78.125000
5505		74.218750
5506		78.125000
5507		74.218750
5508		78.125000
5509		74.218750
5510		82.031250
5511		78.125000
5512		82.031250
5513		78.125000
5514		82.031250
5515		78.125000
5516		82.031250
5517		78.125000
5518		82.031250
5519		78.125000
5520		82.031250
5521		82.031250
5522		85.937500
5523		82.031250
5524		85.937500
5525		82.031250
5526		85.937500
5527		82.031250
5528		85.937500
5529		82.031250
5530		85.937500
5531		82.031250
5532		85.937500
5533		82.031250
5534		85.937500
5535		82.031250
5536		85.937500
5537		82.031250
5538		85.937500
5539		82.031250
5540		85.937500
5541		82.031250
5542		85.937500
5543		82.031250
5544		85.937500
5545		82.031250
5546		85.937500
5547		82.031250
5548		85.937500
5549		82.031250
5550		85.937500
5551		82.031250
5552		85.937500
5553		82.031250
5554		85.937500
5555		82.031250
5556		85.937500
5557		82.031250
5558		85.937500
5559		82.031250
5560		85.937500
5561		82.031250
5562		85.937500
5563		82.031250
5564		85.937500
5565		82.031250
5566		85.937500
5567		82.031250
5568		85.937500
5569		82.031250
5570		85.937500
5571		78.125000
5572		82.031250
5573		78.125000
5574		82.031250
5575		78.125000
5576		82.031250
5577		78.125000
5578		82.031250
5579		78.125000
5580		82.031250
5581		78.125000
5582		82.031250
5583		78.125000
5584		78.125000
5585		74.218750
5586		78.125000
5587		74.218750
5588		78.125000
5589		74.218750
5590		78.125000
5591		74.218750
5592		78.125000
5593		70.312500
5594		74.218750
5595		70.312500
5596		74.218750
5597		70.312500
5598		74.218750
5599		70.312500
5600		74.218750
5601		66.406250
5602		70.312500
5603		66.406250
5604		70.312500
5605		66.406250
5606		70.312500
5607		66.406250
5608		70.312500
5609		62.500000
5610		66.406250
5611		62.500000
5612		66.406250
5613		62.500000
5614		66.406250
5615		58.593750
5616		62.500000
5617		58.593750
5618		62.500000
5619		58.593750
5620		62.500000
5621		54.687500
5622		58.593750
5623		54.687500
5624		58.593750
5625		54.687500
5626		58.593750
5627		50.781250
5628		54.687500
5629		50.781250
5630		54.687500
5631		50.781250
5632		54.687500
5633		46.875000
5634		50.781250
5635		46.875000
5636		50.781250
5637		42.968750
5638		50.781250
5639		42.968750
5640		46.875000
5641		42.968750
5642		46.875000
5643		39.062500
5644		42.968750
5645		39.062500
5646		42.968750
5647		39.062500
5648		42.968750
5649		35.156250
5650		42.968750
5651		35.156250
5652		39.062500
5653		35.156250
5654		39.062500
5655		31.250000
5656		35.156250
5657		31.250000
5658		35.156250
5659		27.343750
5660		31.250000
5661		27.343750
5662		31.250000
5663		27.343750
5664		31.250000
5665		23.437500
5666		27.343750
5667		23.437500
5668		27.343750
5669		19.531250
5670		27.343750
5671		19.531250
5672		23.437500
5673		19.531250
5674		23.437500
5675		15.625000
5676		19.531250
5677		15.625000
5678		19.531250
5679		15.625000
5680		19.531250
5681		11.718750
5682		19.531250
5683		11.718750
5684		15.625000
5685		7.812500
5686		15.625000
5687		7.812500
5688		11.718750
5689		7.812500
5690		11.718750
5691		7.812500
5692		11.718750
5693		3.906250
5694		11.718750
5695		3.906250
5696		7.812500
5697		3.906250
5698		7.812500
5699		3.906250
5700		7.812500
5701		0.000000
5702		3.906250
5703		0.000000
5704		3.906250
5705		0.000000
5706		3.906250
5707		-3.906250
5708		3.906250
5709		-3.906250
5710		0.000000
5711		-3.906250
5712		0.000000
5713		-3.906250
5714		0.000000
5715		-3.906250
5716		0.000000
5717		-7.812500
5718		-3.906250
5719		-7.812500
5720		-3.906250
5721		-7.812500
5722		-3.906250
5723		-7.812500
5724		-3.906250
5725		-7.812500
5726		-3.906250
5727		-7.812500
5728		-3.906250
5729		-7.812500
5730		-3.906250
5731		-11.718750
5732		-7.812500
5733		-11.718750
5734		-7.812500
5735		-11.718750
5736		-7.812500
5737		-11.718750
5738		-7.812500
5739		-11.718750
5740		-7.812500
5741		-11.718750
5742		-7.812500
5743		-11.718750
5744		-7.812500
5745		-11.718750
5746		-7.812500
5747		-11.718750
5748		-7.812500
5749		-11.718750
5750		-7.812500
5751		-11.718750
5752		-7.812500
5753		-11.718750
5754		-7.812500
5755		-11.718750
5756		-7.812500
5757		-11.718750
5758		-7.812500
5759		-11.718750
5760		-7.812500
5761		-11.718750
5762		-7.812500
5763		-7.812500
5764		-7.812500
5765		-7.812500
5766		-3.906250
5767		-7.812500
5768		-3.906250
5769		-7.812500
5770		-3.906250
5771		-7.812500
5772		-3.906250
5773		-7.812500
5774		-3.906250
5775		-7.812500
5776		-3.906250
5777		-3.906250
5778		-3.906250
5779		-3.906250
5780		0.000000
5781		-3.906250
5782		0.000000
5783		-3.906250
5784		0.000000
5785		-3.906250
5786		0.000000
5787		0.000000
5788		3.906250
5789		0.000000
5790		3.906250
5791		0.000000
5792		3.906250
5793		0.000000
5794		3.906250
5795		0.000000
5796		7.812500
5797		3.906250
5798		7.812500
5799		3.906250
5800		7.812500
5801		3.906250
5802		11.718750
5803		7.812500
5804		11.718750
5805		7.812500
5806		11.718750
5807		11.718750
5808		11.718750
5809		11.718750
5810		15.625000
5811		11.718750
5812		15.625000
5813		11.718750
5814		19.531250
5815		15.625000
5816		19.531250
5817		15.625000
5818		19.531250
5819		19.531250
5820		23.437500
5821		19.531250
5822		23.437500
5823		19.531250
5824		23.437500
5825		23.437500
5826		27.343750
5827		23.437500
5828		27.343750
5829		23.437500
5830		27.343750
5831		27.343750
5832		31.250000
5833		27.343750
5834		31.250000
5835		31.250000
5836		35.156250
5837		31.250000
5838		35.156250
5839		31.250000
5840		35.156250
5841		35.156250
5842		39.062500
5843		35.156250
5844		39.062500
5845		35.156250
5846		39.062500
5847		39.062500
5848		42.968750
5849		39.062500
5850		42.968750
5851		42.968750
5852		46.875000
5853		42.968750
5854		46.875000
5855		42.968750
5856		46.875000
5857		46.875000
5858		50.781250
5859		46.875000
5860		50.781250
5861		46.875000
5862		50.781250
5863		46.875000
5864		54.687500
5865		50.781250
5866		54.687500
5867		50.781250
5868		58.593750
5869		54.687500
5870		58.593750
5871		54.687500
5872		58.593750
5873		54.687500
5874		62.500000
5875		58.593750
5876		62.500000
5877		58.593750
5878		62.500000
5879		58.593750
5880		62.500000
5881		62.500000
5882		66.406250
5883		62.500000
5884		66.406250
5885		62.500000
5886		66.406250
5887		66.406250
5888		70.312500
5889		66.406250
5890		70.312500
5891		66.406250
5892		70.312500
5893		70.312500
5894		70.312500
5895		70.312500
5896		74.218750
5897		70.312500
5898		74.218750
5899		70.312500
5900		74.218750
5901		70.312500
5902		74.218750
5903		74.218750
5904		78.125000
5905		74.218750
5906		78.125000
5907		74.218750
5908		78.125000
5909		74.218750
5910		78.125000
5911		78.125000
5912		82.031250
5913		74.218750
5914		82.031250
5915		78.125000
5916		82.031250
5917		78.125000
5918		82.031250
5919		78.125000
5920		82.031250
5921		78.125000
5922		82.031250
5923		78.125000
5924		82.031250
5925		82.031250
5926		85.937500
5927		82.031250
5928		85.937500
5929		82.031250
5930		85.937500
5931		82.031250
5932		85.937500
5933		82.031250
5934		85.937500
5935		82.031250
5936		85.937500
5937		82.031250
5938		85.937500
5939		82.031250
5940		85.937500
5941		82.031250
5942		85.937500
5943		82.031250
5944		85.937500
5945		82.031250
5946		85.937500
5947		82.031250
5948		89.843750
5949		82.031250
5950		85.937500
5951		82.031250
5952		85.937500
5953		82.031250
5954		85.937500
5955		82.031250
5956		85.937500
5957		82.031250
5958		85.937500
5959		82.031250
5960		85.937500
5961		82.031250
5962		85.937500
5963		82.031250
5964		85.937500
5965		82.031250
5966		85.937500
5967		82.031250
5968		85.937500
5969		82.031250
5970		85.937500
5971		82.031250
5972		85.937500
5973		82.031250
5974		85.937500
5975		78.125000
5976		85.937500
5977		78.125000
5978		82.031250
5979		78.125000
5980		82.031250
5981		78.125000
5982		82.031250
5983		78.125000
5984		82.031250
5985		74.218750
5986		82.031250
5987		74.218750
5988		82.031250
5989		74.218750
5990		82.031250
5991		74.218750
5992		78.125000
5993		74.218750
5994		78.125000
5995		74.218750
5996		78.125000
5997		70.312500
5998		78.125000
5999		70.312500
6000		74.218750
6001		70.312500
6002		74.218750
6003		70.312500
6004		74.218750
6005		66.406250
6006		74.218750
6007		66.406250
6008		70.312500
6009		66.406250
6010		70.312500
6011		66.406250
6012		70.312500
6013		62.500000
6014		66.406250
6015		62.500000
6016		66.406250
6017		62.500000
6018		66.406250
6019		58.593750
6020		66.406250
6021		58.593750
6022		62.500000
6023		58.593750
6024		62.500000
6025		54.687500
6026		62.500000
6027		54.687500
6028		58.593750
6029		54.687500
6030		58.593750
6031		50.781250
6032		58.593750
6033		50.781250
6034		54.687500
6035		46.875000
6036		54.687500
6037		46.875000
6038		54.687500
6039		46.875000
6040		50.781250
6041		42.968750
6042		50.781250
6043		42.968750
6044		46.875000
6045		42.968750
6046		46.875000
6047		39.062500
6048		42.968750
6049		39.062500
6050		42.968750
6051		39.062500
6052		39.062500
6053		35.156250
6054		39.062500
6055		35.156250
6056		39.062500
6057		31.250000
6058		35.156250
6059		31.250000
6060		35.156250
6061		31.250000
6062		35.156250
6063		27.343750
6064		31.250000
6065		27.343750
6066		31.250000
6067		27.343750
6068		27.343750
6069		23.437500
6070		27.343750
6071		23.437500
6072		27.343750
6073		19.531250
6074		23.437500
6075		19.531250
6076		23.437500
6077		15.625000
6078		23.437500
6079		15.625000
6080		19.531250
6081		15.625000
6082		19.531250
6083		15.625000
6084		19.531250
6085		11.718750
6086		15.625000
6087		11.718750
6088		15.625000
6089		11.718750
6090		15.625000
6091		7.812500
6092		11.718750
6093		7.812500
6094		11.718750
6095		3.906250
6096		11.718750
6097		3.906250
6098		7.812500
6099		3.906250
6100		7.812500
6101		3.906250
6102		7.812500
6103		3.906250
6104		3.906250
6105		0.000000
6106		3.906250
6107		0.000000
6108		3.906250
6109		0.000000
6110		0.000000
6111		-3.906250
6112		0.000000
6113		-3.906250
6114		0.000000
6115		-3.906250
6116		0.000000
6117		-3.906250
6118		0.000000
6119		-3.906250
6120		-3.906250
6121		-7.812500
6122		-3.906250
6123		-7.812500
6124		-3.906250
6125		-7.812500
6126		-3.906250
6127		-7.812500
6128		-3.906250
6129		-7.812500
6130		-3.906250
6131		-7.812500
6132		-7.812500
6133		-11.718750
6134		-7.812500
6135		-11.718750
6136		-3.906250
6137		-7.812500
6138		-7.812500
6139		-11.718750
6140		-7.812500
6141		-11.718750
6142		-7.812500
6143		-11.718750
6144		-7.812500
6145		-11.718750
6146		-7.812500
6147		-11.718750
6148		-7.812500
6149		-11.718750
6150		-3.906250
6151		-15.625000
6152		-3.906250
6153		-11.718750
6154		-3.906250
6155		-11.718750
6156		-7.812500
6157		-11.718750
6158		-7.812500
6159		-11.718750
6160		-7.812500
6161		-11.718750
6162		-7.812500
6163		-7.812500
6164		-7.812500
6165		-11.718750
6166		-3.906250
6167		-11.718750
6168		-3.906250
6169		-11.718750
6170		0.000000
6171		-7.812500
6172		-3.906250
6173		-7.812500
6174		-3.906250
6175		-7.812500
6176		-3.906250
6177		-7.812500
6178		-3.906250
6179		-3.906250
6180		-3.906250
6181		-7.812500
6182		0.000000
6183		-7.812500
6184		3.906250
6185		-3.906250
6186		3.906250
6187		-3.906250
6188		3.906250
6189		0.000000
6190		3.906250
6191		0.000000
6192		3.906250
6193		0.000000
6194		3.906250
6195		3.906250
6196		3.906250
6197		3.906250
6198		7.812500
6199		0.000000
6200		11.718750
6201		3.906250
6202		11.718750
6203		3.906250
6204		11.718750
6205		7.812500
6206		11.718750
6207		7.812500
6208		11.718750
6209		11.718750
6210		15.625000
6211		11.718750
6212		15.625000
6213		11.718750
6214		15.625000
6215		11.718750
6216		19.531250
6217		11.718750
6218		23.437500
6219		11.718750
6220		23.437500
6221		15.625000
6222		23.437500
6223		19.531250
6224		23.437500
6225		19.531250
6226		23.437500
6227		23.437500
6228		27.343750
6229		23.437500
6230		27.343750
6231		23.437500
6232		27.343750
6233		23.437500
6234		31.250000
6235		23.437500
6236		35.156250
6237		27.343750
6238		35.156250
6239		31.250000
6240		35.156250
6241		31.250000
6242		35.156250
6243		35.156250
6244		39.062500
6245		35.156250
6246		39.062500
6247		35.156250
6248		39.062500
6249		35.156250
6250		46.875000
6251		35.156250
6252		46.875000
6253		39.062500
6254		50.781250
6255		42.968750
6256		46.875000
6257		42.968750
6258		46.875000
6259		46.875000
6260		50.781250
6261		46.875000
6262		50.781250
6263		46.875000
6264		50.781250
6265		46.875000
6266		58.593750
6267		46.875000
6268		58.593750
6269		50.781250
6270		58.593750
6271		50.781250
6272		62.500000
6273		54.687500
6274		58.593750
6275		54.687500
6276		62.500000
6277		58.593750
6278		62.500000
6279		58.593750
6280		62.500000
6281		58.593750
6282		62.500000
6283		58.593750
6284		66.406250
6285		62.500000
6286		70.312500
6287		62.500000
6288		70.312500
6289		66.406250
6290		70.312500
6291		66.406250
6292		70.312500
6293		66.406250
6294		70.312500
6295		70.312500
6296		70.312500
6297		70.312500
6298		74.218750
6299		66.406250
6300		78.125000
6301		66.406250
6302		78.125000
6303		70.312500
6304		78.125000
6305		70.312500
6306		78.125000
6307		74.218750
6308		78.125000
6309		74.218750
6310		78.125000
6311		74.218750
6312		78.125000
6313		78.125000
6314		82.031250
6315		78.125000
6316		82.031250
6317		74.218750
6318		85.937500
6319		74.218750
6320		85.937500
6321		78.125000
6322		85.937500
6323		78.125000
6324		82.031250
6325		82.031250
6326		82.031250
6327		82.031250
6328		85.937500
6329		82.031250
6330		85.937500
6331		82.031250
6332		85.937500
6333		82.031250
6334		85.937500
6335		82.031250
6336		89.843750
6337		82.031250
6338		89.843750
6339		82.031250
6340		85.937500
6341		82.031250
6342		85.937500
6343		82.031250
6344		85.937500
6345		82.031250
6346		85.937500
6347		82.031250
6348		85.937500
6349		85.937500
6350		85.937500
6351		82.031250
6352		89.843750
6353		82.031250
6354		89.843750
6355		85.937500
6356		85.937500
6357		85.937500
6358		85.937500
6359		82.031250
6360		89.843750
6361		82.031250
6362		85.937500
6363		82.031250
6364		85.937500
6365		82.031250
6366		85.937500
6367		82.031250
6368		85.937500
6369		82.031250
6370		89.843750
6371		82.031250
6372		85.937500
6373		82.031250
6374		85.937500
6375		82.031250
6376		85.937500
6377		82.031250
6378		85.937500
6379		82.031250
6380		82.031250
6381		78.125000
6382		82.031250
6383		78.125000
6384		82.031250
6385		78.125000
6386		82.031250
6387		78.125000
6388		82.031250
6389		78.125000
6390		82.031250
6391		78.125000
6392		82.031250
6393		74.218750
6394		78.125000
6395		74.218750
6396		78.125000
6397		74.218750
6398		78.125000
6399		74.218750
6400		78.125000
6401		70.312500
6402		74.218750
6403		70.312500
6404		74.218750
6405		70.312500
6406		74.218750
6407		70.312500
6408		74.218750
6409		66.406250
6410		70.312500
6411		66.406250
6412		70.312500
6413		66.406250
6414		70.312500
6415		66.406250
6416		66.406250
6417		62.500000
6418		66.406250
6419		62.500000
6420		66.406250
6421		62.500000
6422		66.406250
6423		58.593750
6424		62.500000
6425		58.593750
6426		62.500000
6427		58.593750
6428		62.500000
6429		54.687500
6430		62.500000
6431		54.687500
6432		58.593750
6433		50.781250
6434		58.593750
6435		50.781250
6436		54.687500
6437		50.781250
6438		54.687500
6439		50.781250
6440		50.781250
6441		46.875000
6442		50.781250
6443		46.875000
6444		50.781250
6445		42.968750
6446		46.875000
6447		42.968750
6448		46.875000
6449		42.968750
6450		46.875000
6451		39.062500
6452		42.968750
6453		39.062500
6454		42.968750
6455		35.156250
6456		39.062500
6457		35.156250
6458		39.062500
6459		35.156250
6460		39.062500
6461		31.250000
6462		35.156250
6463		31.250000
6464		35.156250
6465		31.250000
6466		35.156250
6467		27.343750
6468		31.250000
6469		27.343750
6470		31.250000
6471		23.437500
6472		27.343750
6473		23.437500
6474		27.343750
6475		23.437500
6476		27.343750
6477		19.531250
6478		23.437500
6479		19.531250
6480		23.437500
6481		19.531250
6482		23.437500
6483		15.625000
6484		19.531250
6485		15.625000
6486		19.531250
6487		15.625000
6488		19.531250
6489		11.718750
6490		15.625000
6491		11.718750
6492		15.625000
6493		11.718750
6494		15.625000
6495		7.812500
6496		11.718750
6497		7.812500
6498		11.718750
6499		7.812500
6500		11.718750
6501		3.906250
6502		11.718750
6503		3.906250
6504		7.812500
6505		3.906250
6506		7.812500
6507		0.000000
6508		7.812500
6509		0.000000
6510		3.906250
6511		0.000000
6512		3.906250
6513		0.000000
6514		3.906250
6515		0.000000
6516		0.000000
6517		-3.906250
6518		0.000000
6519		-3.906250
6520		0.000000
6521		-3.906250
6522		0.000000
6523		-3.906250
6524		0.000000
6525		-7.812500
6526		0.000000
6527		-7.812500
6528		-3.906250
6529		-7.812500
6530		-3.906250
6531		-7.812500
6532		-3.906250
6533		-7.812500
6534		-3.906250
6535		-7.812500
6536		-3.906250
6537		-7.812500
6538		-3.906250
6539		-7.812500
6540		-7.812500
6541		-7.812500
6542		-7.812500
6543		-11.718750
6544		-3.906250
6545		-11.718750
6546		-3.906250
6547		-11.718750
6548		-7.812500
6549		-7.812500
6550		-7.812500
6551		-11.718750
6552		-7.812500
6553		-11.718750
6554		-7.812500
6555		-11.718750
6556		-7.812500
6557		-11.718750
6558		-7.812500
6559		-11.718750
6560		-7.812500
6561		-11.718750
6562		-7.812500
6563		-7.812500
6564		-7.812500
6565		-7.812500
6566		-7.812500
6567		-7.812500
6568		-3.906250
6569		-7.812500
6570		-3.906250
6571		-7.812500
6572		-3.906250
6573		-7.812500
6574		-3.906250
6575		-7.812500
6576		-3.906250
6577		-7.812500
6578		-3.906250
6579		-7.812500
6580		-3.906250
6581		-3.906250
6582		-3.906250
6583		-3.906250
6584		0.000000
6585		-3.906250
6586		0.000000
6587		-3.906250
6588		0.000000
6589		-3.906250
6590		0.000000
6591		0.000000
6592		3.906250
6593		0.000000
6594		3.906250
6595		0.000000
6596		3.906250
6597		0.000000
6598		3.906250
6599		3.906250
6600		7.812500
6601		3.906250
6602		7.812500
6603		3.906250
6604		7.812500
6605		3.906250
6606		11.718750
6607		7.812500
6608		11.718750
6609		7.812500
6610		11.718750
6611		7.812500
6612		11.718750
6613		11.718750
6614		15.625000
6615		11.718750
6616		15.625000
6617		11.718750
6618		15.625000
6619		15.625000
6620		19.531250
6621		15.625000
6622		19.531250
6623		15.625000
6624		23.437500
6625		19.531250
6626		23.437500
6627		19.531250
6628		23.437500
6629		19.531250
6630		27.343750
6631		23.437500
6632		27.343750
6633		23.437500
6634		27.343750
6635		27.343750
6636		31.250000
6637		27.343750
6638		31.250000
6639		27.343750
6640		31.250000
6641		31.250000
6642		35.156250
6643		31.250000
6644		35.156250
6645		31.250000
6646		35.156250
6647		35.156250
6648		39.062500
6649		35.156250
6650		39.062500
6651		35.156250
6652		42.968750
6653		39.062500
6654		42.968750
6655		39.062500
6656		42.968750
6657		42.968750
6658		46.875000
6659		42.968750
6660		46.875000
6661		42.968750
6662		46.875000
6663		46.875000
6664		50.781250
6665		46.875000
6666		50.781250
6667		50.781250
6668		50.781250
6669		50.781250
6670		54.687500
6671		50.781250
6672		54.687500
6673		54.687500
6674		58.593750
6675		54.687500
6676		58.593750
6677		54.687500
6678		58.593750
6679		58.593750
6680		62.500000
6681		58.593750
6682		62.500000
6683		58.593750
6684		62.500000
6685		62.500000
6686		66.406250
6687		62.500000
6688		66.406250
6689		62.500000
6690		66.406250
6691		66.406250
6692		70.312500
6693		66.406250
6694		70.312500
6695		66.406250
6696		70.312500
6697		66.406250
6698		74.218750
6699		66.406250
6700		74.218750
6701		70.312500
6702		74.218750
6703		70.312500
6704		74.218750
6705		70.312500
6706		74.218750
6707		74.218750
6708		78.125000
6709		74.218750
6710		78.125000
6711		74.218750
6712		78.125000
6713		74.218750
6714		78.125000
6715		78.125000
6716		78.125000
6717		78.125000
6718		82.031250
6719		78.125000
6720		82.031250
6721		78.125000
6722		82.031250
6723		78.125000
6724		82.031250
6725		82.031250
6726		82.031250
6727		82.031250
6728		85.937500
6729		82.031250
6730		85.937500
6731		82.031250
6732		85.937500
6733		82.031250
6734		85.937500
6735		82.031250
6736		85.937500
6737		82.031250
6738		85.937500
6739		82.031250
6740		85.937500
6741		82.031250
6742		85.937500
6743		82.031250
6744		85.937500
6745		85.937500
6746		85.937500
6747		85.937500
6748		85.937500
6749		85.937500
6750		85.937500
6751		85.937500
6752		85.937500
6753		85.937500
6754		89.843750
6755		85.937500
6756		89.843750
6757		85.937500
6758		85.937500
6759		85.937500
6760		85.937500
6761		82.031250
6762		85.937500
6763		85.937500
6764		85.937500
6765		85.937500
6766		85.937500
6767		82.031250
6768		89.843750
6769		82.031250
6770		85.937500
6771		82.031250
6772		85.937500
6773		82.031250
6774		85.937500
6775		82.031250
6776		85.937500
6777		82.031250
6778		85.937500
6779		82.031250
6780		85.937500
6781		82.031250
6782		85.937500
6783		82.031250
6784		85.937500
6785		82.031250
6786		82.031250
6787		78.125000
6788		85.937500
6789		78.125000
6790		82.031250
6791		78.125000
6792		82.031250
6793		78.125000
6794		82.031250
6795		78.125000
6796		78.125000
6797		74.218750
6798		78.125000
6799		74.218750
6800		78.125000
6801		74.218750
6802		78.125000
6803		70.312500
6804		78.125000
6805		70.312500
6806		78.125000
6807		70.312500
6808		74.218750
6809		70.312500
6810		74.218750
6811		70.312500
6812		74.218750
6813		66.406250
6814		70.312500
6815		66.406250
6816		70.312500
6817		66.406250
6818		70.312500
6819		66.406250
6820		66.406250
6821		62.500000
6822		70.312500
6823		62.500000
6824		66.406250
6825		58.593750
6826		66.406250
6827		58.593750
6828		62.500000
6829		58.593750
6830		62.500000
6831		58.593750
6832		62.500000
6833		54.687500
6834		58.593750
6835		54.687500
6836		58.593750
6837		50.781250
6838		58.593750
6839		50.781250
6840		54.687500
6841		50.781250
6842		54.687500
6843		50.781250
6844		50.781250
6845		46.875000
6846		50.781250
6847		46.875000
6848		50.781250
6849		42.968750
6850		46.875000
6851		42.968750
6852		46.875000
6853		39.062500
6854		46.875000
6855		39.062500
6856		46.875000
6857		39.062500
6858		42.968750
6859		35.156250
6860		39.062500
6861		35.156250
6862		39.062500
6863		35.156250
6864		39.062500
6865		31.250000
6866		35.156250
6867		31.250000
6868		35.156250
6869		27.343750
6870		31.250000
6871		27.343750
6872		31.250000
6873		23.437500
6874		31.250000
6875		23.437500
6876		27.343750
6877		23.437500
6878		27.343750
6879		23.437500
6880		27.343750
6881		19.531250
6882		23.437500
6883		19.531250
6884		23.437500
6885		19.531250
6886		23.437500
6887		15.625000
6888		19.531250
6889		11.718750
6890		19.531250
6891		15.625000
6892		15.625000
6893		11.718750
6894		15.625000
6895		11.718750
6896		15.625000
6897		7.812500
6898		11.718750
6899		7.812500
6900		11.718750
6901		7.812500
6902		11.718750
6903		7.812500
6904		11.718750
6905		3.906250
6906		11.718750
6907		3.906250
6908		7.812500
6909		3.906250
6910		7.812500
6911		0.000000
6912		3.906250
6913		0.000000
6914		3.906250
6915		0.000000
6916		3.906250
6917		0.000000
6918		3.906250
6919		0.000000
6920		0.000000
6921		-3.906250
6922		3.906250
6923		-3.906250
6924		0.000000
6925		-3.906250
6926		0.000000
6927		-3.906250
6928		0.000000
6929		-3.906250
6930		-3.906250
6931		-7.812500
6932		-3.906250
6933		-7.812500
6934		-3.906250
6935		-7.812500
6936		-3.906250
6937		-7.812500
6938		-3.906250
6939		-11.718750
6940		-3.906250
6941		-7.812500
6942		-3.906250
6943		-7.812500
6944		-7.812500
6945		-7.812500
6946		-7.812500
6947		-7.812500
6948		-7.812500
6949		-11.718750
6950		-7.812500
6951		-7.812500
6952		-7.812500
6953		-11.718750
6954		-7.812500
6955		-11.718750
6956		-7.812500
6957		-11.718750
6958		-7.812500
6959		-11.718750
6960		-7.812500
6961		-11.718750
6962		-7.812500
6963		-7.812500
6964		-7.812500
6965		-7.812500
6966		-7.812500
6967		-7.812500
6968		-3.906250
6969		-7.812500
6970		-7.812500
6971		-7.812500
6972		-3.906250
6973		-7.812500
6974		-3.906250
6975		-7.812500
6976		-3.906250
6977		-7.812500
6978		-3.906250
6979		-7.812500
6980		-3.906250
6981		-7.812500
6982		-3.906250
6983		-3.906250
6984		-3.906250
6985		-3.906250
6986		0.000000
6987		-3.906250
6988		0.000000
6989		-3.906250
6990		0.000000
6991		-3.906250
6992		0.000000
6993		0.000000
6994		0.000000
6995		0.000000
6996		3.906250
6997		0.000000
6998		3.906250
6999		0.000000
7000		3.906250
7001		3.906250
7002		3.906250
7003		3.906250
7004		7.812500
7005		3.906250
7006		7.812500
7007		3.906250
7008		7.812500
7009		7.812500
7010		11.718750
7011		7.812500
7012		11.718750
7013		7.812500
7014		11.718750
7015		11.718750
7016		15.625000
7017		11.718750
7018		15.625000
7019		11.718750
7020		15.625000
7021		15.625000
7022		19.531250
7023		15.625000
7024		19.531250
7025		15.625000
7026		19.531250
7027		15.625000
7028		23.437500
7029		19.531250
7030		23.437500
7031		19.531250
7032		23.437500
7033		23.437500
7034		27.343750
7035		23.437500
7036		27.343750
7037		23.437500
7038		31.250000
7039		27.343750
7040		31.250000
7041		27.343750
7042		31.250000
7043		31.250000
7044		35.156250
7045		31.250000
7046		35.156250
7047		31.250000
7048		35.156250
7049		35.156250
7050		39.062500
7051		35.156250
7052		39.062500
7053		35.156250
7054		39.062500
7055		39.062500
7056		42.968750
7057		39.062500
7058		42.968750
7059		42.968750
7060		46.875000
7061		42.968750
7062		46.875000
7063		42.968750
7064		46.875000
7065		46.875000
7066		50.781250
7067		46.875000
7068		50.781250
7069		50.781250
7070		50.781250
7071		50.781250
7072		54.687500
7073		50.781250
7074		54.687500
7075		54.687500
7076		54.687500
7077		54.687500
7078		58.593750
7079		54.687500
7080		58.593750
7081		58.593750
7082		62.500000
7083		58.593750
7084		62.500000
7085		58.593750
7086		62.500000
7087		62.500000
7088		62.500000
7089		62.500000
7090		66.406250
7091		62.500000
7092		66.406250
7093		62.500000
7094		66.406250
7095		66.406250
7096		70.312500
7097		66.406250
7098		70.312500
7099		66.406250
7100		70.312500
7101		70.312500
7102		74.218750
7103		70.312500
7104		74.218750
7105		70.312500
7106		74.218750
7107		70.312500
7108		78.125000
7109		74.218750
7110		78.125000
7111		74.218750
7112		78.125000
7113		74.218750
7114		78.125000
7115		74.218750
7116		78.125000
7117		78.125000
7118		78.125000
7119		78.125000
7120		82.031250
7121		78.125000
7122		82.031250
7123		78.125000
7124		82.031250
7125		78.125000
7126		82.031250
7127		78.125000
7128		82.031250
7129		82.031250
7130		82.031250
7131		82.031250
7132		85.937500
7133		82.031250
7134		85.937500
7135		82.031250
7136		85.937500
7137		82.031250
7138		85.937500
7139		82.031250
7140		85.937500
7141		82.031250
7142		85.937500
7143		82.031250
7144		85.937500
7145		85.937500
7146		85.937500
7147		85.937500
7148		85.937500
7149		85.937500
7150		85.937500
7151		85.937500
7152		89.843750
7153		85.937500
7154		89.843750
7155		85.937500
7156		89.843750
7157		85.937500
7158		89.843750
7159		85.937500
7160		89.843750
7161		85.937500
7162		89.843750
7163		85.937500
7164		89.843750
7165		85.937500
7166		85.937500
7167		85.937500
7168		89.843750
7169		85.937500
7170		85.937500
7171		85.937500
7172		85.937500
7173		82.031250
7174		85.937500
7175		82.031250
7176		85.937500
7177		82.031250
7178		85.937500
7179		82.031250
7180		85.937500
7181		82.031250
7182		85.937500
7183		82.031250
7184		85.937500
7185		82.031250
7186		85.937500
7187		82.031250
7188		85.937500
7189		82.031250
7190		82.031250
7191		78.125000
7192		82.031250
7193		78.125000
7194		82.031250
7195		78.125000
7196		82.031250
7197		78.125000
7198		82.031250
7199		78.125000
7200		82.031250
7201		74.218750
7202		78.125000
7203		74.218750
7204		78.125000
7205		74.218750
7206		78.125000
7207		74.218750
7208		78.125000
7209		70.312500
7210		74.218750
7211		70.312500
7212		74.218750
7213		70.312500
7214		74.218750
7215		70.312500
7216		74.218750
7217		66.406250
7218		70.312500
7219		66.406250
7220		70.312500
7221		66.406250
7222		70.312500
7223		62.500000
7224		66.406250
7225		62.500000
7226		66.406250
7227		62.500000
7228		66.406250
7229		62.500000
7230		62.500000
7231		58.593750
7232		62.500000
7233		58.593750
7234		62.500000
7235		54.687500
7236		58.593750
7237		54.687500
7238		58.593750
7239		54.687500
7240		58.593750
7241		50.781250
7242		58.593750
7243		50.781250
7244		54.687500
7245		50.781250
7246		54.687500
7247		46.875000
7248		54.687500
7249		46.875000
7250		50.781250
7251		46.875000
7252		50.781250
7253		42.968750
7254		46.875000
7255		42.968750
7256		46.875000
7257		42.968750
7258		46.875000
7259		39.062500
7260		42.968750
7261		39.062500
7262		42.968750
7263		35.156250
7264		39.062500
7265		35.156250
7266		39.062500
7267		35.156250
7268		39.062500
7269		31.250000
7270		35.156250
7271		31.250000
7272		35.156250
7273		27.343750
7274		31.250000
7275		27.343750
7276		31.250000
7277		27.343750
7278		31.250000
7279		23.437500
7280		27.343750
7281		23.437500
7282		27.343750
7283		23.437500
7284		27.343750
7285		19.531250
7286		23.437500
7287		19.531250
7288		23.437500
7289		19.531250
7290		23.437500
7291		15.625000
7292		19.531250
7293		15.625000
7294		19.531250
7295		15.625000
7296		15.625000
7297		11.718750
7298		15.625000
7299		11.718750
7300		15.625000
7301		11.718750
7302		11.718750
7303		7.812500
7304		11.718750
7305		7.812500
7306		11.718750
7307		3.906250
7308		7.812500
7309		3.906250
7310		7.812500
7311		3.906250
7312		7.812500
7313		3.906250
7314		7.812500
7315		3.906250
7316		3.906250
7317		0.000000
7318		3.906250
7319		0.000000
7320		3.906250
7321		0.000000
7322		3.906250
7323		0.000000
7324		0.000000
7325		-3.906250
7326		0.000000
7327		-3.906250
7328		0.000000
7329		-3.906250
7330		0.000000
7331		-3.906250
7332		0.000000
7333		-7.812500
7334		0.000000
7335		-7.812500
7336		-3.906250
7337		-7.812500
7338		-3.906250
7339		-7.812500
7340		-3.906250
7341		-7.812500
7342		-3.906250
7343		-7.812500
7344		-3.906250
7345		-7.812500
7346		-3.906250
7347		-7.812500
7348		-3.906250
7349		-7.812500
7350		-7.812500
7351		-11.718750
7352		-7.812500
7353		-7.812500
7354		-7.812500
7355		-11.718750
7356		-3.906250
7357		-7.812500
7358		-7.812500
7359		-7.812500
7360		-7.812500
7361		-7.812500
7362		-7.812500
7363		-7.812500
7364		-7.812500
7365		-7.812500
7366		-3.906250
7367		-7.812500
7368		-3.906250
7369		-7.812500
7370		-3.906250
7371		-7.812500
7372		-3.906250
7373		-7.812500
7374		-3.906250
7375		-7.812500
7376		-3.906250
7377		-7.812500
7378		-3.906250
7379		-7.812500
7380		-3.906250
7381		-7.812500
7382		-3.906250
7383		-7.812500
7384		-3.906250
7385		-3.906250
7386		-3.906250
7387		-3.906250
7388		0.000000
7389		-3.906250
7390		0.000000
7391		-3.906250
7392		0.000000
7393		-3.906250
7394		0.000000
7395		0.000000
7396		3.906250
7397		0.000000
7398		3.906250
7399		0.000000
7400		3.906250
7401		0.000000
7402		3.906250
7403		3.906250
7404		7.812500
7405		3.906250
7406		7.812500
7407		3.906250
7408		7.812500
7409		3.906250
7410		7.812500
7411		7.812500
7412		11.718750
7413		7.812500
7414		11.718750
7415		7.812500
7416		11.718750
7417		11.718750
7418		15.625000
7419		11.718750
7420		15.625000
7421		11.718750
7422		15.625000
7423		15.625000
7424		19.531250
7425		15.625000
7426		19.531250
7427		15.625000
7428		19.531250
7429		19.531250
7430		23.437500
7431		19.531250
7432		23.437500
7433		19.531250
7434		23.437500
7435		23.437500
7436		27.343750
7437		23.437500
7438		27.343750
7439		23.437500
7440		27.343750
7441		27.343750
7442		31.250000
7443		27.343750
7444		31.250000
7445		31.250000
7446		31.250000
7447		31.250000
7448		35.156250
7449		31.250000
7450		35.156250
7451		35.156250
7452		39.062500
7453		35.156250
7454		39.062500
7455		35.156250
7456		39.062500
7457		39.062500
7458		42.968750
7459		39.062500
7460		42.968750
7461		42.968750
7462		42.968750
7463		42.968750
7464		46.875000
7465		42.968750
7466		46.875000
7467		46.875000
7468		50.781250
7469		46.875000
7470		50.781250
7471		46.875000
7472		50.781250
7473		50.781250
7474		54.687500
7475		50.781250
7476		54.687500
7477		50.781250
7478		54.687500
7479		54.687500
7480		58.593750
7481		54.687500
7482		58.593750
7483		54.687500
7484		58.593750
7485		58.593750
7486		62.500000
7487		58.593750
7488		62.500000
7489		62.500000
7490		62.500000
7491		62.500000
7492		66.406250
7493		62.500000
7494		66.406250
7495		66.406250
7496		66.406250
7497		66.406250
7498		70.312500
7499		66.406250
7500		70.312500
7501		66.406250
7502		70.312500
7503		70.312500
7504		74.218750
7505		70.312500
7506		74.218750
7507		70.312500
7508		74.218750
7509		70.312500
7510		74.218750
7511		74.218750
7512		78.125000
7513		74.218750
7514		78.125000
7515		74.218750
7516		78.125000
7517		74.218750
7518		82.031250
7519		78.125000
7520		78.125000
7521		78.125000
7522		82.031250
7523		78.125000
7524		82.031250
7525		78.125000
7526		82.031250
7527		78.125000
7528		82.031250
7529		78.125000
7530		82.031250
7531		82.031250
7532		82.031250
7533		82.031250
7534		85.937500
7535		82.031250
7536		85.937500
7537		82.031250
7538		85.937500
7539		82.031250
7540		85.937500
7541		82.031250
7542		85.937500
7543		82.031250
7544		89.843750
7545		85.937500
7546		85.937500
7547		85.937500
7548		85.937500
7549		82.031250
7550		89.843750
7551		85.937500
7552		89.843750
7553		85.937500
7554		89.843750
7555		85.937500
7556		89.843750
7557		85.937500
7558		89.843750
7559		85.937500
7560		89.843750
7561		85.937500
7562		89.843750
7563		85.937500
7564		89.843750
7565		85.937500
7566		89.843750
7567		85.937500
7568		89.843750
7569		82.031250
7570		89.843750
7571		85.937500
7572		89.843750
7573		85.937500
7574		89.843750
7575		85.937500
7576		85.937500
7577		85.937500
7578		89.843750
7579		85.937500
7580		85.937500
7581		82.031250
7582		85.937500
7583		82.031250
7584		85.937500
7585		82.031250
7586		85.937500
7587		82.031250
7588		85.937500
7589		82.031250
7590		85.937500
7591		82.031250
7592		85.937500
7593		82.031250
7594		82.031250
7595		82.031250
7596		82.031250
7597		78.125000
7598		82.031250
7599		78.125000
7600		82.031250
7601		78.125000
7602		82.031250
7603		78.125000
7604		82.031250
7605		74.218750
7606		78.125000
7607		74.218750
7608		78.125000
7609		74.218750
7610		78.125000
7611		74.218750
7612		78.125000
7613		74.218750
7614		74.218750
7615		70.312500
7616		74.218750
7617		70.312500
7618		74.218750
7619		70.312500
7620		74.218750
7621		70.312500
7622		70.312500
7623		66.406250
7624		70.312500
7625		66.406250
7626		70.312500
7627		66.406250
7628		70.312500
7629		62.500000
7630		66.406250
7631		62.500000
7632		66.406250
7633		62.500000
7634		62.500000
7635		58.593750
7636		62.500000
7637		58.593750
7638		62.500000
7639		58.593750
7640		58.593750
7641		54.687500
7642		58.593750
7643		54.687500
7644		58.593750
7645		54.687500
7646		54.687500
7647		50.781250
7648		54.687500
7649		50.781250
7650		54.687500
7651		46.875000
7652		50.781250
7653		46.875000
7654		50.781250
7655		46.875000
7656		50.781250
7657		42.968750
7658		46.875000
7659		42.968750
7660		46.875000
7661		42.968750
7662		46.875000
7663		39.062500
7664		42.968750
7665		39.062500
7666		42.968750
7667		35.156250
7668		39.062500
7669		35.156250
7670		39.062500
7671		35.156250
7672		39.062500
7673		31.250000
7674		35.156250
7675		31.250000
7676		35.156250
7677		27.343750
7678		35.156250
7679		27.343750
7680		31.250000
7681		27.343750
7682		31.250000
7683		23.437500
7684		27.343750
7685		23.437500
7686		27.343750
7687		23.437500
7688		27.343750
7689		19.531250
7690		23.437500
7691		19.531250
7692		23.437500
7693		19.531250
7694		19.531250
7695		15.625000
7696		19.531250
7697		15.625000
7698		19.531250
7699		15.625000
7700		15.625000
7701		11.718750
7702		15.625000
7703		11.718750
7704		15.625000
7705		11.718750
7706		11.718750
7707		7.812500
7708		11.718750
7709		7.812500
7710		11.718750
7711		7.812500
7712		7.812500
7713		3.906250
7714		7.812500
7715		3.906250
7716		7.812500
7717		3.906250
7718		7.812500
7719		3.906250
7720		3.906250
7721		0.000000
7722		3.906250
7723		0.000000
7724		3.906250
7725		0.000000
7726		3.906250
7727		0.000000
7728		0.000000
7729		-3.906250
7730		0.000000
7731		-3.906250
7732		0.000000
7733		-3.906250
7734		0.000000
7735		-3.906250
7736		0.000000
7737		-3.906250
7738		-3.906250
7739		-3.906250
7740		-3.906250
7741		-7.812500
7742		-3.906250
7743		-7.812500
7744		-3.906250
7745		-7.812500
7746		-3.906250
7747		-7.812500
7748		-3.906250
7749		-7.812500
7750		-3.906250
7751		-7.812500
7752		-3.906250
7753		-7.812500
7754		-7.812500
7755		-7.812500
7756		-7.812500
7757		-7.812500
7758		-7.812500
7759		-7.812500
7760		-7.812500
7761		-7.812500
7762		-7.812500
7763		-7.812500
7764		-3.906250
7765		-7.812500
7766		-7.812500
7767		-7.812500
7768		-7.812500
7769		-7.812500
7770		-3.906250
7771		-7.812500
7772		-7.812500
7773		-7.812500
7774		-3.906250
7775		-7.812500
7776		-3.906250
7777		-7.812500
7778		-3.906250
7779		-7.812500
7780		-3.906250
7781		-7.812500
7782		-3.906250
7783		-7.812500
7784		-3.906250
7785		-7.812500
7786		-3.906250
7787		-3.906250
7788		-3.906250
7789		-3.906250
7790		0.000000
7791		-3.906250
7792		0.000000
7793		-3.906250
7794		0.000000
7795		-3.906250
7796		0.000000
7797		-3.906250
7798		0.000000
7799		-3.906250
7800		3.906250
7801		0.000000
7802		3.906250
7803		0.000000
7804		7.812500
7805		0.000000
7806		3.906250
7807		3.906250
7808		7.812500
7809		3.906250
7810		7.812500
7811		3.906250
7812		7.812500
7813		3.906250
7814		7.812500
7815		7.812500
7816		11.718750
7817		7.812500
7818		11.718750
7819		7.812500
7820		11.718750
7821		7.812500
7822		15.625000
7823		11.718750
7824		15.625000
7825		11.718750
7826		19.531250
7827		15.625000
7828		19.531250
7829		15.625000
7830		19.531250
7831		15.625000
7832		23.437500
7833		15.625000
7834		23.437500
7835		19.531250
7836		23.437500
7837		19.531250
7838		27.343750
7839		23.437500
7840		27.343750
7841		23.437500
7842		31.250000
7843		27.343750
7844		31.250000
7845		27.343750
7846		31.250000
7847		27.343750
7848		35.156250
7849		31.250000
7850		35.156250
7851		31.250000
7852		35.156250
7853		31.250000
7854		35.156250
7855		35.156250
7856		39.062500
7857		35.156250
7858		42.968750
7859		39.062500
7860		42.968750
7861		39.062500
7862		42.968750
7863		39.062500
7864		46.875000
7865		39.062500
7866		46.875000
7867		42.968750
7868		46.875000
7869		42.968750
7870		50.781250
7871		42.968750
7872		50.781250
7873		46.875000
7874		50.781250
7875		46.875000
7876		54.687500
7877		50.781250
7878		54.687500
7879		50.781250
7880		54.687500
7881		50.781250
7882		58.593750
7883		54.687500
7884		58.593750
7885		54.687500
7886		58.593750
7887		54.687500
7888		62.500000
7889		54.687500
7890		66.406250
7891		58.593750
7892		66.406250
7893		62.500000
7894		66.406250
7895		62.500000
7896		66.406250
7897		62.500000
7898		66.406250
7899		62.500000
7900		70.312500
7901		62.500000
7902		70.312500
7903		66.406250
7904		70.312500
7905		66.406250
7906		74.218750
7907		70.312500
7908		74.218750
7909		66.406250
7910		74.218750
7911		70.312500
7912		74.218750
7913		70.312500
7914		78.125000
7915		70.312500
7916		78.125000
7917		74.218750
7918		78.125000
7919		74.218750
7920		78.125000
7921		74.218750
7922		82.031250
7923		74.218750
7924		82.031250
7925		74.218750
7926		82.031250
7927		78.125000
7928		82.031250
7929		78.125000
7930		82.031250
7931		78.125000
7932		85.937500
7933		78.125000
7934		85.937500
7935		82.031250
7936		85.937500
7937		82.031250
7938		85.937500
7939		78.125000
7940		89.843750
7941		82.031250
7942		89.843750
7943		82.031250
7944		85.937500
7945		82.031250
7946		85.937500
7947		82.031250
7948		89.843750
7949		82.031250
7950		89.843750
7951		82.031250
7952		89.843750
7953		85.937500
7954		89.843750
7955		82.031250
7956		89.843750
7957		82.031250
7958		89.843750
7959		82.031250
7960		89.843750
7961		85.937500
7962		89.843750
7963		85.937500
7964		89.843750
7965		82.031250
7966		89.843750
7967		85.937500
7968		89.843750
7969		85.937500
7970		89.843750
7971		85.937500
7972		89.843750
7973		82.031250
7974		93.750000
7975		82.031250
7976		89.843750
7977		85.937500
7978		89.843750
7979		82.031250
7980		85.937500
7981		82.031250
7982		85.937500
7983		78.125000
7984		89.843750
7985		82.031250
7986		89.843750
7987		82.031250
7988		85.937500
7989		78.125000
7990		89.843750
7991		82.031250
7992		85.937500
7993		78.125000
7994		85.937500
7995		82.031250
7996		85.937500
7997		78.125000
7998		82.031250
7999		78.125000
8000		85.937500
8001		78.125000
8002		82.031250
8003		78.125000
8004		82.031250
8005		74.218750
8006		82.031250
8007		74.218750
8008		82.031250
8009		74.218750
8010		82.031250
8011		74.218750
8012		78.125000
8013		74.218750
8014		78.125000
8015		70.312500
8016		78.125000
8017		70.312500
8018		78.125000
8019		70.312500
8020		74.218750
8021		70.312500
8022		74.218750
8023		66.406250
8024		74.218750
8025		66.406250
8026		70.312500
8027		66.406250
8028		70.312500
8029		66.406250
8030		70.312500
8031		62.500000
8032		66.406250
8033		58.593750
8034		70.312500
8035		58.593750
8036		66.406250
8037		58.593750
8038		62.500000
8039		54.687500
8040		66.406250
8041		54.687500
8042		66.406250
8043		54.687500
8044		62.500000
8045		54.687500
8046		58.593750
8047		54.687500
8048		58.593750
8049		50.781250
8050		58.593750
8051		50.781250
8052		54.687500
8053		50.781250
8054		54.687500
8055		46.875000
8056		50.781250
8057		42.968750
8058		54.687500
8059		42.968750
8060		50.781250
8061		42.968750
8062		46.875000
8063		42.968750
8064		46.875000
8065		39.062500
8066		46.875000
8067		35.156250
8068		46.875000
8069		39.062500
8070		42.968750
8071		35.156250
8072		39.062500
8073		35.156250
8074		39.062500
8075		31.250000
8076		35.156250
8077		31.250000
8078		39.062500
8079		31.250000
8080		35.156250
8081		27.343750
8082		31.250000
8083		23.437500
8084		31.250000
8085		23.437500
8086		31.250000
8087		23.437500
8088		27.343750
8089		19.531250
8090		27.343750
8091		19.531250
8092		23.437500
8093		19.531250
8094		23.437500
8095		19.531250
8096		23.437500
8097		15.625000
8098		19.531250
8099		15.625000
8100		19.531250
8101		11.718750
8102		19.531250
8103		11.718750
8104		15.625000
8105		11.718750
8106		15.625000
8107		7.812500
8108		15.625000
8109		7.812500
8110		11.718750
8111		7.812500
8112		11.718750
8113		7.812500
8114		11.718750
8115		3.906250
8116		7.812500
8117		3.906250
8118		7.812500
8119		3.906250
8120		7.812500
8121		3.906250
8122		7.812500
8123		0.000000
8124		3.906250
8125		0.000000
8126		3.906250
8127		0.000000
8128		3.906250
8129		0.000000
8130		0.000000
8131		-3.906250
8132		0.000000
8133		-3.906250
8134		0.000000
8135		-3.906250
8136		0.000000
8137		-3.906250
8138		0.000000
8139		-3.906250
8140		0.000000
8141		-3.906250
8142		-3.906250
8143		-7.812500
8144		-3.906250
8145		-7.812500
8146		-3.906250
8147		-7.812500
8148		-3.906250
8149		-7.812500
8150		-3.906250
8151		-7.812500
8152		-3.906250
8153		-7.812500
8154		-3.906250
8155		-7.812500
8156		-3.906250
8157		-11.718750
8158		-3.906250
8159		-11.718750
8160		-3.906250
8161		-7.812500
8162		-3.906250
8163		-7.812500
8164		-3.906250
8165		-11.718750
8166		-3.906250
8167		-11.718750
8168		-3.906250
8169		-11.718750
8170		-3.906250
8171		-11.718750
8172		-3.906250
8173		-11.718750
8174		-3.906250
8175		-7.812500
8176		-3.906250
8177		-7.812500
8178		-3.906250
8179		-7.812500
8180		-3.906250
8181		-7.812500
8182		-3.906250
8183		-7.812500
8184		-3.906250
8185		-7.812500
8186		-3.906250
8187		-7.812500
8188		-3.906250
8189		-7.812500
8190		0.000000
8191		-3.906250
8192		0.000000
8193		-3.906250
8194		0.000000
8195		-3.906250
8196		0.000000
8197		-3.906250
8198		0.000000
8199		-3.906250
8200		3.906250
8201		-3.906250
8202		3.906250
8203		0.000000
8204		3.906250
8205		0.000000
8206		3.906250
8207		0.000000
8208		7.812500
8209		0.000000
8210		7.812500
8211		3.906250
8212		7.812500
8213		3.906250
8214		7.812500
8215		3.906250
8216		7.812500
8217		7.812500
8218		11.718750
8219		7.812500
8220		11.718750
8221		7.812500
8222		15.625000
8223		11.718750
8224		15.625000
8225		11.718750
8226		15.625000
8227		11.718750
8228		15.625000
8229		15.625000
8230		19.531250
8231		15.625000
8232		19.531250
8233		15.625000
8234		19.531250
8235		19.531250
8236		23.437500
8237		19.531250
8238		23.437500
8239		19.531250
8240		27.343750
8241		23.437500
8242		27.343750
8243		23.437500
8244		27.343750
8245		23.437500
8246		27.343750
8247		27.343750
8248		31.250000
8249		27.343750
8250		31.250000
8251		27.343750
8252		35.156250
8253		31.250000
8254		35.156250
8255		31.250000
8256		39.062500
8257		35.156250
8258		39.062500
8259		35.156250
8260		39.062500
8261		35.156250
8262		39.062500
8263		39.062500
8264		42.968750
8265		39.062500
8266		42.968750
8267		39.062500
8268		46.875000
8269		42.968750
8270		46.875000
8271		42.968750
8272		46.875000
8273		42.968750
8274		50.781250
8275		46.875000
8276		50.781250
8277		46.875000
8278		50.781250
8279		50.781250
8280		54.687500
8281		50.781250
8282		54.687500
8283		50.781250
8284		54.687500
8285		54.687500
8286		58.593750
8287		54.687500
8288		58.593750
8289		54.687500
8290		62.500000
8291		58.593750
8292		62.500000
8293		58.593750
8294		62.500000
8295		62.500000
8296		62.500000
8297		62.500000
8298		66.406250
8299		62.500000
8300		66.406250
8301		62.500000
8302		66.406250
8303		66.406250
8304		70.312500
8305		66.406250
8306		70.312500
8307		66.406250
8308		70.312500
8309		70.312500
8310		74.218750
8311		70.312500
8312		74.218750
8313		70.312500
8314		74.218750
8315		70.312500
8316		74.218750
8317		74.218750
8318		78.125000
8319		74.218750
8320		78.125000
8321		74.218750
8322		78.125000
8323		74.218750
8324		78.125000
8325		74.218750
8326		82.031250
8327		78.125000
8328		82.031250
8329		78.125000
8330		82.031250
8331		78.125000
8332		85.937500
8333		78.125000
8334		82.031250
8335		78.125000
8336		85.937500
8337		82.031250
8338		85.937500
8339		82.031250
8340		85.937500
8341		82.031250
8342		85.937500
8343		82.031250
8344		85.937500
8345		82.031250
8346		85.937500
8347		82.031250
8348		85.937500
8349		82.031250
8350		85.937500
8351		82.031250
8352		85.937500
8353		85.937500
8354		85.937500
8355		85.937500
8356		89.843750
8357		82.031250
8358		89.843750
8359		85.937500
8360		89.843750
8361		85.937500
8362		89.843750
8363		85.937500
8364		89.843750
8365		85.937500
8366		89.843750
8367		85.937500
8368		89.843750
8369		85.937500
8370		89.843750
8371		85.937500
8372		89.843750
8373		85.937500
8374		89.843750
8375		85.937500
8376		89.843750
8377		85.937500
8378		89.843750
8379		82.031250
8380		89.843750
8381		85.937500
8382		85.937500
8383		82.031250
8384		85.937500
8385		82.031250
8386		85.937500
8387		82.031250
8388		85.937500
8389		82.031250
8390		85.937500
8391		82.031250
8392		85.937500
8393		82.031250
8394		85.937500
8395		78.125000
8396		85.937500
8397		82.031250
8398		85.937500
8399		82.031250
8400		82.031250
8401		78.125000
8402		85.937500
8403		78.125000
8404		82.031250
8405		78.125000
8406		82.031250
8407		78.125000
8408		82.031250
8409		78.125000
8410		82.031250
8411		74.218750
8412		78.125000
8413		74.218750
8414		78.125000
8415		74.218750
8416		78.125000
8417		74.218750
8418		78.125000
8419		70.312500
8420		74.218750
8421		70.312500
8422		74.218750
8423		70.312500
8424		74.218750
8425		70.312500
8426		74.218750
8427		66.406250
8428		74.218750
8429		66.406250
8430		70.312500
8431		66.406250
8432		70.312500
8433		66.406250
8434		66.406250
8435		62.500000
8436		66.406250
8437		62.500000
8438		66.406250
8439		62.500000
8440		66.406250
8441		58.593750
8442		62.500000
8443		58.593750
8444		62.500000
8445		54.687500
8446		62.500000
8447		54.687500
8448		58.593750
8449		54.687500
8450		58.593750
8451		50.781250
8452		58.593750
8453		50.781250
8454		58.593750
8455		50.781250
8456		54.687500
8457		46.875000
8458		50.781250
8459		46.875000
8460		50.781250
8461		46.875000
8462		50.781250
8463		42.968750
8464		50.781250
8465		42.968750
8466		46.875000
8467		42.968750
8468		46.875000
8469		39.062500
8470		42.968750
8471		39.062500
8472		42.968750
8473		35.156250
8474		42.968750
8475		35.156250
8476		39.062500
8477		35.156250
8478		39.062500
8479		31.250000
8480		35.156250
8481		31.250000
8482		35.156250
8483		27.343750
8484		35.156250
8485		27.343750
8486		31.250000
8487		27.343750
8488		31.250000
8489		23.437500
8490		27.343750
8491		23.437500
8492		27.343750
8493		23.437500
8494		27.343750
8495		19.531250
8496		23.437500
8497		19.531250
8498		23.437500
8499		15.625000
8500		23.437500
8501		15.625000
8502		19.531250
8503		15.625000
8504		19.531250
8505		15.625000
8506		19.531250
8507		11.718750
8508		15.625000
8509		11.718750
8510		15.625000
8511		11.718750
8512		15.625000
8513		7.812500
8514		11.718750
8515		7.812500
8516		11.718750
8517		7.812500
8518		11.718750
8519		3.906250
8520		7.812500
8521		3.906250
8522		7.812500
8523		3.906250
8524		7.812500
8525		0.000000
8526		3.906250
8527		0.000000
8528		3.906250
8529		0.000000
8530		3.906250
8531		0.000000
8532		3.906250
8533		0.000000
8534		3.906250
8535		-3.906250
8536		0.000000
8537		-3.906250
8538		0.000000
8539		-3.906250
8540		0.000000
8541		-3.906250
8542		0.000000
8543		-7.812500
8544		0.000000
8545		-3.906250
8546		-3.906250
8547		-7.812500
8548		-3.906250
8549		-7.812500
8550		-3.906250
8551		-7.812500
8552		-3.906250
8553		-7.812500
8554		-3.906250
8555		-7.812500
8556		-3.906250
8557		-7.812500
8558		-3.906250
8559		-7.812500
8560		-3.906250
8561		-7.812500
8562		-3.906250
8563		-7.812500
8564		-3.906250
8565		-11.718750
8566		-3.906250
8567		-7.812500
8568		-7.812500
8569		-7.812500
8570		-7.812500
8571		-7.812500
8572		-3.906250
8573		-7.812500
8574		-3.906250
8575		-7.812500
8576		-3.906250
8577		-7.812500
8578		-3.906250
8579		-7.812500
8580		-3.906250
8581		-7.812500
8582		-3.906250
8583		-7.812500
8584		-3.906250
8585		-7.812500
8586		-3.906250
8587		-7.812500
8588		-3.906250
8589		-7.812500
8590		-3.906250
8591		-7.812500
8592		-3.906250
8593		-7.812500
8594		0.000000
8595		-3.906250
8596		0.000000
8597		-3.906250
8598		0.000000
8599		-3.906250
8600		0.000000
8601		-3.906250
8602		0.000000
8603		0.000000
8604		0.000000
8605		0.000000
8606		3.906250
8607		0.000000
8608		3.906250
8609		0.000000
8610		3.906250
8611		0.000000
8612		3.906250
8613		3.906250
8614		7.812500
8615		3.906250
8616		7.812500
8617		3.906250
8618		7.812500
8619		3.906250
8620		11.718750
8621		7.812500
8622		11.718750
8623		7.812500
8624		11.718750
8625		7.812500
8626		11.718750
8627		11.718750
8628		15.625000
8629		11.718750
8630		15.625000
8631		11.718750
8632		15.625000
8633		15.625000
8634		19.531250
8635		15.625000
8636		19.531250
8637		15.625000
8638		19.531250
8639		19.531250
8640		23.437500
8641		19.531250
8642		23.437500
8643		19.531250
8644		27.343750
8645		23.437500
8646		27.343750
8647		23.437500
8648		27.343750
8649		23.437500
8650		31.250000
8651		27.343750
8652		31.250000
8653		27.343750
8654		31.250000
8655		31.250000
8656		35.156250
8657		31.250000
8658		35.156250
8659		31.250000
8660		39.062500
8661		35.156250
8662		39.062500
8663		35.156250
8664		39.062500
8665		35.156250
8666		42.968750
8667		39.062500
8668		42.968750
8669		39.062500
8670		42.968750
8671		42.968750
8672		46.875000
8673		42.968750
8674		46.875000
8675		42.968750
8676		46.875000
8677		46.875000
8678		50.781250
8679		46.875000
8680		50.781250
8681		46.875000
8682		54.687500
8683		50.781250
8684		54.687500
8685		50.781250
8686		54.687500
8687		54.687500
8688		58.593750
8689		54.687500
8690		58.593750
8691		54.687500
8692		58.593750
8693		58.593750
8694		62.500000
8695		58.593750
8696		62.500000
8697		58.593750
8698		62.500000
8699		62.500000
8700		66.406250
8701		62.500000
8702		66.406250
8703		62.500000
8704		66.406250
8705		66.406250
8706		70.312500
8707		66.406250
8708		70.312500
8709		66.406250
8710		70.312500
8711		66.406250
8712		70.312500
8713		70.312500
8714		74.218750
8715		70.312500
8716		74.218750
8717		70.312500
8718		78.125000
8719		74.218750
8720		78.125000
8721		74.218750
8722		78.125000
8723		74.218750
8724		78.125000
8725		74.218750
8726		78.125000
8727		74.218750
8728		78.125000
8729		74.218750
8730		82.031250
8731		78.125000
8732		82.031250
8733		78.125000
8734		82.031250
8735		78.125000
8736		82.031250
8737		78.125000
8738		82.031250
8739		82.031250
8740		85.937500
8741		82.031250
8742		85.937500
8743		82.031250
8744		85.937500
8745		82.031250
8746		85.937500
8747		82.031250
8748		85.937500
8749		82.031250
8750		85.937500
8751		82.031250
8752		85.937500
8753		82.031250
8754		85.937500
8755		85.937500
8756		89.843750
8757		82.031250
8758		89.843750
8759		82.031250
8760		89.843750
8761		85.937500
8762		89.843750
8763		85.937500
8764		89.843750
8765		85.937500
8766		89.843750
8767		85.937500
8768		89.843750
8769		85.937500
8770		89.843750
8771		85.937500
8772		89.843750
8773		85.937500
8774		89.843750
8775		85.937500
8776		89.843750
8777		85.937500
8778		89.843750
8779		85.937500
8780		89.843750
8781		85.937500
8782		89.843750
8783		85.937500
8784		89.843750
8785		85.937500
8786		85.937500
8787		82.031250
8788		85.937500
8789		82.031250
8790		85.937500
8791		82.031250
8792		85.937500
8793		82.031250
8794		85.937500
8795		82.031250
8796		85.937500
8797		82.031250
8798		85.937500
8799		82.031250
8800		85.937500
8801		82.031250
8802		85.937500
8803		82.031250
8804		85.937500
8805		78.125000
8806		85.937500
8807		78.125000
8808		82.031250
8809		78.125000
8810		82.031250
8811		78.125000
8812		82.031250
8813		78.125000
8814		78.125000
8815		74.218750
8816		78.125000
8817		74.218750
8818		78.125000
8819		74.218750
8820		78.125000
8821		74.218750
8822		78.125000
8823		70.312500
8824		74.218750
8825		70.312500
8826		74.218750
8827		70.312500
8828		74.218750
8829		70.312500
8830		74.218750
8831		66.406250
8832		70.312500
8833		66.406250
8834		70.312500
8835		66.406250
8836		70.312500
8837		62.500000
8838		66.406250
8839		62.500000
8840		66.406250
8841		62.500000
8842		66.406250
8843		62.500000
8844		66.406250
8845		58.593750
8846		62.500000
8847		58.593750
8848		62.500000
8849		54.687500
8850		58.593750
8851		54.687500
8852		58.593750
8853		54.687500
8854		58.593750
8855		50.781250
8856		54.687500
8857		50.781250
8858		54.687500
8859		50.781250
8860		54.687500
8861		46.875000
8862		50.781250
8863		46.875000
8864		50.781250
8865		42.968750
8866		50.781250
8867		42.968750
8868		46.875000
8869		42.968750
8870		46.875000
8871		39.062500
8872		42.968750
8873		39.062500
8874		42.968750
8875		39.062500
8876		42.968750
8877		35.156250
8878		39.062500
8879		35.156250
8880		39.062500
8881		31.250000
8882		35.156250
8883		31.250000
8884		35.156250
8885		31.250000
8886		35.156250
8887		27.343750
8888		31.250000
8889		27.343750
8890		31.250000
8891		27.343750
8892		31.250000
8893		23.437500
8894		27.343750
8895		23.437500
8896		27.343750
8897		19.531250
8898		23.437500
8899		19.531250
8900		23.437500
8901		19.531250
8902		23.437500
8903		15.625000
8904		19.531250
8905		15.625000
8906		19.531250
8907		11.718750
8908		19.531250
8909		11.718750
8910		15.625000
8911		11.718750
8912		15.625000
8913		11.718750
8914		15.625000
8915		7.812500
8916		11.718750
8917		7.812500
8918		11.718750
8919		7.812500
8920		11.718750
8921		3.906250
8922		11.718750
8923		3.906250
8924		7.812500
8925		3.906250
8926		7.812500
8927		3.906250
8928		7.812500
8929		0.000000
8930		3.906250
8931		0.000000
8932		3.906250
8933		0.000000
8934		3.906250
8935		0.000000
8936		3.906250
8937		-3.906250
8938		0.000000
8939		-3.906250
8940		0.000000
8941		-3.906250
8942		0.000000
8943		-3.906250
8944		0.000000
8945		-3.906250
8946		0.000000
8947		-3.906250
8948		0.000000
8949		-7.812500
8950		-3.906250
8951		-7.812500
8952		-3.906250
8953		-7.812500
8954		-3.906250
8955		-7.812500
8956		-3.906250
8957		-7.812500
8958		-3.906250
8959		-7.812500
8960		-3.906250
8961		-7.812500
8962		-3.906250
8963		-7.812500
8964		-3.906250
8965		-11.718750
8966		-3.906250
8967		-11.718750
8968		-3.906250
8969		-7.812500
8970		-7.812500
8971		-7.812500
8972		-7.812500
8973		-11.718750
8974		-3.906250
8975		-7.812500
8976		-3.906250
8977		-7.812500
8978		-3.906250
8979		-7.812500
8980		-3.906250
8981		-7.812500
8982		-3.906250
8983		-7.812500
8984		-3.906250
8985		-7.812500
8986		-3.906250
8987		-7.812500
8988		-3.906250
8989		-7.812500
8990		-3.906250
8991		-7.812500
8992		-3.906250
8993		-7.812500
8994		-3.906250
8995		-3.906250
8996		-3.906250
8997		-3.906250
8998		0.000000
8999		-3.906250
9000		0.000000
9001		-3.906250
9002		0.000000
9003		-3.906250
9004		0.000000
9005		-3.906250
9006		0.000000
9007		0.000000
9008		3.906250
9009		0.000000
9010		3.906250
9011		0.000000
9012		3.906250
9013		0.000000
9014		3.906250
9015		3.906250
9016		7.812500
9017		3.906250
9018		7.812500
9019		3.906250
9020		7.812500
9021		3.906250
9022		7.812500
9023		7.812500
9024		11.718750
9025		7.812500
9026		11.718750
9027		7.812500
9028		11.718750
9029		11.718750
9030		15.625000
9031		11.718750
9032		15.625000
9033		11.718750
9034		15.625000
9035		11.718750
9036		19.531250
9037		15.625000
9038		19.531250
9039		15.625000
9040		19.531250
9041		19.531250
9042		23.437500
9043		19.531250
9044		23.437500
9045		19.531250
9046		23.437500
9047		23.437500
9048		27.343750
9049		23.437500
9050		27.343750
9051		23.437500
9052		27.343750
9053		27.343750
9054		31.250000
9055		27.343750
9056		31.250000
9057		27.343750
9058		35.156250
9059		31.250000
9060		35.156250
9061		31.250000
9062		35.156250
9063		35.156250
9064		39.062500
9065		35.156250
9066		39.062500
9067		35.156250
9068		39.062500
9069		35.156250
9070		42.968750
9071		39.062500
9072		42.968750
9073		42.968750
9074		46.875000
9075		42.968750
9076		46.875000
9077		42.968750
9078		46.875000
9079		46.875000
9080		50.781250
9081		46.875000
9082		50.781250
9083		46.875000
9084		50.781250
9085		50.781250
9086		54.687500
9087		50.781250
9088		54.687500
9089		50.781250
9090		54.687500
9091		54.687500
9092		58.593750
9093		54.687500
9094		58.593750
9095		54.687500
9096		58.593750
9097		58.593750
9098		62.500000
9099		58.593750
9100		62.500000
9101		58.593750
9102		66.406250
9103		62.500000
9104		66.406250
9105		62.500000
9106		66.406250
9107		62.500000
9108		70.312500
9109		66.406250
9110		70.312500
9111		66.406250
9112		70.312500
9113		66.406250
9114		70.312500
9115		70.312500
9116		74.218750
9117		70.312500
9118		74.218750
9119		70.312500
9120		74.218750
9121		70.312500
9122		74.218750
9123		74.218750
9124		78.125000
9125		74.218750
9126		78.125000
9127		74.218750
9128		78.125000
9129		74.218750
9130		78.125000
9131		78.125000
9132		82.031250
9133		78.125000
9134		82.031250
9135		78.125000
9136		82.031250
9137		78.125000
9138		82.031250
9139		78.125000
9140		82.031250
9141		78.125000
9142		82.031250
9143		82.031250
9144		85.937500
9145		82.031250
9146		85.937500
9147		82.031250
9148		85.937500
9149		82.031250
9150		85.937500
9151		82.031250
9152		85.937500
9153		82.031250
9154		85.937500
9155		85.937500
9156		85.937500
9157		82.031250
9158		89.843750
9159		85.937500
9160		89.843750
9161		85.937500
9162		89.843750
9163		85.937500
9164		89.843750
9165		85.937500
9166		89.843750
9167		85.937500
9168		89.843750
9169		85.937500
9170		89.843750
9171		85.937500
9172		89.843750
9173		85.937500
9174		89.843750
9175		85.937500
9176		89.843750
9177		85.937500
9178		89.843750
9179		85.937500
9180		89.843750
9181		85.937500
9182		89.843750
9183		85.937500
9184		89.843750
9185		85.937500
9186		89.843750
9187		85.937500
9188		89.843750
9189		85.937500
9190		85.937500
9191		82.031250
9192		89.843750
9193		82.031250
9194		85.937500
9195		82.031250
9196		85.937500
9197		82.031250
9198		85.937500
9199		82.031250
9200		85.937500
9201		82.031250
9202		85.937500
9203		82.031250
9204		85.937500
9205		78.125000
9206		85.937500
9207		78.125000
9208		82.031250
9209		78.125000
9210		82.031250
9211		78.125000
9212		82.031250
9213		78.125000
9214		82.031250
9215		78.125000
9216		82.031250
9217		74.218750
9218		78.125000
9219		74.218750
9220		78.125000
9221		74.218750
9222		78.125000
9223		74.218750
9224		78.125000
9225		74.218750
9226		74.218750
9227		70.312500
9228		74.218750
9229		70.312500
9230		74.218750
9231		70.312500
9232		74.218750
9233		66.406250
9234		70.312500
9235		66.406250
9236		70.312500
9237		66.406250
9238		70.312500
9239		66.406250
9240		66.406250
9241		62.500000
9242		66.406250
9243		62.500000
9244		66.406250
9245		62.500000
9246		66.406250
9247		58.593750
9248		62.500000
9249		58.593750
9250		62.500000
9251		54.687500
9252		62.500000
9253		54.687500
9254		62.500000
9255		54.687500
9256		58.593750
9257		54.687500
9258		58.593750
9259		50.781250
9260		54.687500
9261		50.781250
9262		54.687500
9263		50.781250
9264		54.687500
9265		46.875000
9266		50.781250
9267		46.875000
9268		50.781250
9269		42.968750
9270		46.875000
9271		42.968750
9272		46.875000
9273		42.968750
9274		46.875000
9275		39.062500
9276		42.968750
9277		39.062500
9278		42.968750
9279		35.156250
9280		42.968750
9281		35.156250
9282		39.062500
9283		35.156250
9284		39.062500
9285		31.250000
9286		35.156250
9287		31.250000
9288		35.156250
9289		31.250000
9290		35.156250
9291		27.343750
9292		31.250000
9293		27.343750
9294		31.250000
9295		23.437500
9296		31.250000
9297		23.437500
9298		27.343750
9299		23.437500
9300		27.343750
9301		19.531250
9302		27.343750
9303		19.531250
9304		23.437500
9305		19.531250
9306		23.437500
9307		15.625000
9308		19.531250
9309		15.625000
9310		19.531250
9311		15.625000
9312		19.531250
9313		11.718750
9314		15.625000
9315		11.718750
9316		15.625000
9317		7.812500
9318		15.625000
9319		7.812500
9320		11.718750
9321		7.812500
9322		11.718750
9323		7.812500
9324		11.718750
9325		3.906250
9326		7.812500
9327		3.906250
9328		7.812500
9329		3.906250
9330		7.812500
9331		0.000000
9332		3.906250
9333		0.000000
9334		3.906250
9335		0.000000
9336		3.906250
9337		0.000000
9338		3.906250
9339		0.000000
9340		3.906250
9341		-3.906250
9342		0.000000
9343		-3.906250
9344		0.000000
9345		-3.906250
9346		0.000000
9347		-3.906250
9348		0.000000
9349		-3.906250
9350		0.000000
9351		-3.906250
9352		-3.906250
9353		-7.812500
9354		-3.906250
9355		-7.812500
9356		-3.906250
9357		-7.812500
9358		-3.906250
9359		-7.812500
9360		-3.906250
9361		-7.812500
9362		-3.906250
9363		-7.812500
9364		-3.906250
9365		-7.812500
9366		-3.906250
9367		-7.812500
9368		-3.906250
9369		-7.812500
9370		-3.906250
9371		-11.718750
9372		-3.906250
9373		-7.812500
9374		-7.812500
9375		-7.812500
9376		-3.906250
9377		-7.812500
9378		-3.906250
9379		-7.812500
9380		-3.906250
9381		-7.812500
9382		-3.906250
9383		-7.812500
9384		-3.906250
9385		-7.812500
9386		-3.906250
9387		-7.812500
9388		-3.906250
9389		-7.812500
9390		-3.906250
9391		-7.812500
9392		-3.906250
9393		-7.812500
9394		-3.906250
9395		-7.812500
9396		-3.906250
9397		-7.812500
9398		0.000000
9399		-3.906250
9400		-3.906250
9401		-3.906250
9402		0.000000
9403		-3.906250
9404		0.000000
9405		-3.906250
9406		0.000000
9407		-3.906250
9408		0.000000
9409		-3.906250
9410		0.000000
9411		0.000000
9412		3.906250
9413		0.000000
9414		3.906250
9415		0.000000
9416		3.906250
9417		0.000000
9418		3.906250
9419		3.906250
9420		7.812500
9421		3.906250
9422		7.812500
9423		3.906250
9424		7.812500
9425		7.812500
9426		11.718750
9427		7.812500
9428		11.718750
9429		7.812500
9430		11.718750
9431		7.812500
9432		11.718750
9433		11.718750
9434		15.625000
9435		11.718750
9436		15.625000
9437		11.718750
9438		15.625000
9439		11.718750
9440		19.531250
9441		15.625000
9442		19.531250
9443		15.625000
9444		19.531250
9445		19.531250
9446		23.437500
9447		19.531250
9448		23.437500
9449		19.531250
9450		23.437500
9451		23.437500
9452		27.343750
9453		23.437500
9454		27.343750
9455		27.343750
9456		31.250000
9457		27.343750
9458		31.250000
9459		27.343750
9460		31.250000
9461		27.343750
9462		35.156250
9463		31.250000
9464		35.156250
9465		31.250000
9466		35.156250
9467		35.156250
9468		39.062500
9469		35.156250
9470		39.062500
9471		39.062500
9472		42.968750
9473		39.062500
9474		42.968750
9475		39.062500
9476		42.968750
9477		42.968750
9478		46.875000
9479		42.968750
9480		46.875000
9481		42.968750
9482		50.781250
9483		46.875000
9484		50.781250
9485		46.875000
9486		50.781250
9487		50.781250
9488		54.687500
9489		50.781250
9490		54.687500
9491		50.781250
9492		54.687500
9493		54.687500
9494		58.593750
9495		54.687500
9496		58.593750
9497		54.687500
9498		62.500000
9499		58.593750
9500		62.500000
9501		58.593750
9502		62.500000
9503		58.593750
9504		62.500000
9505		62.500000
9506		66.406250
9507		62.500000
9508		66.406250
9509		62.500000
9510		66.406250
9511		62.500000
9512		66.406250
9513		66.406250
9514		70.312500
9515		66.406250
9516		70.312500
9517		66.406250
9518		70.312500
9519		70.312500
9520		74.218750
9521		70.312500
9522		74.218750
9523		70.312500
9524		74.218750
9525		74.218750
9526		74.218750
9527		74.218750
9528		78.125000
9529		74.218750
9530		78.125000
9531		74.218750
9532		78.125000
9533		74.218750
9534		78.125000
9535		78.125000
9536		78.125000
9537		78.125000
9538		82.031250
9539		78.125000
9540		82.031250
9541		78.125000
9542		82.031250
9543		78.125000
9544		82.031250
9545		82.031250
9546		82.031250
9547		82.031250
9548		85.937500
9549		82.031250
9550		85.937500
9551		82.031250
9552		85.937500
9553		82.031250
9554		85.937500
9555		82.031250
9556		85.937500
9557		82.031250
9558		85.937500
9559		82.031250
9560		85.937500
9561		82.031250
9562		89.843750
9563		85.937500
9564		89.843750
9565		85.937500
9566		89.843750
9567		85.937500
9568		89.843750
9569		85.937500
9570		89.843750
9571		85.937500
9572		89.843750
9573		85.937500
9574		89.843750
9575		85.937500
9576		89.843750
9577		85.937500
9578		89.843750
9579		85.937500
9580		89.843750
9581		85.937500
9582		89.843750
9583		85.937500
9584		89.843750
9585		85.937500
9586		89.843750
9587		85.937500
9588		89.843750
9589		85.937500
9590		89.843750
9591		85.937500
9592		85.937500
9593		85.937500
9594		85.937500
9595		82.031250
9596		85.937500
9597		82.031250
9598		85.937500
9599		82.031250
9600		85.937500
9601		82.031250
9602		85.937500
9603		82.031250
9604		85.937500
9605		82.031250
9606		85.937500
9607		82.031250
9608		85.937500
9609		78.125000
9610		82.031250
9611		78.125000
9612		82.031250
9613		78.125000
9614		82.031250
9615		78.125000
9616		82.031250
9617		78.125000
9618		82.031250
9619		74.218750
9620		82.031250
9621		74.218750
9622		78.125000
9623		74.218750
9624		78.125000
9625		74.218750
9626		78.125000
9627		74.218750
9628		78.125000
9629		70.312500
9630		74.218750
9631		70.312500
9632		74.218750
9633		70.312500
9634		74.218750
9635		70.312500
9636		74.218750
9637		66.406250
9638		70.312500
9639		66.406250
9640		70.312500
9641		66.406250
9642		70.312500
9643		66.406250
9644		66.406250
9645		62.500000
9646		66.406250
9647		62.500000
9648		66.406250
9649		58.593750
9650		66.406250
9651		58.593750
9652		62.500000
9653		58.593750
9654		62.500000
9655		54.687500
9656		58.593750
9657		54.687500
9658		58.593750
9659		54.687500
9660		58.593750
9661		50.781250
9662		54.687500
9663		50.781250
9664		54.687500
9665		50.781250
9666		54.687500
9667		46.875000
9668		50.781250
9669		46.875000
9670		50.781250
9671		46.875000
9672		46.875000
9673		42.968750
9674		46.875000
9675		42.968750
9676		46.875000
9677		39.062500
9678		42.968750
9679		39.062500
9680		42.968750
9681		39.062500
9682		42.968750
9683		35.156250
9684		39.062500
9685		35.156250
9686		39.062500
9687		31.250000
9688		35.156250
9689		31.250000
9690		35.156250
9691		31.250000
9692		35.156250
9693		27.343750
9694		31.250000
9695		27.343750
9696		31.250000
9697		27.343750
9698		31.250000
9699		23.437500
9700		27.343750
9701		23.437500
9702		27.343750
9703		19.531250
9704		23.437500
9705		19.531250
9706		23.437500
9707		19.531250
9708		23.437500
9709		19.531250
9710		19.531250
9711		15.625000
9712		19.531250
9713		15.625000
9714		19.531250
9715		11.718750
9716		19.531250
9717		11.718750
9718		15.625000
9719		11.718750
9720		15.625000
9721		7.812500
9722		11.718750
9723		7.812500
9724		11.718750
9725		7.812500
9726		11.718750
9727		7.812500
9728		7.812500
9729		3.906250
9730		7.812500
9731		3.906250
9732		7.812500
9733		3.906250
9734		7.812500
9735		0.000000
9736		7.812500
9737		0.000000
9738		3.906250
9739		0.000000
9740		3.906250
9741		0.000000
9742		3.906250
9743		-3.906250
9744		0.000000
9745		-3.906250
9746		0.000000
9747		-3.906250
9748		0.000000
9749		-3.906250
9750		0.000000
9751		-3.906250
9752		0.000000
9753		-7.812500
9754		-3.906250
9755		-7.812500
9756		-3.906250
9757		-7.812500
9758		-3.906250
9759		-7.812500
9760		-3.906250
9761		-7.812500
9762		-3.906250
9763		-7.812500
9764		-3.906250
9765		-7.812500
9766		-3.906250
9767		-7.812500
9768		-3.906250
9769		-7.812500
9770		-7.812500
9771		-7.812500
9772		-3.906250
9773		-7.812500
9774		-3.906250
9775		-11.718750
9776		-7.812500
9777		-7.812500
9778		-7.812500
9779		-7.812500
9780		-3.906250
9781		-7.812500
9782		-3.906250
9783		-7.812500
9784		-3.906250
9785		-7.812500
9786		-3.906250
9787		-7.812500
9788		-3.906250
9789		-7.812500
9790		-3.906250
9791		-7.812500
9792		-3.906250
9793		-7.812500
9794		-3.906250
9795		-7.812500
9796		-3.906250
9797		-7.812500
9798		-3.906250
9799		-7.812500
9800		-3.906250
9801		-3.906250
9802		-3.906250
9803		-3.906250
9804		0.000000
9805		-3.906250
9806		0.000000
9807		-3.906250
9808		0.000000
9809		-3.906250
9810		0.000000
9811		-3.906250
9812		0.000000
9813		-3.906250
9814		3.906250
9815		0.000000
9816		3.906250
9817		0.000000
9818		3.906250
9819		0.000000
9820		3.906250
9821		0.000000
9822		3.906250
9823		3.906250
9824		7.812500
9825		3.906250
9826		7.812500
9827		3.906250
9828		7.812500
9829		3.906250
9830		11.718750
9831		7.812500
9832		11.718750
9833		7.812500
9834		11.718750
9835		7.812500
9836		11.718750
9837		11.718750
9838		15.625000
9839		11.718750
9840		15.625000
9841		11.718750
9842		19.531250
9843		15.625000
9844		19.531250
9845		15.625000
9846		19.531250
9847		15.625000
9848		19.531250
9849		19.531250
9850		23.437500
9851		19.531250
9852		23.437500
9853		19.531250
9854		23.437500
9855		23.437500
9856		27.343750
9857		23.437500
9858		31.250000
9859		23.437500
9860		31.250000
9861		27.343750
9862		31.250000
9863		27.343750
9864		31.250000
9865		31.250000
9866		35.156250
9867		31.250000
9868		35.156250
9869		31.250000
9870		39.062500
9871		35.156250
9872		39.062500
9873		35.156250
9874		39.062500
9875		35.156250
9876		42.968750
9877		39.062500
9878		42.968750
9879		39.062500
9880		42.968750
9881		39.062500
9882		46.875000
9883		42.968750
9884		46.875000
9885		42.968750
9886		50.781250
9887		46.875000
9888		50.781250
9889		46.875000
9890		50.781250
9891		50.781250
9892		54.687500
9893		50.781250
9894		54.687500
9895		50.781250
9896		54.687500
9897		54.687500
9898		58.593750
9899		54.687500
9900		58.593750
9901		54.687500
9902		58.593750
9903		58.593750
9904		62.500000
9905		58.593750
9906		62.500000
9907		58.593750
9908		62.500000
9909		62.500000
9910		66.406250
9911		62.500000
9912		66.406250
9913		62.500000
9914		66.406250
9915		66.406250
9916		70.312500
9917		66.406250
9918		70.312500
9919		66.406250
9920		70.312500
9921		66.406250
9922		74.218750
9923		70.312500
9924		74.218750
9925		70.312500
9926		74.218750
9927		70.312500
9928		74.218750
9929		74.218750
9930		74.218750
9931		74.218750
9932		78.125000
9933		74.218750
9934		78.125000
9935		74.218750
9936		78.125000
9937		74.218750
9938		78.125000
9939		74.218750
9940		82.031250
9941		78.125000
9942		82.031250
9943		78.125000
9944		82.031250
9945		78.125000
9946		82.031250
9947		78.125000
9948		82.031250
9949		82.031250
9950		82.031250
9951		82.031250
9952		85.937500
9953		82.031250
9954		85.937500
9955		82.031250
9956		85.937500
9957		82.031250
9958		85.937500
9959		82.031250
9960		85.937500
9961		82.031250
9962		85.937500
9963		82.031250
9964		85.937500
9965		82.031250
9966		89.843750
9967		82.031250
9968		85.937500
9969		85.937500
9970		89.843750
9971		85.937500
9972		89.843750
9973		85.937500
9974		89.843750
9975		85.937500
9976		89.843750
9977		85.937500
9978		89.843750
9979		85.937500
9980		89.843750
9981		85.937500
9982		89.843750
9983		85.937500
9984		89.843750
9985		85.937500
9986		89.843750
9987		85.937500
9988		89.843750
9989		85.937500
9990		89.843750
9991		85.937500
9992		89.843750
9993		82.031250
9994		89.843750
9995		82.031250
9996		89.843750
9997		82.031250
9998		85.937500
9999		82.031250
10000		85.937500
