Channel              :		CH1
Frequency            :		1.228kHz
Period               :		0.814ms
PK-PK                :		394.5mV
Probe attenuation    :		1X
Voltage per ADC value:		0.244141mV
Time interval        :		2.00000us

index		CH1_Voltage(mV)
1		-191.406250
2		-191.406250
3		-187.500000
4		-191.406250
5		-187.500000
6		-195.312500
7		-191.406250
8		-195.312500
9		-191.406250
10		-199.218750
11		-195.312500
12		-199.218750
13		-195.312500
14		-199.218750
15		-195.312500
16		-203.125000
17		-199.218750
18		-203.125000
19		-199.218750
20		-203.125000
21		-199.218750
22		-203.125000
23		-199.218750
24		-203.125000
25		-199.218750
26		-203.125000
27		-199.218750
28		-203.125000
29		-199.218750
30		-203.125000
31		-199.218750
32		-203.125000
33		-199.218750
34		-203.125000
35		-195.312500
36		-199.218750
37		-195.312500
38		-199.218750
39		-195.312500
40		-199.218750
41		-191.406250
42		-195.312500
43		-191.406250
44		-195.312500
45		-187.500000
46		-191.406250
47		-187.500000
48		-191.406250
49		-183.593750
50		-187.500000
51		-183.593750
52		-183.593750
53		-179.687500
54		-179.687500
55		-175.781250
56		-175.781250
57		-171.875000
58		-175.781250
59		-167.968750
60		-171.875000
61		-164.062500
62		-167.968750
63		-160.156250
64		-164.062500
65		-156.250000
66		-160.156250
67		-152.343750
68		-156.250000
69		-148.437500
70		-152.343750
71		-144.531250
72		-144.531250
73		-140.625000
74		-140.625000
75		-132.812500
76		-136.718750
77		-128.906250
78		-132.812500
79		-125.000000
80		-125.000000
81		-117.187500
82		-121.093750
83		-113.281250
84		-113.281250
85		-109.375000
86		-109.375000
87		-101.562500
88		-105.468750
89		-97.656250
90		-97.656250
91		-89.843750
92		-93.750000
93		-85.937500
94		-85.937500
95		-78.125000
96		-82.031250
97		-74.218750
98		-74.218750
99		-66.406250
100		-70.312500
101		-58.593750
102		-62.500000
103		-54.687500
104		-54.687500
105		-46.875000
106		-50.781250
107		-42.968750
108		-42.968750
109		-35.156250
110		-39.062500
111		-27.343750
112		-31.250000
113		-23.437500
114		-23.437500
115		-15.625000
116		-19.531250
117		-11.718750
118		-11.718750
119		-3.906250
120		-7.812500
121		3.906250
122		0.000000
123		7.812500
124		7.812500
125		15.625000
126		11.718750
127		19.531250
128		19.531250
129		27.343750
130		23.437500
131		31.250000
132		31.250000
133		39.062500
134		35.156250
135		42.968750
136		42.968750
137		50.781250
138		46.875000
139		58.593750
140		54.687500
141		62.500000
142		58.593750
143		66.406250
144		66.406250
145		74.218750
146		70.312500
147		78.125000
148		74.218750
149		85.937500
150		82.031250
151		89.843750
152		85.937500
153		93.750000
154		89.843750
155		97.656250
156		97.656250
157		101.562500
158		101.562500
159		109.375000
160		105.468750
161		113.281250
162		109.375000
163		117.187500
164		113.281250
165		121.093750
166		117.187500
167		125.000000
168		121.093750
169		128.906250
170		128.906250
171		132.812500
172		132.812500
173		136.718750
174		132.812500
175		140.625000
176		136.718750
177		144.531250
178		140.625000
179		148.437500
180		144.531250
181		152.343750
182		148.437500
183		152.343750
184		152.343750
185		156.250000
186		156.250000
187		160.156250
188		156.250000
189		164.062500
190		160.156250
191		164.062500
192		160.156250
193		167.968750
194		164.062500
195		167.968750
196		167.968750
197		171.875000
198		167.968750
199		175.781250
200		171.875000
201		175.781250
202		171.875000
203		175.781250
204		175.781250
205		179.687500
206		175.781250
207		179.687500
208		175.781250
209		183.593750
210		179.687500
211		183.593750
212		179.687500
213		183.593750
214		179.687500
215		183.593750
216		183.593750
217		187.500000
218		183.593750
219		187.500000
220		183.593750
221		187.500000
222		183.593750
223		187.500000
224		183.593750
225		187.500000
226		183.593750
227		187.500000
228		183.593750
229		191.406250
230		183.593750
231		187.500000
232		183.593750
233		187.500000
234		183.593750
235		187.500000
236		183.593750
237		187.500000
238		183.593750
239		187.500000
240		183.593750
241		187.500000
242		183.593750
243		187.500000
244		179.687500
245		183.593750
246		179.687500
247		183.593750
248		179.687500
249		183.593750
250		175.781250
251		179.687500
252		175.781250
253		179.687500
254		175.781250
255		179.687500
256		171.875000
257		175.781250
258		171.875000
259		175.781250
260		167.968750
261		171.875000
262		167.968750
263		171.875000
264		164.062500
265		167.968750
266		160.156250
267		164.062500
268		160.156250
269		164.062500
270		156.250000
271		160.156250
272		152.343750
273		160.156250
274		148.437500
275		156.250000
276		144.531250
277		152.343750
278		144.531250
279		148.437500
280		140.625000
281		144.531250
282		136.718750
283		140.625000
284		132.812500
285		136.718750
286		128.906250
287		132.812500
288		125.000000
289		128.906250
290		121.093750
291		125.000000
292		113.281250
293		121.093750
294		109.375000
295		117.187500
296		105.468750
297		113.281250
298		101.562500
299		109.375000
300		97.656250
301		101.562500
302		89.843750
303		97.656250
304		85.937500
305		93.750000
306		82.031250
307		85.937500
308		74.218750
309		82.031250
310		70.312500
311		78.125000
312		66.406250
313		70.312500
314		58.593750
315		66.406250
316		50.781250
317		58.593750
318		46.875000
319		54.687500
320		42.968750
321		50.781250
322		35.156250
323		42.968750
324		27.343750
325		39.062500
326		23.437500
327		31.250000
328		15.625000
329		23.437500
330		11.718750
331		19.531250
332		3.906250
333		11.718750
334		0.000000
335		7.812500
336		-7.812500
337		0.000000
338		-15.625000
339		-7.812500
340		-19.531250
341		-11.718750
342		-27.343750
343		-19.531250
344		-31.250000
345		-23.437500
346		-39.062500
347		-31.250000
348		-46.875000
349		-39.062500
350		-50.781250
351		-42.968750
352		-58.593750
353		-50.781250
354		-62.500000
355		-54.687500
356		-70.312500
357		-62.500000
358		-74.218750
359		-66.406250
360		-82.031250
361		-74.218750
362		-85.937500
363		-78.125000
364		-93.750000
365		-85.937500
366		-97.656250
367		-89.843750
368		-105.468750
369		-97.656250
370		-109.375000
371		-101.562500
372		-113.281250
373		-109.375000
374		-121.093750
375		-113.281250
376		-125.000000
377		-117.187500
378		-128.906250
379		-121.093750
380		-136.718750
381		-128.906250
382		-140.625000
383		-132.812500
384		-144.531250
385		-136.718750
386		-148.437500
387		-140.625000
388		-152.343750
389		-148.437500
390		-156.250000
391		-152.343750
392		-160.156250
393		-156.250000
394		-164.062500
395		-160.156250
396		-167.968750
397		-164.062500
398		-171.875000
399		-167.968750
400		-175.781250
401		-167.968750
402		-179.687500
403		-171.875000
404		-183.593750
405		-175.781250
406		-183.593750
407		-179.687500
408		-187.500000
409		-183.593750
410		-191.406250
411		-183.593750
412		-191.406250
413		-187.500000
414		-191.406250
415		-187.500000
416		-195.312500
417		-191.406250
418		-195.312500
419		-191.406250
420		-199.218750
421		-195.312500
422		-199.218750
423		-195.312500
424		-199.218750
425		-195.312500
426		-199.218750
427		-195.312500
428		-199.218750
429		-195.312500
430		-199.218750
431		-199.218750
432		-199.218750
433		-195.312500
434		-203.125000
435		-195.312500
436		-199.218750
437		-195.312500
438		-199.218750
439		-195.312500
440		-199.218750
441		-195.312500
442		-199.218750
443		-195.312500
444		-195.312500
445		-191.406250
446		-195.312500
447		-191.406250
448		-195.312500
449		-187.500000
450		-195.312500
451		-187.500000
452		-191.406250
453		-183.593750
454		-187.500000
455		-183.593750
456		-183.593750
457		-179.687500
458		-183.593750
459		-175.781250
460		-179.687500
461		-175.781250
462		-175.781250
463		-171.875000
464		-171.875000
465		-167.968750
466		-171.875000
467		-164.062500
468		-167.968750
469		-160.156250
470		-164.062500
471		-156.250000
472		-160.156250
473		-152.343750
474		-156.250000
475		-148.437500
476		-152.343750
477		-144.531250
478		-144.531250
479		-140.625000
480		-140.625000
481		-132.812500
482		-136.718750
483		-128.906250
484		-132.812500
485		-125.000000
486		-125.000000
487		-117.187500
488		-121.093750
489		-113.281250
490		-117.187500
491		-109.375000
492		-109.375000
493		-101.562500
494		-105.468750
495		-97.656250
496		-97.656250
497		-89.843750
498		-93.750000
499		-85.937500
500		-85.937500
501		-78.125000
502		-82.031250
503		-74.218750
504		-74.218750
505		-66.406250
506		-70.312500
507		-62.500000
508		-62.500000
509		-54.687500
510		-58.593750
511		-50.781250
512		-50.781250
513		-42.968750
514		-46.875000
515		-35.156250
516		-39.062500
517		-31.250000
518		-31.250000
519		-23.437500
520		-27.343750
521		-15.625000
522		-19.531250
523		-11.718750
524		-11.718750
525		-3.906250
526		-7.812500
527		0.000000
528		0.000000
529		7.812500
530		3.906250
531		15.625000
532		11.718750
533		19.531250
534		19.531250
535		27.343750
536		23.437500
537		31.250000
538		31.250000
539		39.062500
540		35.156250
541		42.968750
542		42.968750
543		50.781250
544		46.875000
545		54.687500
546		54.687500
547		62.500000
548		58.593750
549		66.406250
550		66.406250
551		70.312500
552		70.312500
553		78.125000
554		74.218750
555		82.031250
556		82.031250
557		85.937500
558		85.937500
559		93.750000
560		89.843750
561		97.656250
562		93.750000
563		101.562500
564		101.562500
565		105.468750
566		105.468750
567		113.281250
568		109.375000
569		117.187500
570		113.281250
571		121.093750
572		117.187500
573		125.000000
574		121.093750
575		128.906250
576		125.000000
577		132.812500
578		128.906250
579		136.718750
580		132.812500
581		140.625000
582		136.718750
583		144.531250
584		140.625000
585		148.437500
586		144.531250
587		152.343750
588		148.437500
589		152.343750
590		152.343750
591		156.250000
592		152.343750
593		160.156250
594		156.250000
595		164.062500
596		160.156250
597		164.062500
598		164.062500
599		167.968750
600		164.062500
601		171.875000
602		167.968750
603		171.875000
604		167.968750
605		175.781250
606		167.968750
607		175.781250
608		171.875000
609		179.687500
610		175.781250
611		179.687500
612		175.781250
613		183.593750
614		179.687500
615		183.593750
616		179.687500
617		183.593750
618		179.687500
619		187.500000
620		179.687500
621		187.500000
622		179.687500
623		187.500000
624		179.687500
625		187.500000
626		183.593750
627		191.406250
628		183.593750
629		191.406250
630		183.593750
631		191.406250
632		187.500000
633		187.500000
634		183.593750
635		191.406250
636		183.593750
637		191.406250
638		183.593750
639		191.406250
640		183.593750
641		191.406250
642		183.593750
643		191.406250
644		183.593750
645		191.406250
646		183.593750
647		191.406250
648		183.593750
649		187.500000
650		183.593750
651		187.500000
652		179.687500
653		187.500000
654		179.687500
655		187.500000
656		175.781250
657		187.500000
658		175.781250
659		183.593750
660		175.781250
661		183.593750
662		171.875000
663		179.687500
664		171.875000
665		175.781250
666		171.875000
667		175.781250
668		167.968750
669		175.781250
670		164.062500
671		171.875000
672		160.156250
673		167.968750
674		160.156250
675		167.968750
676		156.250000
677		164.062500
678		152.343750
679		164.062500
680		152.343750
681		160.156250
682		148.437500
683		156.250000
684		148.437500
685		152.343750
686		140.625000
687		148.437500
688		136.718750
689		148.437500
690		132.812500
691		144.531250
692		128.906250
693		140.625000
694		125.000000
695		136.718750
696		121.093750
697		132.812500
698		121.093750
699		125.000000
700		113.281250
701		121.093750
702		109.375000
703		117.187500
704		105.468750
705		113.281250
706		97.656250
707		109.375000
708		93.750000
709		105.468750
710		89.843750
711		97.656250
712		82.031250
713		93.750000
714		78.125000
715		89.843750
716		74.218750
717		82.031250
718		66.406250
719		78.125000
720		62.500000
721		70.312500
722		54.687500
723		66.406250
724		50.781250
725		62.500000
726		42.968750
727		54.687500
728		39.062500
729		46.875000
730		35.156250
731		42.968750
732		27.343750
733		35.156250
734		23.437500
735		31.250000
736		15.625000
737		23.437500
738		7.812500
739		19.531250
740		3.906250
741		11.718750
742		-3.906250
743		7.812500
744		-11.718750
745		0.000000
746		-19.531250
747		-3.906250
748		-19.531250
749		-11.718750
750		-27.343750
751		-19.531250
752		-35.156250
753		-27.343750
754		-42.968750
755		-31.250000
756		-46.875000
757		-39.062500
758		-54.687500
759		-42.968750
760		-58.593750
761		-50.781250
762		-66.406250
763		-54.687500
764		-70.312500
765		-62.500000
766		-78.125000
767		-70.312500
768		-82.031250
769		-74.218750
770		-89.843750
771		-78.125000
772		-93.750000
773		-85.937500
774		-101.562500
775		-89.843750
776		-105.468750
777		-97.656250
778		-113.281250
779		-101.562500
780		-117.187500
781		-105.468750
782		-121.093750
783		-113.281250
784		-125.000000
785		-117.187500
786		-132.812500
787		-125.000000
788		-136.718750
789		-128.906250
790		-140.625000
791		-132.812500
792		-148.437500
793		-136.718750
794		-152.343750
795		-140.625000
796		-156.250000
797		-144.531250
798		-156.250000
799		-148.437500
800		-160.156250
801		-156.250000
802		-167.968750
803		-160.156250
804		-167.968750
805		-160.156250
806		-171.875000
807		-164.062500
808		-175.781250
809		-167.968750
810		-179.687500
811		-171.875000
812		-183.593750
813		-171.875000
814		-183.593750
815		-175.781250
816		-187.500000
817		-179.687500
818		-187.500000
819		-183.593750
820		-191.406250
821		-183.593750
822		-195.312500
823		-187.500000
824		-195.312500
825		-187.500000
826		-195.312500
827		-187.500000
828		-199.218750
829		-191.406250
830		-199.218750
831		-191.406250
832		-199.218750
833		-191.406250
834		-199.218750
835		-195.312500
836		-199.218750
837		-191.406250
838		-203.125000
839		-195.312500
840		-199.218750
841		-195.312500
842		-199.218750
843		-195.312500
844		-199.218750
845		-191.406250
846		-199.218750
847		-191.406250
848		-199.218750
849		-191.406250
850		-195.312500
851		-191.406250
852		-195.312500
853		-191.406250
854		-195.312500
855		-187.500000
856		-195.312500
857		-187.500000
858		-191.406250
859		-183.593750
860		-187.500000
861		-179.687500
862		-187.500000
863		-179.687500
864		-183.593750
865		-175.781250
866		-179.687500
867		-175.781250
868		-175.781250
869		-171.875000
870		-175.781250
871		-167.968750
872		-171.875000
873		-164.062500
874		-167.968750
875		-160.156250
876		-164.062500
877		-156.250000
878		-164.062500
879		-152.343750
880		-156.250000
881		-148.437500
882		-152.343750
883		-144.531250
884		-148.437500
885		-140.625000
886		-144.531250
887		-132.812500
888		-140.625000
889		-128.906250
890		-132.812500
891		-125.000000
892		-128.906250
893		-121.093750
894		-125.000000
895		-113.281250
896		-121.093750
897		-109.375000
898		-113.281250
899		-105.468750
900		-105.468750
901		-101.562500
902		-101.562500
903		-93.750000
904		-97.656250
905		-85.937500
906		-89.843750
907		-82.031250
908		-85.937500
909		-74.218750
910		-78.125000
911		-70.312500
912		-74.218750
913		-62.500000
914		-70.312500
915		-58.593750
916		-62.500000
917		-50.781250
918		-54.687500
919		-46.875000
920		-46.875000
921		-39.062500
922		-42.968750
923		-31.250000
924		-35.156250
925		-27.343750
926		-31.250000
927		-19.531250
928		-23.437500
929		-11.718750
930		-15.625000
931		-7.812500
932		-11.718750
933		-3.906250
934		-3.906250
935		3.906250
936		3.906250
937		11.718750
938		7.812500
939		15.625000
940		11.718750
941		23.437500
942		19.531250
943		31.250000
944		27.343750
945		35.156250
946		31.250000
947		42.968750
948		39.062500
949		46.875000
950		42.968750
951		50.781250
952		50.781250
953		58.593750
954		54.687500
955		66.406250
956		58.593750
957		70.312500
958		66.406250
959		74.218750
960		70.312500
961		82.031250
962		78.125000
963		85.937500
964		82.031250
965		93.750000
966		85.937500
967		93.750000
968		93.750000
969		101.562500
970		97.656250
971		105.468750
972		101.562500
973		113.281250
974		105.468750
975		117.187500
976		109.375000
977		121.093750
978		113.281250
979		125.000000
980		117.187500
981		128.906250
982		125.000000
983		132.812500
984		128.906250
985		136.718750
986		132.812500
987		140.625000
988		136.718750
989		144.531250
990		136.718750
991		148.437500
992		140.625000
993		152.343750
994		144.531250
995		152.343750
996		148.437500
997		156.250000
998		152.343750
999		160.156250
1000		152.343750
1001		160.156250
1002		160.156250
1003		164.062500
1004		160.156250
1005		167.968750
1006		160.156250
1007		171.875000
1008		164.062500
1009		171.875000
1010		167.968750
1011		175.781250
1012		167.968750
1013		175.781250
1014		171.875000
1015		179.687500
1016		171.875000
1017		179.687500
1018		175.781250
1019		179.687500
1020		179.687500
1021		183.593750
1022		175.781250
1023		187.500000
1024		179.687500
1025		187.500000
1026		179.687500
1027		187.500000
1028		183.593750
1029		187.500000
1030		183.593750
1031		191.406250
1032		183.593750
1033		191.406250
1034		187.500000
1035		187.500000
1036		187.500000
1037		191.406250
1038		187.500000
1039		191.406250
1040		183.593750
1041		191.406250
1042		187.500000
1043		191.406250
1044		183.593750
1045		191.406250
1046		187.500000
1047		191.406250
1048		183.593750
1049		191.406250
1050		187.500000
1051		191.406250
1052		187.500000
1053		191.406250
1054		183.593750
1055		187.500000
1056		183.593750
1057		191.406250
1058		183.593750
1059		187.500000
1060		179.687500
1061		187.500000
1062		179.687500
1063		187.500000
1064		175.781250
1065		187.500000
1066		175.781250
1067		183.593750
1068		175.781250
1069		179.687500
1070		175.781250
1071		179.687500
1072		171.875000
1073		179.687500
1074		167.968750
1075		175.781250
1076		167.968750
1077		175.781250
1078		164.062500
1079		171.875000
1080		164.062500
1081		171.875000
1082		160.156250
1083		167.968750
1084		160.156250
1085		164.062500
1086		156.250000
1087		160.156250
1088		152.343750
1089		156.250000
1090		148.437500
1091		156.250000
1092		144.531250
1093		152.343750
1094		140.625000
1095		152.343750
1096		136.718750
1097		148.437500
1098		132.812500
1099		144.531250
1100		132.812500
1101		140.625000
1102		128.906250
1103		132.812500
1104		121.093750
1105		128.906250
1106		117.187500
1107		125.000000
1108		113.281250
1109		125.000000
1110		109.375000
1111		117.187500
1112		105.468750
1113		113.281250
1114		97.656250
1115		109.375000
1116		93.750000
1117		101.562500
1118		89.843750
1119		97.656250
1120		85.937500
1121		93.750000
1122		78.125000
1123		85.937500
1124		74.218750
1125		82.031250
1126		66.406250
1127		78.125000
1128		62.500000
1129		74.218750
1130		54.687500
1131		66.406250
1132		50.781250
1133		62.500000
1134		46.875000
1135		54.687500
1136		39.062500
1137		46.875000
1138		31.250000
1139		42.968750
1140		27.343750
1141		39.062500
1142		19.531250
1143		31.250000
1144		15.625000
1145		23.437500
1146		7.812500
1147		19.531250
1148		3.906250
1149		11.718750
1150		-3.906250
1151		7.812500
1152		-7.812500
1153		0.000000
1154		-15.625000
1155		-7.812500
1156		-23.437500
1157		-11.718750
1158		-31.250000
1159		-19.531250
1160		-35.156250
1161		-23.437500
1162		-42.968750
1163		-31.250000
1164		-46.875000
1165		-35.156250
1166		-54.687500
1167		-42.968750
1168		-58.593750
1169		-50.781250
1170		-66.406250
1171		-54.687500
1172		-70.312500
1173		-62.500000
1174		-78.125000
1175		-66.406250
1176		-85.937500
1177		-74.218750
1178		-89.843750
1179		-78.125000
1180		-97.656250
1181		-82.031250
1182		-101.562500
1183		-89.843750
1184		-105.468750
1185		-97.656250
1186		-109.375000
1187		-101.562500
1188		-117.187500
1189		-109.375000
1190		-121.093750
1191		-113.281250
1192		-125.000000
1193		-117.187500
1194		-132.812500
1195		-121.093750
1196		-136.718750
1197		-125.000000
1198		-140.625000
1199		-132.812500
1200		-144.531250
1201		-136.718750
1202		-148.437500
1203		-140.625000
1204		-152.343750
1205		-144.531250
1206		-160.156250
1207		-152.343750
1208		-164.062500
1209		-152.343750
1210		-164.062500
1211		-156.250000
1212		-167.968750
1213		-160.156250
1214		-171.875000
1215		-164.062500
1216		-175.781250
1217		-167.968750
1218		-175.781250
1219		-171.875000
1220		-179.687500
1221		-175.781250
1222		-183.593750
1223		-175.781250
1224		-187.500000
1225		-179.687500
1226		-187.500000
1227		-179.687500
1228		-191.406250
1229		-183.593750
1230		-191.406250
1231		-183.593750
1232		-195.312500
1233		-187.500000
1234		-195.312500
1235		-187.500000
1236		-195.312500
1237		-191.406250
1238		-195.312500
1239		-191.406250
1240		-199.218750
1241		-191.406250
1242		-199.218750
1243		-191.406250
1244		-199.218750
1245		-191.406250
1246		-199.218750
1247		-191.406250
1248		-199.218750
1249		-191.406250
1250		-199.218750
1251		-191.406250
1252		-199.218750
1253		-191.406250
1254		-195.312500
1255		-191.406250
1256		-195.312500
1257		-191.406250
1258		-195.312500
1259		-187.500000
1260		-195.312500
1261		-187.500000
1262		-191.406250
1263		-187.500000
1264		-191.406250
1265		-183.593750
1266		-187.500000
1267		-179.687500
1268		-187.500000
1269		-179.687500
1270		-183.593750
1271		-175.781250
1272		-179.687500
1273		-175.781250
1274		-179.687500
1275		-171.875000
1276		-175.781250
1277		-167.968750
1278		-171.875000
1279		-164.062500
1280		-171.875000
1281		-160.156250
1282		-167.968750
1283		-156.250000
1284		-164.062500
1285		-152.343750
1286		-156.250000
1287		-152.343750
1288		-152.343750
1289		-148.437500
1290		-148.437500
1291		-140.625000
1292		-144.531250
1293		-136.718750
1294		-140.625000
1295		-128.906250
1296		-136.718750
1297		-125.000000
1298		-132.812500
1299		-121.093750
1300		-125.000000
1301		-117.187500
1302		-121.093750
1303		-113.281250
1304		-113.281250
1305		-105.468750
1306		-109.375000
1307		-97.656250
1308		-105.468750
1309		-93.750000
1310		-101.562500
1311		-89.843750
1312		-93.750000
1313		-82.031250
1314		-85.937500
1315		-78.125000
1316		-82.031250
1317		-70.312500
1318		-74.218750
1319		-66.406250
1320		-70.312500
1321		-58.593750
1322		-62.500000
1323		-54.687500
1324		-54.687500
1325		-46.875000
1326		-50.781250
1327		-39.062500
1328		-46.875000
1329		-35.156250
1330		-39.062500
1331		-27.343750
1332		-31.250000
1333		-19.531250
1334		-27.343750
1335		-15.625000
1336		-19.531250
1337		-11.718750
1338		-11.718750
1339		-3.906250
1340		-3.906250
1341		3.906250
1342		0.000000
1343		7.812500
1344		3.906250
1345		15.625000
1346		11.718750
1347		23.437500
1348		15.625000
1349		27.343750
1350		23.437500
1351		35.156250
1352		31.250000
1353		39.062500
1354		35.156250
1355		42.968750
1356		42.968750
1357		50.781250
1358		46.875000
1359		58.593750
1360		50.781250
1361		62.500000
1362		58.593750
1363		70.312500
1364		62.500000
1365		74.218750
1366		66.406250
1367		78.125000
1368		74.218750
1369		85.937500
1370		78.125000
1371		89.843750
1372		85.937500
1373		93.750000
1374		89.843750
1375		101.562500
1376		93.750000
1377		105.468750
1378		101.562500
1379		109.375000
1380		105.468750
1381		113.281250
1382		109.375000
1383		117.187500
1384		113.281250
1385		121.093750
1386		117.187500
1387		125.000000
1388		125.000000
1389		128.906250
1390		128.906250
1391		136.718750
1392		128.906250
1393		140.625000
1394		132.812500
1395		144.531250
1396		136.718750
1397		148.437500
1398		140.625000
1399		148.437500
1400		144.531250
1401		152.343750
1402		148.437500
1403		156.250000
1404		152.343750
1405		156.250000
1406		156.250000
1407		160.156250
1408		156.250000
1409		164.062500
1410		160.156250
1411		167.968750
1412		164.062500
1413		167.968750
1414		164.062500
1415		171.875000
1416		167.968750
1417		175.781250
1418		167.968750
1419		175.781250
1420		171.875000
1421		175.781250
1422		175.781250
1423		179.687500
1424		175.781250
1425		183.593750
1426		175.781250
1427		183.593750
1428		175.781250
1429		187.500000
1430		179.687500
1431		187.500000
1432		179.687500
1433		187.500000
1434		179.687500
1435		187.500000
1436		183.593750
1437		187.500000
1438		183.593750
1439		187.500000
1440		187.500000
1441		191.406250
1442		183.593750
1443		191.406250
1444		183.593750
1445		191.406250
1446		187.500000
1447		191.406250
1448		187.500000
1449		191.406250
1450		187.500000
1451		191.406250
1452		187.500000
1453		195.312500
1454		187.500000
1455		191.406250
1456		187.500000
1457		191.406250
1458		183.593750
1459		191.406250
1460		183.593750
1461		191.406250
1462		183.593750
1463		191.406250
1464		183.593750
1465		191.406250
1466		183.593750
1467		191.406250
1468		179.687500
1469		187.500000
1470		179.687500
1471		187.500000
1472		179.687500
1473		183.593750
1474		179.687500
1475		183.593750
1476		175.781250
1477		183.593750
1478		171.875000
1479		179.687500
1480		171.875000
1481		179.687500
1482		167.968750
1483		175.781250
1484		167.968750
1485		175.781250
1486		164.062500
1487		171.875000
1488		164.062500
1489		167.968750
1490		160.156250
1491		167.968750
1492		156.250000
1493		164.062500
1494		152.343750
1495		164.062500
1496		152.343750
1497		160.156250
1498		148.437500
1499		156.250000
1500		144.531250
1501		152.343750
1502		140.625000
1503		148.437500
1504		136.718750
1505		144.531250
1506		132.812500
1507		140.625000
1508		128.906250
1509		136.718750
1510		125.000000
1511		132.812500
1512		121.093750
1513		128.906250
1514		117.187500
1515		125.000000
1516		113.281250
1517		121.093750
1518		105.468750
1519		117.187500
1520		101.562500
1521		113.281250
1522		97.656250
1523		105.468750
1524		93.750000
1525		101.562500
1526		85.937500
1527		97.656250
1528		82.031250
1529		93.750000
1530		78.125000
1531		85.937500
1532		70.312500
1533		82.031250
1534		66.406250
1535		78.125000
1536		58.593750
1537		70.312500
1538		54.687500
1539		62.500000
1540		50.781250
1541		58.593750
1542		42.968750
1543		50.781250
1544		35.156250
1545		46.875000
1546		31.250000
1547		42.968750
1548		23.437500
1549		35.156250
1550		19.531250
1551		27.343750
1552		11.718750
1553		23.437500
1554		7.812500
1555		15.625000
1556		0.000000
1557		7.812500
1558		-7.812500
1559		3.906250
1560		-11.718750
1561		0.000000
1562		-19.531250
1563		-7.812500
1564		-27.343750
1565		-11.718750
1566		-31.250000
1567		-19.531250
1568		-35.156250
1569		-27.343750
1570		-42.968750
1571		-31.250000
1572		-46.875000
1573		-39.062500
1574		-54.687500
1575		-46.875000
1576		-62.500000
1577		-50.781250
1578		-66.406250
1579		-54.687500
1580		-74.218750
1581		-62.500000
1582		-82.031250
1583		-70.312500
1584		-85.937500
1585		-74.218750
1586		-89.843750
1587		-78.125000
1588		-93.750000
1589		-85.937500
1590		-101.562500
1591		-93.750000
1592		-109.375000
1593		-97.656250
1594		-113.281250
1595		-101.562500
1596		-117.187500
1597		-109.375000
1598		-121.093750
1599		-113.281250
1600		-128.906250
1601		-117.187500
1602		-132.812500
1603		-121.093750
1604		-136.718750
1605		-128.906250
1606		-140.625000
1607		-132.812500
1608		-144.531250
1609		-136.718750
1610		-152.343750
1611		-140.625000
1612		-156.250000
1613		-144.531250
1614		-160.156250
1615		-148.437500
1616		-164.062500
1617		-152.343750
1618		-164.062500
1619		-156.250000
1620		-171.875000
1621		-160.156250
1622		-171.875000
1623		-164.062500
1624		-171.875000
1625		-167.968750
1626		-175.781250
1627		-171.875000
1628		-179.687500
1629		-171.875000
1630		-183.593750
1631		-175.781250
1632		-187.500000
1633		-175.781250
1634		-187.500000
1635		-179.687500
1636		-191.406250
1637		-183.593750
1638		-191.406250
1639		-183.593750
1640		-191.406250
1641		-187.500000
1642		-191.406250
1643		-187.500000
1644		-195.312500
1645		-187.500000
1646		-195.312500
1647		-187.500000
1648		-199.218750
1649		-187.500000
1650		-199.218750
1651		-191.406250
1652		-195.312500
1653		-191.406250
1654		-199.218750
1655		-191.406250
1656		-195.312500
1657		-191.406250
1658		-195.312500
1659		-191.406250
1660		-195.312500
1661		-187.500000
1662		-195.312500
1663		-187.500000
1664		-195.312500
1665		-187.500000
1666		-191.406250
1667		-187.500000
1668		-191.406250
1669		-183.593750
1670		-191.406250
1671		-183.593750
1672		-187.500000
1673		-179.687500
1674		-183.593750
1675		-179.687500
1676		-183.593750
1677		-175.781250
1678		-183.593750
1679		-171.875000
1680		-179.687500
1681		-171.875000
1682		-175.781250
1683		-167.968750
1684		-171.875000
1685		-164.062500
1686		-171.875000
1687		-160.156250
1688		-167.968750
1689		-156.250000
1690		-160.156250
1691		-156.250000
1692		-156.250000
1693		-152.343750
1694		-152.343750
1695		-144.531250
1696		-152.343750
1697		-140.625000
1698		-144.531250
1699		-136.718750
1700		-140.625000
1701		-132.812500
1702		-136.718750
1703		-125.000000
1704		-132.812500
1705		-125.000000
1706		-128.906250
1707		-117.187500
1708		-121.093750
1709		-113.281250
1710		-117.187500
1711		-109.375000
1712		-113.281250
1713		-101.562500
1714		-105.468750
1715		-97.656250
1716		-101.562500
1717		-89.843750
1718		-93.750000
1719		-85.937500
1720		-89.843750
1721		-78.125000
1722		-82.031250
1723		-74.218750
1724		-74.218750
1725		-70.312500
1726		-70.312500
1727		-62.500000
1728		-66.406250
1729		-54.687500
1730		-58.593750
1731		-50.781250
1732		-54.687500
1733		-42.968750
1734		-46.875000
1735		-35.156250
1736		-39.062500
1737		-31.250000
1738		-35.156250
1739		-23.437500
1740		-27.343750
1741		-19.531250
1742		-19.531250
1743		-11.718750
1744		-15.625000
1745		-3.906250
1746		-7.812500
1747		0.000000
1748		-3.906250
1749		7.812500
1750		0.000000
1751		11.718750
1752		7.812500
1753		19.531250
1754		15.625000
1755		27.343750
1756		19.531250
1757		31.250000
1758		27.343750
1759		35.156250
1760		35.156250
1761		42.968750
1762		39.062500
1763		50.781250
1764		42.968750
1765		54.687500
1766		50.781250
1767		62.500000
1768		54.687500
1769		66.406250
1770		62.500000
1771		70.312500
1772		66.406250
1773		78.125000
1774		74.218750
1775		82.031250
1776		78.125000
1777		85.937500
1778		82.031250
1779		93.750000
1780		89.843750
1781		97.656250
1782		93.750000
1783		101.562500
1784		97.656250
1785		109.375000
1786		101.562500
1787		113.281250
1788		109.375000
1789		117.187500
1790		113.281250
1791		121.093750
1792		117.187500
1793		125.000000
1794		121.093750
1795		128.906250
1796		125.000000
1797		132.812500
1798		128.906250
1799		136.718750
1800		132.812500
1801		140.625000
1802		136.718750
1803		144.531250
1804		140.625000
1805		148.437500
1806		144.531250
1807		152.343750
1808		148.437500
1809		152.343750
1810		152.343750
1811		156.250000
1812		152.343750
1813		160.156250
1814		156.250000
1815		164.062500
1816		160.156250
1817		167.968750
1818		160.156250
1819		171.875000
1820		164.062500
1821		171.875000
1822		167.968750
1823		175.781250
1824		171.875000
1825		175.781250
1826		171.875000
1827		175.781250
1828		175.781250
1829		179.687500
1830		175.781250
1831		183.593750
1832		175.781250
1833		183.593750
1834		179.687500
1835		183.593750
1836		179.687500
1837		187.500000
1838		179.687500
1839		187.500000
1840		183.593750
1841		187.500000
1842		183.593750
1843		187.500000
1844		187.500000
1845		191.406250
1846		187.500000
1847		191.406250
1848		187.500000
1849		191.406250
1850		187.500000
1851		195.312500
1852		187.500000
1853		195.312500
1854		187.500000
1855		195.312500
1856		187.500000
1857		195.312500
1858		187.500000
1859		195.312500
1860		191.406250
1861		191.406250
1862		187.500000
1863		195.312500
1864		187.500000
1865		195.312500
1866		187.500000
1867		191.406250
1868		183.593750
1869		191.406250
1870		183.593750
1871		191.406250
1872		183.593750
1873		191.406250
1874		183.593750
1875		191.406250
1876		183.593750
1877		187.500000
1878		179.687500
1879		187.500000
1880		179.687500
1881		187.500000
1882		175.781250
1883		183.593750
1884		175.781250
1885		183.593750
1886		175.781250
1887		183.593750
1888		171.875000
1889		179.687500
1890		171.875000
1891		175.781250
1892		167.968750
1893		175.781250
1894		167.968750
1895		171.875000
1896		164.062500
1897		171.875000
1898		160.156250
1899		167.968750
1900		156.250000
1901		164.062500
1902		156.250000
1903		164.062500
1904		152.343750
1905		160.156250
1906		148.437500
1907		156.250000
1908		144.531250
1909		152.343750
1910		140.625000
1911		148.437500
1912		136.718750
1913		144.531250
1914		132.812500
1915		140.625000
1916		128.906250
1917		136.718750
1918		125.000000
1919		136.718750
1920		121.093750
1921		128.906250
1922		117.187500
1923		125.000000
1924		113.281250
1925		121.093750
1926		109.375000
1927		117.187500
1928		101.562500
1929		109.375000
1930		97.656250
1931		105.468750
1932		93.750000
1933		105.468750
1934		85.937500
1935		97.656250
1936		82.031250
1937		89.843750
1938		74.218750
1939		85.937500
1940		70.312500
1941		82.031250
1942		66.406250
1943		74.218750
1944		62.500000
1945		70.312500
1946		50.781250
1947		62.500000
1948		46.875000
1949		58.593750
1950		42.968750
1951		54.687500
1952		39.062500
1953		46.875000
1954		31.250000
1955		42.968750
1956		23.437500
1957		35.156250
1958		19.531250
1959		27.343750
1960		11.718750
1961		23.437500
1962		7.812500
1963		15.625000
1964		0.000000
1965		11.718750
1966		-7.812500
1967		3.906250
1968		-11.718750
1969		0.000000
1970		-19.531250
1971		-7.812500
1972		-27.343750
1973		-15.625000
1974		-31.250000
1975		-19.531250
1976		-35.156250
1977		-27.343750
1978		-42.968750
1979		-35.156250
1980		-50.781250
1981		-39.062500
1982		-54.687500
1983		-46.875000
1984		-62.500000
1985		-50.781250
1986		-66.406250
1987		-58.593750
1988		-74.218750
1989		-62.500000
1990		-78.125000
1991		-70.312500
1992		-82.031250
1993		-74.218750
1994		-89.843750
1995		-82.031250
1996		-97.656250
1997		-85.937500
1998		-101.562500
1999		-93.750000
2000		-105.468750
2001		-97.656250
2002		-113.281250
2003		-101.562500
2004		-117.187500
2005		-105.468750
2006		-125.000000
2007		-113.281250
2008		-125.000000
2009		-117.187500
2010		-132.812500
2011		-125.000000
2012		-136.718750
2013		-128.906250
2014		-144.531250
2015		-132.812500
2016		-144.531250
2017		-136.718750
2018		-148.437500
2019		-140.625000
2020		-156.250000
2021		-144.531250
2022		-156.250000
2023		-148.437500
2024		-164.062500
2025		-152.343750
2026		-164.062500
2027		-160.156250
2028		-167.968750
2029		-160.156250
2030		-171.875000
2031		-164.062500
2032		-175.781250
2033		-164.062500
2034		-179.687500
2035		-167.968750
2036		-179.687500
2037		-171.875000
2038		-183.593750
2039		-175.781250
2040		-183.593750
2041		-175.781250
2042		-187.500000
2043		-179.687500
2044		-187.500000
2045		-183.593750
2046		-191.406250
2047		-183.593750
2048		-191.406250
2049		-183.593750
2050		-191.406250
2051		-187.500000
2052		-195.312500
2053		-187.500000
2054		-195.312500
2055		-187.500000
2056		-195.312500
2057		-187.500000
2058		-195.312500
2059		-187.500000
2060		-195.312500
2061		-191.406250
2062		-195.312500
2063		-191.406250
2064		-195.312500
2065		-187.500000
2066		-195.312500
2067		-187.500000
2068		-195.312500
2069		-187.500000
2070		-195.312500
2071		-187.500000
2072		-191.406250
2073		-187.500000
2074		-191.406250
2075		-183.593750
2076		-187.500000
2077		-183.593750
2078		-187.500000
2079		-183.593750
2080		-183.593750
2081		-179.687500
2082		-183.593750
2083		-175.781250
2084		-183.593750
2085		-175.781250
2086		-179.687500
2087		-171.875000
2088		-175.781250
2089		-167.968750
2090		-171.875000
2091		-164.062500
2092		-171.875000
2093		-164.062500
2094		-164.062500
2095		-160.156250
2096		-160.156250
2097		-156.250000
2098		-160.156250
2099		-152.343750
2100		-156.250000
2101		-148.437500
2102		-152.343750
2103		-140.625000
2104		-148.437500
2105		-136.718750
2106		-144.531250
2107		-132.812500
2108		-136.718750
2109		-128.906250
2110		-132.812500
2111		-125.000000
2112		-128.906250
2113		-121.093750
2114		-121.093750
2115		-113.281250
2116		-121.093750
2117		-109.375000
2118		-113.281250
2119		-105.468750
2120		-109.375000
2121		-97.656250
2122		-101.562500
2123		-93.750000
2124		-97.656250
2125		-85.937500
2126		-89.843750
2127		-82.031250
2128		-85.937500
2129		-78.125000
2130		-78.125000
2131		-70.312500
2132		-74.218750
2133		-62.500000
2134		-70.312500
2135		-58.593750
2136		-62.500000
2137		-50.781250
2138		-58.593750
2139		-42.968750
2140		-50.781250
2141		-39.062500
2142		-42.968750
2143		-35.156250
2144		-35.156250
2145		-27.343750
2146		-31.250000
2147		-19.531250
2148		-23.437500
2149		-15.625000
2150		-19.531250
2151		-7.812500
2152		-11.718750
2153		-3.906250
2154		-3.906250
2155		3.906250
2156		0.000000
2157		11.718750
2158		7.812500
2159		15.625000
2160		11.718750
2161		23.437500
2162		19.531250
2163		27.343750
2164		27.343750
2165		35.156250
2166		31.250000
2167		42.968750
2168		39.062500
2169		46.875000
2170		42.968750
2171		50.781250
2172		50.781250
2173		58.593750
2174		54.687500
2175		62.500000
2176		58.593750
2177		66.406250
2178		66.406250
2179		74.218750
2180		70.312500
2181		78.125000
2182		78.125000
2183		85.937500
2184		82.031250
2185		89.843750
2186		85.937500
2187		97.656250
2188		89.843750
2189		101.562500
2190		97.656250
2191		105.468750
2192		101.562500
2193		109.375000
2194		105.468750
2195		113.281250
2196		113.281250
2197		117.187500
2198		117.187500
2199		125.000000
2200		121.093750
2201		128.906250
2202		121.093750
2203		132.812500
2204		128.906250
2205		136.718750
2206		132.812500
2207		140.625000
2208		136.718750
2209		144.531250
2210		140.625000
2211		144.531250
2212		144.531250
2213		148.437500
2214		148.437500
2215		156.250000
2216		148.437500
2217		156.250000
2218		152.343750
2219		160.156250
2220		156.250000
2221		164.062500
2222		156.250000
2223		167.968750
2224		160.156250
2225		167.968750
2226		164.062500
2227		171.875000
2228		167.968750
2229		171.875000
2230		171.875000
2231		175.781250
2232		167.968750
2233		179.687500
2234		171.875000
2235		179.687500
2236		175.781250
2237		183.593750
2238		175.781250
2239		183.593750
2240		175.781250
2241		183.593750
2242		179.687500
2243		187.500000
2244		183.593750
2245		187.500000
2246		183.593750
2247		187.500000
2248		183.593750
2249		191.406250
2250		183.593750
2251		191.406250
2252		183.593750
2253		191.406250
2254		187.500000
2255		191.406250
2256		187.500000
2257		195.312500
2258		187.500000
2259		195.312500
2260		187.500000
2261		195.312500
2262		191.406250
2263		195.312500
2264		187.500000
2265		195.312500
2266		187.500000
2267		195.312500
2268		187.500000
2269		195.312500
2270		187.500000
2271		195.312500
2272		187.500000
2273		195.312500
2274		187.500000
2275		195.312500
2276		183.593750
2277		195.312500
2278		187.500000
2279		191.406250
2280		187.500000
2281		187.500000
2282		183.593750
2283		191.406250
2284		183.593750
2285		187.500000
2286		179.687500
2287		187.500000
2288		179.687500
2289		187.500000
2290		175.781250
2291		183.593750
2292		175.781250
2293		183.593750
2294		175.781250
2295		183.593750
2296		175.781250
2297		175.781250
2298		167.968750
2299		175.781250
2300		167.968750
2301		175.781250
2302		164.062500
2303		171.875000
2304		160.156250
2305		171.875000
2306		160.156250
2307		167.968750
2308		156.250000
2309		164.062500
2310		152.343750
2311		160.156250
2312		152.343750
2313		156.250000
2314		148.437500
2315		152.343750
2316		144.531250
2317		152.343750
2318		140.625000
2319		148.437500
2320		136.718750
2321		144.531250
2322		132.812500
2323		140.625000
2324		128.906250
2325		136.718750
2326		125.000000
2327		132.812500
2328		121.093750
2329		128.906250
2330		117.187500
2331		121.093750
2332		113.281250
2333		117.187500
2334		105.468750
2335		117.187500
2336		101.562500
2337		109.375000
2338		97.656250
2339		105.468750
2340		93.750000
2341		101.562500
2342		85.937500
2343		97.656250
2344		82.031250
2345		89.843750
2346		78.125000
2347		82.031250
2348		70.312500
2349		78.125000
2350		62.500000
2351		74.218750
2352		58.593750
2353		70.312500
2354		54.687500
2355		62.500000
2356		46.875000
2357		54.687500
2358		42.968750
2359		50.781250
2360		35.156250
2361		46.875000
2362		31.250000
2363		39.062500
2364		23.437500
2365		31.250000
2366		15.625000
2367		27.343750
2368		11.718750
2369		19.531250
2370		3.906250
2371		15.625000
2372		-3.906250
2373		7.812500
2374		-7.812500
2375		3.906250
2376		-15.625000
2377		-3.906250
2378		-19.531250
2379		-7.812500
2380		-23.437500
2381		-15.625000
2382		-31.250000
2383		-23.437500
2384		-39.062500
2385		-27.343750
2386		-42.968750
2387		-35.156250
2388		-50.781250
2389		-39.062500
2390		-54.687500
2391		-46.875000
2392		-62.500000
2393		-50.781250
2394		-66.406250
2395		-58.593750
2396		-74.218750
2397		-66.406250
2398		-78.125000
2399		-70.312500
2400		-85.937500
2401		-78.125000
2402		-93.750000
2403		-82.031250
2404		-97.656250
2405		-85.937500
2406		-101.562500
2407		-89.843750
2408		-109.375000
2409		-97.656250
2410		-113.281250
2411		-101.562500
2412		-117.187500
2413		-109.375000
2414		-121.093750
2415		-117.187500
2416		-128.906250
2417		-121.093750
2418		-132.812500
2419		-121.093750
2420		-136.718750
2421		-128.906250
2422		-140.625000
2423		-132.812500
2424		-144.531250
2425		-136.718750
2426		-152.343750
2427		-140.625000
2428		-152.343750
2429		-144.531250
2430		-156.250000
2431		-152.343750
2432		-160.156250
2433		-156.250000
2434		-164.062500
2435		-156.250000
2436		-167.968750
2437		-160.156250
2438		-171.875000
2439		-164.062500
2440		-175.781250
2441		-167.968750
2442		-175.781250
2443		-167.968750
2444		-179.687500
2445		-171.875000
2446		-179.687500
2447		-175.781250
2448		-183.593750
2449		-179.687500
2450		-187.500000
2451		-179.687500
2452		-187.500000
2453		-179.687500
2454		-187.500000
2455		-183.593750
2456		-191.406250
2457		-183.593750
2458		-191.406250
2459		-183.593750
2460		-191.406250
2461		-183.593750
2462		-191.406250
2463		-187.500000
2464		-191.406250
2465		-187.500000
2466		-195.312500
2467		-187.500000
2468		-195.312500
2469		-187.500000
2470		-195.312500
2471		-187.500000
2472		-195.312500
2473		-187.500000
2474		-195.312500
2475		-187.500000
2476		-191.406250
2477		-183.593750
2478		-191.406250
2479		-183.593750
2480		-187.500000
2481		-183.593750
2482		-187.500000
2483		-183.593750
2484		-187.500000
2485		-179.687500
2486		-187.500000
2487		-179.687500
2488		-183.593750
2489		-175.781250
2490		-179.687500
2491		-171.875000
2492		-179.687500
2493		-171.875000
2494		-175.781250
2495		-167.968750
2496		-171.875000
2497		-167.968750
2498		-167.968750
2499		-164.062500
2500		-164.062500
2501		-156.250000
2502		-164.062500
2503		-156.250000
2504		-160.156250
2505		-152.343750
2506		-156.250000
2507		-148.437500
2508		-152.343750
2509		-144.531250
2510		-148.437500
2511		-140.625000
2512		-144.531250
2513		-136.718750
2514		-136.718750
2515		-132.812500
2516		-132.812500
2517		-125.000000
2518		-128.906250
2519		-121.093750
2520		-125.000000
2521		-117.187500
2522		-121.093750
2523		-109.375000
2524		-117.187500
2525		-105.468750
2526		-109.375000
2527		-97.656250
2528		-105.468750
2529		-93.750000
2530		-97.656250
2531		-89.843750
2532		-93.750000
2533		-85.937500
2534		-85.937500
2535		-78.125000
2536		-82.031250
2537		-70.312500
2538		-78.125000
2539		-66.406250
2540		-70.312500
2541		-58.593750
2542		-66.406250
2543		-54.687500
2544		-58.593750
2545		-46.875000
2546		-50.781250
2547		-42.968750
2548		-42.968750
2549		-35.156250
2550		-39.062500
2551		-27.343750
2552		-35.156250
2553		-23.437500
2554		-27.343750
2555		-15.625000
2556		-19.531250
2557		-11.718750
2558		-15.625000
2559		-3.906250
2560		-7.812500
2561		0.000000
2562		-3.906250
2563		7.812500
2564		3.906250
2565		11.718750
2566		11.718750
2567		19.531250
2568		15.625000
2569		27.343750
2570		23.437500
2571		35.156250
2572		27.343750
2573		39.062500
2574		35.156250
2575		46.875000
2576		39.062500
2577		50.781250
2578		46.875000
2579		58.593750
2580		50.781250
2581		62.500000
2582		58.593750
2583		66.406250
2584		62.500000
2585		74.218750
2586		66.406250
2587		78.125000
2588		74.218750
2589		85.937500
2590		78.125000
2591		89.843750
2592		85.937500
2593		93.750000
2594		89.843750
2595		97.656250
2596		93.750000
2597		101.562500
2598		101.562500
2599		109.375000
2600		105.468750
2601		113.281250
2602		109.375000
2603		117.187500
2604		113.281250
2605		125.000000
2606		117.187500
2607		125.000000
2608		121.093750
2609		132.812500
2610		125.000000
2611		136.718750
2612		128.906250
2613		136.718750
2614		132.812500
2615		140.625000
2616		140.625000
2617		144.531250
2618		140.625000
2619		148.437500
2620		144.531250
2621		152.343750
2622		148.437500
2623		156.250000
2624		152.343750
2625		160.156250
2626		152.343750
2627		164.062500
2628		156.250000
2629		164.062500
2630		160.156250
2631		167.968750
2632		164.062500
2633		167.968750
2634		167.968750
2635		175.781250
2636		167.968750
2637		175.781250
2638		167.968750
2639		179.687500
2640		171.875000
2641		179.687500
2642		175.781250
2643		183.593750
2644		175.781250
2645		183.593750
2646		179.687500
2647		183.593750
2648		179.687500
2649		183.593750
2650		183.593750
2651		187.500000
2652		183.593750
2653		191.406250
2654		183.593750
2655		191.406250
2656		183.593750
2657		191.406250
2658		187.500000
2659		191.406250
2660		187.500000
2661		195.312500
2662		187.500000
2663		195.312500
2664		187.500000
2665		195.312500
2666		191.406250
2667		195.312500
2668		187.500000
2669		195.312500
2670		187.500000
2671		195.312500
2672		187.500000
2673		195.312500
2674		187.500000
2675		195.312500
2676		187.500000
2677		195.312500
2678		187.500000
2679		195.312500
2680		187.500000
2681		195.312500
2682		187.500000
2683		191.406250
2684		187.500000
2685		191.406250
2686		187.500000
2687		191.406250
2688		183.593750
2689		191.406250
2690		183.593750
2691		191.406250
2692		183.593750
2693		191.406250
2694		179.687500
2695		187.500000
2696		179.687500
2697		187.500000
2698		179.687500
2699		183.593750
2700		175.781250
2701		183.593750
2702		175.781250
2703		179.687500
2704		171.875000
2705		179.687500
2706		171.875000
2707		175.781250
2708		167.968750
2709		175.781250
2710		164.062500
2711		171.875000
2712		164.062500
2713		171.875000
2714		160.156250
2715		167.968750
2716		156.250000
2717		164.062500
2718		152.343750
2719		160.156250
2720		148.437500
2721		160.156250
2722		148.437500
2723		156.250000
2724		144.531250
2725		152.343750
2726		140.625000
2727		148.437500
2728		136.718750
2729		144.531250
2730		132.812500
2731		140.625000
2732		128.906250
2733		136.718750
2734		125.000000
2735		132.812500
2736		121.093750
2737		128.906250
2738		113.281250
2739		125.000000
2740		109.375000
2741		121.093750
2742		105.468750
2743		117.187500
2744		101.562500
2745		109.375000
2746		97.656250
2747		105.468750
2748		89.843750
2749		101.562500
2750		85.937500
2751		93.750000
2752		82.031250
2753		89.843750
2754		74.218750
2755		85.937500
2756		70.312500
2757		78.125000
2758		62.500000
2759		74.218750
2760		58.593750
2761		70.312500
2762		50.781250
2763		62.500000
2764		46.875000
2765		54.687500
2766		42.968750
2767		50.781250
2768		35.156250
2769		42.968750
2770		27.343750
2771		39.062500
2772		23.437500
2773		35.156250
2774		15.625000
2775		27.343750
2776		11.718750
2777		19.531250
2778		3.906250
2779		15.625000
2780		-3.906250
2781		7.812500
2782		-7.812500
2783		0.000000
2784		-11.718750
2785		-3.906250
2786		-19.531250
2787		-11.718750
2788		-27.343750
2789		-15.625000
2790		-35.156250
2791		-23.437500
2792		-39.062500
2793		-27.343750
2794		-46.875000
2795		-35.156250
2796		-50.781250
2797		-39.062500
2798		-54.687500
2799		-46.875000
2800		-62.500000
2801		-54.687500
2802		-70.312500
2803		-58.593750
2804		-74.218750
2805		-62.500000
2806		-82.031250
2807		-70.312500
2808		-85.937500
2809		-74.218750
2810		-93.750000
2811		-82.031250
2812		-97.656250
2813		-85.937500
2814		-101.562500
2815		-93.750000
2816		-105.468750
2817		-101.562500
2818		-113.281250
2819		-105.468750
2820		-121.093750
2821		-109.375000
2822		-125.000000
2823		-113.281250
2824		-128.906250
2825		-117.187500
2826		-132.812500
2827		-125.000000
2828		-136.718750
2829		-128.906250
2830		-140.625000
2831		-132.812500
2832		-144.531250
2833		-136.718750
2834		-148.437500
2835		-144.531250
2836		-152.343750
2837		-148.437500
2838		-160.156250
2839		-148.437500
2840		-160.156250
2841		-152.343750
2842		-164.062500
2843		-156.250000
2844		-167.968750
2845		-160.156250
2846		-171.875000
2847		-164.062500
2848		-171.875000
2849		-164.062500
2850		-175.781250
2851		-167.968750
2852		-175.781250
2853		-171.875000
2854		-179.687500
2855		-171.875000
2856		-183.593750
2857		-175.781250
2858		-187.500000
2859		-179.687500
2860		-187.500000
2861		-179.687500
2862		-187.500000
2863		-179.687500
2864		-191.406250
2865		-183.593750
2866		-191.406250
2867		-183.593750
2868		-187.500000
2869		-187.500000
2870		-191.406250
2871		-183.593750
2872		-191.406250
2873		-183.593750
2874		-191.406250
2875		-187.500000
2876		-191.406250
2877		-187.500000
2878		-191.406250
2879		-187.500000
2880		-191.406250
2881		-183.593750
2882		-191.406250
2883		-183.593750
2884		-187.500000
2885		-183.593750
2886		-187.500000
2887		-183.593750
2888		-187.500000
2889		-183.593750
2890		-187.500000
2891		-179.687500
2892		-187.500000
2893		-179.687500
2894		-183.593750
2895		-175.781250
2896		-183.593750
2897		-175.781250
2898		-179.687500
2899		-171.875000
2900		-175.781250
2901		-171.875000
2902		-171.875000
2903		-167.968750
2904		-171.875000
2905		-164.062500
2906		-167.968750
2907		-160.156250
2908		-164.062500
2909		-156.250000
2910		-160.156250
2911		-152.343750
2912		-156.250000
2913		-148.437500
2914		-156.250000
2915		-144.531250
2916		-152.343750
2917		-144.531250
2918		-144.531250
2919		-136.718750
2920		-140.625000
2921		-132.812500
2922		-136.718750
2923		-128.906250
2924		-132.812500
2925		-125.000000
2926		-128.906250
2927		-117.187500
2928		-121.093750
2929		-113.281250
2930		-117.187500
2931		-105.468750
2932		-113.281250
2933		-105.468750
2934		-105.468750
2935		-97.656250
2936		-101.562500
2937		-93.750000
2938		-97.656250
2939		-85.937500
2940		-89.843750
2941		-78.125000
2942		-85.937500
2943		-74.218750
2944		-78.125000
2945		-66.406250
2946		-74.218750
2947		-62.500000
2948		-66.406250
2949		-54.687500
2950		-58.593750
2951		-50.781250
2952		-54.687500
2953		-46.875000
2954		-46.875000
2955		-39.062500
2956		-42.968750
2957		-31.250000
2958		-35.156250
2959		-23.437500
2960		-31.250000
2961		-19.531250
2962		-23.437500
2963		-11.718750
2964		-19.531250
2965		-7.812500
2966		-11.718750
2967		-3.906250
2968		-3.906250
2969		3.906250
2970		3.906250
2971		11.718750
2972		7.812500
2973		19.531250
2974		11.718750
2975		23.437500
2976		19.531250
2977		31.250000
2978		27.343750
2979		35.156250
2980		31.250000
2981		42.968750
2982		35.156250
2983		46.875000
2984		42.968750
2985		50.781250
2986		50.781250
2987		58.593750
2988		54.687500
2989		62.500000
2990		62.500000
2991		70.312500
2992		66.406250
2993		78.125000
2994		70.312500
2995		82.031250
2996		78.125000
2997		85.937500
2998		82.031250
2999		93.750000
3000		85.937500
3001		97.656250
3002		93.750000
3003		101.562500
3004		97.656250
3005		105.468750
3006		101.562500
3007		109.375000
3008		105.468750
3009		117.187500
3010		109.375000
3011		121.093750
3012		117.187500
3013		125.000000
3014		117.187500
3015		128.906250
3016		125.000000
3017		132.812500
3018		128.906250
3019		136.718750
3020		132.812500
3021		140.625000
3022		136.718750
3023		144.531250
3024		140.625000
3025		148.437500
3026		144.531250
3027		152.343750
3028		148.437500
3029		156.250000
3030		148.437500
3031		160.156250
3032		152.343750
3033		160.156250
3034		156.250000
3035		164.062500
3036		160.156250
3037		164.062500
3038		164.062500
3039		171.875000
3040		164.062500
3041		171.875000
3042		167.968750
3043		175.781250
3044		167.968750
3045		175.781250
3046		171.875000
3047		179.687500
3048		175.781250
3049		183.593750
3050		175.781250
3051		183.593750
3052		179.687500
3053		183.593750
3054		179.687500
3055		183.593750
3056		179.687500
3057		187.500000
3058		183.593750
3059		187.500000
3060		183.593750
3061		191.406250
3062		183.593750
3063		191.406250
3064		187.500000
3065		191.406250
3066		187.500000
3067		195.312500
3068		187.500000
3069		191.406250
3070		191.406250
3071		191.406250
3072		187.500000
3073		195.312500
3074		187.500000
3075		195.312500
3076		191.406250
3077		195.312500
3078		191.406250
3079		195.312500
3080		191.406250
3081		195.312500
3082		191.406250
3083		195.312500
3084		191.406250
3085		195.312500
3086		191.406250
3087		195.312500
3088		191.406250
3089		195.312500
3090		187.500000
3091		195.312500
3092		187.500000
3093		195.312500
3094		187.500000
3095		191.406250
3096		187.500000
3097		191.406250
3098		183.593750
3099		191.406250
3100		183.593750
3101		191.406250
3102		183.593750
3103		187.500000
3104		179.687500
3105		183.593750
3106		175.781250
3107		183.593750
3108		175.781250
3109		183.593750
3110		175.781250
3111		183.593750
3112		171.875000
3113		179.687500
3114		167.968750
3115		175.781250
3116		167.968750
3117		175.781250
3118		167.968750
3119		171.875000
3120		164.062500
3121		167.968750
3122		160.156250
3123		164.062500
3124		156.250000
3125		164.062500
3126		152.343750
3127		160.156250
3128		148.437500
3129		156.250000
3130		144.531250
3131		156.250000
3132		144.531250
3133		152.343750
3134		140.625000
3135		148.437500
3136		136.718750
3137		144.531250
3138		132.812500
3139		136.718750
3140		128.906250
3141		136.718750
3142		121.093750
3143		132.812500
3144		121.093750
3145		128.906250
3146		113.281250
3147		121.093750
3148		109.375000
3149		117.187500
3150		105.468750
3151		113.281250
3152		101.562500
3153		109.375000
3154		97.656250
3155		101.562500
3156		89.843750
3157		97.656250
3158		85.937500
3159		93.750000
3160		78.125000
3161		89.843750
3162		74.218750
3163		82.031250
3164		66.406250
3165		78.125000
3166		62.500000
3167		70.312500
3168		58.593750
3169		66.406250
3170		50.781250
3171		58.593750
3172		46.875000
3173		54.687500
3174		39.062500
3175		46.875000
3176		35.156250
3177		42.968750
3178		27.343750
3179		39.062500
3180		19.531250
3181		31.250000
3182		15.625000
3183		27.343750
3184		7.812500
3185		19.531250
3186		3.906250
3187		11.718750
3188		-3.906250
3189		3.906250
3190		-11.718750
3191		0.000000
3192		-15.625000
3193		-3.906250
3194		-23.437500
3195		-11.718750
3196		-27.343750
3197		-19.531250
3198		-35.156250
3199		-23.437500
3200		-39.062500
3201		-31.250000
3202		-46.875000
3203		-35.156250
3204		-50.781250
3205		-42.968750
3206		-58.593750
3207		-50.781250
3208		-66.406250
3209		-54.687500
3210		-74.218750
3211		-58.593750
3212		-78.125000
3213		-66.406250
3214		-82.031250
3215		-70.312500
3216		-85.937500
3217		-78.125000
3218		-93.750000
3219		-82.031250
3220		-97.656250
3221		-89.843750
3222		-101.562500
3223		-93.750000
3224		-109.375000
3225		-101.562500
3226		-117.187500
3227		-105.468750
3228		-121.093750
3229		-109.375000
3230		-125.000000
3231		-113.281250
3232		-128.906250
3233		-121.093750
3234		-132.812500
3235		-125.000000
3236		-136.718750
3237		-128.906250
3238		-140.625000
3239		-136.718750
3240		-148.437500
3241		-136.718750
3242		-152.343750
3243		-140.625000
3244		-156.250000
3245		-144.531250
3246		-156.250000
3247		-148.437500
3248		-164.062500
3249		-152.343750
3250		-164.062500
3251		-156.250000
3252		-167.968750
3253		-160.156250
3254		-167.968750
3255		-164.062500
3256		-175.781250
3257		-167.968750
3258		-175.781250
3259		-167.968750
3260		-179.687500
3261		-171.875000
3262		-179.687500
3263		-171.875000
3264		-183.593750
3265		-175.781250
3266		-183.593750
3267		-175.781250
3268		-187.500000
3269		-179.687500
3270		-187.500000
3271		-183.593750
3272		-187.500000
3273		-183.593750
3274		-191.406250
3275		-183.593750
3276		-191.406250
3277		-183.593750
3278		-191.406250
3279		-183.593750
3280		-191.406250
3281		-183.593750
3282		-191.406250
3283		-183.593750
3284		-191.406250
3285		-183.593750
3286		-191.406250
3287		-183.593750
3288		-187.500000
3289		-187.500000
3290		-191.406250
3291		-183.593750
3292		-191.406250
3293		-183.593750
3294		-187.500000
3295		-179.687500
3296		-187.500000
3297		-179.687500
3298		-187.500000
3299		-175.781250
3300		-183.593750
3301		-175.781250
3302		-183.593750
3303		-175.781250
3304		-179.687500
3305		-171.875000
3306		-175.781250
3307		-171.875000
3308		-175.781250
3309		-167.968750
3310		-171.875000
3311		-164.062500
3312		-167.968750
3313		-160.156250
3314		-167.968750
3315		-156.250000
3316		-164.062500
3317		-152.343750
3318		-160.156250
3319		-148.437500
3320		-156.250000
3321		-148.437500
3322		-148.437500
3323		-144.531250
3324		-144.531250
3325		-136.718750
3326		-140.625000
3327		-132.812500
3328		-140.625000
3329		-128.906250
3330		-132.812500
3331		-125.000000
3332		-128.906250
3333		-121.093750
3334		-125.000000
3335		-113.281250
3336		-121.093750
3337		-109.375000
3338		-113.281250
3339		-105.468750
3340		-109.375000
3341		-97.656250
3342		-105.468750
3343		-93.750000
3344		-97.656250
3345		-89.843750
3346		-93.750000
3347		-82.031250
3348		-85.937500
3349		-78.125000
3350		-82.031250
3351		-70.312500
3352		-78.125000
3353		-66.406250
3354		-66.406250
3355		-58.593750
3356		-62.500000
3357		-54.687500
3358		-54.687500
3359		-46.875000
3360		-50.781250
3361		-39.062500
3362		-46.875000
3363		-35.156250
3364		-39.062500
3365		-27.343750
3366		-31.250000
3367		-23.437500
3368		-27.343750
3369		-15.625000
3370		-23.437500
3371		-11.718750
3372		-11.718750
3373		-3.906250
3374		-7.812500
3375		0.000000
3376		0.000000
3377		7.812500
3378		3.906250
3379		15.625000
3380		7.812500
3381		19.531250
3382		15.625000
3383		27.343750
3384		23.437500
3385		35.156250
3386		31.250000
3387		39.062500
3388		35.156250
3389		42.968750
3390		42.968750
3391		50.781250
3392		46.875000
3393		58.593750
3394		50.781250
3395		62.500000
3396		58.593750
3397		70.312500
3398		62.500000
3399		74.218750
3400		70.312500
3401		78.125000
3402		74.218750
3403		85.937500
3404		82.031250
3405		89.843750
3406		85.937500
3407		93.750000
3408		89.843750
3409		97.656250
3410		97.656250
3411		105.468750
3412		97.656250
3413		109.375000
3414		105.468750
3415		113.281250
3416		109.375000
3417		117.187500
3418		113.281250
3419		125.000000
3420		117.187500
3421		125.000000
3422		125.000000
3423		128.906250
3424		128.906250
3425		136.718750
3426		128.906250
3427		140.625000
3428		136.718750
3429		144.531250
3430		136.718750
3431		148.437500
3432		144.531250
3433		152.343750
3434		144.531250
3435		152.343750
3436		148.437500
3437		156.250000
3438		152.343750
3439		160.156250
3440		156.250000
3441		164.062500
3442		156.250000
3443		167.968750
3444		160.156250
3445		167.968750
3446		164.062500
3447		171.875000
3448		167.968750
3449		171.875000
3450		167.968750
3451		175.781250
3452		171.875000
3453		179.687500
3454		175.781250
3455		179.687500
3456		175.781250
3457		179.687500
3458		179.687500
3459		183.593750
3460		179.687500
3461		187.500000
3462		179.687500
3463		187.500000
3464		183.593750
3465		191.406250
3466		183.593750
3467		191.406250
3468		183.593750
3469		191.406250
3470		183.593750
3471		191.406250
3472		187.500000
3473		191.406250
3474		191.406250
3475		191.406250
3476		187.500000
3477		195.312500
3478		187.500000
3479		195.312500
3480		187.500000
3481		195.312500
3482		191.406250
3483		195.312500
3484		191.406250
3485		195.312500
3486		187.500000
3487		195.312500
3488		191.406250
3489		195.312500
3490		191.406250
3491		195.312500
3492		187.500000
3493		195.312500
3494		187.500000
3495		195.312500
3496		187.500000
3497		195.312500
3498		187.500000
3499		195.312500
3500		187.500000
3501		195.312500
3502		187.500000
3503		195.312500
3504		183.593750
3505		191.406250
3506		187.500000
3507		191.406250
3508		183.593750
3509		187.500000
3510		179.687500
3511		187.500000
3512		179.687500
3513		187.500000
3514		175.781250
3515		183.593750
3516		175.781250
3517		183.593750
3518		171.875000
3519		179.687500
3520		171.875000
3521		179.687500
3522		171.875000
3523		175.781250
3524		167.968750
3525		171.875000
3526		164.062500
3527		171.875000
3528		160.156250
3529		167.968750
3530		156.250000
3531		167.968750
3532		156.250000
3533		164.062500
3534		152.343750
3535		160.156250
3536		148.437500
3537		160.156250
3538		148.437500
3539		156.250000
3540		144.531250
3541		148.437500
3542		140.625000
3543		144.531250
3544		132.812500
3545		144.531250
3546		128.906250
3547		140.625000
3548		125.000000
3549		136.718750
3550		121.093750
3551		132.812500
3552		117.187500
3553		125.000000
3554		113.281250
3555		121.093750
3556		109.375000
3557		117.187500
3558		105.468750
3559		109.375000
3560		97.656250
3561		105.468750
3562		93.750000
3563		101.562500
3564		89.843750
3565		97.656250
3566		82.031250
3567		93.750000
3568		78.125000
3569		85.937500
3570		70.312500
3571		82.031250
3572		66.406250
3573		74.218750
3574		62.500000
3575		70.312500
3576		54.687500
3577		62.500000
3578		46.875000
3579		58.593750
3580		42.968750
3581		54.687500
3582		35.156250
3583		46.875000
3584		31.250000
3585		42.968750
3586		23.437500
3587		35.156250
3588		19.531250
3589		31.250000
3590		15.625000
3591		23.437500
3592		7.812500
3593		15.625000
3594		0.000000
3595		11.718750
3596		-7.812500
3597		3.906250
3598		-11.718750
3599		-3.906250
3600		-19.531250
3601		-7.812500
3602		-23.437500
3603		-15.625000
3604		-31.250000
3605		-19.531250
3606		-35.156250
3607		-27.343750
3608		-42.968750
3609		-35.156250
3610		-46.875000
3611		-39.062500
3612		-54.687500
3613		-42.968750
3614		-62.500000
3615		-50.781250
3616		-66.406250
3617		-54.687500
3618		-74.218750
3619		-62.500000
3620		-78.125000
3621		-66.406250
3622		-82.031250
3623		-74.218750
3624		-89.843750
3625		-82.031250
3626		-93.750000
3627		-85.937500
3628		-101.562500
3629		-89.843750
3630		-105.468750
3631		-93.750000
3632		-109.375000
3633		-101.562500
3634		-117.187500
3635		-105.468750
3636		-121.093750
3637		-109.375000
3638		-125.000000
3639		-117.187500
3640		-128.906250
3641		-121.093750
3642		-132.812500
3643		-125.000000
3644		-140.625000
3645		-132.812500
3646		-144.531250
3647		-136.718750
3648		-148.437500
3649		-140.625000
3650		-152.343750
3651		-144.531250
3652		-156.250000
3653		-144.531250
3654		-160.156250
3655		-148.437500
3656		-160.156250
3657		-152.343750
3658		-164.062500
3659		-160.156250
3660		-171.875000
3661		-160.156250
3662		-171.875000
3663		-164.062500
3664		-175.781250
3665		-164.062500
3666		-179.687500
3667		-167.968750
3668		-179.687500
3669		-171.875000
3670		-179.687500
3671		-171.875000
3672		-183.593750
3673		-175.781250
3674		-183.593750
3675		-179.687500
3676		-183.593750
3677		-179.687500
3678		-187.500000
3679		-179.687500
3680		-187.500000
3681		-183.593750
3682		-191.406250
3683		-183.593750
3684		-191.406250
3685		-183.593750
3686		-191.406250
3687		-183.593750
3688		-191.406250
3689		-183.593750
3690		-191.406250
3691		-187.500000
3692		-187.500000
3693		-187.500000
3694		-191.406250
3695		-183.593750
3696		-191.406250
3697		-183.593750
3698		-191.406250
3699		-183.593750
3700		-191.406250
3701		-183.593750
3702		-187.500000
3703		-179.687500
3704		-187.500000
3705		-179.687500
3706		-183.593750
3707		-179.687500
3708		-179.687500
3709		-175.781250
3710		-179.687500
3711		-171.875000
3712		-179.687500
3713		-171.875000
3714		-175.781250
3715		-167.968750
3716		-175.781250
3717		-164.062500
3718		-171.875000
3719		-164.062500
3720		-167.968750
3721		-160.156250
3722		-164.062500
3723		-156.250000
3724		-160.156250
3725		-152.343750
3726		-156.250000
3727		-148.437500
3728		-152.343750
3729		-144.531250
3730		-148.437500
3731		-140.625000
3732		-144.531250
3733		-136.718750
3734		-140.625000
3735		-132.812500
3736		-136.718750
3737		-128.906250
3738		-132.812500
3739		-121.093750
3740		-128.906250
3741		-117.187500
3742		-121.093750
3743		-113.281250
3744		-117.187500
3745		-105.468750
3746		-113.281250
3747		-101.562500
3748		-105.468750
3749		-97.656250
3750		-101.562500
3751		-89.843750
3752		-97.656250
3753		-85.937500
3754		-89.843750
3755		-82.031250
3756		-85.937500
3757		-74.218750
3758		-78.125000
3759		-70.312500
3760		-70.312500
3761		-62.500000
3762		-66.406250
3763		-54.687500
3764		-62.500000
3765		-50.781250
3766		-54.687500
3767		-42.968750
3768		-46.875000
3769		-39.062500
3770		-42.968750
3771		-31.250000
3772		-35.156250
3773		-23.437500
3774		-31.250000
3775		-19.531250
3776		-23.437500
3777		-15.625000
3778		-15.625000
3779		-7.812500
3780		-11.718750
3781		0.000000
3782		-3.906250
3783		3.906250
3784		0.000000
3785		11.718750
3786		7.812500
3787		19.531250
3788		11.718750
3789		23.437500
3790		19.531250
3791		27.343750
3792		27.343750
3793		35.156250
3794		31.250000
3795		42.968750
3796		39.062500
3797		46.875000
3798		42.968750
3799		50.781250
3800		46.875000
3801		58.593750
3802		54.687500
3803		62.500000
3804		58.593750
3805		70.312500
3806		66.406250
3807		74.218750
3808		74.218750
3809		78.125000
3810		78.125000
3811		85.937500
3812		82.031250
3813		93.750000
3814		89.843750
3815		97.656250
3816		93.750000
3817		101.562500
3818		97.656250
3819		105.468750
3820		101.562500
3821		113.281250
3822		105.468750
3823		117.187500
3824		109.375000
3825		117.187500
3826		117.187500
3827		125.000000
3828		121.093750
3829		128.906250
3830		125.000000
3831		132.812500
3832		128.906250
3833		136.718750
3834		132.812500
3835		140.625000
3836		136.718750
3837		144.531250
3838		140.625000
3839		148.437500
3840		144.531250
3841		152.343750
3842		148.437500
3843		152.343750
3844		152.343750
3845		156.250000
3846		152.343750
3847		160.156250
3848		156.250000
3849		164.062500
3850		160.156250
3851		167.968750
3852		164.062500
3853		171.875000
3854		167.968750
3855		171.875000
3856		167.968750
3857		175.781250
3858		167.968750
3859		175.781250
3860		171.875000
3861		179.687500
3862		175.781250
3863		179.687500
3864		175.781250
3865		183.593750
3866		179.687500
3867		183.593750
3868		179.687500
3869		187.500000
3870		183.593750
3871		187.500000
3872		183.593750
3873		191.406250
3874		183.593750
3875		191.406250
3876		187.500000
3877		191.406250
3878		187.500000
3879		191.406250
3880		187.500000
3881		195.312500
3882		191.406250
3883		195.312500
3884		191.406250
3885		195.312500
3886		191.406250
3887		195.312500
3888		191.406250
3889		195.312500
3890		191.406250
3891		195.312500
3892		191.406250
3893		195.312500
3894		191.406250
3895		195.312500
3896		191.406250
3897		195.312500
3898		191.406250
3899		195.312500
3900		191.406250
3901		195.312500
3902		191.406250
3903		195.312500
3904		191.406250
3905		195.312500
3906		191.406250
3907		195.312500
3908		187.500000
3909		191.406250
3910		187.500000
3911		191.406250
3912		187.500000
3913		191.406250
3914		183.593750
3915		191.406250
3916		183.593750
3917		187.500000
3918		183.593750
3919		187.500000
3920		179.687500
3921		187.500000
3922		179.687500
3923		183.593750
3924		175.781250
3925		183.593750
3926		175.781250
3927		179.687500
3928		171.875000
3929		175.781250
3930		171.875000
3931		175.781250
3932		167.968750
3933		171.875000
3934		164.062500
3935		171.875000
3936		164.062500
3937		167.968750
3938		160.156250
3939		164.062500
3940		156.250000
3941		160.156250
3942		152.343750
3943		160.156250
3944		148.437500
3945		156.250000
3946		148.437500
3947		152.343750
3948		144.531250
3949		148.437500
3950		140.625000
3951		144.531250
3952		132.812500
3953		140.625000
3954		132.812500
3955		136.718750
3956		125.000000
3957		132.812500
3958		121.093750
3959		128.906250
3960		117.187500
3961		125.000000
3962		113.281250
3963		121.093750
3964		109.375000
3965		117.187500
3966		101.562500
3967		109.375000
3968		97.656250
3969		105.468750
3970		93.750000
3971		101.562500
3972		89.843750
3973		93.750000
3974		82.031250
3975		89.843750
3976		78.125000
3977		85.937500
3978		70.312500
3979		78.125000
3980		66.406250
3981		74.218750
3982		58.593750
3983		66.406250
3984		54.687500
3985		62.500000
3986		46.875000
3987		58.593750
3988		42.968750
3989		50.781250
3990		39.062500
3991		42.968750
3992		31.250000
3993		39.062500
3994		23.437500
3995		31.250000
3996		19.531250
3997		27.343750
3998		11.718750
3999		19.531250
4000		7.812500
4001		15.625000
4002		0.000000
4003		7.812500
4004		-7.812500
4005		3.906250
4006		-11.718750
4007		-3.906250
4008		-19.531250
4009		-11.718750
4010		-23.437500
4011		-15.625000
4012		-31.250000
4013		-23.437500
4014		-35.156250
4015		-27.343750
4016		-42.968750
4017		-35.156250
4018		-46.875000
4019		-42.968750
4020		-54.687500
4021		-46.875000
4022		-58.593750
4023		-50.781250
4024		-66.406250
4025		-58.593750
4026		-70.312500
4027		-62.500000
4028		-78.125000
4029		-70.312500
4030		-82.031250
4031		-74.218750
4032		-89.843750
4033		-82.031250
4034		-93.750000
4035		-85.937500
4036		-101.562500
4037		-93.750000
4038		-105.468750
4039		-97.656250
4040		-109.375000
4041		-101.562500
4042		-113.281250
4043		-109.375000
4044		-121.093750
4045		-113.281250
4046		-125.000000
4047		-117.187500
4048		-128.906250
4049		-125.000000
4050		-132.812500
4051		-128.906250
4052		-136.718750
4053		-132.812500
4054		-140.625000
4055		-136.718750
4056		-148.437500
4057		-140.625000
4058		-152.343750
4059		-144.531250
4060		-152.343750
4061		-148.437500
4062		-156.250000
4063		-152.343750
4064		-160.156250
4065		-156.250000
4066		-164.062500
4067		-160.156250
4068		-167.968750
4069		-164.062500
4070		-171.875000
4071		-164.062500
4072		-171.875000
4073		-167.968750
4074		-175.781250
4075		-171.875000
4076		-175.781250
4077		-171.875000
4078		-179.687500
4079		-175.781250
4080		-183.593750
4081		-175.781250
4082		-183.593750
4083		-179.687500
4084		-183.593750
4085		-179.687500
4086		-183.593750
4087		-179.687500
4088		-187.500000
4089		-183.593750
4090		-187.500000
4091		-183.593750
4092		-187.500000
4093		-183.593750
4094		-187.500000
4095		-183.593750
4096		-187.500000
4097		-183.593750
4098		-191.406250
4099		-183.593750
4100		-187.500000
4101		-183.593750
4102		-187.500000
4103		-183.593750
4104		-191.406250
4105		-183.593750
4106		-187.500000
4107		-183.593750
4108		-187.500000
4109		-179.687500
4110		-183.593750
4111		-179.687500
4112		-183.593750
4113		-179.687500
4114		-183.593750
4115		-175.781250
4116		-179.687500
4117		-175.781250
4118		-175.781250
4119		-171.875000
4120		-175.781250
4121		-171.875000
4122		-171.875000
4123		-167.968750
4124		-171.875000
4125		-164.062500
4126		-167.968750
4127		-164.062500
4128		-164.062500
4129		-160.156250
4130		-160.156250
4131		-156.250000
4132		-156.250000
4133		-152.343750
4134		-152.343750
4135		-148.437500
4136		-152.343750
4137		-144.531250
4138		-144.531250
4139		-140.625000
4140		-140.625000
4141		-136.718750
4142		-136.718750
4143		-128.906250
4144		-132.812500
4145		-125.000000
4146		-128.906250
4147		-121.093750
4148		-125.000000
4149		-117.187500
4150		-121.093750
4151		-109.375000
4152		-113.281250
4153		-105.468750
4154		-109.375000
4155		-101.562500
4156		-101.562500
4157		-93.750000
4158		-97.656250
4159		-89.843750
4160		-93.750000
4161		-85.937500
4162		-85.937500
4163		-78.125000
4164		-82.031250
4165		-74.218750
4166		-74.218750
4167		-66.406250
4168		-70.312500
4169		-58.593750
4170		-62.500000
4171		-54.687500
4172		-54.687500
4173		-50.781250
4174		-50.781250
4175		-42.968750
4176		-42.968750
4177		-35.156250
4178		-39.062500
4179		-31.250000
4180		-31.250000
4181		-23.437500
4182		-27.343750
4183		-19.531250
4184		-19.531250
4185		-11.718750
4186		-11.718750
4187		-3.906250
4188		-7.812500
4189		0.000000
4190		0.000000
4191		7.812500
4192		3.906250
4193		11.718750
4194		11.718750
4195		19.531250
4196		15.625000
4197		23.437500
4198		23.437500
4199		31.250000
4200		31.250000
4201		39.062500
4202		35.156250
4203		42.968750
4204		42.968750
4205		50.781250
4206		46.875000
4207		54.687500
4208		50.781250
4209		58.593750
4210		58.593750
4211		66.406250
4212		62.500000
4213		70.312500
4214		70.312500
4215		78.125000
4216		74.218750
4217		82.031250
4218		78.125000
4219		85.937500
4220		85.937500
4221		93.750000
4222		89.843750
4223		97.656250
4224		93.750000
4225		101.562500
4226		101.562500
4227		109.375000
4228		105.468750
4229		113.281250
4230		109.375000
4231		117.187500
4232		113.281250
4233		121.093750
4234		117.187500
4235		125.000000
4236		125.000000
4237		128.906250
4238		128.906250
4239		132.812500
4240		132.812500
4241		136.718750
4242		136.718750
4243		140.625000
4244		140.625000
4245		144.531250
4246		144.531250
4247		148.437500
4248		148.437500
4249		152.343750
4250		148.437500
4251		156.250000
4252		152.343750
4253		160.156250
4254		156.250000
4255		160.156250
4256		160.156250
4257		164.062500
4258		160.156250
4259		167.968750
4260		164.062500
4261		167.968750
4262		167.968750
4263		171.875000
4264		167.968750
4265		175.781250
4266		171.875000
4267		175.781250
4268		175.781250
4269		179.687500
4270		175.781250
4271		179.687500
4272		179.687500
4273		183.593750
4274		179.687500
4275		183.593750
4276		183.593750
4277		187.500000
4278		183.593750
4279		187.500000
4280		183.593750
4281		187.500000
4282		187.500000
4283		191.406250
4284		187.500000
4285		191.406250
4286		187.500000
4287		191.406250
4288		191.406250
4289		195.312500
4290		191.406250
4291		195.312500
4292		191.406250
4293		195.312500
4294		191.406250
4295		195.312500
4296		191.406250
4297		195.312500
4298		191.406250
4299		195.312500
4300		191.406250
4301		195.312500
4302		191.406250
4303		195.312500
4304		191.406250
4305		195.312500
4306		191.406250
4307		195.312500
4308		191.406250
4309		195.312500
4310		191.406250
4311		195.312500
4312		191.406250
4313		195.312500
4314		191.406250
4315		191.406250
4316		187.500000
4317		191.406250
4318		187.500000
4319		191.406250
4320		187.500000
4321		191.406250
4322		183.593750
4323		187.500000
4324		183.593750
4325		187.500000
4326		183.593750
4327		187.500000
4328		179.687500
4329		183.593750
4330		175.781250
4331		183.593750
4332		175.781250
4333		179.687500
4334		175.781250
4335		179.687500
4336		171.875000
4337		175.781250
4338		167.968750
4339		175.781250
4340		167.968750
4341		171.875000
4342		164.062500
4343		167.968750
4344		160.156250
4345		167.968750
4346		160.156250
4347		164.062500
4348		156.250000
4349		160.156250
4350		152.343750
4351		156.250000
4352		148.437500
4353		152.343750
4354		144.531250
4355		152.343750
4356		140.625000
4357		148.437500
4358		136.718750
4359		144.531250
4360		132.812500
4361		140.625000
4362		128.906250
4363		136.718750
4364		125.000000
4365		132.812500
4366		121.093750
4367		128.906250
4368		117.187500
4369		121.093750
4370		109.375000
4371		117.187500
4372		105.468750
4373		113.281250
4374		101.562500
4375		109.375000
4376		93.750000
4377		101.562500
4378		89.843750
4379		97.656250
4380		85.937500
4381		93.750000
4382		82.031250
4383		89.843750
4384		74.218750
4385		85.937500
4386		70.312500
4387		78.125000
4388		62.500000
4389		70.312500
4390		58.593750
4391		66.406250
4392		50.781250
4393		58.593750
4394		46.875000
4395		54.687500
4396		39.062500
4397		50.781250
4398		35.156250
4399		42.968750
4400		27.343750
4401		35.156250
4402		23.437500
4403		31.250000
4404		15.625000
4405		23.437500
4406		11.718750
4407		19.531250
4408		3.906250
4409		11.718750
4410		-3.906250
4411		7.812500
4412		-7.812500
4413		0.000000
4414		-15.625000
4415		-7.812500
4416		-19.531250
4417		-11.718750
4418		-27.343750
4419		-19.531250
4420		-31.250000
4421		-23.437500
4422		-39.062500
4423		-31.250000
4424		-42.968750
4425		-39.062500
4426		-50.781250
4427		-42.968750
4428		-58.593750
4429		-50.781250
4430		-62.500000
4431		-54.687500
4432		-70.312500
4433		-62.500000
4434		-74.218750
4435		-66.406250
4436		-78.125000
4437		-74.218750
4438		-85.937500
4439		-78.125000
4440		-89.843750
4441		-82.031250
4442		-97.656250
4443		-89.843750
4444		-101.562500
4445		-93.750000
4446		-105.468750
4447		-97.656250
4448		-113.281250
4449		-105.468750
4450		-117.187500
4451		-109.375000
4452		-121.093750
4453		-117.187500
4454		-125.000000
4455		-121.093750
4456		-132.812500
4457		-125.000000
4458		-136.718750
4459		-128.906250
4460		-140.625000
4461		-132.812500
4462		-144.531250
4463		-136.718750
4464		-148.437500
4465		-140.625000
4466		-152.343750
4467		-144.531250
4468		-156.250000
4469		-148.437500
4470		-160.156250
4471		-152.343750
4472		-164.062500
4473		-156.250000
4474		-164.062500
4475		-160.156250
4476		-167.968750
4477		-164.062500
4478		-171.875000
4479		-164.062500
4480		-171.875000
4481		-167.968750
4482		-175.781250
4483		-171.875000
4484		-179.687500
4485		-171.875000
4486		-179.687500
4487		-175.781250
4488		-183.593750
4489		-175.781250
4490		-183.593750
4491		-179.687500
4492		-183.593750
4493		-179.687500
4494		-187.500000
4495		-183.593750
4496		-187.500000
4497		-183.593750
4498		-187.500000
4499		-183.593750
4500		-187.500000
4501		-183.593750
4502		-187.500000
4503		-183.593750
4504		-187.500000
4505		-183.593750
4506		-187.500000
4507		-183.593750
4508		-187.500000
4509		-183.593750
4510		-187.500000
4511		-183.593750
4512		-187.500000
4513		-183.593750
4514		-187.500000
4515		-183.593750
4516		-183.593750
4517		-179.687500
4518		-183.593750
4519		-179.687500
4520		-183.593750
4521		-175.781250
4522		-179.687500
4523		-175.781250
4524		-179.687500
4525		-171.875000
4526		-175.781250
4527		-171.875000
4528		-175.781250
4529		-167.968750
4530		-171.875000
4531		-164.062500
4532		-167.968750
4533		-164.062500
4534		-164.062500
4535		-160.156250
4536		-164.062500
4537		-156.250000
4538		-160.156250
4539		-152.343750
4540		-156.250000
4541		-148.437500
4542		-152.343750
4543		-144.531250
4544		-148.437500
4545		-140.625000
4546		-144.531250
4547		-136.718750
4548		-140.625000
4549		-132.812500
4550		-136.718750
4551		-128.906250
4552		-128.906250
4553		-125.000000
4554		-125.000000
4555		-117.187500
4556		-121.093750
4557		-113.281250
4558		-117.187500
4559		-109.375000
4560		-109.375000
4561		-101.562500
4562		-105.468750
4563		-97.656250
4564		-101.562500
4565		-93.750000
4566		-93.750000
4567		-85.937500
4568		-89.843750
4569		-82.031250
4570		-82.031250
4571		-74.218750
4572		-78.125000
4573		-70.312500
4574		-70.312500
4575		-62.500000
4576		-66.406250
4577		-58.593750
4578		-58.593750
4579		-50.781250
4580		-54.687500
4581		-42.968750
4582		-46.875000
4583		-39.062500
4584		-42.968750
4585		-31.250000
4586		-35.156250
4587		-27.343750
4588		-31.250000
4589		-19.531250
4590		-23.437500
4591		-15.625000
4592		-15.625000
4593		-7.812500
4594		-11.718750
4595		-3.906250
4596		-3.906250
4597		3.906250
4598		3.906250
4599		11.718750
4600		7.812500
4601		15.625000
4602		15.625000
4603		23.437500
4604		19.531250
4605		27.343750
4606		27.343750
4607		35.156250
4608		31.250000
4609		39.062500
4610		39.062500
4611		46.875000
4612		42.968750
4613		50.781250
4614		46.875000
4615		58.593750
4616		54.687500
4617		62.500000
4618		62.500000
4619		70.312500
4620		66.406250
4621		74.218750
4622		74.218750
4623		78.125000
4624		78.125000
4625		85.937500
4626		82.031250
4627		89.843750
4628		89.843750
4629		93.750000
4630		93.750000
4631		101.562500
4632		97.656250
4633		105.468750
4634		101.562500
4635		109.375000
4636		109.375000
4637		113.281250
4638		113.281250
4639		117.187500
4640		117.187500
4641		125.000000
4642		121.093750
4643		128.906250
4644		125.000000
4645		132.812500
4646		128.906250
4647		136.718750
4648		132.812500
4649		140.625000
4650		136.718750
4651		144.531250
4652		140.625000
4653		148.437500
4654		144.531250
4655		152.343750
4656		148.437500
4657		152.343750
4658		152.343750
4659		156.250000
4660		156.250000
4661		160.156250
4662		156.250000
4663		164.062500
4664		160.156250
4665		167.968750
4666		164.062500
4667		167.968750
4668		167.968750
4669		171.875000
4670		167.968750
4671		175.781250
4672		171.875000
4673		175.781250
4674		171.875000
4675		179.687500
4676		175.781250
4677		179.687500
4678		175.781250
4679		183.593750
4680		179.687500
4681		183.593750
4682		179.687500
4683		187.500000
4684		183.593750
4685		187.500000
4686		183.593750
4687		187.500000
4688		187.500000
4689		191.406250
4690		187.500000
4691		191.406250
4692		187.500000
4693		191.406250
4694		187.500000
4695		195.312500
4696		191.406250
4697		195.312500
4698		191.406250
4699		195.312500
4700		191.406250
4701		195.312500
4702		191.406250
4703		195.312500
4704		191.406250
4705		195.312500
4706		191.406250
4707		195.312500
4708		191.406250
4709		195.312500
4710		191.406250
4711		195.312500
4712		191.406250
4713		195.312500
4714		191.406250
4715		195.312500
4716		191.406250
4717		195.312500
4718		191.406250
4719		195.312500
4720		191.406250
4721		195.312500
4722		187.500000
4723		191.406250
4724		187.500000
4725		191.406250
4726		187.500000
4727		191.406250
4728		187.500000
4729		191.406250
4730		183.593750
4731		187.500000
4732		183.593750
4733		187.500000
4734		183.593750
4735		187.500000
4736		179.687500
4737		183.593750
4738		175.781250
4739		183.593750
4740		175.781250
4741		179.687500
4742		171.875000
4743		179.687500
4744		171.875000
4745		175.781250
4746		167.968750
4747		171.875000
4748		167.968750
4749		171.875000
4750		164.062500
4751		167.968750
4752		160.156250
4753		164.062500
4754		156.250000
4755		164.062500
4756		152.343750
4757		160.156250
4758		152.343750
4759		156.250000
4760		148.437500
4761		152.343750
4762		144.531250
4763		148.437500
4764		136.718750
4765		144.531250
4766		136.718750
4767		140.625000
4768		132.812500
4769		136.718750
4770		128.906250
4771		132.812500
4772		121.093750
4773		128.906250
4774		117.187500
4775		125.000000
4776		113.281250
4777		121.093750
4778		109.375000
4779		117.187500
4780		105.468750
4781		109.375000
4782		97.656250
4783		105.468750
4784		93.750000
4785		101.562500
4786		89.843750
4787		97.656250
4788		82.031250
4789		89.843750
4790		78.125000
4791		85.937500
4792		74.218750
4793		78.125000
4794		66.406250
4795		74.218750
4796		62.500000
4797		70.312500
4798		54.687500
4799		62.500000
4800		50.781250
4801		58.593750
4802		42.968750
4803		50.781250
4804		39.062500
4805		46.875000
4806		31.250000
4807		39.062500
4808		27.343750
4809		35.156250
4810		19.531250
4811		27.343750
4812		15.625000
4813		23.437500
4814		7.812500
4815		15.625000
4816		0.000000
4817		7.812500
4818		-3.906250
4819		3.906250
4820		-11.718750
4821		-3.906250
4822		-15.625000
4823		-7.812500
4824		-23.437500
4825		-15.625000
4826		-31.250000
4827		-19.531250
4828		-35.156250
4829		-27.343750
4830		-42.968750
4831		-35.156250
4832		-46.875000
4833		-39.062500
4834		-54.687500
4835		-46.875000
4836		-58.593750
4837		-50.781250
4838		-66.406250
4839		-58.593750
4840		-70.312500
4841		-62.500000
4842		-78.125000
4843		-70.312500
4844		-82.031250
4845		-74.218750
4846		-89.843750
4847		-82.031250
4848		-93.750000
4849		-85.937500
4850		-97.656250
4851		-93.750000
4852		-105.468750
4853		-97.656250
4854		-109.375000
4855		-101.562500
4856		-117.187500
4857		-109.375000
4858		-121.093750
4859		-113.281250
4860		-125.000000
4861		-117.187500
4862		-128.906250
4863		-121.093750
4864		-132.812500
4865		-128.906250
4866		-136.718750
4867		-132.812500
4868		-140.625000
4869		-136.718750
4870		-148.437500
4871		-140.625000
4872		-152.343750
4873		-144.531250
4874		-156.250000
4875		-148.437500
4876		-156.250000
4877		-152.343750
4878		-164.062500
4879		-156.250000
4880		-164.062500
4881		-160.156250
4882		-167.968750
4883		-164.062500
4884		-171.875000
4885		-164.062500
4886		-171.875000
4887		-167.968750
4888		-175.781250
4889		-171.875000
4890		-179.687500
4891		-171.875000
4892		-179.687500
4893		-175.781250
4894		-183.593750
4895		-175.781250
4896		-183.593750
4897		-179.687500
4898		-183.593750
4899		-179.687500
4900		-187.500000
4901		-179.687500
4902		-187.500000
4903		-183.593750
4904		-187.500000
4905		-183.593750
4906		-187.500000
4907		-183.593750
4908		-187.500000
4909		-183.593750
4910		-187.500000
4911		-183.593750
4912		-187.500000
4913		-183.593750
4914		-187.500000
4915		-183.593750
4916		-187.500000
4917		-183.593750
4918		-187.500000
4919		-183.593750
4920		-187.500000
4921		-183.593750
4922		-187.500000
4923		-179.687500
4924		-183.593750
4925		-179.687500
4926		-183.593750
4927		-179.687500
4928		-179.687500
4929		-175.781250
4930		-179.687500
4931		-175.781250
4932		-175.781250
4933		-171.875000
4934		-175.781250
4935		-171.875000
4936		-171.875000
4937		-167.968750
4938		-171.875000
4939		-164.062500
4940		-167.968750
4941		-164.062500
4942		-164.062500
4943		-160.156250
4944		-160.156250
4945		-156.250000
4946		-156.250000
4947		-152.343750
4948		-152.343750
4949		-148.437500
4950		-148.437500
4951		-144.531250
4952		-148.437500
4953		-140.625000
4954		-140.625000
4955		-132.812500
4956		-136.718750
4957		-132.812500
4958		-132.812500
4959		-125.000000
4960		-128.906250
4961		-121.093750
4962		-125.000000
4963		-117.187500
4964		-117.187500
4965		-113.281250
4966		-113.281250
4967		-105.468750
4968		-109.375000
4969		-101.562500
4970		-101.562500
4971		-97.656250
4972		-97.656250
4973		-89.843750
4974		-93.750000
4975		-85.937500
4976		-85.937500
4977		-78.125000
4978		-82.031250
4979		-74.218750
4980		-74.218750
4981		-66.406250
4982		-70.312500
4983		-62.500000
4984		-62.500000
4985		-54.687500
4986		-58.593750
4987		-50.781250
4988		-50.781250
4989		-42.968750
4990		-42.968750
4991		-35.156250
4992		-39.062500
4993		-31.250000
4994		-31.250000
4995		-23.437500
4996		-27.343750
4997		-19.531250
4998		-19.531250
4999		-11.718750
5000		-15.625000
5001		-3.906250
5002		-7.812500
5003		0.000000
5004		0.000000
5005		7.812500
5006		3.906250
5007		11.718750
5008		11.718750
5009		19.531250
5010		15.625000
5011		23.437500
5012		23.437500
5013		31.250000
5014		27.343750
5015		35.156250
5016		35.156250
5017		42.968750
5018		39.062500
5019		46.875000
5020		46.875000
5021		54.687500
5022		50.781250
5023		58.593750
5024		58.593750
5025		66.406250
5026		62.500000
5027		70.312500
5028		70.312500
5029		78.125000
5030		74.218750
5031		82.031250
5032		78.125000
5033		85.937500
5034		85.937500
5035		93.750000
5036		89.843750
5037		97.656250
5038		93.750000
5039		101.562500
5040		101.562500
5041		109.375000
5042		105.468750
5043		113.281250
5044		109.375000
5045		117.187500
5046		113.281250
5047		121.093750
5048		117.187500
5049		125.000000
5050		121.093750
5051		128.906250
5052		128.906250
5053		132.812500
5054		132.812500
5055		136.718750
5056		136.718750
5057		140.625000
5058		140.625000
5059		144.531250
5060		144.531250
5061		148.437500
5062		144.531250
5063		152.343750
5064		148.437500
5065		156.250000
5066		152.343750
5067		156.250000
5068		156.250000
5069		160.156250
5070		160.156250
5071		164.062500
5072		160.156250
5073		167.968750
5074		164.062500
5075		167.968750
5076		167.968750
5077		171.875000
5078		167.968750
5079		175.781250
5080		171.875000
5081		175.781250
5082		171.875000
5083		179.687500
5084		175.781250
5085		179.687500
5086		179.687500
5087		183.593750
5088		179.687500
5089		183.593750
5090		183.593750
5091		187.500000
5092		183.593750
5093		187.500000
5094		183.593750
5095		187.500000
5096		187.500000
5097		191.406250
5098		187.500000
5099		191.406250
5100		187.500000
5101		191.406250
5102		187.500000
5103		195.312500
5104		191.406250
5105		195.312500
5106		191.406250
5107		195.312500
5108		191.406250
5109		195.312500
5110		191.406250
5111		195.312500
5112		191.406250
5113		195.312500
5114		191.406250
5115		195.312500
5116		191.406250
5117		195.312500
5118		191.406250
5119		195.312500
5120		191.406250
5121		195.312500
5122		191.406250
5123		195.312500
5124		191.406250
5125		195.312500
5126		191.406250
5127		195.312500
5128		187.500000
5129		191.406250
5130		187.500000
5131		191.406250
5132		187.500000
5133		191.406250
5134		187.500000
5135		191.406250
5136		183.593750
5137		187.500000
5138		183.593750
5139		187.500000
5140		183.593750
5141		187.500000
5142		179.687500
5143		183.593750
5144		179.687500
5145		183.593750
5146		175.781250
5147		179.687500
5148		175.781250
5149		179.687500
5150		171.875000
5151		175.781250
5152		167.968750
5153		175.781250
5154		167.968750
5155		171.875000
5156		164.062500
5157		167.968750
5158		160.156250
5159		167.968750
5160		160.156250
5161		164.062500
5162		156.250000
5163		160.156250
5164		152.343750
5165		156.250000
5166		148.437500
5167		152.343750
5168		144.531250
5169		152.343750
5170		140.625000
5171		148.437500
5172		136.718750
5173		144.531250
5174		132.812500
5175		140.625000
5176		128.906250
5177		136.718750
5178		125.000000
5179		132.812500
5180		121.093750
5181		125.000000
5182		117.187500
5183		121.093750
5184		109.375000
5185		117.187500
5186		105.468750
5187		113.281250
5188		101.562500
5189		109.375000
5190		97.656250
5191		101.562500
5192		89.843750
5193		97.656250
5194		85.937500
5195		93.750000
5196		82.031250
5197		89.843750
5198		74.218750
5199		82.031250
5200		70.312500
5201		78.125000
5202		62.500000
5203		70.312500
5204		58.593750
5205		66.406250
5206		50.781250
5207		58.593750
5208		46.875000
5209		54.687500
5210		39.062500
5211		46.875000
5212		35.156250
5213		42.968750
5214		27.343750
5215		35.156250
5216		23.437500
5217		31.250000
5218		15.625000
5219		23.437500
5220		11.718750
5221		19.531250
5222		3.906250
5223		11.718750
5224		-3.906250
5225		7.812500
5226		-7.812500
5227		0.000000
5228		-15.625000
5229		-7.812500
5230		-19.531250
5231		-11.718750
5232		-27.343750
5233		-19.531250
5234		-31.250000
5235		-23.437500
5236		-39.062500
5237		-31.250000
5238		-46.875000
5239		-35.156250
5240		-50.781250
5241		-42.968750
5242		-58.593750
5243		-50.781250
5244		-62.500000
5245		-54.687500
5246		-70.312500
5247		-62.500000
5248		-74.218750
5249		-66.406250
5250		-82.031250
5251		-70.312500
5252		-85.937500
5253		-78.125000
5254		-89.843750
5255		-85.937500
5256		-97.656250
5257		-89.843750
5258		-101.562500
5259		-93.750000
5260		-109.375000
5261		-101.562500
5262		-113.281250
5263		-105.468750
5264		-117.187500
5265		-109.375000
5266		-121.093750
5267		-117.187500
5268		-128.906250
5269		-121.093750
5270		-132.812500
5271		-125.000000
5272		-136.718750
5273		-128.906250
5274		-140.625000
5275		-132.812500
5276		-144.531250
5277		-136.718750
5278		-148.437500
5279		-140.625000
5280		-152.343750
5281		-148.437500
5282		-156.250000
5283		-152.343750
5284		-160.156250
5285		-152.343750
5286		-164.062500
5287		-156.250000
5288		-164.062500
5289		-160.156250
5290		-171.875000
5291		-164.062500
5292		-171.875000
5293		-167.968750
5294		-175.781250
5295		-167.968750
5296		-175.781250
5297		-171.875000
5298		-179.687500
5299		-175.781250
5300		-179.687500
5301		-175.781250
5302		-183.593750
5303		-179.687500
5304		-183.593750
5305		-179.687500
5306		-187.500000
5307		-183.593750
5308		-187.500000
5309		-183.593750
5310		-187.500000
5311		-183.593750
5312		-187.500000
5313		-183.593750
5314		-191.406250
5315		-187.500000
5316		-191.406250
5317		-183.593750
5318		-191.406250
5319		-187.500000
5320		-191.406250
5321		-187.500000
5322		-191.406250
5323		-187.500000
5324		-191.406250
5325		-187.500000
5326		-187.500000
5327		-183.593750
5328		-187.500000
5329		-183.593750
5330		-187.500000
5331		-183.593750
5332		-183.593750
5333		-179.687500
5334		-183.593750
5335		-179.687500
5336		-183.593750
5337		-175.781250
5338		-179.687500
5339		-175.781250
5340		-179.687500
5341		-171.875000
5342		-175.781250
5343		-171.875000
5344		-171.875000
5345		-167.968750
5346		-171.875000
5347		-164.062500
5348		-167.968750
5349		-164.062500
5350		-164.062500
5351		-160.156250
5352		-160.156250
5353		-156.250000
5354		-156.250000
5355		-152.343750
5356		-152.343750
5357		-148.437500
5358		-148.437500
5359		-144.531250
5360		-148.437500
5361		-140.625000
5362		-144.531250
5363		-136.718750
5364		-136.718750
5365		-132.812500
5366		-132.812500
5367		-125.000000
5368		-128.906250
5369		-121.093750
5370		-125.000000
5371		-117.187500
5372		-117.187500
5373		-113.281250
5374		-113.281250
5375		-105.468750
5376		-109.375000
5377		-101.562500
5378		-101.562500
5379		-97.656250
5380		-97.656250
5381		-89.843750
5382		-89.843750
5383		-85.937500
5384		-85.937500
5385		-78.125000
5386		-82.031250
5387		-70.312500
5388		-74.218750
5389		-66.406250
5390		-70.312500
5391		-58.593750
5392		-62.500000
5393		-54.687500
5394		-58.593750
5395		-46.875000
5396		-50.781250
5397		-42.968750
5398		-42.968750
5399		-35.156250
5400		-39.062500
5401		-31.250000
5402		-31.250000
5403		-23.437500
5404		-27.343750
5405		-15.625000
5406		-19.531250
5407		-11.718750
5408		-11.718750
5409		-3.906250
5410		-7.812500
5411		0.000000
5412		0.000000
5413		7.812500
5414		3.906250
5415		11.718750
5416		11.718750
5417		19.531250
5418		15.625000
5419		27.343750
5420		23.437500
5421		31.250000
5422		31.250000
5423		39.062500
5424		35.156250
5425		42.968750
5426		42.968750
5427		50.781250
5428		46.875000
5429		54.687500
5430		54.687500
5431		62.500000
5432		58.593750
5433		66.406250
5434		66.406250
5435		70.312500
5436		70.312500
5437		78.125000
5438		74.218750
5439		82.031250
5440		82.031250
5441		85.937500
5442		85.937500
5443		93.750000
5444		89.843750
5445		97.656250
5446		93.750000
5447		101.562500
5448		101.562500
5449		109.375000
5450		105.468750
5451		113.281250
5452		109.375000
5453		117.187500
5454		113.281250
5455		121.093750
5456		117.187500
5457		125.000000
5458		125.000000
5459		128.906250
5460		128.906250
5461		132.812500
5462		132.812500
5463		136.718750
5464		136.718750
5465		140.625000
5466		140.625000
5467		144.531250
5468		144.531250
5469		148.437500
5470		144.531250
5471		152.343750
5472		148.437500
5473		156.250000
5474		152.343750
5475		160.156250
5476		156.250000
5477		160.156250
5478		160.156250
5479		164.062500
5480		160.156250
5481		167.968750
5482		164.062500
5483		167.968750
5484		167.968750
5485		171.875000
5486		171.875000
5487		175.781250
5488		171.875000
5489		175.781250
5490		175.781250
5491		179.687500
5492		175.781250
5493		179.687500
5494		175.781250
5495		183.593750
5496		179.687500
5497		183.593750
5498		179.687500
5499		187.500000
5500		183.593750
5501		187.500000
5502		183.593750
5503		187.500000
5504		187.500000
5505		191.406250
5506		187.500000
5507		191.406250
5508		187.500000
5509		191.406250
5510		187.500000
5511		195.312500
5512		191.406250
5513		195.312500
5514		187.500000
5515		195.312500
5516		191.406250
5517		195.312500
5518		191.406250
5519		195.312500
5520		191.406250
5521		195.312500
5522		191.406250
5523		195.312500
5524		191.406250
5525		195.312500
5526		191.406250
5527		195.312500
5528		191.406250
5529		195.312500
5530		191.406250
5531		195.312500
5532		187.500000
5533		195.312500
5534		187.500000
5535		191.406250
5536		187.500000
5537		191.406250
5538		187.500000
5539		191.406250
5540		187.500000
5541		191.406250
5542		183.593750
5543		187.500000
5544		183.593750
5545		187.500000
5546		183.593750
5547		187.500000
5548		179.687500
5549		187.500000
5550		179.687500
5551		183.593750
5552		175.781250
5553		183.593750
5554		175.781250
5555		179.687500
5556		171.875000
5557		175.781250
5558		171.875000
5559		175.781250
5560		167.968750
5561		171.875000
5562		164.062500
5563		171.875000
5564		160.156250
5565		167.968750
5566		156.250000
5567		167.968750
5568		156.250000
5569		164.062500
5570		152.343750
5571		160.156250
5572		148.437500
5573		156.250000
5574		144.531250
5575		152.343750
5576		144.531250
5577		148.437500
5578		136.718750
5579		144.531250
5580		132.812500
5581		140.625000
5582		128.906250
5583		136.718750
5584		125.000000
5585		132.812500
5586		121.093750
5587		128.906250
5588		117.187500
5589		125.000000
5590		113.281250
5591		121.093750
5592		109.375000
5593		113.281250
5594		101.562500
5595		109.375000
5596		97.656250
5597		105.468750
5598		93.750000
5599		101.562500
5600		85.937500
5601		97.656250
5602		82.031250
5603		89.843750
5604		78.125000
5605		85.937500
5606		74.218750
5607		82.031250
5608		66.406250
5609		74.218750
5610		62.500000
5611		70.312500
5612		54.687500
5613		62.500000
5614		50.781250
5615		58.593750
5616		42.968750
5617		50.781250
5618		39.062500
5619		46.875000
5620		31.250000
5621		39.062500
5622		27.343750
5623		35.156250
5624		19.531250
5625		27.343750
5626		11.718750
5627		19.531250
5628		7.812500
5629		15.625000
5630		0.000000
5631		7.812500
5632		-3.906250
5633		3.906250
5634		-11.718750
5635		-3.906250
5636		-15.625000
5637		-7.812500
5638		-23.437500
5639		-15.625000
5640		-31.250000
5641		-19.531250
5642		-35.156250
5643		-27.343750
5644		-42.968750
5645		-35.156250
5646		-46.875000
5647		-39.062500
5648		-54.687500
5649		-46.875000
5650		-58.593750
5651		-50.781250
5652		-66.406250
5653		-58.593750
5654		-70.312500
5655		-62.500000
5656		-78.125000
5657		-70.312500
5658		-82.031250
5659		-74.218750
5660		-89.843750
5661		-82.031250
5662		-93.750000
5663		-85.937500
5664		-101.562500
5665		-93.750000
5666		-105.468750
5667		-97.656250
5668		-109.375000
5669		-101.562500
5670		-117.187500
5671		-109.375000
5672		-121.093750
5673		-113.281250
5674		-125.000000
5675		-117.187500
5676		-128.906250
5677		-125.000000
5678		-136.718750
5679		-128.906250
5680		-140.625000
5681		-132.812500
5682		-144.531250
5683		-136.718750
5684		-148.437500
5685		-140.625000
5686		-152.343750
5687		-144.531250
5688		-156.250000
5689		-148.437500
5690		-160.156250
5691		-152.343750
5692		-164.062500
5693		-156.250000
5694		-167.968750
5695		-160.156250
5696		-167.968750
5697		-164.062500
5698		-171.875000
5699		-167.968750
5700		-175.781250
5701		-167.968750
5702		-175.781250
5703		-171.875000
5704		-179.687500
5705		-175.781250
5706		-179.687500
5707		-175.781250
5708		-183.593750
5709		-179.687500
5710		-183.593750
5711		-179.687500
5712		-187.500000
5713		-179.687500
5714		-191.406250
5715		-179.687500
5716		-191.406250
5717		-183.593750
5718		-191.406250
5719		-187.500000
5720		-191.406250
5721		-187.500000
5722		-191.406250
5723		-187.500000
5724		-191.406250
5725		-187.500000
5726		-191.406250
5727		-187.500000
5728		-195.312500
5729		-183.593750
5730		-191.406250
5731		-183.593750
5732		-191.406250
5733		-183.593750
5734		-187.500000
5735		-187.500000
5736		-187.500000
5737		-183.593750
5738		-187.500000
5739		-183.593750
5740		-187.500000
5741		-183.593750
5742		-183.593750
5743		-179.687500
5744		-183.593750
5745		-175.781250
5746		-183.593750
5747		-175.781250
5748		-179.687500
5749		-171.875000
5750		-179.687500
5751		-167.968750
5752		-171.875000
5753		-167.968750
5754		-171.875000
5755		-164.062500
5756		-167.968750
5757		-164.062500
5758		-164.062500
5759		-160.156250
5760		-160.156250
5761		-156.250000
5762		-160.156250
5763		-148.437500
5764		-156.250000
5765		-144.531250
5766		-152.343750
5767		-140.625000
5768		-144.531250
5769		-140.625000
5770		-140.625000
5771		-136.718750
5772		-136.718750
5773		-128.906250
5774		-132.812500
5775		-125.000000
5776		-128.906250
5777		-121.093750
5778		-121.093750
5779		-113.281250
5780		-121.093750
5781		-109.375000
5782		-113.281250
5783		-101.562500
5784		-109.375000
5785		-101.562500
5786		-101.562500
5787		-93.750000
5788		-97.656250
5789		-89.843750
5790		-89.843750
5791		-82.031250
5792		-85.937500
5793		-78.125000
5794		-78.125000
5795		-70.312500
5796		-74.218750
5797		-62.500000
5798		-70.312500
5799		-54.687500
5800		-62.500000
5801		-50.781250
5802		-54.687500
5803		-46.875000
5804		-50.781250
5805		-39.062500
5806		-42.968750
5807		-35.156250
5808		-35.156250
5809		-27.343750
5810		-31.250000
5811		-23.437500
5812		-23.437500
5813		-11.718750
5814		-19.531250
5815		-7.812500
5816		-11.718750
5817		0.000000
5818		-3.906250
5819		3.906250
5820		0.000000
5821		7.812500
5822		7.812500
5823		15.625000
5824		11.718750
5825		19.531250
5826		19.531250
5827		27.343750
5828		23.437500
5829		35.156250
5830		27.343750
5831		42.968750
5832		35.156250
5833		46.875000
5834		39.062500
5835		50.781250
5836		46.875000
5837		54.687500
5838		54.687500
5839		62.500000
5840		58.593750
5841		66.406250
5842		66.406250
5843		74.218750
5844		70.312500
5845		78.125000
5846		74.218750
5847		85.937500
5848		82.031250
5849		93.750000
5850		85.937500
5851		93.750000
5852		93.750000
5853		97.656250
5854		97.656250
5855		105.468750
5856		101.562500
5857		109.375000
5858		105.468750
5859		113.281250
5860		109.375000
5861		117.187500
5862		117.187500
5863		125.000000
5864		117.187500
5865		128.906250
5866		121.093750
5867		132.812500
5868		125.000000
5869		132.812500
5870		132.812500
5871		136.718750
5872		136.718750
5873		144.531250
5874		140.625000
5875		144.531250
5876		144.531250
5877		148.437500
5878		148.437500
5879		152.343750
5880		148.437500
5881		160.156250
5882		152.343750
5883		160.156250
5884		152.343750
5885		164.062500
5886		160.156250
5887		164.062500
5888		164.062500
5889		167.968750
5890		164.062500
5891		171.875000
5892		167.968750
5893		171.875000
5894		171.875000
5895		175.781250
5896		171.875000
5897		175.781250
5898		175.781250
5899		179.687500
5900		171.875000
5901		179.687500
5902		179.687500
5903		183.593750
5904		179.687500
5905		183.593750
5906		179.687500
5907		187.500000
5908		183.593750
5909		187.500000
5910		183.593750
5911		187.500000
5912		183.593750
5913		191.406250
5914		187.500000
5915		191.406250
5916		187.500000
5917		195.312500
5918		187.500000
5919		191.406250
5920		187.500000
5921		191.406250
5922		191.406250
5923		191.406250
5924		191.406250
5925		195.312500
5926		191.406250
5927		195.312500
5928		191.406250
5929		195.312500
5930		191.406250
5931		195.312500
5932		191.406250
5933		195.312500
5934		187.500000
5935		195.312500
5936		191.406250
5937		191.406250
5938		187.500000
5939		191.406250
5940		187.500000
5941		191.406250
5942		187.500000
5943		191.406250
5944		187.500000
5945		191.406250
5946		187.500000
5947		191.406250
5948		183.593750
5949		187.500000
5950		183.593750
5951		187.500000
5952		183.593750
5953		187.500000
5954		179.687500
5955		183.593750
5956		179.687500
5957		183.593750
5958		175.781250
5959		179.687500
5960		175.781250
5961		179.687500
5962		171.875000
5963		175.781250
5964		171.875000
5965		175.781250
5966		167.968750
5967		171.875000
5968		167.968750
5969		171.875000
5970		164.062500
5971		167.968750
5972		160.156250
5973		164.062500
5974		156.250000
5975		164.062500
5976		156.250000
5977		160.156250
5978		152.343750
5979		156.250000
5980		148.437500
5981		152.343750
5982		144.531250
5983		148.437500
5984		140.625000
5985		144.531250
5986		136.718750
5987		140.625000
5988		132.812500
5989		140.625000
5990		128.906250
5991		132.812500
5992		125.000000
5993		128.906250
5994		121.093750
5995		125.000000
5996		113.281250
5997		121.093750
5998		109.375000
5999		117.187500
6000		105.468750
6001		113.281250
6002		101.562500
6003		109.375000
6004		93.750000
6005		101.562500
6006		89.843750
6007		97.656250
6008		85.937500
6009		93.750000
6010		78.125000
6011		85.937500
6012		74.218750
6013		82.031250
6014		70.312500
6015		74.218750
6016		62.500000
6017		70.312500
6018		58.593750
6019		66.406250
6020		50.781250
6021		58.593750
6022		46.875000
6023		54.687500
6024		39.062500
6025		46.875000
6026		35.156250
6027		42.968750
6028		27.343750
6029		35.156250
6030		19.531250
6031		31.250000
6032		15.625000
6033		23.437500
6034		7.812500
6035		15.625000
6036		3.906250
6037		11.718750
6038		-3.906250
6039		7.812500
6040		-7.812500
6041		0.000000
6042		-15.625000
6043		-7.812500
6044		-19.531250
6045		-11.718750
6046		-27.343750
6047		-19.531250
6048		-35.156250
6049		-23.437500
6050		-39.062500
6051		-31.250000
6052		-46.875000
6053		-39.062500
6054		-50.781250
6055		-42.968750
6056		-58.593750
6057		-50.781250
6058		-62.500000
6059		-54.687500
6060		-70.312500
6061		-62.500000
6062		-74.218750
6063		-66.406250
6064		-82.031250
6065		-74.218750
6066		-85.937500
6067		-78.125000
6068		-93.750000
6069		-85.937500
6070		-97.656250
6071		-89.843750
6072		-105.468750
6073		-97.656250
6074		-109.375000
6075		-101.562500
6076		-113.281250
6077		-105.468750
6078		-121.093750
6079		-113.281250
6080		-125.000000
6081		-117.187500
6082		-128.906250
6083		-121.093750
6084		-132.812500
6085		-125.000000
6086		-136.718750
6087		-132.812500
6088		-140.625000
6089		-136.718750
6090		-144.531250
6091		-140.625000
6092		-148.437500
6093		-144.531250
6094		-152.343750
6095		-148.437500
6096		-156.250000
6097		-152.343750
6098		-160.156250
6099		-156.250000
6100		-164.062500
6101		-160.156250
6102		-167.968750
6103		-164.062500
6104		-171.875000
6105		-164.062500
6106		-171.875000
6107		-167.968750
6108		-175.781250
6109		-171.875000
6110		-179.687500
6111		-171.875000
6112		-179.687500
6113		-175.781250
6114		-183.593750
6115		-179.687500
6116		-183.593750
6117		-179.687500
6118		-187.500000
6119		-183.593750
6120		-187.500000
6121		-183.593750
6122		-191.406250
6123		-183.593750
6124		-191.406250
6125		-187.500000
6126		-191.406250
6127		-187.500000
6128		-191.406250
6129		-187.500000
6130		-191.406250
6131		-187.500000
6132		-195.312500
6133		-187.500000
6134		-195.312500
6135		-187.500000
6136		-191.406250
6137		-187.500000
6138		-191.406250
6139		-187.500000
6140		-191.406250
6141		-187.500000
6142		-191.406250
6143		-187.500000
6144		-187.500000
6145		-187.500000
6146		-187.500000
6147		-183.593750
6148		-187.500000
6149		-179.687500
6150		-183.593750
6151		-179.687500
6152		-183.593750
6153		-179.687500
6154		-183.593750
6155		-175.781250
6156		-179.687500
6157		-171.875000
6158		-175.781250
6159		-171.875000
6160		-175.781250
6161		-167.968750
6162		-171.875000
6163		-164.062500
6164		-167.968750
6165		-160.156250
6166		-164.062500
6167		-156.250000
6168		-160.156250
6169		-156.250000
6170		-156.250000
6171		-152.343750
6172		-152.343750
6173		-148.437500
6174		-148.437500
6175		-144.531250
6176		-148.437500
6177		-140.625000
6178		-140.625000
6179		-132.812500
6180		-136.718750
6181		-128.906250
6182		-132.812500
6183		-125.000000
6184		-128.906250
6185		-121.093750
6186		-121.093750
6187		-113.281250
6188		-117.187500
6189		-109.375000
6190		-113.281250
6191		-105.468750
6192		-105.468750
6193		-97.656250
6194		-101.562500
6195		-93.750000
6196		-93.750000
6197		-89.843750
6198		-89.843750
6199		-82.031250
6200		-82.031250
6201		-78.125000
6202		-78.125000
6203		-70.312500
6204		-70.312500
6205		-62.500000
6206		-66.406250
6207		-58.593750
6208		-58.593750
6209		-50.781250
6210		-54.687500
6211		-46.875000
6212		-46.875000
6213		-39.062500
6214		-42.968750
6215		-35.156250
6216		-35.156250
6217		-27.343750
6218		-31.250000
6219		-19.531250
6220		-23.437500
6221		-15.625000
6222		-15.625000
6223		-7.812500
6224		-11.718750
6225		-3.906250
6226		-3.906250
6227		3.906250
6228		0.000000
6229		7.812500
6230		7.812500
6231		15.625000
6232		15.625000
6233		23.437500
6234		19.531250
6235		27.343750
6236		27.343750
6237		35.156250
6238		31.250000
6239		39.062500
6240		39.062500
6241		46.875000
6242		42.968750
6243		50.781250
6244		50.781250
6245		58.593750
6246		54.687500
6247		62.500000
6248		62.500000
6249		66.406250
6250		66.406250
6251		74.218750
6252		70.312500
6253		78.125000
6254		78.125000
6255		85.937500
6256		82.031250
6257		89.843750
6258		85.937500
6259		93.750000
6260		93.750000
6261		97.656250
6262		97.656250
6263		105.468750
6264		101.562500
6265		109.375000
6266		109.375000
6267		113.281250
6268		113.281250
6269		117.187500
6270		117.187500
6271		121.093750
6272		121.093750
6273		125.000000
6274		125.000000
6275		132.812500
6276		128.906250
6277		136.718750
6278		132.812500
6279		136.718750
6280		136.718750
6281		144.531250
6282		140.625000
6283		144.531250
6284		144.531250
6285		152.343750
6286		148.437500
6287		152.343750
6288		152.343750
6289		156.250000
6290		156.250000
6291		160.156250
6292		156.250000
6293		164.062500
6294		160.156250
6295		164.062500
6296		164.062500
6297		167.968750
6298		164.062500
6299		171.875000
6300		167.968750
6301		171.875000
6302		171.875000
6303		175.781250
6304		171.875000
6305		175.781250
6306		175.781250
6307		179.687500
6308		175.781250
6309		179.687500
6310		179.687500
6311		183.593750
6312		179.687500
6313		183.593750
6314		179.687500
6315		183.593750
6316		183.593750
6317		187.500000
6318		183.593750
6319		187.500000
6320		187.500000
6321		191.406250
6322		187.500000
6323		191.406250
6324		187.500000
6325		191.406250
6326		187.500000
6327		191.406250
6328		187.500000
6329		191.406250
6330		187.500000
6331		191.406250
6332		191.406250
6333		195.312500
6334		187.500000
6335		195.312500
6336		191.406250
6337		195.312500
6338		191.406250
6339		195.312500
6340		191.406250
6341		195.312500
6342		191.406250
6343		191.406250
6344		187.500000
6345		195.312500
6346		187.500000
6347		191.406250
6348		187.500000
6349		191.406250
6350		187.500000
6351		191.406250
6352		187.500000
6353		191.406250
6354		183.593750
6355		187.500000
6356		183.593750
6357		187.500000
6358		183.593750
6359		187.500000
6360		179.687500
6361		183.593750
6362		179.687500
6363		183.593750
6364		179.687500
6365		183.593750
6366		175.781250
6367		179.687500
6368		171.875000
6369		179.687500
6370		171.875000
6371		175.781250
6372		167.968750
6373		175.781250
6374		167.968750
6375		171.875000
6376		164.062500
6377		167.968750
6378		160.156250
6379		167.968750
6380		160.156250
6381		164.062500
6382		156.250000
6383		160.156250
6384		152.343750
6385		160.156250
6386		148.437500
6387		156.250000
6388		144.531250
6389		152.343750
6390		144.531250
6391		148.437500
6392		136.718750
6393		144.531250
6394		136.718750
6395		140.625000
6396		128.906250
6397		136.718750
6398		125.000000
6399		132.812500
6400		121.093750
6401		128.906250
6402		117.187500
6403		125.000000
6404		113.281250
6405		121.093750
6406		109.375000
6407		113.281250
6408		105.468750
6409		109.375000
6410		97.656250
6411		105.468750
6412		93.750000
6413		101.562500
6414		85.937500
6415		93.750000
6416		82.031250
6417		89.843750
6418		74.218750
6419		85.937500
6420		70.312500
6421		82.031250
6422		66.406250
6423		74.218750
6424		62.500000
6425		70.312500
6426		54.687500
6427		62.500000
6428		50.781250
6429		58.593750
6430		42.968750
6431		50.781250
6432		35.156250
6433		46.875000
6434		31.250000
6435		39.062500
6436		23.437500
6437		31.250000
6438		19.531250
6439		27.343750
6440		11.718750
6441		19.531250
6442		7.812500
6443		15.625000
6444		0.000000
6445		7.812500
6446		-3.906250
6447		3.906250
6448		-11.718750
6449		-3.906250
6450		-19.531250
6451		-11.718750
6452		-23.437500
6453		-15.625000
6454		-31.250000
6455		-19.531250
6456		-35.156250
6457		-27.343750
6458		-42.968750
6459		-35.156250
6460		-46.875000
6461		-39.062500
6462		-54.687500
6463		-46.875000
6464		-62.500000
6465		-54.687500
6466		-66.406250
6467		-58.593750
6468		-74.218750
6469		-62.500000
6470		-78.125000
6471		-70.312500
6472		-85.937500
6473		-74.218750
6474		-89.843750
6475		-82.031250
6476		-93.750000
6477		-89.843750
6478		-101.562500
6479		-93.750000
6480		-105.468750
6481		-97.656250
6482		-109.375000
6483		-105.468750
6484		-117.187500
6485		-109.375000
6486		-121.093750
6487		-113.281250
6488		-125.000000
6489		-121.093750
6490		-132.812500
6491		-125.000000
6492		-136.718750
6493		-128.906250
6494		-140.625000
6495		-132.812500
6496		-144.531250
6497		-136.718750
6498		-148.437500
6499		-144.531250
6500		-152.343750
6501		-148.437500
6502		-156.250000
6503		-148.437500
6504		-160.156250
6505		-152.343750
6506		-164.062500
6507		-156.250000
6508		-167.968750
6509		-160.156250
6510		-167.968750
6511		-164.062500
6512		-171.875000
6513		-167.968750
6514		-175.781250
6515		-171.875000
6516		-179.687500
6517		-171.875000
6518		-179.687500
6519		-175.781250
6520		-183.593750
6521		-179.687500
6522		-183.593750
6523		-179.687500
6524		-187.500000
6525		-183.593750
6526		-187.500000
6527		-183.593750
6528		-187.500000
6529		-183.593750
6530		-191.406250
6531		-187.500000
6532		-191.406250
6533		-187.500000
6534		-191.406250
6535		-187.500000
6536		-191.406250
6537		-187.500000
6538		-191.406250
6539		-187.500000
6540		-191.406250
6541		-191.406250
6542		-191.406250
6543		-187.500000
6544		-191.406250
6545		-191.406250
6546		-191.406250
6547		-187.500000
6548		-191.406250
6549		-187.500000
6550		-191.406250
6551		-187.500000
6552		-191.406250
6553		-187.500000
6554		-187.500000
6555		-183.593750
6556		-187.500000
6557		-183.593750
6558		-183.593750
6559		-179.687500
6560		-183.593750
6561		-179.687500
6562		-179.687500
6563		-175.781250
6564		-179.687500
6565		-171.875000
6566		-175.781250
6567		-171.875000
6568		-171.875000
6569		-167.968750
6570		-167.968750
6571		-164.062500
6572		-167.968750
6573		-160.156250
6574		-164.062500
6575		-156.250000
6576		-160.156250
6577		-156.250000
6578		-156.250000
6579		-148.437500
6580		-152.343750
6581		-144.531250
6582		-148.437500
6583		-140.625000
6584		-144.531250
6585		-136.718750
6586		-140.625000
6587		-132.812500
6588		-136.718750
6589		-128.906250
6590		-128.906250
6591		-125.000000
6592		-125.000000
6593		-117.187500
6594		-121.093750
6595		-113.281250
6596		-113.281250
6597		-109.375000
6598		-109.375000
6599		-101.562500
6600		-105.468750
6601		-97.656250
6602		-97.656250
6603		-89.843750
6604		-93.750000
6605		-85.937500
6606		-85.937500
6607		-78.125000
6608		-82.031250
6609		-74.218750
6610		-74.218750
6611		-66.406250
6612		-70.312500
6613		-62.500000
6614		-62.500000
6615		-54.687500
6616		-58.593750
6617		-50.781250
6618		-50.781250
6619		-42.968750
6620		-46.875000
6621		-39.062500
6622		-39.062500
6623		-31.250000
6624		-31.250000
6625		-23.437500
6626		-27.343750
6627		-19.531250
6628		-19.531250
6629		-11.718750
6630		-15.625000
6631		-7.812500
6632		-7.812500
6633		0.000000
6634		0.000000
6635		7.812500
6636		3.906250
6637		11.718750
6638		11.718750
6639		19.531250
6640		15.625000
6641		23.437500
6642		23.437500
6643		31.250000
6644		27.343750
6645		35.156250
6646		35.156250
6647		42.968750
6648		42.968750
6649		46.875000
6650		46.875000
6651		54.687500
6652		50.781250
6653		58.593750
6654		58.593750
6655		66.406250
6656		62.500000
6657		70.312500
6658		70.312500
6659		78.125000
6660		74.218750
6661		82.031250
6662		78.125000
6663		85.937500
6664		85.937500
6665		89.843750
6666		89.843750
6667		97.656250
6668		93.750000
6669		101.562500
6670		97.656250
6671		105.468750
6672		105.468750
6673		109.375000
6674		109.375000
6675		117.187500
6676		113.281250
6677		121.093750
6678		117.187500
6679		125.000000
6680		121.093750
6681		128.906250
6682		125.000000
6683		132.812500
6684		132.812500
6685		136.718750
6686		136.718750
6687		140.625000
6688		136.718750
6689		144.531250
6690		140.625000
6691		148.437500
6692		144.531250
6693		152.343750
6694		148.437500
6695		152.343750
6696		152.343750
6697		156.250000
6698		156.250000
6699		160.156250
6700		160.156250
6701		164.062500
6702		160.156250
6703		164.062500
6704		164.062500
6705		167.968750
6706		167.968750
6707		171.875000
6708		167.968750
6709		171.875000
6710		171.875000
6711		175.781250
6712		171.875000
6713		175.781250
6714		175.781250
6715		179.687500
6716		175.781250
6717		179.687500
6718		179.687500
6719		183.593750
6720		179.687500
6721		183.593750
6722		183.593750
6723		187.500000
6724		183.593750
6725		187.500000
6726		183.593750
6727		187.500000
6728		183.593750
6729		191.406250
6730		187.500000
6731		191.406250
6732		187.500000
6733		191.406250
6734		187.500000
6735		191.406250
6736		187.500000
6737		191.406250
6738		187.500000
6739		191.406250
6740		191.406250
6741		191.406250
6742		187.500000
6743		195.312500
6744		191.406250
6745		191.406250
6746		191.406250
6747		191.406250
6748		187.500000
6749		191.406250
6750		187.500000
6751		191.406250
6752		187.500000
6753		191.406250
6754		187.500000
6755		191.406250
6756		187.500000
6757		191.406250
6758		187.500000
6759		191.406250
6760		183.593750
6761		187.500000
6762		183.593750
6763		187.500000
6764		183.593750
6765		187.500000
6766		183.593750
6767		187.500000
6768		179.687500
6769		183.593750
6770		179.687500
6771		183.593750
6772		175.781250
6773		179.687500
6774		175.781250
6775		179.687500
6776		171.875000
6777		175.781250
6778		171.875000
6779		175.781250
6780		167.968750
6781		171.875000
6782		164.062500
6783		171.875000
6784		164.062500
6785		167.968750
6786		160.156250
6787		164.062500
6788		156.250000
6789		160.156250
6790		152.343750
6791		160.156250
6792		152.343750
6793		156.250000
6794		148.437500
6795		152.343750
6796		144.531250
6797		148.437500
6798		140.625000
6799		144.531250
6800		136.718750
6801		144.531250
6802		132.812500
6803		136.718750
6804		128.906250
6805		132.812500
6806		125.000000
6807		128.906250
6808		121.093750
6809		125.000000
6810		113.281250
6811		121.093750
6812		109.375000
6813		117.187500
6814		105.468750
6815		113.281250
6816		101.562500
6817		105.468750
6818		93.750000
6819		101.562500
6820		89.843750
6821		97.656250
6822		85.937500
6823		93.750000
6824		78.125000
6825		85.937500
6826		74.218750
6827		82.031250
6828		66.406250
6829		74.218750
6830		62.500000
6831		70.312500
6832		58.593750
6833		66.406250
6834		50.781250
6835		58.593750
6836		46.875000
6837		54.687500
6838		39.062500
6839		46.875000
6840		35.156250
6841		42.968750
6842		27.343750
6843		35.156250
6844		23.437500
6845		31.250000
6846		15.625000
6847		23.437500
6848		7.812500
6849		15.625000
6850		3.906250
6851		11.718750
6852		-3.906250
6853		7.812500
6854		-7.812500
6855		0.000000
6856		-15.625000
6857		-7.812500
6858		-19.531250
6859		-11.718750
6860		-27.343750
6861		-19.531250
6862		-35.156250
6863		-27.343750
6864		-39.062500
6865		-31.250000
6866		-46.875000
6867		-39.062500
6868		-50.781250
6869		-42.968750
6870		-58.593750
6871		-50.781250
6872		-62.500000
6873		-54.687500
6874		-70.312500
6875		-62.500000
6876		-74.218750
6877		-66.406250
6878		-82.031250
6879		-74.218750
6880		-85.937500
6881		-78.125000
6882		-93.750000
6883		-85.937500
6884		-97.656250
6885		-89.843750
6886		-105.468750
6887		-97.656250
6888		-109.375000
6889		-101.562500
6890		-113.281250
6891		-105.468750
6892		-121.093750
6893		-113.281250
6894		-125.000000
6895		-117.187500
6896		-128.906250
6897		-121.093750
6898		-132.812500
6899		-128.906250
6900		-136.718750
6901		-132.812500
6902		-140.625000
6903		-136.718750
6904		-148.437500
6905		-140.625000
6906		-152.343750
6907		-144.531250
6908		-156.250000
6909		-148.437500
6910		-160.156250
6911		-152.343750
6912		-160.156250
6913		-156.250000
6914		-164.062500
6915		-160.156250
6916		-167.968750
6917		-164.062500
6918		-171.875000
6919		-167.968750
6920		-175.781250
6921		-167.968750
6922		-175.781250
6923		-171.875000
6924		-179.687500
6925		-175.781250
6926		-183.593750
6927		-175.781250
6928		-183.593750
6929		-179.687500
6930		-187.500000
6931		-183.593750
6932		-187.500000
6933		-183.593750
6934		-187.500000
6935		-183.593750
6936		-191.406250
6937		-187.500000
6938		-191.406250
6939		-187.500000
6940		-195.312500
6941		-187.500000
6942		-191.406250
6943		-187.500000
6944		-195.312500
6945		-191.406250
6946		-195.312500
6947		-191.406250
6948		-195.312500
6949		-191.406250
6950		-195.312500
6951		-191.406250
6952		-191.406250
6953		-191.406250
6954		-191.406250
6955		-187.500000
6956		-191.406250
6957		-187.500000
6958		-191.406250
6959		-187.500000
6960		-191.406250
6961		-187.500000
6962		-187.500000
6963		-183.593750
6964		-187.500000
6965		-183.593750
6966		-183.593750
6967		-179.687500
6968		-183.593750
6969		-179.687500
6970		-183.593750
6971		-175.781250
6972		-179.687500
6973		-175.781250
6974		-175.781250
6975		-171.875000
6976		-171.875000
6977		-167.968750
6978		-171.875000
6979		-164.062500
6980		-167.968750
6981		-160.156250
6982		-164.062500
6983		-156.250000
6984		-160.156250
6985		-152.343750
6986		-156.250000
6987		-148.437500
6988		-152.343750
6989		-144.531250
6990		-148.437500
6991		-140.625000
6992		-144.531250
6993		-136.718750
6994		-140.625000
6995		-132.812500
6996		-132.812500
6997		-128.906250
6998		-128.906250
6999		-121.093750
7000		-125.000000
7001		-117.187500
7002		-121.093750
7003		-113.281250
7004		-113.281250
7005		-105.468750
7006		-109.375000
7007		-101.562500
7008		-101.562500
7009		-93.750000
7010		-97.656250
7011		-89.843750
7012		-93.750000
7013		-82.031250
7014		-85.937500
7015		-78.125000
7016		-82.031250
7017		-74.218750
7018		-74.218750
7019		-66.406250
7020		-70.312500
7021		-62.500000
7022		-62.500000
7023		-54.687500
7024		-54.687500
7025		-46.875000
7026		-50.781250
7027		-42.968750
7028		-42.968750
7029		-35.156250
7030		-39.062500
7031		-31.250000
7032		-31.250000
7033		-23.437500
7034		-23.437500
7035		-19.531250
7036		-19.531250
7037		-11.718750
7038		-11.718750
7039		-3.906250
7040		-7.812500
7041		0.000000
7042		0.000000
7043		7.812500
7044		3.906250
7045		11.718750
7046		11.718750
7047		19.531250
7048		19.531250
7049		23.437500
7050		23.437500
7051		31.250000
7052		31.250000
7053		39.062500
7054		35.156250
7055		42.968750
7056		42.968750
7057		50.781250
7058		46.875000
7059		54.687500
7060		54.687500
7061		58.593750
7062		58.593750
7063		66.406250
7064		66.406250
7065		70.312500
7066		70.312500
7067		78.125000
7068		74.218750
7069		82.031250
7070		82.031250
7071		85.937500
7072		85.937500
7073		93.750000
7074		89.843750
7075		97.656250
7076		93.750000
7077		101.562500
7078		101.562500
7079		105.468750
7080		105.468750
7081		113.281250
7082		109.375000
7083		117.187500
7084		113.281250
7085		121.093750
7086		117.187500
7087		125.000000
7088		125.000000
7089		128.906250
7090		128.906250
7091		132.812500
7092		132.812500
7093		136.718750
7094		136.718750
7095		140.625000
7096		140.625000
7097		144.531250
7098		144.531250
7099		148.437500
7100		144.531250
7101		152.343750
7102		148.437500
7103		156.250000
7104		152.343750
7105		156.250000
7106		156.250000
7107		160.156250
7108		160.156250
7109		164.062500
7110		160.156250
7111		167.968750
7112		164.062500
7113		167.968750
7114		167.968750
7115		171.875000
7116		167.968750
7117		171.875000
7118		171.875000
7119		175.781250
7120		171.875000
7121		179.687500
7122		175.781250
7123		179.687500
7124		175.781250
7125		179.687500
7126		179.687500
7127		183.593750
7128		179.687500
7129		183.593750
7130		183.593750
7131		187.500000
7132		183.593750
7133		187.500000
7134		183.593750
7135		187.500000
7136		187.500000
7137		187.500000
7138		187.500000
7139		191.406250
7140		187.500000
7141		191.406250
7142		187.500000
7143		191.406250
7144		187.500000
7145		191.406250
7146		187.500000
7147		191.406250
7148		187.500000
7149		191.406250
7150		191.406250
7151		191.406250
7152		191.406250
7153		191.406250
7154		187.500000
7155		191.406250
7156		187.500000
7157		191.406250
7158		187.500000
7159		191.406250
7160		187.500000
7161		191.406250
7162		187.500000
7163		191.406250
7164		187.500000
7165		191.406250
7166		187.500000
7167		191.406250
7168		183.593750
7169		187.500000
7170		183.593750
7171		187.500000
7172		183.593750
7173		187.500000
7174		179.687500
7175		183.593750
7176		179.687500
7177		183.593750
7178		175.781250
7179		179.687500
7180		175.781250
7181		179.687500
7182		171.875000
7183		179.687500
7184		171.875000
7185		175.781250
7186		167.968750
7187		175.781250
7188		167.968750
7189		171.875000
7190		164.062500
7191		167.968750
7192		160.156250
7193		167.968750
7194		160.156250
7195		164.062500
7196		156.250000
7197		160.156250
7198		152.343750
7199		156.250000
7200		148.437500
7201		156.250000
7202		144.531250
7203		152.343750
7204		140.625000
7205		148.437500
7206		136.718750
7207		144.531250
7208		132.812500
7209		140.625000
7210		128.906250
7211		136.718750
7212		125.000000
7213		132.812500
7214		121.093750
7215		128.906250
7216		117.187500
7217		125.000000
7218		113.281250
7219		121.093750
7220		109.375000
7221		113.281250
7222		101.562500
7223		109.375000
7224		97.656250
7225		105.468750
7226		93.750000
7227		101.562500
7228		89.843750
7229		93.750000
7230		82.031250
7231		89.843750
7232		78.125000
7233		85.937500
7234		70.312500
7235		78.125000
7236		66.406250
7237		74.218750
7238		62.500000
7239		66.406250
7240		54.687500
7241		62.500000
7242		50.781250
7243		58.593750
7244		42.968750
7245		50.781250
7246		39.062500
7247		46.875000
7248		31.250000
7249		39.062500
7250		27.343750
7251		31.250000
7252		19.531250
7253		27.343750
7254		11.718750
7255		19.531250
7256		7.812500
7257		15.625000
7258		0.000000
7259		7.812500
7260		-3.906250
7261		3.906250
7262		-11.718750
7263		-3.906250
7264		-19.531250
7265		-7.812500
7266		-23.437500
7267		-15.625000
7268		-31.250000
7269		-23.437500
7270		-35.156250
7271		-27.343750
7272		-42.968750
7273		-35.156250
7274		-46.875000
7275		-42.968750
7276		-54.687500
7277		-46.875000
7278		-62.500000
7279		-54.687500
7280		-66.406250
7281		-58.593750
7282		-74.218750
7283		-62.500000
7284		-78.125000
7285		-70.312500
7286		-85.937500
7287		-78.125000
7288		-89.843750
7289		-82.031250
7290		-93.750000
7291		-89.843750
7292		-101.562500
7293		-93.750000
7294		-105.468750
7295		-97.656250
7296		-109.375000
7297		-105.468750
7298		-117.187500
7299		-109.375000
7300		-121.093750
7301		-113.281250
7302		-125.000000
7303		-121.093750
7304		-132.812500
7305		-125.000000
7306		-136.718750
7307		-128.906250
7308		-140.625000
7309		-132.812500
7310		-144.531250
7311		-136.718750
7312		-148.437500
7313		-144.531250
7314		-152.343750
7315		-148.437500
7316		-156.250000
7317		-152.343750
7318		-160.156250
7319		-156.250000
7320		-164.062500
7321		-160.156250
7322		-167.968750
7323		-160.156250
7324		-171.875000
7325		-164.062500
7326		-171.875000
7327		-167.968750
7328		-175.781250
7329		-171.875000
7330		-179.687500
7331		-175.781250
7332		-179.687500
7333		-175.781250
7334		-183.593750
7335		-179.687500
7336		-187.500000
7337		-179.687500
7338		-187.500000
7339		-183.593750
7340		-187.500000
7341		-183.593750
7342		-191.406250
7343		-187.500000
7344		-191.406250
7345		-187.500000
7346		-191.406250
7347		-187.500000
7348		-191.406250
7349		-191.406250
7350		-195.312500
7351		-187.500000
7352		-195.312500
7353		-191.406250
7354		-195.312500
7355		-191.406250
7356		-195.312500
7357		-191.406250
7358		-195.312500
7359		-191.406250
7360		-195.312500
7361		-191.406250
7362		-195.312500
7363		-187.500000
7364		-191.406250
7365		-187.500000
7366		-191.406250
7367		-187.500000
7368		-191.406250
7369		-187.500000
7370		-187.500000
7371		-183.593750
7372		-187.500000
7373		-183.593750
7374		-183.593750
7375		-179.687500
7376		-183.593750
7377		-179.687500
7378		-179.687500
7379		-175.781250
7380		-179.687500
7381		-171.875000
7382		-175.781250
7383		-171.875000
7384		-171.875000
7385		-167.968750
7386		-167.968750
7387		-164.062500
7388		-167.968750
7389		-160.156250
7390		-164.062500
7391		-156.250000
7392		-156.250000
7393		-152.343750
7394		-156.250000
7395		-148.437500
7396		-152.343750
7397		-144.531250
7398		-144.531250
7399		-140.625000
7400		-140.625000
7401		-132.812500
7402		-136.718750
7403		-132.812500
7404		-132.812500
7405		-125.000000
7406		-128.906250
7407		-121.093750
7408		-121.093750
7409		-117.187500
7410		-117.187500
7411		-109.375000
7412		-113.281250
7413		-105.468750
7414		-105.468750
7415		-101.562500
7416		-101.562500
7417		-93.750000
7418		-97.656250
7419		-85.937500
7420		-89.843750
7421		-82.031250
7422		-85.937500
7423		-78.125000
7424		-78.125000
7425		-70.312500
7426		-74.218750
7427		-62.500000
7428		-66.406250
7429		-58.593750
7430		-62.500000
7431		-54.687500
7432		-54.687500
7433		-46.875000
7434		-46.875000
7435		-39.062500
7436		-42.968750
7437		-35.156250
7438		-39.062500
7439		-27.343750
7440		-31.250000
7441		-23.437500
7442		-23.437500
7443		-15.625000
7444		-19.531250
7445		-7.812500
7446		-11.718750
7447		0.000000
7448		-3.906250
7449		3.906250
7450		0.000000
7451		11.718750
7452		3.906250
7453		15.625000
7454		15.625000
7455		23.437500
7456		19.531250
7457		27.343750
7458		27.343750
7459		35.156250
7460		31.250000
7461		39.062500
7462		39.062500
7463		46.875000
7464		42.968750
7465		50.781250
7466		50.781250
7467		58.593750
7468		54.687500
7469		66.406250
7470		62.500000
7471		66.406250
7472		62.500000
7473		74.218750
7474		70.312500
7475		78.125000
7476		78.125000
7477		85.937500
7478		82.031250
7479		89.843750
7480		85.937500
7481		93.750000
7482		93.750000
7483		97.656250
7484		97.656250
7485		105.468750
7486		101.562500
7487		109.375000
7488		105.468750
7489		113.281250
7490		113.281250
7491		117.187500
7492		117.187500
7493		121.093750
7494		121.093750
7495		128.906250
7496		121.093750
7497		132.812500
7498		128.906250
7499		136.718750
7500		132.812500
7501		140.625000
7502		132.812500
7503		144.531250
7504		140.625000
7505		148.437500
7506		144.531250
7507		148.437500
7508		148.437500
7509		152.343750
7510		148.437500
7511		156.250000
7512		152.343750
7513		160.156250
7514		152.343750
7515		160.156250
7516		160.156250
7517		164.062500
7518		160.156250
7519		171.875000
7520		160.156250
7521		171.875000
7522		164.062500
7523		171.875000
7524		167.968750
7525		175.781250
7526		171.875000
7527		175.781250
7528		171.875000
7529		179.687500
7530		171.875000
7531		183.593750
7532		175.781250
7533		183.593750
7534		179.687500
7535		183.593750
7536		175.781250
7537		187.500000
7538		179.687500
7539		187.500000
7540		183.593750
7541		187.500000
7542		183.593750
7543		187.500000
7544		183.593750
7545		191.406250
7546		183.593750
7547		191.406250
7548		187.500000
7549		191.406250
7550		187.500000
7551		191.406250
7552		183.593750
7553		195.312500
7554		187.500000
7555		195.312500
7556		187.500000
7557		195.312500
7558		187.500000
7559		191.406250
7560		187.500000
7561		191.406250
7562		187.500000
7563		195.312500
7564		187.500000
7565		191.406250
7566		187.500000
7567		191.406250
7568		183.593750
7569		191.406250
7570		183.593750
7571		195.312500
7572		183.593750
7573		191.406250
7574		183.593750
7575		187.500000
7576		183.593750
7577		187.500000
7578		179.687500
7579		187.500000
7580		179.687500
7581		187.500000
7582		179.687500
7583		183.593750
7584		179.687500
7585		183.593750
7586		171.875000
7587		183.593750
7588		171.875000
7589		179.687500
7590		171.875000
7591		175.781250
7592		167.968750
7593		175.781250
7594		167.968750
7595		171.875000
7596		164.062500
7597		171.875000
7598		160.156250
7599		167.968750
7600		160.156250
7601		164.062500
7602		152.343750
7603		164.062500
7604		152.343750
7605		160.156250
7606		148.437500
7607		156.250000
7608		148.437500
7609		152.343750
7610		144.531250
7611		148.437500
7612		140.625000
7613		144.531250
7614		136.718750
7615		144.531250
7616		132.812500
7617		140.625000
7618		128.906250
7619		132.812500
7620		121.093750
7621		132.812500
7622		117.187500
7623		125.000000
7624		113.281250
7625		121.093750
7626		109.375000
7627		117.187500
7628		105.468750
7629		113.281250
7630		97.656250
7631		109.375000
7632		93.750000
7633		101.562500
7634		89.843750
7635		97.656250
7636		85.937500
7637		93.750000
7638		78.125000
7639		85.937500
7640		74.218750
7641		82.031250
7642		70.312500
7643		74.218750
7644		62.500000
7645		70.312500
7646		54.687500
7647		66.406250
7648		50.781250
7649		58.593750
7650		46.875000
7651		54.687500
7652		39.062500
7653		46.875000
7654		35.156250
7655		42.968750
7656		27.343750
7657		35.156250
7658		19.531250
7659		27.343750
7660		15.625000
7661		23.437500
7662		7.812500
7663		15.625000
7664		3.906250
7665		11.718750
7666		-3.906250
7667		3.906250
7668		-7.812500
7669		0.000000
7670		-15.625000
7671		-7.812500
7672		-23.437500
7673		-15.625000
7674		-27.343750
7675		-19.531250
7676		-35.156250
7677		-27.343750
7678		-39.062500
7679		-31.250000
7680		-46.875000
7681		-39.062500
7682		-50.781250
7683		-42.968750
7684		-58.593750
7685		-50.781250
7686		-62.500000
7687		-54.687500
7688		-70.312500
7689		-62.500000
7690		-78.125000
7691		-70.312500
7692		-82.031250
7693		-74.218750
7694		-89.843750
7695		-82.031250
7696		-93.750000
7697		-85.937500
7698		-97.656250
7699		-89.843750
7700		-105.468750
7701		-97.656250
7702		-109.375000
7703		-101.562500
7704		-113.281250
7705		-109.375000
7706		-121.093750
7707		-113.281250
7708		-125.000000
7709		-117.187500
7710		-128.906250
7711		-125.000000
7712		-136.718750
7713		-128.906250
7714		-140.625000
7715		-132.812500
7716		-144.531250
7717		-136.718750
7718		-148.437500
7719		-140.625000
7720		-152.343750
7721		-144.531250
7722		-156.250000
7723		-148.437500
7724		-160.156250
7725		-152.343750
7726		-164.062500
7727		-156.250000
7728		-167.968750
7729		-160.156250
7730		-171.875000
7731		-164.062500
7732		-175.781250
7733		-167.968750
7734		-175.781250
7735		-167.968750
7736		-179.687500
7737		-171.875000
7738		-183.593750
7739		-175.781250
7740		-183.593750
7741		-179.687500
7742		-187.500000
7743		-183.593750
7744		-187.500000
7745		-183.593750
7746		-191.406250
7747		-183.593750
7748		-191.406250
7749		-187.500000
7750		-195.312500
7751		-187.500000
7752		-195.312500
7753		-187.500000
7754		-195.312500
7755		-191.406250
7756		-195.312500
7757		-191.406250
7758		-195.312500
7759		-191.406250
7760		-195.312500
7761		-191.406250
7762		-195.312500
7763		-191.406250
7764		-195.312500
7765		-191.406250
7766		-195.312500
7767		-191.406250
7768		-195.312500
7769		-191.406250
7770		-195.312500
7771		-187.500000
7772		-195.312500
7773		-187.500000
7774		-191.406250
7775		-187.500000
7776		-191.406250
7777		-187.500000
7778		-187.500000
7779		-183.593750
7780		-187.500000
7781		-183.593750
7782		-183.593750
7783		-179.687500
7784		-183.593750
7785		-175.781250
7786		-179.687500
7787		-175.781250
7788		-179.687500
7789		-171.875000
7790		-175.781250
7791		-167.968750
7792		-171.875000
7793		-167.968750
7794		-167.968750
7795		-164.062500
7796		-164.062500
7797		-160.156250
7798		-164.062500
7799		-156.250000
7800		-160.156250
7801		-152.343750
7802		-156.250000
7803		-148.437500
7804		-152.343750
7805		-144.531250
7806		-144.531250
7807		-140.625000
7808		-144.531250
7809		-132.812500
7810		-136.718750
7811		-128.906250
7812		-132.812500
7813		-125.000000
7814		-128.906250
7815		-121.093750
7816		-121.093750
7817		-113.281250
7818		-117.187500
7819		-109.375000
7820		-113.281250
7821		-105.468750
7822		-105.468750
7823		-97.656250
7824		-101.562500
7825		-93.750000
7826		-97.656250
7827		-89.843750
7828		-89.843750
7829		-82.031250
7830		-85.937500
7831		-78.125000
7832		-78.125000
7833		-70.312500
7834		-74.218750
7835		-62.500000
7836		-66.406250
7837		-58.593750
7838		-58.593750
7839		-50.781250
7840		-54.687500
7841		-46.875000
7842		-46.875000
7843		-39.062500
7844		-42.968750
7845		-35.156250
7846		-35.156250
7847		-27.343750
7848		-31.250000
7849		-19.531250
7850		-23.437500
7851		-15.625000
7852		-15.625000
7853		-7.812500
7854		-11.718750
7855		-3.906250
7856		-3.906250
7857		3.906250
7858		0.000000
7859		7.812500
7860		7.812500
7861		15.625000
7862		15.625000
7863		23.437500
7864		19.531250
7865		27.343750
7866		27.343750
7867		35.156250
7868		31.250000
7869		42.968750
7870		35.156250
7871		46.875000
7872		42.968750
7873		50.781250
7874		50.781250
7875		58.593750
7876		54.687500
7877		62.500000
7878		62.500000
7879		70.312500
7880		66.406250
7881		74.218750
7882		70.312500
7883		78.125000
7884		78.125000
7885		85.937500
7886		82.031250
7887		89.843750
7888		89.843750
7889		93.750000
7890		93.750000
7891		101.562500
7892		97.656250
7893		105.468750
7894		101.562500
7895		109.375000
7896		109.375000
7897		113.281250
7898		109.375000
7899		117.187500
7900		117.187500
7901		121.093750
7902		121.093750
7903		125.000000
7904		125.000000
7905		132.812500
7906		128.906250
7907		136.718750
7908		132.812500
7909		140.625000
7910		136.718750
7911		140.625000
7912		140.625000
7913		144.531250
7914		144.531250
7915		148.437500
7916		148.437500
7917		152.343750
7918		148.437500
7919		156.250000
7920		152.343750
7921		160.156250
7922		156.250000
7923		160.156250
7924		160.156250
7925		164.062500
7926		160.156250
7927		167.968750
7928		164.062500
7929		167.968750
7930		167.968750
7931		171.875000
7932		167.968750
7933		171.875000
7934		171.875000
7935		175.781250
7936		171.875000
7937		179.687500
7938		175.781250
7939		179.687500
7940		175.781250
7941		183.593750
7942		179.687500
7943		183.593750
7944		179.687500
7945		183.593750
7946		183.593750
7947		187.500000
7948		179.687500
7949		187.500000
7950		183.593750
7951		187.500000
7952		183.593750
7953		191.406250
7954		187.500000
7955		187.500000
7956		187.500000
7957		191.406250
7958		187.500000
7959		191.406250
7960		187.500000
7961		191.406250
7962		187.500000
7963		191.406250
7964		187.500000
7965		191.406250
7966		187.500000
7967		191.406250
7968		187.500000
7969		191.406250
7970		187.500000
7971		191.406250
7972		187.500000
7973		191.406250
7974		187.500000
7975		191.406250
7976		187.500000
7977		191.406250
7978		187.500000
7979		187.500000
7980		183.593750
7981		187.500000
7982		183.593750
7983		187.500000
7984		183.593750
7985		187.500000
7986		179.687500
7987		183.593750
7988		179.687500
7989		183.593750
7990		179.687500
7991		183.593750
7992		175.781250
7993		179.687500
7994		175.781250
7995		179.687500
7996		171.875000
7997		175.781250
7998		171.875000
7999		175.781250
8000		167.968750
8001		171.875000
8002		164.062500
8003		171.875000
8004		164.062500
8005		167.968750
8006		160.156250
8007		164.062500
8008		156.250000
8009		164.062500
8010		156.250000
8011		160.156250
8012		152.343750
8013		156.250000
8014		148.437500
8015		152.343750
8016		144.531250
8017		148.437500
8018		140.625000
8019		148.437500
8020		136.718750
8021		144.531250
8022		132.812500
8023		140.625000
8024		128.906250
8025		136.718750
8026		125.000000
8027		132.812500
8028		121.093750
8029		128.906250
8030		117.187500
8031		121.093750
8032		113.281250
8033		121.093750
8034		105.468750
8035		113.281250
8036		101.562500
8037		109.375000
8038		97.656250
8039		105.468750
8040		93.750000
8041		97.656250
8042		85.937500
8043		93.750000
8044		82.031250
8045		89.843750
8046		78.125000
8047		82.031250
8048		70.312500
8049		78.125000
8050		66.406250
8051		74.218750
8052		58.593750
8053		66.406250
8054		54.687500
8055		62.500000
8056		46.875000
8057		54.687500
8058		42.968750
8059		50.781250
8060		35.156250
8061		42.968750
8062		31.250000
8063		39.062500
8064		23.437500
8065		31.250000
8066		19.531250
8067		27.343750
8068		11.718750
8069		19.531250
8070		3.906250
8071		15.625000
8072		0.000000
8073		7.812500
8074		-7.812500
8075		3.906250
8076		-11.718750
8077		-3.906250
8078		-19.531250
8079		-11.718750
8080		-23.437500
8081		-15.625000
8082		-31.250000
8083		-23.437500
8084		-35.156250
8085		-31.250000
8086		-42.968750
8087		-35.156250
8088		-50.781250
8089		-42.968750
8090		-54.687500
8091		-46.875000
8092		-62.500000
8093		-54.687500
8094		-66.406250
8095		-58.593750
8096		-74.218750
8097		-66.406250
8098		-78.125000
8099		-70.312500
8100		-85.937500
8101		-78.125000
8102		-89.843750
8103		-82.031250
8104		-97.656250
8105		-89.843750
8106		-101.562500
8107		-93.750000
8108		-109.375000
8109		-101.562500
8110		-113.281250
8111		-105.468750
8112		-117.187500
8113		-109.375000
8114		-121.093750
8115		-117.187500
8116		-128.906250
8117		-121.093750
8118		-132.812500
8119		-125.000000
8120		-136.718750
8121		-132.812500
8122		-140.625000
8123		-136.718750
8124		-148.437500
8125		-140.625000
8126		-152.343750
8127		-144.531250
8128		-156.250000
8129		-148.437500
8130		-160.156250
8131		-152.343750
8132		-164.062500
8133		-156.250000
8134		-164.062500
8135		-160.156250
8136		-167.968750
8137		-164.062500
8138		-171.875000
8139		-167.968750
8140		-175.781250
8141		-171.875000
8142		-179.687500
8143		-171.875000
8144		-179.687500
8145		-175.781250
8146		-183.593750
8147		-179.687500
8148		-183.593750
8149		-179.687500
8150		-187.500000
8151		-183.593750
8152		-187.500000
8153		-183.593750
8154		-191.406250
8155		-187.500000
8156		-191.406250
8157		-187.500000
8158		-195.312500
8159		-191.406250
8160		-195.312500
8161		-191.406250
8162		-195.312500
8163		-191.406250
8164		-195.312500
8165		-191.406250
8166		-195.312500
8167		-191.406250
8168		-195.312500
8169		-195.312500
8170		-195.312500
8171		-191.406250
8172		-195.312500
8173		-195.312500
8174		-195.312500
8175		-191.406250
8176		-195.312500
8177		-191.406250
8178		-195.312500
8179		-191.406250
8180		-195.312500
8181		-191.406250
8182		-191.406250
8183		-187.500000
8184		-191.406250
8185		-187.500000
8186		-191.406250
8187		-183.593750
8188		-187.500000
8189		-183.593750
8190		-183.593750
8191		-179.687500
8192		-183.593750
8193		-179.687500
8194		-179.687500
8195		-175.781250
8196		-179.687500
8197		-171.875000
8198		-175.781250
8199		-171.875000
8200		-171.875000
8201		-167.968750
8202		-167.968750
8203		-164.062500
8204		-164.062500
8205		-160.156250
8206		-160.156250
8207		-156.250000
8208		-156.250000
8209		-152.343750
8210		-156.250000
8211		-148.437500
8212		-152.343750
8213		-144.531250
8214		-144.531250
8215		-140.625000
8216		-140.625000
8217		-132.812500
8218		-136.718750
8219		-128.906250
8220		-132.812500
8221		-125.000000
8222		-128.906250
8223		-121.093750
8224		-121.093750
8225		-113.281250
8226		-117.187500
8227		-109.375000
8228		-109.375000
8229		-105.468750
8230		-105.468750
8231		-97.656250
8232		-97.656250
8233		-93.750000
8234		-93.750000
8235		-85.937500
8236		-89.843750
8237		-82.031250
8238		-82.031250
8239		-74.218750
8240		-78.125000
8241		-70.312500
8242		-70.312500
8243		-62.500000
8244		-62.500000
8245		-54.687500
8246		-58.593750
8247		-50.781250
8248		-50.781250
8249		-42.968750
8250		-46.875000
8251		-39.062500
8252		-39.062500
8253		-31.250000
8254		-35.156250
8255		-27.343750
8256		-27.343750
8257		-19.531250
8258		-19.531250
8259		-11.718750
8260		-15.625000
8261		-7.812500
8262		-7.812500
8263		0.000000
8264		-3.906250
8265		3.906250
8266		3.906250
8267		11.718750
8268		11.718750
8269		19.531250
8270		15.625000
8271		23.437500
8272		23.437500
8273		31.250000
8274		27.343750
8275		35.156250
8276		35.156250
8277		42.968750
8278		39.062500
8279		46.875000
8280		46.875000
8281		54.687500
8282		50.781250
8283		58.593750
8284		58.593750
8285		66.406250
8286		62.500000
8287		70.312500
8288		70.312500
8289		74.218750
8290		74.218750
8291		82.031250
8292		78.125000
8293		85.937500
8294		82.031250
8295		93.750000
8296		89.843750
8297		97.656250
8298		93.750000
8299		101.562500
8300		97.656250
8301		105.468750
8302		105.468750
8303		109.375000
8304		109.375000
8305		113.281250
8306		113.281250
8307		121.093750
8308		117.187500
8309		125.000000
8310		121.093750
8311		128.906250
8312		125.000000
8313		132.812500
8314		128.906250
8315		136.718750
8316		132.812500
8317		140.625000
8318		136.718750
8319		144.531250
8320		140.625000
8321		148.437500
8322		144.531250
8323		148.437500
8324		148.437500
8325		156.250000
8326		152.343750
8327		156.250000
8328		152.343750
8329		160.156250
8330		156.250000
8331		164.062500
8332		160.156250
8333		164.062500
8334		164.062500
8335		167.968750
8336		164.062500
8337		171.875000
8338		167.968750
8339		171.875000
8340		171.875000
8341		175.781250
8342		171.875000
8343		175.781250
8344		175.781250
8345		179.687500
8346		175.781250
8347		179.687500
8348		175.781250
8349		179.687500
8350		179.687500
8351		183.593750
8352		179.687500
8353		183.593750
8354		179.687500
8355		183.593750
8356		183.593750
8357		187.500000
8358		183.593750
8359		187.500000
8360		183.593750
8361		187.500000
8362		183.593750
8363		191.406250
8364		187.500000
8365		191.406250
8366		187.500000
8367		191.406250
8368		187.500000
8369		191.406250
8370		187.500000
8371		191.406250
8372		187.500000
8373		191.406250
8374		187.500000
8375		191.406250
8376		187.500000
8377		191.406250
8378		187.500000
8379		191.406250
8380		187.500000
8381		191.406250
8382		187.500000
8383		191.406250
8384		183.593750
8385		187.500000
8386		183.593750
8387		187.500000
8388		183.593750
8389		187.500000
8390		183.593750
8391		187.500000
8392		179.687500
8393		183.593750
8394		179.687500
8395		183.593750
8396		179.687500
8397		183.593750
8398		175.781250
8399		179.687500
8400		175.781250
8401		179.687500
8402		171.875000
8403		179.687500
8404		171.875000
8405		175.781250
8406		167.968750
8407		171.875000
8408		167.968750
8409		171.875000
8410		164.062500
8411		167.968750
8412		160.156250
8413		164.062500
8414		160.156250
8415		164.062500
8416		156.250000
8417		160.156250
8418		152.343750
8419		156.250000
8420		148.437500
8421		156.250000
8422		144.531250
8423		152.343750
8424		140.625000
8425		148.437500
8426		136.718750
8427		144.531250
8428		136.718750
8429		140.625000
8430		132.812500
8431		136.718750
8432		128.906250
8433		132.812500
8434		121.093750
8435		128.906250
8436		117.187500
8437		125.000000
8438		113.281250
8439		121.093750
8440		109.375000
8441		117.187500
8442		105.468750
8443		109.375000
8444		97.656250
8445		105.468750
8446		93.750000
8447		101.562500
8448		89.843750
8449		97.656250
8450		85.937500
8451		89.843750
8452		78.125000
8453		85.937500
8454		70.312500
8455		82.031250
8456		66.406250
8457		74.218750
8458		62.500000
8459		70.312500
8460		54.687500
8461		62.500000
8462		50.781250
8463		58.593750
8464		42.968750
8465		50.781250
8466		39.062500
8467		46.875000
8468		31.250000
8469		39.062500
8470		27.343750
8471		35.156250
8472		19.531250
8473		27.343750
8474		15.625000
8475		23.437500
8476		7.812500
8477		15.625000
8478		3.906250
8479		11.718750
8480		-3.906250
8481		3.906250
8482		-11.718750
8483		-3.906250
8484		-15.625000
8485		-7.812500
8486		-23.437500
8487		-15.625000
8488		-27.343750
8489		-19.531250
8490		-35.156250
8491		-27.343750
8492		-42.968750
8493		-31.250000
8494		-46.875000
8495		-39.062500
8496		-54.687500
8497		-46.875000
8498		-58.593750
8499		-50.781250
8500		-66.406250
8501		-58.593750
8502		-70.312500
8503		-62.500000
8504		-78.125000
8505		-70.312500
8506		-82.031250
8507		-74.218750
8508		-89.843750
8509		-82.031250
8510		-93.750000
8511		-85.937500
8512		-101.562500
8513		-93.750000
8514		-105.468750
8515		-97.656250
8516		-109.375000
8517		-105.468750
8518		-117.187500
8519		-109.375000
8520		-121.093750
8521		-113.281250
8522		-125.000000
8523		-121.093750
8524		-132.812500
8525		-125.000000
8526		-136.718750
8527		-128.906250
8528		-140.625000
8529		-132.812500
8530		-144.531250
8531		-140.625000
8532		-148.437500
8533		-144.531250
8534		-152.343750
8535		-148.437500
8536		-156.250000
8537		-152.343750
8538		-160.156250
8539		-156.250000
8540		-164.062500
8541		-160.156250
8542		-167.968750
8543		-164.062500
8544		-171.875000
8545		-167.968750
8546		-175.781250
8547		-167.968750
8548		-175.781250
8549		-171.875000
8550		-179.687500
8551		-175.781250
8552		-183.593750
8553		-179.687500
8554		-187.500000
8555		-179.687500
8556		-187.500000
8557		-183.593750
8558		-191.406250
8559		-183.593750
8560		-191.406250
8561		-187.500000
8562		-191.406250
8563		-187.500000
8564		-195.312500
8565		-191.406250
8566		-195.312500
8567		-191.406250
8568		-195.312500
8569		-191.406250
8570		-199.218750
8571		-191.406250
8572		-199.218750
8573		-191.406250
8574		-199.218750
8575		-195.312500
8576		-199.218750
8577		-195.312500
8578		-199.218750
8579		-195.312500
8580		-199.218750
8581		-195.312500
8582		-199.218750
8583		-195.312500
8584		-195.312500
8585		-191.406250
8586		-195.312500
8587		-191.406250
8588		-195.312500
8589		-191.406250
8590		-195.312500
8591		-191.406250
8592		-191.406250
8593		-187.500000
8594		-191.406250
8595		-183.593750
8596		-187.500000
8597		-183.593750
8598		-187.500000
8599		-179.687500
8600		-183.593750
8601		-179.687500
8602		-179.687500
8603		-175.781250
8604		-179.687500
8605		-171.875000
8606		-175.781250
8607		-171.875000
8608		-171.875000
8609		-167.968750
8610		-167.968750
8611		-164.062500
8612		-164.062500
8613		-160.156250
8614		-160.156250
8615		-156.250000
8616		-156.250000
8617		-152.343750
8618		-152.343750
8619		-148.437500
8620		-148.437500
8621		-144.531250
8622		-144.531250
8623		-140.625000
8624		-140.625000
8625		-132.812500
8626		-136.718750
8627		-128.906250
8628		-128.906250
8629		-121.093750
8630		-125.000000
8631		-117.187500
8632		-121.093750
8633		-113.281250
8634		-117.187500
8635		-109.375000
8636		-109.375000
8637		-101.562500
8638		-105.468750
8639		-97.656250
8640		-97.656250
8641		-89.843750
8642		-93.750000
8643		-85.937500
8644		-89.843750
8645		-78.125000
8646		-82.031250
8647		-74.218750
8648		-74.218750
8649		-66.406250
8650		-70.312500
8651		-62.500000
8652		-62.500000
8653		-54.687500
8654		-58.593750
8655		-50.781250
8656		-50.781250
8657		-42.968750
8658		-46.875000
8659		-35.156250
8660		-39.062500
8661		-31.250000
8662		-31.250000
8663		-23.437500
8664		-27.343750
8665		-19.531250
8666		-19.531250
8667		-11.718750
8668		-15.625000
8669		-3.906250
8670		-7.812500
8671		0.000000
8672		0.000000
8673		7.812500
8674		3.906250
8675		11.718750
8676		11.718750
8677		19.531250
8678		15.625000
8679		27.343750
8680		23.437500
8681		31.250000
8682		27.343750
8683		39.062500
8684		35.156250
8685		42.968750
8686		42.968750
8687		50.781250
8688		46.875000
8689		54.687500
8690		54.687500
8691		58.593750
8692		58.593750
8693		66.406250
8694		62.500000
8695		70.312500
8696		70.312500
8697		78.125000
8698		74.218750
8699		82.031250
8700		82.031250
8701		85.937500
8702		85.937500
8703		93.750000
8704		89.843750
8705		97.656250
8706		93.750000
8707		101.562500
8708		101.562500
8709		105.468750
8710		105.468750
8711		109.375000
8712		109.375000
8713		117.187500
8714		113.281250
8715		121.093750
8716		117.187500
8717		125.000000
8718		121.093750
8719		128.906250
8720		125.000000
8721		132.812500
8722		128.906250
8723		136.718750
8724		132.812500
8725		140.625000
8726		136.718750
8727		144.531250
8728		140.625000
8729		148.437500
8730		144.531250
8731		148.437500
8732		148.437500
8733		152.343750
8734		152.343750
8735		156.250000
8736		152.343750
8737		160.156250
8738		156.250000
8739		164.062500
8740		160.156250
8741		164.062500
8742		164.062500
8743		167.968750
8744		164.062500
8745		171.875000
8746		167.968750
8747		171.875000
8748		167.968750
8749		175.781250
8750		171.875000
8751		175.781250
8752		171.875000
8753		175.781250
8754		175.781250
8755		179.687500
8756		175.781250
8757		179.687500
8758		179.687500
8759		183.593750
8760		179.687500
8761		183.593750
8762		179.687500
8763		183.593750
8764		183.593750
8765		187.500000
8766		183.593750
8767		187.500000
8768		183.593750
8769		187.500000
8770		183.593750
8771		187.500000
8772		183.593750
8773		187.500000
8774		187.500000
8775		191.406250
8776		183.593750
8777		191.406250
8778		187.500000
8779		191.406250
8780		187.500000
8781		191.406250
8782		187.500000
8783		191.406250
8784		187.500000
8785		191.406250
8786		187.500000
8787		191.406250
8788		183.593750
8789		187.500000
8790		183.593750
8791		187.500000
8792		183.593750
8793		191.406250
8794		183.593750
8795		187.500000
8796		183.593750
8797		187.500000
8798		179.687500
8799		183.593750
8800		179.687500
8801		183.593750
8802		179.687500
8803		183.593750
8804		175.781250
8805		179.687500
8806		175.781250
8807		179.687500
8808		171.875000
8809		179.687500
8810		171.875000
8811		175.781250
8812		167.968750
8813		175.781250
8814		167.968750
8815		171.875000
8816		164.062500
8817		167.968750
8818		160.156250
8819		167.968750
8820		160.156250
8821		164.062500
8822		156.250000
8823		164.062500
8824		152.343750
8825		160.156250
8826		148.437500
8827		156.250000
8828		148.437500
8829		152.343750
8830		144.531250
8831		148.437500
8832		140.625000
8833		144.531250
8834		136.718750
8835		144.531250
8836		132.812500
8837		140.625000
8838		128.906250
8839		132.812500
8840		125.000000
8841		128.906250
8842		121.093750
8843		125.000000
8844		113.281250
8845		121.093750
8846		109.375000
8847		117.187500
8848		105.468750
8849		113.281250
8850		101.562500
8851		109.375000
8852		97.656250
8853		101.562500
8854		89.843750
8855		97.656250
8856		85.937500
8857		93.750000
8858		82.031250
8859		85.937500
8860		74.218750
8861		85.937500
8862		70.312500
8863		78.125000
8864		62.500000
8865		70.312500
8866		58.593750
8867		66.406250
8868		54.687500
8869		62.500000
8870		46.875000
8871		54.687500
8872		39.062500
8873		50.781250
8874		35.156250
8875		42.968750
8876		27.343750
8877		39.062500
8878		23.437500
8879		31.250000
8880		15.625000
8881		23.437500
8882		11.718750
8883		19.531250
8884		3.906250
8885		11.718750
8886		-3.906250
8887		7.812500
8888		-7.812500
8889		0.000000
8890		-15.625000
8891		-3.906250
8892		-19.531250
8893		-11.718750
8894		-27.343750
8895		-19.531250
8896		-31.250000
8897		-23.437500
8898		-39.062500
8899		-31.250000
8900		-42.968750
8901		-35.156250
8902		-50.781250
8903		-42.968750
8904		-58.593750
8905		-50.781250
8906		-62.500000
8907		-54.687500
8908		-70.312500
8909		-62.500000
8910		-74.218750
8911		-66.406250
8912		-82.031250
8913		-74.218750
8914		-85.937500
8915		-78.125000
8916		-93.750000
8917		-82.031250
8918		-97.656250
8919		-89.843750
8920		-101.562500
8921		-97.656250
8922		-109.375000
8923		-101.562500
8924		-117.187500
8925		-105.468750
8926		-121.093750
8927		-113.281250
8928		-125.000000
8929		-117.187500
8930		-128.906250
8931		-121.093750
8932		-132.812500
8933		-128.906250
8934		-140.625000
8935		-132.812500
8936		-144.531250
8937		-136.718750
8938		-148.437500
8939		-140.625000
8940		-152.343750
8941		-144.531250
8942		-156.250000
8943		-152.343750
8944		-160.156250
8945		-156.250000
8946		-164.062500
8947		-160.156250
8948		-167.968750
8949		-160.156250
8950		-171.875000
8951		-164.062500
8952		-175.781250
8953		-167.968750
8954		-175.781250
8955		-171.875000
8956		-179.687500
8957		-175.781250
8958		-183.593750
8959		-179.687500
8960		-187.500000
8961		-179.687500
8962		-187.500000
8963		-183.593750
8964		-191.406250
8965		-183.593750
8966		-191.406250
8967		-187.500000
8968		-195.312500
8969		-187.500000
8970		-195.312500
8971		-191.406250
8972		-195.312500
8973		-191.406250
8974		-195.312500
8975		-195.312500
8976		-199.218750
8977		-195.312500
8978		-199.218750
8979		-195.312500
8980		-199.218750
8981		-195.312500
8982		-199.218750
8983		-195.312500
8984		-199.218750
8985		-195.312500
8986		-199.218750
8987		-195.312500
8988		-199.218750
8989		-195.312500
8990		-199.218750
8991		-195.312500
8992		-199.218750
8993		-195.312500
8994		-195.312500
8995		-191.406250
8996		-195.312500
8997		-191.406250
8998		-195.312500
8999		-191.406250
9000		-191.406250
9001		-187.500000
9002		-191.406250
9003		-187.500000
9004		-187.500000
9005		-183.593750
9006		-187.500000
9007		-183.593750
9008		-183.593750
9009		-179.687500
9010		-179.687500
9011		-175.781250
9012		-179.687500
9013		-171.875000
9014		-175.781250
9015		-171.875000
9016		-171.875000
9017		-167.968750
9018		-167.968750
9019		-164.062500
9020		-164.062500
9021		-160.156250
9022		-160.156250
9023		-156.250000
9024		-156.250000
9025		-152.343750
9026		-152.343750
9027		-144.531250
9028		-148.437500
9029		-144.531250
9030		-144.531250
9031		-136.718750
9032		-140.625000
9033		-132.812500
9034		-136.718750
9035		-128.906250
9036		-128.906250
9037		-125.000000
9038		-125.000000
9039		-117.187500
9040		-121.093750
9041		-113.281250
9042		-113.281250
9043		-105.468750
9044		-109.375000
9045		-101.562500
9046		-101.562500
9047		-97.656250
9048		-97.656250
9049		-89.843750
9050		-93.750000
9051		-85.937500
9052		-85.937500
9053		-78.125000
9054		-78.125000
9055		-70.312500
9056		-78.125000
9057		-66.406250
9058		-70.312500
9059		-58.593750
9060		-62.500000
9061		-54.687500
9062		-54.687500
9063		-46.875000
9064		-50.781250
9065		-42.968750
9066		-42.968750
9067		-35.156250
9068		-39.062500
9069		-31.250000
9070		-31.250000
9071		-23.437500
9072		-23.437500
9073		-15.625000
9074		-19.531250
9075		-11.718750
9076		-11.718750
9077		-3.906250
9078		-7.812500
9079		0.000000
9080		0.000000
9081		7.812500
9082		7.812500
9083		15.625000
9084		11.718750
9085		19.531250
9086		19.531250
9087		27.343750
9088		23.437500
9089		31.250000
9090		31.250000
9091		39.062500
9092		35.156250
9093		42.968750
9094		42.968750
9095		50.781250
9096		46.875000
9097		54.687500
9098		54.687500
9099		62.500000
9100		58.593750
9101		66.406250
9102		66.406250
9103		74.218750
9104		70.312500
9105		78.125000
9106		74.218750
9107		85.937500
9108		82.031250
9109		89.843750
9110		85.937500
9111		93.750000
9112		89.843750
9113		97.656250
9114		93.750000
9115		101.562500
9116		101.562500
9117		109.375000
9118		105.468750
9119		113.281250
9120		109.375000
9121		117.187500
9122		113.281250
9123		121.093750
9124		117.187500
9125		125.000000
9126		121.093750
9127		128.906250
9128		128.906250
9129		132.812500
9130		128.906250
9131		136.718750
9132		132.812500
9133		140.625000
9134		136.718750
9135		144.531250
9136		140.625000
9137		148.437500
9138		144.531250
9139		148.437500
9140		148.437500
9141		152.343750
9142		152.343750
9143		156.250000
9144		152.343750
9145		160.156250
9146		156.250000
9147		160.156250
9148		160.156250
9149		164.062500
9150		164.062500
9151		167.968750
9152		164.062500
9153		167.968750
9154		167.968750
9155		171.875000
9156		167.968750
9157		175.781250
9158		171.875000
9159		175.781250
9160		171.875000
9161		175.781250
9162		175.781250
9163		179.687500
9164		175.781250
9165		179.687500
9166		179.687500
9167		183.593750
9168		179.687500
9169		183.593750
9170		179.687500
9171		183.593750
9172		183.593750
9173		183.593750
9174		183.593750
9175		187.500000
9176		183.593750
9177		187.500000
9178		183.593750
9179		187.500000
9180		183.593750
9181		187.500000
9182		183.593750
9183		187.500000
9184		183.593750
9185		187.500000
9186		183.593750
9187		187.500000
9188		183.593750
9189		187.500000
9190		183.593750
9191		191.406250
9192		183.593750
9193		187.500000
9194		183.593750
9195		187.500000
9196		183.593750
9197		187.500000
9198		183.593750
9199		187.500000
9200		183.593750
9201		187.500000
9202		183.593750
9203		187.500000
9204		179.687500
9205		183.593750
9206		179.687500
9207		183.593750
9208		175.781250
9209		183.593750
9210		175.781250
9211		179.687500
9212		175.781250
9213		179.687500
9214		171.875000
9215		179.687500
9216		171.875000
9217		175.781250
9218		167.968750
9219		171.875000
9220		167.968750
9221		171.875000
9222		164.062500
9223		171.875000
9224		160.156250
9225		167.968750
9226		160.156250
9227		164.062500
9228		156.250000
9229		160.156250
9230		152.343750
9231		160.156250
9232		152.343750
9233		156.250000
9234		148.437500
9235		152.343750
9236		144.531250
9237		152.343750
9238		140.625000
9239		144.531250
9240		136.718750
9241		144.531250
9242		132.812500
9243		140.625000
9244		128.906250
9245		136.718750
9246		125.000000
9247		132.812500
9248		121.093750
9249		125.000000
9250		117.187500
9251		125.000000
9252		113.281250
9253		117.187500
9254		105.468750
9255		113.281250
9256		101.562500
9257		109.375000
9258		97.656250
9259		105.468750
9260		93.750000
9261		101.562500
9262		85.937500
9263		93.750000
9264		82.031250
9265		89.843750
9266		78.125000
9267		85.937500
9268		70.312500
9269		78.125000
9270		66.406250
9271		74.218750
9272		62.500000
9273		66.406250
9274		54.687500
9275		62.500000
9276		46.875000
9277		58.593750
9278		42.968750
9279		50.781250
9280		35.156250
9281		46.875000
9282		31.250000
9283		39.062500
9284		23.437500
9285		31.250000
9286		19.531250
9287		27.343750
9288		11.718750
9289		23.437500
9290		7.812500
9291		15.625000
9292		0.000000
9293		7.812500
9294		-3.906250
9295		3.906250
9296		-11.718750
9297		-3.906250
9298		-19.531250
9299		-7.812500
9300		-23.437500
9301		-15.625000
9302		-31.250000
9303		-23.437500
9304		-35.156250
9305		-27.343750
9306		-42.968750
9307		-35.156250
9308		-50.781250
9309		-42.968750
9310		-54.687500
9311		-46.875000
9312		-62.500000
9313		-54.687500
9314		-66.406250
9315		-58.593750
9316		-74.218750
9317		-66.406250
9318		-82.031250
9319		-70.312500
9320		-85.937500
9321		-78.125000
9322		-89.843750
9323		-82.031250
9324		-97.656250
9325		-89.843750
9326		-101.562500
9327		-93.750000
9328		-105.468750
9329		-101.562500
9330		-113.281250
9331		-105.468750
9332		-121.093750
9333		-113.281250
9334		-125.000000
9335		-117.187500
9336		-128.906250
9337		-121.093750
9338		-132.812500
9339		-125.000000
9340		-140.625000
9341		-132.812500
9342		-144.531250
9343		-136.718750
9344		-148.437500
9345		-140.625000
9346		-152.343750
9347		-144.531250
9348		-156.250000
9349		-148.437500
9350		-160.156250
9351		-152.343750
9352		-164.062500
9353		-160.156250
9354		-167.968750
9355		-160.156250
9356		-171.875000
9357		-167.968750
9358		-175.781250
9359		-167.968750
9360		-175.781250
9361		-171.875000
9362		-179.687500
9363		-175.781250
9364		-183.593750
9365		-179.687500
9366		-187.500000
9367		-183.593750
9368		-187.500000
9369		-183.593750
9370		-191.406250
9371		-187.500000
9372		-191.406250
9373		-187.500000
9374		-195.312500
9375		-191.406250
9376		-195.312500
9377		-191.406250
9378		-199.218750
9379		-191.406250
9380		-199.218750
9381		-195.312500
9382		-199.218750
9383		-195.312500
9384		-199.218750
9385		-195.312500
9386		-203.125000
9387		-199.218750
9388		-203.125000
9389		-199.218750
9390		-203.125000
9391		-199.218750
9392		-199.218750
9393		-195.312500
9394		-203.125000
9395		-195.312500
9396		-203.125000
9397		-195.312500
9398		-199.218750
9399		-195.312500
9400		-199.218750
9401		-195.312500
9402		-199.218750
9403		-195.312500
9404		-195.312500
9405		-191.406250
9406		-195.312500
9407		-191.406250
9408		-195.312500
9409		-191.406250
9410		-195.312500
9411		-187.500000
9412		-191.406250
9413		-183.593750
9414		-187.500000
9415		-179.687500
9416		-183.593750
9417		-179.687500
9418		-183.593750
9419		-175.781250
9420		-179.687500
9421		-171.875000
9422		-175.781250
9423		-171.875000
9424		-171.875000
9425		-167.968750
9426		-167.968750
9427		-160.156250
9428		-167.968750
9429		-160.156250
9430		-164.062500
9431		-152.343750
9432		-160.156250
9433		-148.437500
9434		-156.250000
9435		-144.531250
9436		-152.343750
9437		-140.625000
9438		-144.531250
9439		-136.718750
9440		-140.625000
9441		-132.812500
9442		-132.812500
9443		-128.906250
9444		-128.906250
9445		-121.093750
9446		-125.000000
9447		-117.187500
9448		-121.093750
9449		-109.375000
9450		-117.187500
9451		-105.468750
9452		-109.375000
9453		-101.562500
9454		-105.468750
9455		-93.750000
9456		-97.656250
9457		-89.843750
9458		-89.843750
9459		-82.031250
9460		-85.937500
9461		-78.125000
9462		-82.031250
9463		-70.312500
9464		-74.218750
9465		-62.500000
9466		-66.406250
9467		-58.593750
9468		-62.500000
9469		-50.781250
9470		-54.687500
9471		-46.875000
9472		-50.781250
9473		-39.062500
9474		-42.968750
9475		-35.156250
9476		-35.156250
9477		-27.343750
9478		-31.250000
9479		-19.531250
9480		-27.343750
9481		-15.625000
9482		-19.531250
9483		-7.812500
9484		-11.718750
9485		0.000000
9486		-7.812500
9487		7.812500
9488		0.000000
9489		11.718750
9490		7.812500
9491		15.625000
9492		15.625000
9493		23.437500
9494		19.531250
9495		27.343750
9496		23.437500
9497		35.156250
9498		31.250000
9499		42.968750
9500		35.156250
9501		46.875000
9502		42.968750
9503		54.687500
9504		46.875000
9505		58.593750
9506		54.687500
9507		62.500000
9508		62.500000
9509		70.312500
9510		66.406250
9511		74.218750
9512		70.312500
9513		82.031250
9514		74.218750
9515		85.937500
9516		82.031250
9517		89.843750
9518		85.937500
9519		97.656250
9520		89.843750
9521		101.562500
9522		93.750000
9523		105.468750
9524		101.562500
9525		109.375000
9526		105.468750
9527		113.281250
9528		109.375000
9529		117.187500
9530		113.281250
9531		125.000000
9532		117.187500
9533		128.906250
9534		121.093750
9535		132.812500
9536		125.000000
9537		136.718750
9538		128.906250
9539		140.625000
9540		132.812500
9541		140.625000
9542		140.625000
9543		144.531250
9544		144.531250
9545		148.437500
9546		144.531250
9547		152.343750
9548		148.437500
9549		156.250000
9550		152.343750
9551		160.156250
9552		152.343750
9553		164.062500
9554		156.250000
9555		164.062500
9556		160.156250
9557		167.968750
9558		164.062500
9559		167.968750
9560		167.968750
9561		171.875000
9562		167.968750
9563		171.875000
9564		167.968750
9565		175.781250
9566		171.875000
9567		179.687500
9568		171.875000
9569		179.687500
9570		175.781250
9571		183.593750
9572		175.781250
9573		183.593750
9574		179.687500
9575		183.593750
9576		179.687500
9577		183.593750
9578		179.687500
9579		187.500000
9580		179.687500
9581		187.500000
9582		179.687500
9583		187.500000
9584		183.593750
9585		191.406250
9586		183.593750
9587		191.406250
9588		183.593750
9589		191.406250
9590		183.593750
9591		191.406250
9592		187.500000
9593		187.500000
9594		183.593750
9595		191.406250
9596		183.593750
9597		191.406250
9598		183.593750
9599		191.406250
9600		183.593750
9601		191.406250
9602		183.593750
9603		191.406250
9604		183.593750
9605		191.406250
9606		183.593750
9607		187.500000
9608		183.593750
9609		187.500000
9610		183.593750
9611		187.500000
9612		179.687500
9613		187.500000
9614		175.781250
9615		183.593750
9616		175.781250
9617		183.593750
9618		175.781250
9619		183.593750
9620		171.875000
9621		179.687500
9622		171.875000
9623		179.687500
9624		171.875000
9625		175.781250
9626		167.968750
9627		175.781250
9628		164.062500
9629		171.875000
9630		164.062500
9631		171.875000
9632		160.156250
9633		167.968750
9634		156.250000
9635		164.062500
9636		156.250000
9637		164.062500
9638		152.343750
9639		160.156250
9640		148.437500
9641		160.156250
9642		148.437500
9643		152.343750
9644		144.531250
9645		148.437500
9646		136.718750
9647		148.437500
9648		136.718750
9649		144.531250
9650		132.812500
9651		140.625000
9652		128.906250
9653		136.718750
9654		125.000000
9655		132.812500
9656		121.093750
9657		128.906250
9658		117.187500
9659		121.093750
9660		113.281250
9661		117.187500
9662		105.468750
9663		117.187500
9664		101.562500
9665		109.375000
9666		97.656250
9667		105.468750
9668		89.843750
9669		101.562500
9670		85.937500
9671		97.656250
9672		82.031250
9673		89.843750
9674		78.125000
9675		85.937500
9676		70.312500
9677		78.125000
9678		62.500000
9679		74.218750
9680		58.593750
9681		70.312500
9682		54.687500
9683		62.500000
9684		46.875000
9685		58.593750
9686		42.968750
9687		50.781250
9688		35.156250
9689		46.875000
9690		31.250000
9691		39.062500
9692		23.437500
9693		31.250000
9694		19.531250
9695		27.343750
9696		11.718750
9697		19.531250
9698		3.906250
9699		15.625000
9700		0.000000
9701		11.718750
9702		-7.812500
9703		3.906250
9704		-11.718750
9705		-3.906250
9706		-19.531250
9707		-7.812500
9708		-23.437500
9709		-15.625000
9710		-31.250000
9711		-23.437500
9712		-39.062500
9713		-27.343750
9714		-42.968750
9715		-35.156250
9716		-50.781250
9717		-39.062500
9718		-58.593750
9719		-46.875000
9720		-62.500000
9721		-50.781250
9722		-66.406250
9723		-58.593750
9724		-74.218750
9725		-66.406250
9726		-78.125000
9727		-70.312500
9728		-85.937500
9729		-78.125000
9730		-93.750000
9731		-82.031250
9732		-97.656250
9733		-89.843750
9734		-105.468750
9735		-93.750000
9736		-109.375000
9737		-97.656250
9738		-113.281250
9739		-105.468750
9740		-121.093750
9741		-109.375000
9742		-125.000000
9743		-117.187500
9744		-128.906250
9745		-121.093750
9746		-136.718750
9747		-125.000000
9748		-140.625000
9749		-128.906250
9750		-144.531250
9751		-136.718750
9752		-148.437500
9753		-140.625000
9754		-152.343750
9755		-144.531250
9756		-156.250000
9757		-148.437500
9758		-160.156250
9759		-152.343750
9760		-164.062500
9761		-156.250000
9762		-167.968750
9763		-160.156250
9764		-171.875000
9765		-164.062500
9766		-175.781250
9767		-167.968750
9768		-179.687500
9769		-171.875000
9770		-183.593750
9771		-171.875000
9772		-183.593750
9773		-175.781250
9774		-187.500000
9775		-179.687500
9776		-187.500000
9777		-183.593750
9778		-191.406250
9779		-183.593750
9780		-195.312500
9781		-187.500000
9782		-195.312500
9783		-187.500000
9784		-195.312500
9785		-187.500000
9786		-199.218750
9787		-191.406250
9788		-199.218750
9789		-191.406250
9790		-199.218750
9791		-191.406250
9792		-199.218750
9793		-195.312500
9794		-199.218750
9795		-195.312500
9796		-199.218750
9797		-195.312500
9798		-203.125000
9799		-195.312500
9800		-203.125000
9801		-195.312500
9802		-203.125000
9803		-195.312500
9804		-199.218750
9805		-191.406250
9806		-199.218750
9807		-191.406250
9808		-199.218750
9809		-191.406250
9810		-195.312500
9811		-191.406250
9812		-195.312500
9813		-191.406250
9814		-195.312500
9815		-187.500000
9816		-195.312500
9817		-183.593750
9818		-191.406250
9819		-183.593750
9820		-187.500000
9821		-179.687500
9822		-183.593750
9823		-179.687500
9824		-183.593750
9825		-175.781250
9826		-179.687500
9827		-175.781250
9828		-175.781250
9829		-171.875000
9830		-171.875000
9831		-167.968750
9832		-171.875000
9833		-164.062500
9834		-167.968750
9835		-160.156250
9836		-164.062500
9837		-156.250000
9838		-160.156250
9839		-148.437500
9840		-156.250000
9841		-148.437500
9842		-152.343750
9843		-144.531250
9844		-144.531250
9845		-140.625000
9846		-140.625000
9847		-132.812500
9848		-136.718750
9849		-128.906250
9850		-132.812500
9851		-121.093750
9852		-125.000000
9853		-117.187500
9854		-121.093750
9855		-109.375000
9856		-117.187500
9857		-105.468750
9858		-109.375000
9859		-101.562500
9860		-105.468750
9861		-97.656250
9862		-97.656250
9863		-89.843750
9864		-93.750000
9865		-85.937500
9866		-89.843750
9867		-78.125000
9868		-82.031250
9869		-70.312500
9870		-78.125000
9871		-66.406250
9872		-70.312500
9873		-58.593750
9874		-62.500000
9875		-54.687500
9876		-58.593750
9877		-50.781250
9878		-50.781250
9879		-42.968750
9880		-42.968750
9881		-35.156250
9882		-39.062500
9883		-27.343750
9884		-35.156250
9885		-23.437500
9886		-27.343750
9887		-15.625000
9888		-19.531250
9889		-11.718750
9890		-15.625000
9891		-3.906250
9892		-7.812500
9893		0.000000
9894		0.000000
9895		7.812500
9896		3.906250
9897		11.718750
9898		11.718750
9899		19.531250
9900		15.625000
9901		27.343750
9902		23.437500
9903		31.250000
9904		27.343750
9905		39.062500
9906		35.156250
9907		46.875000
9908		39.062500
9909		50.781250
9910		46.875000
9911		54.687500
9912		54.687500
9913		62.500000
9914		58.593750
9915		66.406250
9916		62.500000
9917		74.218750
9918		70.312500
9919		78.125000
9920		74.218750
9921		82.031250
9922		78.125000
9923		89.843750
9924		85.937500
9925		93.750000
9926		89.843750
9927		97.656250
9928		93.750000
9929		101.562500
9930		101.562500
9931		109.375000
9932		101.562500
9933		113.281250
9934		109.375000
9935		117.187500
9936		113.281250
9937		121.093750
9938		117.187500
9939		125.000000
9940		121.093750
9941		128.906250
9942		125.000000
9943		132.812500
9944		132.812500
9945		136.718750
9946		132.812500
9947		140.625000
9948		136.718750
9949		144.531250
9950		140.625000
9951		148.437500
9952		144.531250
9953		152.343750
9954		148.437500
9955		156.250000
9956		148.437500
9957		160.156250
9958		152.343750
9959		160.156250
9960		156.250000
9961		164.062500
9962		160.156250
9963		164.062500
9964		164.062500
9965		167.968750
9966		164.062500
9967		171.875000
9968		164.062500
9969		175.781250
9970		167.968750
9971		175.781250
9972		167.968750
9973		179.687500
9974		171.875000
9975		179.687500
9976		171.875000
9977		179.687500
9978		175.781250
9979		179.687500
9980		179.687500
9981		183.593750
9982		179.687500
9983		187.500000
9984		179.687500
9985		187.500000
9986		179.687500
9987		187.500000
9988		183.593750
9989		187.500000
9990		183.593750
9991		191.406250
9992		183.593750
9993		191.406250
9994		187.500000
9995		191.406250
9996		187.500000
9997		191.406250
9998		183.593750
9999		191.406250
10000		183.593750
