Channel              :		CH1
Frequency            :		1.240kHz
Period               :		0.807ms
PK-PK                :		156.3mV
Probe attenuation    :		1X
Voltage per ADC value:		0.244141mV
Time interval        :		2.00000us

index		CH1_Voltage(mV)
1		46.875000
2		46.875000
3		50.781250
4		42.968750
5		46.875000
6		42.968750
7		46.875000
8		39.062500
9		42.968750
10		35.156250
11		39.062500
12		35.156250
13		39.062500
14		31.250000
15		35.156250
16		31.250000
17		35.156250
18		27.343750
19		31.250000
20		23.437500
21		31.250000
22		23.437500
23		27.343750
24		19.531250
25		23.437500
26		19.531250
27		23.437500
28		15.625000
29		19.531250
30		15.625000
31		19.531250
32		11.718750
33		15.625000
34		11.718750
35		15.625000
36		7.812500
37		11.718750
38		3.906250
39		7.812500
40		3.906250
41		7.812500
42		0.000000
43		7.812500
44		0.000000
45		3.906250
46		-3.906250
47		3.906250
48		-3.906250
49		0.000000
50		-3.906250
51		0.000000
52		-7.812500
53		-3.906250
54		-7.812500
55		-3.906250
56		-11.718750
57		-7.812500
58		-11.718750
59		-7.812500
60		-11.718750
61		-7.812500
62		-15.625000
63		-11.718750
64		-15.625000
65		-11.718750
66		-15.625000
67		-11.718750
68		-19.531250
69		-15.625000
70		-19.531250
71		-15.625000
72		-19.531250
73		-15.625000
74		-23.437500
75		-15.625000
76		-23.437500
77		-19.531250
78		-23.437500
79		-19.531250
80		-23.437500
81		-19.531250
82		-23.437500
83		-23.437500
84		-27.343750
85		-23.437500
86		-27.343750
87		-23.437500
88		-27.343750
89		-23.437500
90		-27.343750
91		-23.437500
92		-27.343750
93		-23.437500
94		-27.343750
95		-23.437500
96		-27.343750
97		-23.437500
98		-27.343750
99		-23.437500
100		-27.343750
101		-23.437500
102		-27.343750
103		-23.437500
104		-27.343750
105		-23.437500
106		-27.343750
107		-23.437500
108		-27.343750
109		-23.437500
110		-27.343750
111		-23.437500
112		-27.343750
113		-23.437500
114		-27.343750
115		-23.437500
116		-27.343750
117		-23.437500
118		-23.437500
119		-19.531250
120		-23.437500
121		-19.531250
122		-23.437500
123		-19.531250
124		-23.437500
125		-19.531250
126		-23.437500
127		-19.531250
128		-19.531250
129		-15.625000
130		-19.531250
131		-15.625000
132		-19.531250
133		-15.625000
134		-15.625000
135		-11.718750
136		-15.625000
137		-11.718750
138		-15.625000
139		-11.718750
140		-11.718750
141		-7.812500
142		-11.718750
143		-7.812500
144		-11.718750
145		-3.906250
146		-7.812500
147		-3.906250
148		-7.812500
149		-3.906250
150		-3.906250
151		0.000000
152		-3.906250
153		0.000000
154		-3.906250
155		3.906250
156		0.000000
157		3.906250
158		3.906250
159		7.812500
160		3.906250
161		7.812500
162		7.812500
163		11.718750
164		7.812500
165		11.718750
166		7.812500
167		15.625000
168		11.718750
169		15.625000
170		15.625000
171		19.531250
172		15.625000
173		19.531250
174		19.531250
175		23.437500
176		19.531250
177		23.437500
178		23.437500
179		27.343750
180		23.437500
181		31.250000
182		27.343750
183		31.250000
184		31.250000
185		35.156250
186		31.250000
187		35.156250
188		35.156250
189		39.062500
190		35.156250
191		42.968750
192		39.062500
193		42.968750
194		39.062500
195		46.875000
196		42.968750
197		46.875000
198		46.875000
199		50.781250
200		46.875000
201		50.781250
202		50.781250
203		54.687500
204		50.781250
205		54.687500
206		54.687500
207		58.593750
208		54.687500
209		62.500000
210		58.593750
211		62.500000
212		62.500000
213		66.406250
214		62.500000
215		66.406250
216		66.406250
217		70.312500
218		66.406250
219		70.312500
220		70.312500
221		74.218750
222		70.312500
223		74.218750
224		74.218750
225		78.125000
226		74.218750
227		82.031250
228		78.125000
229		82.031250
230		78.125000
231		82.031250
232		82.031250
233		85.937500
234		82.031250
235		89.843750
236		85.937500
237		89.843750
238		85.937500
239		93.750000
240		89.843750
241		93.750000
242		89.843750
243		93.750000
244		89.843750
245		97.656250
246		93.750000
247		97.656250
248		93.750000
249		97.656250
250		97.656250
251		101.562500
252		97.656250
253		101.562500
254		97.656250
255		105.468750
256		101.562500
257		105.468750
258		101.562500
259		105.468750
260		101.562500
261		109.375000
262		105.468750
263		109.375000
264		105.468750
265		109.375000
266		105.468750
267		113.281250
268		109.375000
269		113.281250
270		109.375000
271		113.281250
272		109.375000
273		113.281250
274		113.281250
275		113.281250
276		113.281250
277		117.187500
278		113.281250
279		117.187500
280		113.281250
281		117.187500
282		113.281250
283		117.187500
284		113.281250
285		117.187500
286		113.281250
287		121.093750
288		117.187500
289		121.093750
290		117.187500
291		121.093750
292		117.187500
293		121.093750
294		117.187500
295		121.093750
296		117.187500
297		121.093750
298		117.187500
299		121.093750
300		117.187500
301		121.093750
302		117.187500
303		121.093750
304		117.187500
305		121.093750
306		117.187500
307		121.093750
308		117.187500
309		121.093750
310		117.187500
311		121.093750
312		117.187500
313		121.093750
314		117.187500
315		121.093750
316		117.187500
317		121.093750
318		117.187500
319		121.093750
320		117.187500
321		121.093750
322		117.187500
323		121.093750
324		113.281250
325		117.187500
326		113.281250
327		117.187500
328		113.281250
329		117.187500
330		113.281250
331		117.187500
332		113.281250
333		117.187500
334		109.375000
335		113.281250
336		109.375000
337		113.281250
338		109.375000
339		113.281250
340		109.375000
341		113.281250
342		105.468750
343		109.375000
344		105.468750
345		109.375000
346		105.468750
347		109.375000
348		101.562500
349		109.375000
350		101.562500
351		105.468750
352		97.656250
353		105.468750
354		97.656250
355		101.562500
356		97.656250
357		101.562500
358		93.750000
359		101.562500
360		93.750000
361		97.656250
362		93.750000
363		97.656250
364		89.843750
365		93.750000
366		89.843750
367		93.750000
368		85.937500
369		89.843750
370		85.937500
371		89.843750
372		82.031250
373		85.937500
374		82.031250
375		85.937500
376		78.125000
377		82.031250
378		78.125000
379		82.031250
380		74.218750
381		78.125000
382		74.218750
383		78.125000
384		70.312500
385		74.218750
386		66.406250
387		74.218750
388		66.406250
389		70.312500
390		62.500000
391		70.312500
392		62.500000
393		66.406250
394		58.593750
395		62.500000
396		58.593750
397		62.500000
398		54.687500
399		58.593750
400		50.781250
401		58.593750
402		50.781250
403		54.687500
404		46.875000
405		50.781250
406		46.875000
407		50.781250
408		42.968750
409		46.875000
410		39.062500
411		46.875000
412		39.062500
413		42.968750
414		35.156250
415		39.062500
416		35.156250
417		39.062500
418		31.250000
419		35.156250
420		27.343750
421		35.156250
422		27.343750
423		31.250000
424		23.437500
425		27.343750
426		23.437500
427		27.343750
428		19.531250
429		23.437500
430		19.531250
431		23.437500
432		15.625000
433		19.531250
434		11.718750
435		15.625000
436		11.718750
437		15.625000
438		7.812500
439		11.718750
440		7.812500
441		11.718750
442		3.906250
443		7.812500
444		3.906250
445		7.812500
446		0.000000
447		3.906250
448		0.000000
449		3.906250
450		-3.906250
451		0.000000
452		-3.906250
453		0.000000
454		-7.812500
455		0.000000
456		-7.812500
457		-3.906250
458		-7.812500
459		-3.906250
460		-11.718750
461		-7.812500
462		-11.718750
463		-7.812500
464		-15.625000
465		-11.718750
466		-15.625000
467		-11.718750
468		-15.625000
469		-11.718750
470		-19.531250
471		-15.625000
472		-19.531250
473		-15.625000
474		-19.531250
475		-15.625000
476		-23.437500
477		-19.531250
478		-23.437500
479		-19.531250
480		-23.437500
481		-19.531250
482		-23.437500
483		-19.531250
484		-27.343750
485		-19.531250
486		-27.343750
487		-23.437500
488		-27.343750
489		-23.437500
490		-27.343750
491		-23.437500
492		-27.343750
493		-23.437500
494		-27.343750
495		-23.437500
496		-27.343750
497		-23.437500
498		-27.343750
499		-23.437500
500		-27.343750
501		-27.343750
502		-27.343750
503		-23.437500
504		-27.343750
505		-23.437500
506		-27.343750
507		-23.437500
508		-27.343750
509		-23.437500
510		-27.343750
511		-23.437500
512		-27.343750
513		-23.437500
514		-27.343750
515		-23.437500
516		-27.343750
517		-23.437500
518		-27.343750
519		-23.437500
520		-27.343750
521		-19.531250
522		-23.437500
523		-19.531250
524		-23.437500
525		-19.531250
526		-23.437500
527		-19.531250
528		-23.437500
529		-19.531250
530		-19.531250
531		-15.625000
532		-19.531250
533		-15.625000
534		-19.531250
535		-15.625000
536		-19.531250
537		-15.625000
538		-15.625000
539		-11.718750
540		-15.625000
541		-11.718750
542		-15.625000
543		-11.718750
544		-11.718750
545		-7.812500
546		-11.718750
547		-7.812500
548		-7.812500
549		-3.906250
550		-7.812500
551		-3.906250
552		-7.812500
553		0.000000
554		-3.906250
555		0.000000
556		-3.906250
557		0.000000
558		0.000000
559		3.906250
560		0.000000
561		3.906250
562		3.906250
563		7.812500
564		3.906250
565		7.812500
566		7.812500
567		11.718750
568		7.812500
569		11.718750
570		11.718750
571		15.625000
572		11.718750
573		15.625000
574		15.625000
575		19.531250
576		15.625000
577		19.531250
578		19.531250
579		23.437500
580		23.437500
581		27.343750
582		23.437500
583		27.343750
584		27.343750
585		31.250000
586		27.343750
587		31.250000
588		31.250000
589		35.156250
590		31.250000
591		39.062500
592		35.156250
593		39.062500
594		39.062500
595		42.968750
596		39.062500
597		42.968750
598		42.968750
599		46.875000
600		42.968750
601		50.781250
602		46.875000
603		50.781250
604		46.875000
605		54.687500
606		50.781250
607		54.687500
608		54.687500
609		58.593750
610		54.687500
611		58.593750
612		58.593750
613		62.500000
614		58.593750
615		66.406250
616		62.500000
617		66.406250
618		66.406250
619		70.312500
620		66.406250
621		70.312500
622		70.312500
623		74.218750
624		70.312500
625		74.218750
626		74.218750
627		78.125000
628		74.218750
629		78.125000
630		78.125000
631		82.031250
632		78.125000
633		82.031250
634		82.031250
635		85.937500
636		82.031250
637		85.937500
638		85.937500
639		89.843750
640		85.937500
641		89.843750
642		85.937500
643		93.750000
644		89.843750
645		93.750000
646		89.843750
647		97.656250
648		93.750000
649		97.656250
650		93.750000
651		97.656250
652		97.656250
653		101.562500
654		97.656250
655		101.562500
656		97.656250
657		101.562500
658		101.562500
659		105.468750
660		101.562500
661		105.468750
662		105.468750
663		109.375000
664		105.468750
665		109.375000
666		105.468750
667		109.375000
668		105.468750
669		109.375000
670		109.375000
671		113.281250
672		109.375000
673		113.281250
674		109.375000
675		113.281250
676		113.281250
677		113.281250
678		113.281250
679		117.187500
680		113.281250
681		117.187500
682		113.281250
683		117.187500
684		113.281250
685		117.187500
686		113.281250
687		121.093750
688		117.187500
689		117.187500
690		117.187500
691		121.093750
692		117.187500
693		121.093750
694		117.187500
695		121.093750
696		117.187500
697		121.093750
698		117.187500
699		121.093750
700		117.187500
701		121.093750
702		117.187500
703		121.093750
704		117.187500
705		121.093750
706		117.187500
707		121.093750
708		117.187500
709		121.093750
710		117.187500
711		121.093750
712		117.187500
713		121.093750
714		117.187500
715		121.093750
716		117.187500
717		121.093750
718		117.187500
719		121.093750
720		117.187500
721		121.093750
722		117.187500
723		121.093750
724		117.187500
725		117.187500
726		113.281250
727		121.093750
728		113.281250
729		117.187500
730		113.281250
731		117.187500
732		113.281250
733		117.187500
734		113.281250
735		117.187500
736		109.375000
737		113.281250
738		109.375000
739		113.281250
740		109.375000
741		113.281250
742		109.375000
743		113.281250
744		109.375000
745		109.375000
746		105.468750
747		109.375000
748		105.468750
749		109.375000
750		101.562500
751		109.375000
752		101.562500
753		105.468750
754		101.562500
755		105.468750
756		97.656250
757		101.562500
758		97.656250
759		101.562500
760		97.656250
761		101.562500
762		93.750000
763		97.656250
764		93.750000
765		97.656250
766		89.843750
767		93.750000
768		89.843750
769		93.750000
770		85.937500
771		89.843750
772		85.937500
773		89.843750
774		85.937500
775		89.843750
776		82.031250
777		85.937500
778		82.031250
779		85.937500
780		78.125000
781		82.031250
782		74.218750
783		82.031250
784		74.218750
785		78.125000
786		70.312500
787		78.125000
788		70.312500
789		74.218750
790		66.406250
791		70.312500
792		66.406250
793		70.312500
794		62.500000
795		66.406250
796		62.500000
797		66.406250
798		58.593750
799		62.500000
800		54.687500
801		62.500000
802		54.687500
803		58.593750
804		50.781250
805		54.687500
806		50.781250
807		54.687500
808		46.875000
809		50.781250
810		42.968750
811		46.875000
812		42.968750
813		46.875000
814		39.062500
815		42.968750
816		39.062500
817		42.968750
818		35.156250
819		39.062500
820		31.250000
821		35.156250
822		31.250000
823		35.156250
824		27.343750
825		31.250000
826		27.343750
827		31.250000
828		23.437500
829		27.343750
830		19.531250
831		27.343750
832		19.531250
833		23.437500
834		15.625000
835		19.531250
836		15.625000
837		19.531250
838		11.718750
839		15.625000
840		11.718750
841		15.625000
842		7.812500
843		11.718750
844		7.812500
845		11.718750
846		3.906250
847		7.812500
848		3.906250
849		7.812500
850		0.000000
851		3.906250
852		-3.906250
853		3.906250
854		-3.906250
855		0.000000
856		-3.906250
857		0.000000
858		-7.812500
859		-3.906250
860		-7.812500
861		-3.906250
862		-11.718750
863		-7.812500
864		-11.718750
865		-7.812500
866		-11.718750
867		-7.812500
868		-15.625000
869		-11.718750
870		-15.625000
871		-11.718750
872		-15.625000
873		-11.718750
874		-19.531250
875		-15.625000
876		-19.531250
877		-15.625000
878		-19.531250
879		-15.625000
880		-23.437500
881		-19.531250
882		-23.437500
883		-19.531250
884		-23.437500
885		-19.531250
886		-23.437500
887		-19.531250
888		-27.343750
889		-19.531250
890		-27.343750
891		-23.437500
892		-27.343750
893		-23.437500
894		-27.343750
895		-23.437500
896		-27.343750
897		-23.437500
898		-27.343750
899		-23.437500
900		-27.343750
901		-23.437500
902		-27.343750
903		-23.437500
904		-27.343750
905		-23.437500
906		-27.343750
907		-23.437500
908		-27.343750
909		-23.437500
910		-27.343750
911		-23.437500
912		-27.343750
913		-23.437500
914		-27.343750
915		-23.437500
916		-27.343750
917		-23.437500
918		-27.343750
919		-23.437500
920		-27.343750
921		-23.437500
922		-23.437500
923		-23.437500
924		-23.437500
925		-19.531250
926		-23.437500
927		-19.531250
928		-23.437500
929		-19.531250
930		-23.437500
931		-19.531250
932		-19.531250
933		-15.625000
934		-19.531250
935		-15.625000
936		-19.531250
937		-15.625000
938		-19.531250
939		-15.625000
940		-15.625000
941		-11.718750
942		-15.625000
943		-11.718750
944		-15.625000
945		-11.718750
946		-11.718750
947		-7.812500
948		-11.718750
949		-7.812500
950		-11.718750
951		-7.812500
952		-7.812500
953		-3.906250
954		-7.812500
955		-3.906250
956		-3.906250
957		0.000000
958		-3.906250
959		0.000000
960		0.000000
961		3.906250
962		0.000000
963		3.906250
964		0.000000
965		3.906250
966		3.906250
967		7.812500
968		3.906250
969		11.718750
970		7.812500
971		11.718750
972		11.718750
973		15.625000
974		11.718750
975		15.625000
976		11.718750
977		19.531250
978		15.625000
979		19.531250
980		15.625000
981		23.437500
982		19.531250
983		27.343750
984		23.437500
985		27.343750
986		23.437500
987		27.343750
988		27.343750
989		31.250000
990		27.343750
991		35.156250
992		31.250000
993		35.156250
994		35.156250
995		39.062500
996		35.156250
997		39.062500
998		39.062500
999		42.968750
1000		39.062500
1001		42.968750
1002		42.968750
1003		46.875000
1004		46.875000
1005		50.781250
1006		46.875000
1007		50.781250
1008		50.781250
1009		54.687500
1010		50.781250
1011		54.687500
1012		54.687500
1013		58.593750
1014		54.687500
1015		58.593750
1016		58.593750
1017		62.500000
1018		58.593750
1019		66.406250
1020		62.500000
1021		66.406250
1022		62.500000
1023		70.312500
1024		66.406250
1025		74.218750
1026		70.312500
1027		74.218750
1028		70.312500
1029		74.218750
1030		74.218750
1031		78.125000
1032		74.218750
1033		82.031250
1034		78.125000
1035		82.031250
1036		78.125000
1037		82.031250
1038		82.031250
1039		85.937500
1040		82.031250
1041		85.937500
1042		85.937500
1043		89.843750
1044		85.937500
1045		89.843750
1046		89.843750
1047		93.750000
1048		89.843750
1049		93.750000
1050		93.750000
1051		97.656250
1052		93.750000
1053		97.656250
1054		93.750000
1055		97.656250
1056		97.656250
1057		101.562500
1058		97.656250
1059		101.562500
1060		97.656250
1061		105.468750
1062		101.562500
1063		105.468750
1064		101.562500
1065		105.468750
1066		105.468750
1067		109.375000
1068		105.468750
1069		109.375000
1070		105.468750
1071		109.375000
1072		109.375000
1073		113.281250
1074		109.375000
1075		113.281250
1076		109.375000
1077		113.281250
1078		109.375000
1079		113.281250
1080		113.281250
1081		113.281250
1082		113.281250
1083		117.187500
1084		113.281250
1085		117.187500
1086		113.281250
1087		117.187500
1088		113.281250
1089		117.187500
1090		117.187500
1091		121.093750
1092		117.187500
1093		121.093750
1094		117.187500
1095		121.093750
1096		117.187500
1097		121.093750
1098		117.187500
1099		121.093750
1100		117.187500
1101		121.093750
1102		117.187500
1103		121.093750
1104		117.187500
1105		121.093750
1106		117.187500
1107		121.093750
1108		117.187500
1109		121.093750
1110		117.187500
1111		121.093750
1112		117.187500
1113		121.093750
1114		117.187500
1115		121.093750
1116		117.187500
1117		121.093750
1118		117.187500
1119		121.093750
1120		117.187500
1121		121.093750
1122		117.187500
1123		121.093750
1124		117.187500
1125		121.093750
1126		117.187500
1127		121.093750
1128		113.281250
1129		117.187500
1130		113.281250
1131		117.187500
1132		113.281250
1133		117.187500
1134		113.281250
1135		117.187500
1136		113.281250
1137		117.187500
1138		109.375000
1139		113.281250
1140		109.375000
1141		113.281250
1142		109.375000
1143		113.281250
1144		109.375000
1145		113.281250
1146		105.468750
1147		113.281250
1148		105.468750
1149		109.375000
1150		105.468750
1151		109.375000
1152		105.468750
1153		109.375000
1154		101.562500
1155		105.468750
1156		101.562500
1157		105.468750
1158		101.562500
1159		105.468750
1160		97.656250
1161		101.562500
1162		97.656250
1163		101.562500
1164		93.750000
1165		97.656250
1166		93.750000
1167		97.656250
1168		93.750000
1169		97.656250
1170		89.843750
1171		93.750000
1172		89.843750
1173		93.750000
1174		85.937500
1175		89.843750
1176		85.937500
1177		89.843750
1178		82.031250
1179		85.937500
1180		82.031250
1181		85.937500
1182		78.125000
1183		82.031250
1184		78.125000
1185		82.031250
1186		74.218750
1187		78.125000
1188		70.312500
1189		78.125000
1190		70.312500
1191		74.218750
1192		70.312500
1193		74.218750
1194		66.406250
1195		70.312500
1196		62.500000
1197		70.312500
1198		62.500000
1199		66.406250
1200		58.593750
1201		62.500000
1202		58.593750
1203		62.500000
1204		54.687500
1205		58.593750
1206		54.687500
1207		58.593750
1208		50.781250
1209		54.687500
1210		46.875000
1211		54.687500
1212		42.968750
1213		50.781250
1214		42.968750
1215		46.875000
1216		39.062500
1217		46.875000
1218		39.062500
1219		42.968750
1220		35.156250
1221		39.062500
1222		31.250000
1223		39.062500
1224		31.250000
1225		35.156250
1226		27.343750
1227		35.156250
1228		27.343750
1229		31.250000
1230		23.437500
1231		31.250000
1232		23.437500
1233		27.343750
1234		19.531250
1235		23.437500
1236		19.531250
1237		23.437500
1238		15.625000
1239		19.531250
1240		11.718750
1241		19.531250
1242		11.718750
1243		15.625000
1244		7.812500
1245		15.625000
1246		7.812500
1247		11.718750
1248		3.906250
1249		11.718750
1250		3.906250
1251		7.812500
1252		0.000000
1253		7.812500
1254		0.000000
1255		3.906250
1256		-3.906250
1257		0.000000
1258		-3.906250
1259		0.000000
1260		-3.906250
1261		-3.906250
1262		-7.812500
1263		-3.906250
1264		-7.812500
1265		-3.906250
1266		-11.718750
1267		-7.812500
1268		-11.718750
1269		-7.812500
1270		-15.625000
1271		-7.812500
1272		-15.625000
1273		-11.718750
1274		-15.625000
1275		-11.718750
1276		-19.531250
1277		-15.625000
1278		-19.531250
1279		-15.625000
1280		-19.531250
1281		-15.625000
1282		-19.531250
1283		-19.531250
1284		-23.437500
1285		-19.531250
1286		-23.437500
1287		-19.531250
1288		-23.437500
1289		-19.531250
1290		-23.437500
1291		-19.531250
1292		-23.437500
1293		-19.531250
1294		-27.343750
1295		-23.437500
1296		-27.343750
1297		-23.437500
1298		-27.343750
1299		-23.437500
1300		-27.343750
1301		-23.437500
1302		-27.343750
1303		-23.437500
1304		-27.343750
1305		-23.437500
1306		-27.343750
1307		-23.437500
1308		-27.343750
1309		-23.437500
1310		-27.343750
1311		-23.437500
1312		-27.343750
1313		-23.437500
1314		-27.343750
1315		-23.437500
1316		-27.343750
1317		-23.437500
1318		-27.343750
1319		-23.437500
1320		-27.343750
1321		-23.437500
1322		-27.343750
1323		-23.437500
1324		-27.343750
1325		-23.437500
1326		-27.343750
1327		-23.437500
1328		-23.437500
1329		-19.531250
1330		-23.437500
1331		-19.531250
1332		-23.437500
1333		-19.531250
1334		-23.437500
1335		-19.531250
1336		-19.531250
1337		-19.531250
1338		-19.531250
1339		-15.625000
1340		-19.531250
1341		-15.625000
1342		-19.531250
1343		-15.625000
1344		-15.625000
1345		-11.718750
1346		-15.625000
1347		-11.718750
1348		-15.625000
1349		-11.718750
1350		-11.718750
1351		-7.812500
1352		-11.718750
1353		-7.812500
1354		-11.718750
1355		-7.812500
1356		-7.812500
1357		-3.906250
1358		-7.812500
1359		0.000000
1360		-3.906250
1361		0.000000
1362		-3.906250
1363		0.000000
1364		0.000000
1365		3.906250
1366		0.000000
1367		3.906250
1368		3.906250
1369		7.812500
1370		3.906250
1371		7.812500
1372		7.812500
1373		11.718750
1374		7.812500
1375		11.718750
1376		11.718750
1377		15.625000
1378		11.718750
1379		15.625000
1380		15.625000
1381		19.531250
1382		15.625000
1383		19.531250
1384		19.531250
1385		23.437500
1386		19.531250
1387		27.343750
1388		23.437500
1389		27.343750
1390		27.343750
1391		31.250000
1392		27.343750
1393		31.250000
1394		31.250000
1395		35.156250
1396		31.250000
1397		39.062500
1398		35.156250
1399		39.062500
1400		39.062500
1401		42.968750
1402		39.062500
1403		42.968750
1404		42.968750
1405		46.875000
1406		42.968750
1407		46.875000
1408		46.875000
1409		50.781250
1410		46.875000
1411		54.687500
1412		50.781250
1413		54.687500
1414		50.781250
1415		58.593750
1416		54.687500
1417		58.593750
1418		58.593750
1419		62.500000
1420		58.593750
1421		66.406250
1422		62.500000
1423		66.406250
1424		62.500000
1425		70.312500
1426		66.406250
1427		70.312500
1428		66.406250
1429		74.218750
1430		70.312500
1431		74.218750
1432		70.312500
1433		78.125000
1434		74.218750
1435		78.125000
1436		74.218750
1437		82.031250
1438		78.125000
1439		85.937500
1440		78.125000
1441		85.937500
1442		82.031250
1443		85.937500
1444		82.031250
1445		89.843750
1446		85.937500
1447		93.750000
1448		85.937500
1449		93.750000
1450		89.843750
1451		93.750000
1452		89.843750
1453		93.750000
1454		89.843750
1455		97.656250
1456		93.750000
1457		101.562500
1458		97.656250
1459		101.562500
1460		93.750000
1461		105.468750
1462		97.656250
1463		105.468750
1464		97.656250
1465		105.468750
1466		101.562500
1467		105.468750
1468		105.468750
1469		105.468750
1470		105.468750
1471		109.375000
1472		105.468750
1473		113.281250
1474		105.468750
1475		113.281250
1476		105.468750
1477		113.281250
1478		109.375000
1479		113.281250
1480		109.375000
1481		113.281250
1482		109.375000
1483		117.187500
1484		113.281250
1485		117.187500
1486		113.281250
1487		117.187500
1488		109.375000
1489		117.187500
1490		113.281250
1491		121.093750
1492		113.281250
1493		121.093750
1494		113.281250
1495		121.093750
1496		113.281250
1497		121.093750
1498		113.281250
1499		121.093750
1500		117.187500
1501		121.093750
1502		117.187500
1503		121.093750
1504		117.187500
1505		121.093750
1506		117.187500
1507		121.093750
1508		117.187500
1509		125.000000
1510		117.187500
1511		125.000000
1512		117.187500
1513		125.000000
1514		117.187500
1515		125.000000
1516		117.187500
1517		121.093750
1518		117.187500
1519		121.093750
1520		117.187500
1521		121.093750
1522		113.281250
1523		125.000000
1524		113.281250
1525		121.093750
1526		113.281250
1527		121.093750
1528		113.281250
1529		121.093750
1530		113.281250
1531		121.093750
1532		113.281250
1533		121.093750
1534		113.281250
1535		117.187500
1536		113.281250
1537		117.187500
1538		113.281250
1539		117.187500
1540		109.375000
1541		117.187500
1542		109.375000
1543		117.187500
1544		109.375000
1545		117.187500
1546		109.375000
1547		117.187500
1548		105.468750
1549		113.281250
1550		109.375000
1551		113.281250
1552		105.468750
1553		109.375000
1554		101.562500
1555		109.375000
1556		101.562500
1557		109.375000
1558		101.562500
1559		109.375000
1560		97.656250
1561		105.468750
1562		97.656250
1563		105.468750
1564		97.656250
1565		105.468750
1566		97.656250
1567		101.562500
1568		93.750000
1569		97.656250
1570		93.750000
1571		97.656250
1572		89.843750
1573		97.656250
1574		85.937500
1575		93.750000
1576		85.937500
1577		93.750000
1578		82.031250
1579		93.750000
1580		82.031250
1581		89.843750
1582		82.031250
1583		89.843750
1584		78.125000
1585		85.937500
1586		78.125000
1587		82.031250
1588		74.218750
1589		82.031250
1590		74.218750
1591		78.125000
1592		70.312500
1593		78.125000
1594		66.406250
1595		74.218750
1596		66.406250
1597		74.218750
1598		62.500000
1599		70.312500
1600		62.500000
1601		70.312500
1602		62.500000
1603		66.406250
1604		54.687500
1605		62.500000
1606		54.687500
1607		62.500000
1608		50.781250
1609		58.593750
1610		50.781250
1611		58.593750
1612		46.875000
1613		54.687500
1614		46.875000
1615		54.687500
1616		42.968750
1617		50.781250
1618		42.968750
1619		46.875000
1620		39.062500
1621		42.968750
1622		35.156250
1623		42.968750
1624		35.156250
1625		42.968750
1626		31.250000
1627		39.062500
1628		27.343750
1629		35.156250
1630		27.343750
1631		35.156250
1632		27.343750
1633		31.250000
1634		23.437500
1635		27.343750
1636		23.437500
1637		27.343750
1638		19.531250
1639		23.437500
1640		15.625000
1641		23.437500
1642		11.718750
1643		19.531250
1644		11.718750
1645		19.531250
1646		7.812500
1647		15.625000
1648		7.812500
1649		15.625000
1650		7.812500
1651		11.718750
1652		3.906250
1653		7.812500
1654		3.906250
1655		7.812500
1656		0.000000
1657		7.812500
1658		0.000000
1659		3.906250
1660		-3.906250
1661		3.906250
1662		-7.812500
1663		0.000000
1664		-7.812500
1665		0.000000
1666		-7.812500
1667		-3.906250
1668		-7.812500
1669		-7.812500
1670		-11.718750
1671		-7.812500
1672		-15.625000
1673		-7.812500
1674		-15.625000
1675		-7.812500
1676		-15.625000
1677		-7.812500
1678		-19.531250
1679		-11.718750
1680		-19.531250
1681		-11.718750
1682		-19.531250
1683		-11.718750
1684		-19.531250
1685		-15.625000
1686		-23.437500
1687		-19.531250
1688		-23.437500
1689		-19.531250
1690		-23.437500
1691		-19.531250
1692		-27.343750
1693		-19.531250
1694		-27.343750
1695		-19.531250
1696		-27.343750
1697		-19.531250
1698		-27.343750
1699		-19.531250
1700		-27.343750
1701		-19.531250
1702		-27.343750
1703		-23.437500
1704		-27.343750
1705		-23.437500
1706		-31.250000
1707		-23.437500
1708		-31.250000
1709		-23.437500
1710		-31.250000
1711		-23.437500
1712		-31.250000
1713		-23.437500
1714		-31.250000
1715		-23.437500
1716		-31.250000
1717		-23.437500
1718		-27.343750
1719		-23.437500
1720		-27.343750
1721		-23.437500
1722		-27.343750
1723		-23.437500
1724		-27.343750
1725		-23.437500
1726		-27.343750
1727		-19.531250
1728		-27.343750
1729		-19.531250
1730		-27.343750
1731		-19.531250
1732		-27.343750
1733		-19.531250
1734		-27.343750
1735		-19.531250
1736		-23.437500
1737		-19.531250
1738		-19.531250
1739		-15.625000
1740		-23.437500
1741		-15.625000
1742		-23.437500
1743		-15.625000
1744		-19.531250
1745		-11.718750
1746		-19.531250
1747		-11.718750
1748		-19.531250
1749		-11.718750
1750		-15.625000
1751		-7.812500
1752		-11.718750
1753		-7.812500
1754		-11.718750
1755		-7.812500
1756		-11.718750
1757		-3.906250
1758		-11.718750
1759		-3.906250
1760		-7.812500
1761		0.000000
1762		-7.812500
1763		0.000000
1764		-3.906250
1765		3.906250
1766		-3.906250
1767		3.906250
1768		0.000000
1769		3.906250
1770		0.000000
1771		7.812500
1772		3.906250
1773		11.718750
1774		3.906250
1775		11.718750
1776		7.812500
1777		15.625000
1778		7.812500
1779		15.625000
1780		11.718750
1781		15.625000
1782		11.718750
1783		19.531250
1784		15.625000
1785		23.437500
1786		19.531250
1787		23.437500
1788		19.531250
1789		23.437500
1790		23.437500
1791		27.343750
1792		23.437500
1793		31.250000
1794		27.343750
1795		35.156250
1796		27.343750
1797		35.156250
1798		31.250000
1799		39.062500
1800		31.250000
1801		39.062500
1802		35.156250
1803		39.062500
1804		39.062500
1805		42.968750
1806		39.062500
1807		46.875000
1808		42.968750
1809		50.781250
1810		42.968750
1811		50.781250
1812		46.875000
1813		54.687500
1814		46.875000
1815		54.687500
1816		50.781250
1817		58.593750
1818		50.781250
1819		58.593750
1820		58.593750
1821		62.500000
1822		58.593750
1823		62.500000
1824		58.593750
1825		66.406250
1826		62.500000
1827		70.312500
1828		62.500000
1829		70.312500
1830		66.406250
1831		74.218750
1832		66.406250
1833		74.218750
1834		70.312500
1835		78.125000
1836		74.218750
1837		78.125000
1838		74.218750
1839		78.125000
1840		78.125000
1841		85.937500
1842		78.125000
1843		85.937500
1844		78.125000
1845		85.937500
1846		82.031250
1847		89.843750
1848		82.031250
1849		89.843750
1850		85.937500
1851		93.750000
1852		85.937500
1853		93.750000
1854		89.843750
1855		93.750000
1856		93.750000
1857		97.656250
1858		93.750000
1859		97.656250
1860		93.750000
1861		101.562500
1862		93.750000
1863		101.562500
1864		97.656250
1865		105.468750
1866		97.656250
1867		105.468750
1868		101.562500
1869		105.468750
1870		101.562500
1871		105.468750
1872		105.468750
1873		109.375000
1874		105.468750
1875		109.375000
1876		105.468750
1877		113.281250
1878		105.468750
1879		113.281250
1880		105.468750
1881		113.281250
1882		105.468750
1883		117.187500
1884		109.375000
1885		117.187500
1886		109.375000
1887		117.187500
1888		113.281250
1889		117.187500
1890		113.281250
1891		117.187500
1892		113.281250
1893		121.093750
1894		113.281250
1895		121.093750
1896		113.281250
1897		121.093750
1898		113.281250
1899		121.093750
1900		113.281250
1901		121.093750
1902		113.281250
1903		121.093750
1904		117.187500
1905		121.093750
1906		117.187500
1907		121.093750
1908		113.281250
1909		121.093750
1910		117.187500
1911		125.000000
1912		117.187500
1913		125.000000
1914		117.187500
1915		125.000000
1916		117.187500
1917		125.000000
1918		117.187500
1919		125.000000
1920		117.187500
1921		121.093750
1922		117.187500
1923		121.093750
1924		117.187500
1925		121.093750
1926		113.281250
1927		121.093750
1928		113.281250
1929		121.093750
1930		113.281250
1931		121.093750
1932		113.281250
1933		121.093750
1934		113.281250
1935		121.093750
1936		113.281250
1937		121.093750
1938		113.281250
1939		121.093750
1940		113.281250
1941		117.187500
1942		109.375000
1943		117.187500
1944		109.375000
1945		117.187500
1946		109.375000
1947		117.187500
1948		109.375000
1949		117.187500
1950		109.375000
1951		113.281250
1952		105.468750
1953		113.281250
1954		105.468750
1955		109.375000
1956		105.468750
1957		109.375000
1958		101.562500
1959		109.375000
1960		101.562500
1961		109.375000
1962		101.562500
1963		109.375000
1964		97.656250
1965		105.468750
1966		97.656250
1967		105.468750
1968		93.750000
1969		105.468750
1970		93.750000
1971		101.562500
1972		93.750000
1973		97.656250
1974		89.843750
1975		97.656250
1976		89.843750
1977		97.656250
1978		85.937500
1979		93.750000
1980		85.937500
1981		93.750000
1982		85.937500
1983		89.843750
1984		82.031250
1985		89.843750
1986		82.031250
1987		85.937500
1988		78.125000
1989		82.031250
1990		78.125000
1991		82.031250
1992		74.218750
1993		82.031250
1994		70.312500
1995		78.125000
1996		70.312500
1997		78.125000
1998		66.406250
1999		74.218750
2000		62.500000
2001		74.218750
2002		62.500000
2003		70.312500
2004		62.500000
2005		66.406250
2006		58.593750
2007		62.500000
2008		54.687500
2009		62.500000
2010		54.687500
2011		62.500000
2012		50.781250
2013		58.593750
2014		50.781250
2015		54.687500
2016		46.875000
2017		54.687500
2018		42.968750
2019		50.781250
2020		42.968750
2021		50.781250
2022		42.968750
2023		46.875000
2024		39.062500
2025		42.968750
2026		35.156250
2027		42.968750
2028		35.156250
2029		39.062500
2030		31.250000
2031		39.062500
2032		27.343750
2033		35.156250
2034		27.343750
2035		35.156250
2036		23.437500
2037		31.250000
2038		23.437500
2039		27.343750
2040		19.531250
2041		27.343750
2042		19.531250
2043		23.437500
2044		15.625000
2045		23.437500
2046		11.718750
2047		19.531250
2048		11.718750
2049		19.531250
2050		7.812500
2051		15.625000
2052		7.812500
2053		15.625000
2054		7.812500
2055		11.718750
2056		3.906250
2057		7.812500
2058		0.000000
2059		7.812500
2060		0.000000
2061		7.812500
2062		-3.906250
2063		3.906250
2064		-3.906250
2065		3.906250
2066		-3.906250
2067		0.000000
2068		-7.812500
2069		0.000000
2070		-7.812500
2071		-3.906250
2072		-11.718750
2073		-3.906250
2074		-11.718750
2075		-7.812500
2076		-15.625000
2077		-7.812500
2078		-15.625000
2079		-7.812500
2080		-15.625000
2081		-11.718750
2082		-19.531250
2083		-11.718750
2084		-19.531250
2085		-11.718750
2086		-19.531250
2087		-11.718750
2088		-19.531250
2089		-15.625000
2090		-23.437500
2091		-19.531250
2092		-23.437500
2093		-15.625000
2094		-23.437500
2095		-19.531250
2096		-27.343750
2097		-19.531250
2098		-27.343750
2099		-19.531250
2100		-27.343750
2101		-19.531250
2102		-27.343750
2103		-19.531250
2104		-27.343750
2105		-23.437500
2106		-27.343750
2107		-23.437500
2108		-27.343750
2109		-23.437500
2110		-27.343750
2111		-23.437500
2112		-31.250000
2113		-23.437500
2114		-31.250000
2115		-23.437500
2116		-31.250000
2117		-23.437500
2118		-31.250000
2119		-23.437500
2120		-31.250000
2121		-23.437500
2122		-27.343750
2123		-23.437500
2124		-27.343750
2125		-23.437500
2126		-27.343750
2127		-23.437500
2128		-27.343750
2129		-19.531250
2130		-27.343750
2131		-19.531250
2132		-27.343750
2133		-19.531250
2134		-27.343750
2135		-19.531250
2136		-23.437500
2137		-19.531250
2138		-23.437500
2139		-19.531250
2140		-23.437500
2141		-19.531250
2142		-23.437500
2143		-15.625000
2144		-23.437500
2145		-15.625000
2146		-19.531250
2147		-11.718750
2148		-19.531250
2149		-11.718750
2150		-19.531250
2151		-11.718750
2152		-15.625000
2153		-7.812500
2154		-15.625000
2155		-7.812500
2156		-11.718750
2157		-7.812500
2158		-11.718750
2159		-7.812500
2160		-11.718750
2161		-3.906250
2162		-11.718750
2163		0.000000
2164		-7.812500
2165		0.000000
2166		-3.906250
2167		0.000000
2168		-3.906250
2169		3.906250
2170		-3.906250
2171		3.906250
2172		0.000000
2173		3.906250
2174		3.906250
2175		7.812500
2176		3.906250
2177		11.718750
2178		3.906250
2179		11.718750
2180		7.812500
2181		15.625000
2182		7.812500
2183		15.625000
2184		11.718750
2185		19.531250
2186		11.718750
2187		23.437500
2188		15.625000
2189		23.437500
2190		19.531250
2191		23.437500
2192		19.531250
2193		27.343750
2194		23.437500
2195		31.250000
2196		23.437500
2197		31.250000
2198		27.343750
2199		35.156250
2200		27.343750
2201		35.156250
2202		31.250000
2203		39.062500
2204		35.156250
2205		39.062500
2206		35.156250
2207		42.968750
2208		39.062500
2209		42.968750
2210		39.062500
2211		46.875000
2212		42.968750
2213		50.781250
2214		42.968750
2215		50.781250
2216		46.875000
2217		54.687500
2218		46.875000
2219		54.687500
2220		50.781250
2221		58.593750
2222		54.687500
2223		58.593750
2224		58.593750
2225		62.500000
2226		58.593750
2227		66.406250
2228		58.593750
2229		66.406250
2230		62.500000
2231		70.312500
2232		62.500000
2233		70.312500
2234		66.406250
2235		74.218750
2236		66.406250
2237		74.218750
2238		70.312500
2239		78.125000
2240		74.218750
2241		78.125000
2242		78.125000
2243		82.031250
2244		78.125000
2245		85.937500
2246		78.125000
2247		85.937500
2248		82.031250
2249		89.843750
2250		82.031250
2251		89.843750
2252		82.031250
2253		89.843750
2254		85.937500
2255		93.750000
2256		89.843750
2257		93.750000
2258		89.843750
2259		93.750000
2260		89.843750
2261		97.656250
2262		93.750000
2263		101.562500
2264		93.750000
2265		101.562500
2266		93.750000
2267		105.468750
2268		97.656250
2269		105.468750
2270		97.656250
2271		105.468750
2272		101.562500
2273		105.468750
2274		105.468750
2275		105.468750
2276		105.468750
2277		109.375000
2278		105.468750
2279		113.281250
2280		105.468750
2281		113.281250
2282		105.468750
2283		113.281250
2284		109.375000
2285		113.281250
2286		109.375000
2287		117.187500
2288		109.375000
2289		117.187500
2290		113.281250
2291		117.187500
2292		113.281250
2293		117.187500
2294		113.281250
2295		121.093750
2296		113.281250
2297		121.093750
2298		113.281250
2299		121.093750
2300		113.281250
2301		121.093750
2302		113.281250
2303		121.093750
2304		113.281250
2305		121.093750
2306		117.187500
2307		121.093750
2308		117.187500
2309		121.093750
2310		117.187500
2311		121.093750
2312		117.187500
2313		125.000000
2314		117.187500
2315		125.000000
2316		117.187500
2317		125.000000
2318		117.187500
2319		125.000000
2320		117.187500
2321		125.000000
2322		117.187500
2323		125.000000
2324		117.187500
2325		121.093750
2326		117.187500
2327		121.093750
2328		117.187500
2329		121.093750
2330		117.187500
2331		121.093750
2332		113.281250
2333		121.093750
2334		113.281250
2335		121.093750
2336		113.281250
2337		121.093750
2338		113.281250
2339		121.093750
2340		113.281250
2341		121.093750
2342		113.281250
2343		117.187500
2344		113.281250
2345		117.187500
2346		109.375000
2347		117.187500
2348		109.375000
2349		117.187500
2350		109.375000
2351		117.187500
2352		109.375000
2353		117.187500
2354		105.468750
2355		113.281250
2356		105.468750
2357		113.281250
2358		105.468750
2359		109.375000
2360		105.468750
2361		109.375000
2362		101.562500
2363		109.375000
2364		101.562500
2365		109.375000
2366		97.656250
2367		105.468750
2368		97.656250
2369		105.468750
2370		97.656250
2371		105.468750
2372		93.750000
2373		101.562500
2374		93.750000
2375		101.562500
2376		93.750000
2377		97.656250
2378		89.843750
2379		97.656250
2380		89.843750
2381		97.656250
2382		85.937500
2383		93.750000
2384		85.937500
2385		93.750000
2386		82.031250
2387		89.843750
2388		82.031250
2389		89.843750
2390		82.031250
2391		85.937500
2392		78.125000
2393		82.031250
2394		74.218750
2395		82.031250
2396		74.218750
2397		82.031250
2398		70.312500
2399		78.125000
2400		66.406250
2401		78.125000
2402		66.406250
2403		74.218750
2404		66.406250
2405		70.312500
2406		62.500000
2407		70.312500
2408		62.500000
2409		66.406250
2410		58.593750
2411		62.500000
2412		54.687500
2413		62.500000
2414		50.781250
2415		62.500000
2416		50.781250
2417		58.593750
2418		46.875000
2419		54.687500
2420		46.875000
2421		54.687500
2422		42.968750
2423		50.781250
2424		42.968750
2425		46.875000
2426		39.062500
2427		46.875000
2428		35.156250
2429		42.968750
2430		35.156250
2431		42.968750
2432		31.250000
2433		39.062500
2434		31.250000
2435		39.062500
2436		27.343750
2437		35.156250
2438		23.437500
2439		31.250000
2440		23.437500
2441		31.250000
2442		19.531250
2443		27.343750
2444		19.531250
2445		23.437500
2446		15.625000
2447		23.437500
2448		11.718750
2449		23.437500
2450		11.718750
2451		19.531250
2452		7.812500
2453		19.531250
2454		7.812500
2455		15.625000
2456		7.812500
2457		11.718750
2458		3.906250
2459		7.812500
2460		3.906250
2461		7.812500
2462		0.000000
2463		7.812500
2464		0.000000
2465		3.906250
2466		-3.906250
2467		3.906250
2468		-7.812500
2469		0.000000
2470		-7.812500
2471		0.000000
2472		-7.812500
2473		0.000000
2474		-11.718750
2475		-3.906250
2476		-11.718750
2477		-7.812500
2478		-11.718750
2479		-7.812500
2480		-15.625000
2481		-7.812500
2482		-15.625000
2483		-11.718750
2484		-19.531250
2485		-11.718750
2486		-19.531250
2487		-11.718750
2488		-19.531250
2489		-11.718750
2490		-23.437500
2491		-15.625000
2492		-19.531250
2493		-15.625000
2494		-23.437500
2495		-19.531250
2496		-23.437500
2497		-19.531250
2498		-27.343750
2499		-19.531250
2500		-27.343750
2501		-19.531250
2502		-27.343750
2503		-19.531250
2504		-27.343750
2505		-19.531250
2506		-27.343750
2507		-19.531250
2508		-27.343750
2509		-23.437500
2510		-27.343750
2511		-23.437500
2512		-31.250000
2513		-23.437500
2514		-27.343750
2515		-23.437500
2516		-27.343750
2517		-23.437500
2518		-31.250000
2519		-23.437500
2520		-31.250000
2521		-23.437500
2522		-31.250000
2523		-23.437500
2524		-27.343750
2525		-23.437500
2526		-27.343750
2527		-23.437500
2528		-27.343750
2529		-23.437500
2530		-27.343750
2531		-19.531250
2532		-27.343750
2533		-19.531250
2534		-27.343750
2535		-19.531250
2536		-27.343750
2537		-19.531250
2538		-27.343750
2539		-19.531250
2540		-23.437500
2541		-19.531250
2542		-23.437500
2543		-19.531250
2544		-19.531250
2545		-15.625000
2546		-19.531250
2547		-15.625000
2548		-19.531250
2549		-15.625000
2550		-19.531250
2551		-11.718750
2552		-19.531250
2553		-11.718750
2554		-19.531250
2555		-11.718750
2556		-15.625000
2557		-7.812500
2558		-15.625000
2559		-7.812500
2560		-11.718750
2561		-7.812500
2562		-11.718750
2563		-3.906250
2564		-7.812500
2565		-3.906250
2566		-7.812500
2567		0.000000
2568		-7.812500
2569		0.000000
2570		-3.906250
2571		3.906250
2572		-3.906250
2573		3.906250
2574		0.000000
2575		3.906250
2576		3.906250
2577		7.812500
2578		3.906250
2579		7.812500
2580		3.906250
2581		11.718750
2582		7.812500
2583		15.625000
2584		7.812500
2585		15.625000
2586		11.718750
2587		19.531250
2588		11.718750
2589		19.531250
2590		15.625000
2591		23.437500
2592		15.625000
2593		23.437500
2594		19.531250
2595		27.343750
2596		23.437500
2597		31.250000
2598		23.437500
2599		31.250000
2600		23.437500
2601		35.156250
2602		27.343750
2603		35.156250
2604		31.250000
2605		39.062500
2606		31.250000
2607		39.062500
2608		35.156250
2609		39.062500
2610		39.062500
2611		42.968750
2612		39.062500
2613		46.875000
2614		39.062500
2615		50.781250
2616		42.968750
2617		50.781250
2618		46.875000
2619		54.687500
2620		46.875000
2621		54.687500
2622		50.781250
2623		58.593750
2624		50.781250
2625		58.593750
2626		54.687500
2627		62.500000
2628		58.593750
2629		62.500000
2630		58.593750
2631		66.406250
2632		62.500000
2633		70.312500
2634		62.500000
2635		70.312500
2636		66.406250
2637		74.218750
2638		66.406250
2639		74.218750
2640		70.312500
2641		78.125000
2642		74.218750
2643		78.125000
2644		74.218750
2645		78.125000
2646		78.125000
2647		85.937500
2648		78.125000
2649		85.937500
2650		78.125000
2651		85.937500
2652		82.031250
2653		89.843750
2654		85.937500
2655		89.843750
2656		85.937500
2657		93.750000
2658		85.937500
2659		93.750000
2660		89.843750
2661		93.750000
2662		93.750000
2663		97.656250
2664		93.750000
2665		101.562500
2666		93.750000
2667		101.562500
2668		93.750000
2669		101.562500
2670		97.656250
2671		105.468750
2672		97.656250
2673		105.468750
2674		101.562500
2675		105.468750
2676		101.562500
2677		105.468750
2678		105.468750
2679		109.375000
2680		105.468750
2681		113.281250
2682		105.468750
2683		113.281250
2684		105.468750
2685		113.281250
2686		109.375000
2687		113.281250
2688		109.375000
2689		117.187500
2690		109.375000
2691		117.187500
2692		109.375000
2693		117.187500
2694		113.281250
2695		117.187500
2696		113.281250
2697		117.187500
2698		113.281250
2699		121.093750
2700		113.281250
2701		121.093750
2702		113.281250
2703		121.093750
2704		113.281250
2705		121.093750
2706		117.187500
2707		121.093750
2708		117.187500
2709		121.093750
2710		117.187500
2711		121.093750
2712		117.187500
2713		121.093750
2714		117.187500
2715		121.093750
2716		117.187500
2717		125.000000
2718		117.187500
2719		125.000000
2720		117.187500
2721		125.000000
2722		117.187500
2723		125.000000
2724		117.187500
2725		125.000000
2726		117.187500
2727		121.093750
2728		117.187500
2729		121.093750
2730		117.187500
2731		121.093750
2732		117.187500
2733		121.093750
2734		117.187500
2735		121.093750
2736		117.187500
2737		121.093750
2738		117.187500
2739		121.093750
2740		117.187500
2741		121.093750
2742		117.187500
2743		121.093750
2744		117.187500
2745		117.187500
2746		113.281250
2747		117.187500
2748		113.281250
2749		117.187500
2750		113.281250
2751		117.187500
2752		109.375000
2753		117.187500
2754		109.375000
2755		113.281250
2756		109.375000
2757		113.281250
2758		109.375000
2759		113.281250
2760		109.375000
2761		109.375000
2762		105.468750
2763		109.375000
2764		105.468750
2765		109.375000
2766		101.562500
2767		109.375000
2768		101.562500
2769		105.468750
2770		101.562500
2771		105.468750
2772		97.656250
2773		105.468750
2774		97.656250
2775		101.562500
2776		97.656250
2777		101.562500
2778		93.750000
2779		97.656250
2780		93.750000
2781		97.656250
2782		89.843750
2783		97.656250
2784		89.843750
2785		93.750000
2786		89.843750
2787		93.750000
2788		85.937500
2789		89.843750
2790		82.031250
2791		89.843750
2792		82.031250
2793		85.937500
2794		82.031250
2795		85.937500
2796		78.125000
2797		82.031250
2798		74.218750
2799		82.031250
2800		74.218750
2801		78.125000
2802		70.312500
2803		74.218750
2804		70.312500
2805		74.218750
2806		66.406250
2807		70.312500
2808		66.406250
2809		70.312500
2810		62.500000
2811		66.406250
2812		62.500000
2813		66.406250
2814		58.593750
2815		62.500000
2816		54.687500
2817		62.500000
2818		54.687500
2819		58.593750
2820		50.781250
2821		54.687500
2822		50.781250
2823		54.687500
2824		46.875000
2825		50.781250
2826		42.968750
2827		50.781250
2828		42.968750
2829		46.875000
2830		39.062500
2831		42.968750
2832		35.156250
2833		42.968750
2834		35.156250
2835		39.062500
2836		31.250000
2837		39.062500
2838		31.250000
2839		35.156250
2840		27.343750
2841		31.250000
2842		27.343750
2843		31.250000
2844		23.437500
2845		27.343750
2846		19.531250
2847		27.343750
2848		19.531250
2849		23.437500
2850		15.625000
2851		23.437500
2852		15.625000
2853		19.531250
2854		11.718750
2855		15.625000
2856		11.718750
2857		15.625000
2858		7.812500
2859		11.718750
2860		7.812500
2861		11.718750
2862		3.906250
2863		7.812500
2864		3.906250
2865		7.812500
2866		0.000000
2867		3.906250
2868		0.000000
2869		3.906250
2870		-3.906250
2871		0.000000
2872		-3.906250
2873		0.000000
2874		-7.812500
2875		-3.906250
2876		-7.812500
2877		-3.906250
2878		-7.812500
2879		-3.906250
2880		-11.718750
2881		-7.812500
2882		-11.718750
2883		-7.812500
2884		-15.625000
2885		-11.718750
2886		-15.625000
2887		-11.718750
2888		-15.625000
2889		-11.718750
2890		-19.531250
2891		-15.625000
2892		-19.531250
2893		-15.625000
2894		-19.531250
2895		-15.625000
2896		-19.531250
2897		-19.531250
2898		-23.437500
2899		-19.531250
2900		-23.437500
2901		-19.531250
2902		-23.437500
2903		-19.531250
2904		-23.437500
2905		-19.531250
2906		-23.437500
2907		-19.531250
2908		-27.343750
2909		-19.531250
2910		-27.343750
2911		-23.437500
2912		-27.343750
2913		-23.437500
2914		-27.343750
2915		-23.437500
2916		-27.343750
2917		-23.437500
2918		-27.343750
2919		-23.437500
2920		-27.343750
2921		-23.437500
2922		-27.343750
2923		-23.437500
2924		-27.343750
2925		-23.437500
2926		-27.343750
2927		-23.437500
2928		-27.343750
2929		-23.437500
2930		-27.343750
2931		-23.437500
2932		-27.343750
2933		-23.437500
2934		-27.343750
2935		-23.437500
2936		-27.343750
2937		-19.531250
2938		-23.437500
2939		-19.531250
2940		-23.437500
2941		-19.531250
2942		-23.437500
2943		-19.531250
2944		-23.437500
2945		-19.531250
2946		-19.531250
2947		-19.531250
2948		-19.531250
2949		-15.625000
2950		-19.531250
2951		-15.625000
2952		-19.531250
2953		-15.625000
2954		-15.625000
2955		-11.718750
2956		-15.625000
2957		-11.718750
2958		-15.625000
2959		-11.718750
2960		-15.625000
2961		-7.812500
2962		-11.718750
2963		-7.812500
2964		-11.718750
2965		-7.812500
2966		-7.812500
2967		-3.906250
2968		-7.812500
2969		-3.906250
2970		-3.906250
2971		-3.906250
2972		-3.906250
2973		0.000000
2974		-3.906250
2975		3.906250
2976		0.000000
2977		3.906250
2978		0.000000
2979		3.906250
2980		3.906250
2981		7.812500
2982		3.906250
2983		11.718750
2984		7.812500
2985		11.718750
2986		7.812500
2987		11.718750
2988		11.718750
2989		15.625000
2990		11.718750
2991		15.625000
2992		15.625000
2993		19.531250
2994		15.625000
2995		23.437500
2996		19.531250
2997		23.437500
2998		19.531250
2999		27.343750
3000		23.437500
3001		27.343750
3002		27.343750
3003		31.250000
3004		27.343750
3005		31.250000
3006		31.250000
3007		35.156250
3008		31.250000
3009		39.062500
3010		35.156250
3011		39.062500
3012		35.156250
3013		39.062500
3014		39.062500
3015		42.968750
3016		42.968750
3017		46.875000
3018		42.968750
3019		46.875000
3020		46.875000
3021		50.781250
3022		46.875000
3023		54.687500
3024		50.781250
3025		54.687500
3026		54.687500
3027		58.593750
3028		54.687500
3029		58.593750
3030		58.593750
3031		62.500000
3032		58.593750
3033		62.500000
3034		62.500000
3035		66.406250
3036		62.500000
3037		70.312500
3038		66.406250
3039		70.312500
3040		66.406250
3041		74.218750
3042		70.312500
3043		74.218750
3044		70.312500
3045		78.125000
3046		74.218750
3047		78.125000
3048		74.218750
3049		82.031250
3050		78.125000
3051		82.031250
3052		78.125000
3053		85.937500
3054		82.031250
3055		85.937500
3056		82.031250
3057		89.843750
3058		85.937500
3059		89.843750
3060		85.937500
3061		89.843750
3062		89.843750
3063		93.750000
3064		89.843750
3065		93.750000
3066		93.750000
3067		97.656250
3068		93.750000
3069		97.656250
3070		97.656250
3071		101.562500
3072		97.656250
3073		101.562500
3074		97.656250
3075		101.562500
3076		101.562500
3077		105.468750
3078		101.562500
3079		105.468750
3080		105.468750
3081		105.468750
3082		105.468750
3083		109.375000
3084		105.468750
3085		109.375000
3086		105.468750
3087		109.375000
3088		109.375000
3089		113.281250
3090		109.375000
3091		113.281250
3092		109.375000
3093		113.281250
3094		109.375000
3095		113.281250
3096		113.281250
3097		117.187500
3098		113.281250
3099		117.187500
3100		113.281250
3101		117.187500
3102		113.281250
3103		117.187500
3104		113.281250
3105		121.093750
3106		113.281250
3107		121.093750
3108		117.187500
3109		121.093750
3110		117.187500
3111		121.093750
3112		117.187500
3113		121.093750
3114		117.187500
3115		121.093750
3116		117.187500
3117		121.093750
3118		117.187500
3119		121.093750
3120		117.187500
3121		121.093750
3122		117.187500
3123		121.093750
3124		117.187500
3125		121.093750
3126		117.187500
3127		121.093750
3128		117.187500
3129		121.093750
3130		117.187500
3131		121.093750
3132		117.187500
3133		121.093750
3134		117.187500
3135		121.093750
3136		117.187500
3137		121.093750
3138		117.187500
3139		121.093750
3140		117.187500
3141		121.093750
3142		117.187500
3143		121.093750
3144		117.187500
3145		121.093750
3146		117.187500
3147		121.093750
3148		113.281250
3149		117.187500
3150		113.281250
3151		117.187500
3152		113.281250
3153		117.187500
3154		113.281250
3155		117.187500
3156		109.375000
3157		113.281250
3158		109.375000
3159		113.281250
3160		109.375000
3161		113.281250
3162		109.375000
3163		113.281250
3164		105.468750
3165		113.281250
3166		105.468750
3167		109.375000
3168		105.468750
3169		109.375000
3170		101.562500
3171		105.468750
3172		101.562500
3173		105.468750
3174		101.562500
3175		105.468750
3176		97.656250
3177		101.562500
3178		97.656250
3179		101.562500
3180		93.750000
3181		101.562500
3182		93.750000
3183		97.656250
3184		89.843750
3185		97.656250
3186		89.843750
3187		93.750000
3188		89.843750
3189		93.750000
3190		85.937500
3191		89.843750
3192		85.937500
3193		89.843750
3194		82.031250
3195		89.843750
3196		82.031250
3197		85.937500
3198		78.125000
3199		82.031250
3200		78.125000
3201		82.031250
3202		74.218750
3203		78.125000
3204		74.218750
3205		78.125000
3206		70.312500
3207		74.218750
3208		66.406250
3209		74.218750
3210		66.406250
3211		70.312500
3212		62.500000
3213		70.312500
3214		62.500000
3215		66.406250
3216		58.593750
3217		62.500000
3218		58.593750
3219		62.500000
3220		54.687500
3221		58.593750
3222		54.687500
3223		58.593750
3224		50.781250
3225		54.687500
3226		46.875000
3227		50.781250
3228		46.875000
3229		50.781250
3230		42.968750
3231		46.875000
3232		39.062500
3233		46.875000
3234		39.062500
3235		42.968750
3236		35.156250
3237		42.968750
3238		35.156250
3239		39.062500
3240		31.250000
3241		35.156250
3242		27.343750
3243		35.156250
3244		27.343750
3245		31.250000
3246		23.437500
3247		31.250000
3248		23.437500
3249		27.343750
3250		19.531250
3251		27.343750
3252		19.531250
3253		23.437500
3254		15.625000
3255		19.531250
3256		15.625000
3257		19.531250
3258		11.718750
3259		15.625000
3260		7.812500
3261		15.625000
3262		7.812500
3263		11.718750
3264		3.906250
3265		11.718750
3266		3.906250
3267		7.812500
3268		0.000000
3269		3.906250
3270		0.000000
3271		3.906250
3272		-3.906250
3273		0.000000
3274		-3.906250
3275		0.000000
3276		-3.906250
3277		0.000000
3278		-7.812500
3279		-3.906250
3280		-7.812500
3281		-3.906250
3282		-11.718750
3283		-7.812500
3284		-11.718750
3285		-7.812500
3286		-15.625000
3287		-7.812500
3288		-15.625000
3289		-11.718750
3290		-15.625000
3291		-11.718750
3292		-15.625000
3293		-15.625000
3294		-19.531250
3295		-15.625000
3296		-19.531250
3297		-15.625000
3298		-19.531250
3299		-15.625000
3300		-23.437500
3301		-19.531250
3302		-23.437500
3303		-19.531250
3304		-23.437500
3305		-19.531250
3306		-23.437500
3307		-19.531250
3308		-23.437500
3309		-19.531250
3310		-27.343750
3311		-23.437500
3312		-27.343750
3313		-23.437500
3314		-27.343750
3315		-23.437500
3316		-27.343750
3317		-23.437500
3318		-27.343750
3319		-23.437500
3320		-27.343750
3321		-23.437500
3322		-27.343750
3323		-23.437500
3324		-27.343750
3325		-23.437500
3326		-27.343750
3327		-23.437500
3328		-27.343750
3329		-23.437500
3330		-27.343750
3331		-23.437500
3332		-27.343750
3333		-23.437500
3334		-27.343750
3335		-23.437500
3336		-27.343750
3337		-23.437500
3338		-27.343750
3339		-23.437500
3340		-27.343750
3341		-23.437500
3342		-23.437500
3343		-23.437500
3344		-23.437500
3345		-19.531250
3346		-23.437500
3347		-19.531250
3348		-23.437500
3349		-19.531250
3350		-23.437500
3351		-19.531250
3352		-19.531250
3353		-15.625000
3354		-19.531250
3355		-15.625000
3356		-19.531250
3357		-15.625000
3358		-19.531250
3359		-11.718750
3360		-15.625000
3361		-11.718750
3362		-15.625000
3363		-11.718750
3364		-15.625000
3365		-7.812500
3366		-11.718750
3367		-7.812500
3368		-11.718750
3369		-7.812500
3370		-11.718750
3371		-3.906250
3372		-7.812500
3373		-3.906250
3374		-7.812500
3375		-3.906250
3376		-3.906250
3377		0.000000
3378		-3.906250
3379		0.000000
3380		0.000000
3381		3.906250
3382		0.000000
3383		3.906250
3384		3.906250
3385		7.812500
3386		3.906250
3387		7.812500
3388		7.812500
3389		11.718750
3390		7.812500
3391		11.718750
3392		11.718750
3393		15.625000
3394		11.718750
3395		15.625000
3396		15.625000
3397		19.531250
3398		19.531250
3399		23.437500
3400		19.531250
3401		23.437500
3402		23.437500
3403		27.343750
3404		23.437500
3405		27.343750
3406		27.343750
3407		31.250000
3408		27.343750
3409		31.250000
3410		31.250000
3411		35.156250
3412		31.250000
3413		39.062500
3414		35.156250
3415		39.062500
3416		35.156250
3417		42.968750
3418		39.062500
3419		42.968750
3420		42.968750
3421		46.875000
3422		42.968750
3423		50.781250
3424		46.875000
3425		50.781250
3426		46.875000
3427		54.687500
3428		50.781250
3429		54.687500
3430		54.687500
3431		58.593750
3432		54.687500
3433		58.593750
3434		58.593750
3435		62.500000
3436		58.593750
3437		66.406250
3438		62.500000
3439		66.406250
3440		66.406250
3441		70.312500
3442		66.406250
3443		70.312500
3444		70.312500
3445		74.218750
3446		70.312500
3447		74.218750
3448		74.218750
3449		78.125000
3450		74.218750
3451		78.125000
3452		78.125000
3453		82.031250
3454		78.125000
3455		82.031250
3456		82.031250
3457		85.937500
3458		82.031250
3459		85.937500
3460		82.031250
3461		89.843750
3462		85.937500
3463		89.843750
3464		89.843750
3465		93.750000
3466		89.843750
3467		93.750000
3468		89.843750
3469		93.750000
3470		93.750000
3471		97.656250
3472		93.750000
3473		97.656250
3474		97.656250
3475		101.562500
3476		97.656250
3477		101.562500
3478		97.656250
3479		105.468750
3480		101.562500
3481		105.468750
3482		101.562500
3483		105.468750
3484		105.468750
3485		105.468750
3486		105.468750
3487		109.375000
3488		105.468750
3489		109.375000
3490		105.468750
3491		109.375000
3492		109.375000
3493		113.281250
3494		109.375000
3495		113.281250
3496		109.375000
3497		113.281250
3498		113.281250
3499		113.281250
3500		113.281250
3501		117.187500
3502		113.281250
3503		117.187500
3504		113.281250
3505		117.187500
3506		113.281250
3507		117.187500
3508		113.281250
3509		117.187500
3510		113.281250
3511		121.093750
3512		117.187500
3513		121.093750
3514		117.187500
3515		121.093750
3516		117.187500
3517		121.093750
3518		117.187500
3519		121.093750
3520		117.187500
3521		121.093750
3522		117.187500
3523		121.093750
3524		117.187500
3525		121.093750
3526		117.187500
3527		121.093750
3528		117.187500
3529		121.093750
3530		117.187500
3531		121.093750
3532		117.187500
3533		121.093750
3534		117.187500
3535		121.093750
3536		117.187500
3537		121.093750
3538		117.187500
3539		121.093750
3540		117.187500
3541		121.093750
3542		117.187500
3543		121.093750
3544		117.187500
3545		121.093750
3546		113.281250
3547		121.093750
3548		117.187500
3549		121.093750
3550		113.281250
3551		117.187500
3552		113.281250
3553		117.187500
3554		113.281250
3555		117.187500
3556		113.281250
3557		117.187500
3558		109.375000
3559		117.187500
3560		109.375000
3561		113.281250
3562		109.375000
3563		113.281250
3564		109.375000
3565		113.281250
3566		109.375000
3567		113.281250
3568		105.468750
3569		109.375000
3570		105.468750
3571		109.375000
3572		101.562500
3573		109.375000
3574		101.562500
3575		105.468750
3576		101.562500
3577		105.468750
3578		97.656250
3579		101.562500
3580		97.656250
3581		101.562500
3582		93.750000
3583		101.562500
3584		93.750000
3585		101.562500
3586		93.750000
3587		97.656250
3588		89.843750
3589		93.750000
3590		89.843750
3591		93.750000
3592		85.937500
3593		93.750000
3594		85.937500
3595		89.843750
3596		85.937500
3597		89.843750
3598		82.031250
3599		85.937500
3600		78.125000
3601		85.937500
3602		78.125000
3603		82.031250
3604		74.218750
3605		78.125000
3606		74.218750
3607		78.125000
3608		70.312500
3609		74.218750
3610		70.312500
3611		74.218750
3612		66.406250
3613		70.312500
3614		66.406250
3615		70.312500
3616		62.500000
3617		66.406250
3618		62.500000
3619		66.406250
3620		58.593750
3621		62.500000
3622		54.687500
3623		58.593750
3624		54.687500
3625		58.593750
3626		50.781250
3627		54.687500
3628		46.875000
3629		54.687500
3630		46.875000
3631		50.781250
3632		42.968750
3633		50.781250
3634		42.968750
3635		46.875000
3636		39.062500
3637		42.968750
3638		35.156250
3639		42.968750
3640		35.156250
3641		39.062500
3642		31.250000
3643		39.062500
3644		31.250000
3645		35.156250
3646		27.343750
3647		31.250000
3648		27.343750
3649		31.250000
3650		23.437500
3651		27.343750
3652		19.531250
3653		27.343750
3654		19.531250
3655		23.437500
3656		15.625000
3657		19.531250
3658		15.625000
3659		19.531250
3660		11.718750
3661		15.625000
3662		11.718750
3663		15.625000
3664		7.812500
3665		11.718750
3666		3.906250
3667		11.718750
3668		3.906250
3669		7.812500
3670		0.000000
3671		7.812500
3672		0.000000
3673		3.906250
3674		0.000000
3675		3.906250
3676		-3.906250
3677		0.000000
3678		-3.906250
3679		0.000000
3680		-7.812500
3681		-3.906250
3682		-7.812500
3683		-3.906250
3684		-7.812500
3685		-3.906250
3686		-11.718750
3687		-7.812500
3688		-11.718750
3689		-7.812500
3690		-15.625000
3691		-11.718750
3692		-15.625000
3693		-11.718750
3694		-15.625000
3695		-11.718750
3696		-19.531250
3697		-15.625000
3698		-19.531250
3699		-15.625000
3700		-19.531250
3701		-15.625000
3702		-23.437500
3703		-19.531250
3704		-23.437500
3705		-19.531250
3706		-23.437500
3707		-19.531250
3708		-23.437500
3709		-19.531250
3710		-23.437500
3711		-19.531250
3712		-23.437500
3713		-23.437500
3714		-27.343750
3715		-23.437500
3716		-27.343750
3717		-23.437500
3718		-27.343750
3719		-23.437500
3720		-27.343750
3721		-23.437500
3722		-27.343750
3723		-23.437500
3724		-27.343750
3725		-23.437500
3726		-27.343750
3727		-23.437500
3728		-27.343750
3729		-23.437500
3730		-27.343750
3731		-23.437500
3732		-27.343750
3733		-23.437500
3734		-27.343750
3735		-23.437500
3736		-27.343750
3737		-23.437500
3738		-27.343750
3739		-23.437500
3740		-27.343750
3741		-23.437500
3742		-27.343750
3743		-23.437500
3744		-27.343750
3745		-23.437500
3746		-23.437500
3747		-19.531250
3748		-23.437500
3749		-19.531250
3750		-23.437500
3751		-19.531250
3752		-23.437500
3753		-19.531250
3754		-19.531250
3755		-19.531250
3756		-19.531250
3757		-15.625000
3758		-19.531250
3759		-15.625000
3760		-19.531250
3761		-15.625000
3762		-15.625000
3763		-11.718750
3764		-15.625000
3765		-11.718750
3766		-15.625000
3767		-11.718750
3768		-11.718750
3769		-7.812500
3770		-11.718750
3771		-7.812500
3772		-11.718750
3773		-3.906250
3774		-7.812500
3775		-3.906250
3776		-7.812500
3777		-3.906250
3778		-3.906250
3779		0.000000
3780		-3.906250
3781		0.000000
3782		0.000000
3783		3.906250
3784		0.000000
3785		3.906250
3786		3.906250
3787		7.812500
3788		3.906250
3789		7.812500
3790		7.812500
3791		11.718750
3792		7.812500
3793		11.718750
3794		11.718750
3795		15.625000
3796		11.718750
3797		15.625000
3798		15.625000
3799		19.531250
3800		15.625000
3801		19.531250
3802		19.531250
3803		23.437500
3804		19.531250
3805		23.437500
3806		23.437500
3807		27.343750
3808		23.437500
3809		31.250000
3810		27.343750
3811		31.250000
3812		31.250000
3813		35.156250
3814		31.250000
3815		35.156250
3816		31.250000
3817		39.062500
3818		35.156250
3819		42.968750
3820		39.062500
3821		42.968750
3822		39.062500
3823		46.875000
3824		42.968750
3825		46.875000
3826		46.875000
3827		50.781250
3828		46.875000
3829		50.781250
3830		50.781250
3831		54.687500
3832		50.781250
3833		54.687500
3834		54.687500
3835		58.593750
3836		54.687500
3837		62.500000
3838		58.593750
3839		62.500000
3840		62.500000
3841		66.406250
3842		62.500000
3843		66.406250
3844		62.500000
3845		70.312500
3846		66.406250
3847		70.312500
3848		70.312500
3849		74.218750
3850		70.312500
3851		78.125000
3852		74.218750
3853		78.125000
3854		74.218750
3855		78.125000
3856		78.125000
3857		82.031250
3858		78.125000
3859		85.937500
3860		82.031250
3861		85.937500
3862		82.031250
3863		89.843750
3864		85.937500
3865		89.843750
3866		85.937500
3867		93.750000
3868		89.843750
3869		93.750000
3870		89.843750
3871		93.750000
3872		93.750000
3873		97.656250
3874		93.750000
3875		97.656250
3876		93.750000
3877		101.562500
3878		97.656250
3879		101.562500
3880		97.656250
3881		101.562500
3882		101.562500
3883		105.468750
3884		101.562500
3885		105.468750
3886		101.562500
3887		105.468750
3888		105.468750
3889		109.375000
3890		105.468750
3891		109.375000
3892		105.468750
3893		109.375000
3894		109.375000
3895		113.281250
3896		109.375000
3897		113.281250
3898		109.375000
3899		113.281250
3900		109.375000
3901		113.281250
3902		109.375000
3903		117.187500
3904		113.281250
3905		117.187500
3906		113.281250
3907		117.187500
3908		113.281250
3909		117.187500
3910		113.281250
3911		117.187500
3912		113.281250
3913		117.187500
3914		117.187500
3915		121.093750
3916		117.187500
3917		121.093750
3918		117.187500
3919		121.093750
3920		117.187500
3921		121.093750
3922		117.187500
3923		121.093750
3924		117.187500
3925		121.093750
3926		117.187500
3927		121.093750
3928		117.187500
3929		121.093750
3930		117.187500
3931		121.093750
3932		117.187500
3933		121.093750
3934		117.187500
3935		121.093750
3936		117.187500
3937		121.093750
3938		117.187500
3939		121.093750
3940		117.187500
3941		121.093750
3942		117.187500
3943		121.093750
3944		117.187500
3945		121.093750
3946		117.187500
3947		121.093750
3948		117.187500
3949		121.093750
3950		113.281250
3951		121.093750
3952		113.281250
3953		117.187500
3954		113.281250
3955		117.187500
3956		113.281250
3957		117.187500
3958		113.281250
3959		117.187500
3960		113.281250
3961		117.187500
3962		109.375000
3963		113.281250
3964		109.375000
3965		113.281250
3966		109.375000
3967		113.281250
3968		109.375000
3969		113.281250
3970		105.468750
3971		109.375000
3972		105.468750
3973		109.375000
3974		105.468750
3975		109.375000
3976		101.562500
3977		105.468750
3978		101.562500
3979		105.468750
3980		101.562500
3981		105.468750
3982		97.656250
3983		101.562500
3984		97.656250
3985		101.562500
3986		93.750000
3987		101.562500
3988		93.750000
3989		97.656250
3990		93.750000
3991		97.656250
3992		89.843750
3993		93.750000
3994		89.843750
3995		93.750000
3996		85.937500
3997		89.843750
3998		85.937500
3999		89.843750
4000		82.031250
4001		89.843750
4002		82.031250
4003		85.937500
4004		78.125000
4005		85.937500
4006		78.125000
4007		82.031250
4008		74.218750
4009		78.125000
4010		74.218750
4011		78.125000
4012		70.312500
4013		74.218750
4014		70.312500
4015		74.218750
4016		66.406250
4017		70.312500
4018		66.406250
4019		70.312500
4020		62.500000
4021		66.406250
4022		58.593750
4023		66.406250
4024		58.593750
4025		62.500000
4026		54.687500
4027		58.593750
4028		54.687500
4029		58.593750
4030		50.781250
4031		54.687500
4032		46.875000
4033		54.687500
4034		46.875000
4035		50.781250
4036		42.968750
4037		46.875000
4038		42.968750
4039		46.875000
4040		39.062500
4041		42.968750
4042		35.156250
4043		42.968750
4044		35.156250
4045		39.062500
4046		31.250000
4047		35.156250
4048		31.250000
4049		35.156250
4050		27.343750
4051		31.250000
4052		23.437500
4053		31.250000
4054		23.437500
4055		27.343750
4056		19.531250
4057		23.437500
4058		15.625000
4059		23.437500
4060		15.625000
4061		23.437500
4062		15.625000
4063		19.531250
4064		11.718750
4065		15.625000
4066		11.718750
4067		15.625000
4068		7.812500
4069		11.718750
4070		3.906250
4071		11.718750
4072		3.906250
4073		7.812500
4074		0.000000
4075		7.812500
4076		0.000000
4077		3.906250
4078		-3.906250
4079		3.906250
4080		-3.906250
4081		0.000000
4082		-3.906250
4083		0.000000
4084		-7.812500
4085		-3.906250
4086		-7.812500
4087		-3.906250
4088		-11.718750
4089		-7.812500
4090		-11.718750
4091		-7.812500
4092		-15.625000
4093		-7.812500
4094		-15.625000
4095		-11.718750
4096		-15.625000
4097		-11.718750
4098		-15.625000
4099		-11.718750
4100		-19.531250
4101		-15.625000
4102		-19.531250
4103		-15.625000
4104		-19.531250
4105		-15.625000
4106		-23.437500
4107		-19.531250
4108		-23.437500
4109		-19.531250
4110		-23.437500
4111		-19.531250
4112		-23.437500
4113		-19.531250
4114		-23.437500
4115		-19.531250
4116		-27.343750
4117		-23.437500
4118		-27.343750
4119		-23.437500
4120		-27.343750
4121		-23.437500
4122		-27.343750
4123		-23.437500
4124		-27.343750
4125		-23.437500
4126		-27.343750
4127		-23.437500
4128		-27.343750
4129		-23.437500
4130		-27.343750
4131		-23.437500
4132		-27.343750
4133		-23.437500
4134		-27.343750
4135		-23.437500
4136		-27.343750
4137		-23.437500
4138		-27.343750
4139		-23.437500
4140		-27.343750
4141		-23.437500
4142		-27.343750
4143		-23.437500
4144		-27.343750
4145		-23.437500
4146		-27.343750
4147		-23.437500
4148		-23.437500
4149		-19.531250
4150		-23.437500
4151		-19.531250
4152		-23.437500
4153		-19.531250
4154		-23.437500
4155		-19.531250
4156		-23.437500
4157		-15.625000
4158		-19.531250
4159		-15.625000
4160		-19.531250
4161		-15.625000
4162		-19.531250
4163		-15.625000
4164		-15.625000
4165		-15.625000
4166		-15.625000
4167		-11.718750
4168		-15.625000
4169		-11.718750
4170		-15.625000
4171		-11.718750
4172		-11.718750
4173		-7.812500
4174		-11.718750
4175		-7.812500
4176		-7.812500
4177		-3.906250
4178		-7.812500
4179		-3.906250
4180		-3.906250
4181		0.000000
4182		-3.906250
4183		0.000000
4184		-3.906250
4185		0.000000
4186		0.000000
4187		3.906250
4188		0.000000
4189		7.812500
4190		3.906250
4191		7.812500
4192		3.906250
4193		7.812500
4194		3.906250
4195		11.718750
4196		7.812500
4197		11.718750
4198		11.718750
4199		15.625000
4200		11.718750
4201		19.531250
4202		15.625000
4203		19.531250
4204		15.625000
4205		23.437500
4206		19.531250
4207		23.437500
4208		23.437500
4209		27.343750
4210		23.437500
4211		27.343750
4212		27.343750
4213		31.250000
4214		27.343750
4215		31.250000
4216		31.250000
4217		35.156250
4218		31.250000
4219		35.156250
4220		35.156250
4221		39.062500
4222		35.156250
4223		42.968750
4224		39.062500
4225		42.968750
4226		42.968750
4227		46.875000
4228		42.968750
4229		46.875000
4230		46.875000
4231		50.781250
4232		46.875000
4233		50.781250
4234		50.781250
4235		54.687500
4236		50.781250
4237		58.593750
4238		54.687500
4239		58.593750
4240		58.593750
4241		62.500000
4242		58.593750
4243		62.500000
4244		62.500000
4245		66.406250
4246		62.500000
4247		70.312500
4248		66.406250
4249		70.312500
4250		70.312500
4251		74.218750
4252		70.312500
4253		74.218750
4254		70.312500
4255		78.125000
4256		74.218750
4257		78.125000
4258		78.125000
4259		82.031250
4260		78.125000
4261		82.031250
4262		82.031250
4263		85.937500
4264		82.031250
4265		85.937500
4266		85.937500
4267		89.843750
4268		85.937500
4269		89.843750
4270		89.843750
4271		93.750000
4272		89.843750
4273		93.750000
4274		89.843750
4275		93.750000
4276		93.750000
4277		97.656250
4278		93.750000
4279		97.656250
4280		97.656250
4281		101.562500
4282		97.656250
4283		101.562500
4284		101.562500
4285		105.468750
4286		101.562500
4287		105.468750
4288		101.562500
4289		105.468750
4290		105.468750
4291		105.468750
4292		105.468750
4293		109.375000
4294		105.468750
4295		109.375000
4296		105.468750
4297		109.375000
4298		109.375000
4299		113.281250
4300		109.375000
4301		113.281250
4302		109.375000
4303		113.281250
4304		109.375000
4305		117.187500
4306		113.281250
4307		117.187500
4308		113.281250
4309		117.187500
4310		113.281250
4311		117.187500
4312		113.281250
4313		117.187500
4314		117.187500
4315		117.187500
4316		117.187500
4317		121.093750
4318		117.187500
4319		121.093750
4320		117.187500
4321		121.093750
4322		117.187500
4323		121.093750
4324		117.187500
4325		121.093750
4326		117.187500
4327		121.093750
4328		117.187500
4329		121.093750
4330		117.187500
4331		121.093750
4332		117.187500
4333		121.093750
4334		117.187500
4335		121.093750
4336		117.187500
4337		121.093750
4338		117.187500
4339		121.093750
4340		117.187500
4341		121.093750
4342		117.187500
4343		121.093750
4344		117.187500
4345		121.093750
4346		117.187500
4347		121.093750
4348		117.187500
4349		121.093750
4350		117.187500
4351		121.093750
4352		117.187500
4353		121.093750
4354		117.187500
4355		117.187500
4356		113.281250
4357		117.187500
4358		113.281250
4359		117.187500
4360		113.281250
4361		117.187500
4362		113.281250
4363		117.187500
4364		113.281250
4365		117.187500
4366		109.375000
4367		113.281250
4368		109.375000
4369		113.281250
4370		109.375000
4371		113.281250
4372		105.468750
4373		113.281250
4374		105.468750
4375		109.375000
4376		105.468750
4377		109.375000
4378		105.468750
4379		109.375000
4380		101.562500
4381		105.468750
4382		101.562500
4383		105.468750
4384		97.656250
4385		101.562500
4386		97.656250
4387		101.562500
4388		97.656250
4389		101.562500
4390		93.750000
4391		97.656250
4392		93.750000
4393		97.656250
4394		89.843750
4395		93.750000
4396		89.843750
4397		93.750000
4398		89.843750
4399		93.750000
4400		85.937500
4401		89.843750
4402		85.937500
4403		89.843750
4404		82.031250
4405		85.937500
4406		82.031250
4407		85.937500
4408		78.125000
4409		82.031250
4410		74.218750
4411		82.031250
4412		74.218750
4413		78.125000
4414		70.312500
4415		78.125000
4416		70.312500
4417		74.218750
4418		66.406250
4419		70.312500
4420		66.406250
4421		70.312500
4422		62.500000
4423		66.406250
4424		58.593750
4425		66.406250
4426		58.593750
4427		62.500000
4428		54.687500
4429		62.500000
4430		54.687500
4431		58.593750
4432		50.781250
4433		54.687500
4434		50.781250
4435		54.687500
4436		46.875000
4437		50.781250
4438		46.875000
4439		50.781250
4440		42.968750
4441		46.875000
4442		39.062500
4443		42.968750
4444		39.062500
4445		42.968750
4446		35.156250
4447		39.062500
4448		31.250000
4449		39.062500
4450		31.250000
4451		35.156250
4452		27.343750
4453		31.250000
4454		27.343750
4455		31.250000
4456		23.437500
4457		27.343750
4458		19.531250
4459		27.343750
4460		19.531250
4461		23.437500
4462		15.625000
4463		19.531250
4464		15.625000
4465		19.531250
4466		11.718750
4467		15.625000
4468		11.718750
4469		15.625000
4470		7.812500
4471		11.718750
4472		7.812500
4473		11.718750
4474		3.906250
4475		7.812500
4476		3.906250
4477		7.812500
4478		0.000000
4479		3.906250
4480		0.000000
4481		3.906250
4482		-3.906250
4483		0.000000
4484		-3.906250
4485		0.000000
4486		-7.812500
4487		-3.906250
4488		-7.812500
4489		-3.906250
4490		-11.718750
4491		-7.812500
4492		-11.718750
4493		-7.812500
4494		-11.718750
4495		-7.812500
4496		-15.625000
4497		-11.718750
4498		-15.625000
4499		-11.718750
4500		-15.625000
4501		-11.718750
4502		-19.531250
4503		-15.625000
4504		-19.531250
4505		-15.625000
4506		-19.531250
4507		-15.625000
4508		-23.437500
4509		-19.531250
4510		-23.437500
4511		-19.531250
4512		-23.437500
4513		-19.531250
4514		-23.437500
4515		-19.531250
4516		-23.437500
4517		-23.437500
4518		-23.437500
4519		-23.437500
4520		-27.343750
4521		-23.437500
4522		-27.343750
4523		-23.437500
4524		-27.343750
4525		-23.437500
4526		-27.343750
4527		-23.437500
4528		-27.343750
4529		-23.437500
4530		-27.343750
4531		-23.437500
4532		-27.343750
4533		-23.437500
4534		-27.343750
4535		-23.437500
4536		-27.343750
4537		-23.437500
4538		-27.343750
4539		-23.437500
4540		-27.343750
4541		-23.437500
4542		-27.343750
4543		-23.437500
4544		-27.343750
4545		-23.437500
4546		-27.343750
4547		-23.437500
4548		-27.343750
4549		-23.437500
4550		-27.343750
4551		-23.437500
4552		-23.437500
4553		-23.437500
4554		-27.343750
4555		-19.531250
4556		-23.437500
4557		-19.531250
4558		-23.437500
4559		-19.531250
4560		-23.437500
4561		-19.531250
4562		-19.531250
4563		-15.625000
4564		-19.531250
4565		-15.625000
4566		-19.531250
4567		-15.625000
4568		-15.625000
4569		-15.625000
4570		-15.625000
4571		-11.718750
4572		-15.625000
4573		-11.718750
4574		-11.718750
4575		-7.812500
4576		-11.718750
4577		-7.812500
4578		-11.718750
4579		-7.812500
4580		-7.812500
4581		-3.906250
4582		-7.812500
4583		-3.906250
4584		-7.812500
4585		0.000000
4586		-3.906250
4587		0.000000
4588		-3.906250
4589		3.906250
4590		0.000000
4591		3.906250
4592		0.000000
4593		3.906250
4594		3.906250
4595		7.812500
4596		3.906250
4597		11.718750
4598		7.812500
4599		11.718750
4600		7.812500
4601		15.625000
4602		11.718750
4603		15.625000
4604		15.625000
4605		19.531250
4606		15.625000
4607		19.531250
4608		19.531250
4609		23.437500
4610		19.531250
4611		23.437500
4612		23.437500
4613		27.343750
4614		23.437500
4615		27.343750
4616		27.343750
4617		31.250000
4618		27.343750
4619		35.156250
4620		31.250000
4621		35.156250
4622		31.250000
4623		39.062500
4624		35.156250
4625		39.062500
4626		39.062500
4627		42.968750
4628		39.062500
4629		42.968750
4630		42.968750
4631		46.875000
4632		42.968750
4633		50.781250
4634		46.875000
4635		50.781250
4636		50.781250
4637		54.687500
4638		50.781250
4639		54.687500
4640		54.687500
4641		58.593750
4642		54.687500
4643		58.593750
4644		58.593750
4645		62.500000
4646		58.593750
4647		66.406250
4648		62.500000
4649		66.406250
4650		66.406250
4651		70.312500
4652		66.406250
4653		70.312500
4654		70.312500
4655		74.218750
4656		70.312500
4657		74.218750
4658		74.218750
4659		78.125000
4660		74.218750
4661		78.125000
4662		78.125000
4663		82.031250
4664		78.125000
4665		82.031250
4666		82.031250
4667		85.937500
4668		82.031250
4669		85.937500
4670		85.937500
4671		89.843750
4672		85.937500
4673		89.843750
4674		89.843750
4675		93.750000
4676		89.843750
4677		93.750000
4678		89.843750
4679		97.656250
4680		93.750000
4681		97.656250
4682		93.750000
4683		101.562500
4684		97.656250
4685		101.562500
4686		97.656250
4687		101.562500
4688		101.562500
4689		105.468750
4690		101.562500
4691		105.468750
4692		101.562500
4693		105.468750
4694		105.468750
4695		109.375000
4696		105.468750
4697		109.375000
4698		105.468750
4699		109.375000
4700		105.468750
4701		109.375000
4702		109.375000
4703		113.281250
4704		109.375000
4705		113.281250
4706		109.375000
4707		113.281250
4708		113.281250
4709		113.281250
4710		113.281250
4711		117.187500
4712		113.281250
4713		117.187500
4714		113.281250
4715		117.187500
4716		113.281250
4717		117.187500
4718		113.281250
4719		117.187500
4720		117.187500
4721		117.187500
4722		117.187500
4723		121.093750
4724		117.187500
4725		121.093750
4726		117.187500
4727		121.093750
4728		117.187500
4729		121.093750
4730		117.187500
4731		121.093750
4732		117.187500
4733		121.093750
4734		117.187500
4735		121.093750
4736		117.187500
4737		121.093750
4738		117.187500
4739		121.093750
4740		117.187500
4741		121.093750
4742		117.187500
4743		121.093750
4744		117.187500
4745		121.093750
4746		117.187500
4747		121.093750
4748		117.187500
4749		121.093750
4750		117.187500
4751		121.093750
4752		117.187500
4753		121.093750
4754		113.281250
4755		121.093750
4756		113.281250
4757		121.093750
4758		113.281250
4759		117.187500
4760		113.281250
4761		117.187500
4762		113.281250
4763		117.187500
4764		113.281250
4765		117.187500
4766		113.281250
4767		117.187500
4768		109.375000
4769		113.281250
4770		109.375000
4771		113.281250
4772		109.375000
4773		113.281250
4774		109.375000
4775		113.281250
4776		105.468750
4777		109.375000
4778		105.468750
4779		109.375000
4780		105.468750
4781		109.375000
4782		101.562500
4783		109.375000
4784		101.562500
4785		105.468750
4786		101.562500
4787		105.468750
4788		97.656250
4789		101.562500
4790		97.656250
4791		101.562500
4792		93.750000
4793		97.656250
4794		93.750000
4795		97.656250
4796		89.843750
4797		97.656250
4798		89.843750
4799		93.750000
4800		89.843750
4801		93.750000
4802		85.937500
4803		89.843750
4804		85.937500
4805		89.843750
4806		82.031250
4807		85.937500
4808		82.031250
4809		85.937500
4810		78.125000
4811		85.937500
4812		78.125000
4813		82.031250
4814		74.218750
4815		78.125000
4816		74.218750
4817		78.125000
4818		70.312500
4819		74.218750
4820		70.312500
4821		74.218750
4822		66.406250
4823		70.312500
4824		66.406250
4825		70.312500
4826		62.500000
4827		66.406250
4828		58.593750
4829		66.406250
4830		58.593750
4831		62.500000
4832		54.687500
4833		58.593750
4834		50.781250
4835		58.593750
4836		50.781250
4837		54.687500
4838		46.875000
4839		54.687500
4840		46.875000
4841		50.781250
4842		42.968750
4843		46.875000
4844		42.968750
4845		46.875000
4846		39.062500
4847		42.968750
4848		35.156250
4849		42.968750
4850		35.156250
4851		39.062500
4852		31.250000
4853		35.156250
4854		27.343750
4855		35.156250
4856		27.343750
4857		31.250000
4858		23.437500
4859		31.250000
4860		23.437500
4861		27.343750
4862		19.531250
4863		23.437500
4864		19.531250
4865		23.437500
4866		15.625000
4867		19.531250
4868		15.625000
4869		19.531250
4870		11.718750
4871		15.625000
4872		11.718750
4873		15.625000
4874		7.812500
4875		11.718750
4876		7.812500
4877		11.718750
4878		3.906250
4879		7.812500
4880		0.000000
4881		7.812500
4882		0.000000
4883		3.906250
4884		-3.906250
4885		3.906250
4886		-3.906250
4887		0.000000
4888		-3.906250
4889		0.000000
4890		-7.812500
4891		-3.906250
4892		-7.812500
4893		-3.906250
4894		-11.718750
4895		-7.812500
4896		-11.718750
4897		-7.812500
4898		-11.718750
4899		-7.812500
4900		-15.625000
4901		-11.718750
4902		-15.625000
4903		-11.718750
4904		-15.625000
4905		-11.718750
4906		-19.531250
4907		-15.625000
4908		-19.531250
4909		-15.625000
4910		-19.531250
4911		-15.625000
4912		-23.437500
4913		-15.625000
4914		-23.437500
4915		-19.531250
4916		-23.437500
4917		-19.531250
4918		-23.437500
4919		-19.531250
4920		-23.437500
4921		-19.531250
4922		-27.343750
4923		-23.437500
4924		-27.343750
4925		-23.437500
4926		-27.343750
4927		-23.437500
4928		-27.343750
4929		-23.437500
4930		-27.343750
4931		-23.437500
4932		-27.343750
4933		-23.437500
4934		-27.343750
4935		-23.437500
4936		-27.343750
4937		-23.437500
4938		-27.343750
4939		-23.437500
4940		-27.343750
4941		-23.437500
4942		-27.343750
4943		-23.437500
4944		-27.343750
4945		-23.437500
4946		-27.343750
4947		-23.437500
4948		-27.343750
4949		-23.437500
4950		-27.343750
4951		-23.437500
4952		-27.343750
4953		-23.437500
4954		-27.343750
4955		-23.437500
4956		-27.343750
4957		-23.437500
4958		-23.437500
4959		-19.531250
4960		-23.437500
4961		-19.531250
4962		-23.437500
4963		-19.531250
4964		-23.437500
4965		-19.531250
4966		-19.531250
4967		-15.625000
4968		-19.531250
4969		-15.625000
4970		-19.531250
4971		-15.625000
4972		-15.625000
4973		-15.625000
4974		-15.625000
4975		-11.718750
4976		-15.625000
4977		-11.718750
4978		-11.718750
4979		-7.812500
4980		-11.718750
4981		-7.812500
4982		-11.718750
4983		-7.812500
4984		-7.812500
4985		-3.906250
4986		-7.812500
4987		-3.906250
4988		-3.906250
4989		0.000000
4990		-3.906250
4991		0.000000
4992		0.000000
4993		3.906250
4994		0.000000
4995		3.906250
4996		0.000000
4997		7.812500
4998		3.906250
4999		7.812500
5000		7.812500
5001		11.718750
5002		7.812500
5003		11.718750
5004		11.718750
5005		15.625000
5006		11.718750
5007		15.625000
5008		15.625000
5009		19.531250
5010		15.625000
5011		19.531250
5012		19.531250
5013		23.437500
5014		19.531250
5015		23.437500
5016		23.437500
5017		27.343750
5018		23.437500
5019		27.343750
5020		27.343750
5021		31.250000
5022		31.250000
5023		35.156250
5024		31.250000
5025		35.156250
5026		35.156250
5027		39.062500
5028		35.156250
5029		42.968750
5030		39.062500
5031		42.968750
5032		39.062500
5033		46.875000
5034		42.968750
5035		46.875000
5036		46.875000
5037		50.781250
5038		46.875000
5039		50.781250
5040		50.781250
5041		54.687500
5042		50.781250
5043		54.687500
5044		54.687500
5045		58.593750
5046		54.687500
5047		62.500000
5048		58.593750
5049		62.500000
5050		62.500000
5051		66.406250
5052		62.500000
5053		66.406250
5054		66.406250
5055		70.312500
5056		66.406250
5057		70.312500
5058		70.312500
5059		74.218750
5060		70.312500
5061		74.218750
5062		74.218750
5063		78.125000
5064		74.218750
5065		78.125000
5066		78.125000
5067		82.031250
5068		78.125000
5069		82.031250
5070		82.031250
5071		85.937500
5072		82.031250
5073		89.843750
5074		85.937500
5075		89.843750
5076		85.937500
5077		89.843750
5078		89.843750
5079		93.750000
5080		89.843750
5081		93.750000
5082		93.750000
5083		97.656250
5084		93.750000
5085		97.656250
5086		93.750000
5087		97.656250
5088		97.656250
5089		101.562500
5090		97.656250
5091		101.562500
5092		101.562500
5093		105.468750
5094		101.562500
5095		105.468750
5096		101.562500
5097		105.468750
5098		105.468750
5099		109.375000
5100		105.468750
5101		109.375000
5102		105.468750
5103		109.375000
5104		105.468750
5105		113.281250
5106		109.375000
5107		113.281250
5108		109.375000
5109		113.281250
5110		109.375000
5111		113.281250
5112		113.281250
5113		117.187500
5114		113.281250
5115		117.187500
5116		113.281250
5117		117.187500
5118		113.281250
5119		117.187500
5120		113.281250
5121		117.187500
5122		113.281250
5123		121.093750
5124		117.187500
5125		117.187500
5126		117.187500
5127		121.093750
5128		117.187500
5129		121.093750
5130		117.187500
5131		121.093750
5132		117.187500
5133		121.093750
5134		117.187500
5135		121.093750
5136		117.187500
5137		121.093750
5138		117.187500
5139		121.093750
5140		117.187500
5141		121.093750
5142		117.187500
5143		121.093750
5144		117.187500
5145		121.093750
5146		117.187500
5147		121.093750
5148		117.187500
5149		121.093750
5150		117.187500
5151		121.093750
5152		117.187500
5153		121.093750
5154		117.187500
5155		121.093750
5156		117.187500
5157		121.093750
5158		117.187500
5159		121.093750
5160		117.187500
5161		121.093750
5162		113.281250
5163		117.187500
5164		113.281250
5165		117.187500
5166		113.281250
5167		117.187500
5168		113.281250
5169		117.187500
5170		113.281250
5171		117.187500
5172		109.375000
5173		113.281250
5174		109.375000
5175		113.281250
5176		109.375000
5177		113.281250
5178		109.375000
5179		113.281250
5180		105.468750
5181		109.375000
5182		105.468750
5183		109.375000
5184		105.468750
5185		109.375000
5186		101.562500
5187		109.375000
5188		101.562500
5189		105.468750
5190		101.562500
5191		105.468750
5192		97.656250
5193		101.562500
5194		97.656250
5195		101.562500
5196		93.750000
5197		97.656250
5198		93.750000
5199		97.656250
5200		93.750000
5201		97.656250
5202		89.843750
5203		93.750000
5204		89.843750
5205		93.750000
5206		85.937500
5207		89.843750
5208		85.937500
5209		89.843750
5210		82.031250
5211		85.937500
5212		82.031250
5213		85.937500
5214		78.125000
5215		82.031250
5216		78.125000
5217		82.031250
5218		74.218750
5219		78.125000
5220		70.312500
5221		78.125000
5222		70.312500
5223		74.218750
5224		66.406250
5225		74.218750
5226		66.406250
5227		70.312500
5228		62.500000
5229		70.312500
5230		62.500000
5231		66.406250
5232		58.593750
5233		62.500000
5234		58.593750
5235		62.500000
5236		54.687500
5237		58.593750
5238		50.781250
5239		58.593750
5240		50.781250
5241		54.687500
5242		46.875000
5243		50.781250
5244		46.875000
5245		50.781250
5246		42.968750
5247		46.875000
5248		39.062500
5249		46.875000
5250		39.062500
5251		42.968750
5252		35.156250
5253		39.062500
5254		35.156250
5255		39.062500
5256		31.250000
5257		35.156250
5258		27.343750
5259		31.250000
5260		27.343750
5261		31.250000
5262		23.437500
5263		31.250000
5264		23.437500
5265		27.343750
5266		19.531250
5267		23.437500
5268		19.531250
5269		23.437500
5270		15.625000
5271		19.531250
5272		11.718750
5273		19.531250
5274		11.718750
5275		15.625000
5276		7.812500
5277		11.718750
5278		7.812500
5279		11.718750
5280		3.906250
5281		7.812500
5282		3.906250
5283		7.812500
5284		0.000000
5285		3.906250
5286		0.000000
5287		3.906250
5288		-3.906250
5289		0.000000
5290		-3.906250
5291		0.000000
5292		-7.812500
5293		-3.906250
5294		-7.812500
5295		-3.906250
5296		-7.812500
5297		-3.906250
5298		-11.718750
5299		-7.812500
5300		-11.718750
5301		-7.812500
5302		-15.625000
5303		-11.718750
5304		-15.625000
5305		-11.718750
5306		-15.625000
5307		-11.718750
5308		-19.531250
5309		-15.625000
5310		-19.531250
5311		-15.625000
5312		-19.531250
5313		-15.625000
5314		-19.531250
5315		-19.531250
5316		-23.437500
5317		-19.531250
5318		-23.437500
5319		-19.531250
5320		-23.437500
5321		-19.531250
5322		-23.437500
5323		-19.531250
5324		-27.343750
5325		-23.437500
5326		-27.343750
5327		-23.437500
5328		-27.343750
5329		-23.437500
5330		-27.343750
5331		-23.437500
5332		-27.343750
5333		-23.437500
5334		-27.343750
5335		-23.437500
5336		-27.343750
5337		-23.437500
5338		-27.343750
5339		-23.437500
5340		-27.343750
5341		-23.437500
5342		-27.343750
5343		-23.437500
5344		-27.343750
5345		-23.437500
5346		-27.343750
5347		-23.437500
5348		-27.343750
5349		-23.437500
5350		-27.343750
5351		-23.437500
5352		-27.343750
5353		-23.437500
5354		-27.343750
5355		-23.437500
5356		-27.343750
5357		-23.437500
5358		-23.437500
5359		-23.437500
5360		-23.437500
5361		-19.531250
5362		-23.437500
5363		-19.531250
5364		-23.437500
5365		-19.531250
5366		-23.437500
5367		-19.531250
5368		-19.531250
5369		-15.625000
5370		-19.531250
5371		-15.625000
5372		-19.531250
5373		-15.625000
5374		-19.531250
5375		-15.625000
5376		-15.625000
5377		-11.718750
5378		-15.625000
5379		-11.718750
5380		-11.718750
5381		-7.812500
5382		-11.718750
5383		-7.812500
5384		-11.718750
5385		-7.812500
5386		-7.812500
5387		-3.906250
5388		-7.812500
5389		-3.906250
5390		-3.906250
5391		0.000000
5392		-3.906250
5393		0.000000
5394		-3.906250
5395		0.000000
5396		0.000000
5397		3.906250
5398		0.000000
5399		7.812500
5400		3.906250
5401		7.812500
5402		3.906250
5403		7.812500
5404		7.812500
5405		11.718750
5406		7.812500
5407		15.625000
5408		11.718750
5409		15.625000
5410		11.718750
5411		15.625000
5412		15.625000
5413		19.531250
5414		19.531250
5415		23.437500
5416		19.531250
5417		23.437500
5418		23.437500
5419		27.343750
5420		23.437500
5421		31.250000
5422		27.343750
5423		31.250000
5424		27.343750
5425		31.250000
5426		31.250000
5427		35.156250
5428		31.250000
5429		39.062500
5430		35.156250
5431		39.062500
5432		39.062500
5433		42.968750
5434		39.062500
5435		42.968750
5436		42.968750
5437		46.875000
5438		42.968750
5439		50.781250
5440		46.875000
5441		50.781250
5442		50.781250
5443		54.687500
5444		50.781250
5445		54.687500
5446		54.687500
5447		58.593750
5448		54.687500
5449		62.500000
5450		58.593750
5451		62.500000
5452		58.593750
5453		62.500000
5454		62.500000
5455		66.406250
5456		66.406250
5457		70.312500
5458		66.406250
5459		70.312500
5460		66.406250
5461		74.218750
5462		70.312500
5463		74.218750
5464		74.218750
5465		78.125000
5466		74.218750
5467		78.125000
5468		78.125000
5469		82.031250
5470		78.125000
5471		85.937500
5472		82.031250
5473		85.937500
5474		82.031250
5475		85.937500
5476		85.937500
5477		89.843750
5478		85.937500
5479		89.843750
5480		89.843750
5481		93.750000
5482		89.843750
5483		93.750000
5484		89.843750
5485		97.656250
5486		93.750000
5487		97.656250
5488		93.750000
5489		97.656250
5490		97.656250
5491		101.562500
5492		97.656250
5493		101.562500
5494		97.656250
5495		105.468750
5496		101.562500
5497		105.468750
5498		101.562500
5499		105.468750
5500		101.562500
5501		109.375000
5502		105.468750
5503		109.375000
5504		105.468750
5505		109.375000
5506		105.468750
5507		109.375000
5508		109.375000
5509		113.281250
5510		109.375000
5511		113.281250
5512		109.375000
5513		113.281250
5514		109.375000
5515		113.281250
5516		113.281250
5517		117.187500
5518		113.281250
5519		117.187500
5520		113.281250
5521		117.187500
5522		113.281250
5523		117.187500
5524		113.281250
5525		117.187500
5526		113.281250
5527		117.187500
5528		117.187500
5529		121.093750
5530		117.187500
5531		121.093750
5532		117.187500
5533		121.093750
5534		117.187500
5535		121.093750
5536		117.187500
5537		121.093750
5538		117.187500
5539		121.093750
5540		117.187500
5541		121.093750
5542		117.187500
5543		121.093750
5544		117.187500
5545		121.093750
5546		117.187500
5547		121.093750
5548		117.187500
5549		121.093750
5550		117.187500
5551		121.093750
5552		117.187500
5553		121.093750
5554		117.187500
5555		121.093750
5556		117.187500
5557		121.093750
5558		117.187500
5559		121.093750
5560		117.187500
5561		121.093750
5562		117.187500
5563		117.187500
5564		113.281250
5565		121.093750
5566		113.281250
5567		117.187500
5568		113.281250
5569		117.187500
5570		113.281250
5571		117.187500
5572		113.281250
5573		113.281250
5574		109.375000
5575		113.281250
5576		109.375000
5577		113.281250
5578		109.375000
5579		113.281250
5580		109.375000
5581		113.281250
5582		105.468750
5583		109.375000
5584		105.468750
5585		109.375000
5586		105.468750
5587		109.375000
5588		101.562500
5589		105.468750
5590		101.562500
5591		105.468750
5592		101.562500
5593		105.468750
5594		97.656250
5595		101.562500
5596		97.656250
5597		101.562500
5598		93.750000
5599		97.656250
5600		93.750000
5601		97.656250
5602		93.750000
5603		97.656250
5604		89.843750
5605		93.750000
5606		89.843750
5607		93.750000
5608		85.937500
5609		89.843750
5610		85.937500
5611		89.843750
5612		82.031250
5613		85.937500
5614		82.031250
5615		85.937500
5616		78.125000
5617		82.031250
5618		78.125000
5619		82.031250
5620		74.218750
5621		78.125000
5622		74.218750
5623		78.125000
5624		70.312500
5625		74.218750
5626		70.312500
5627		74.218750
5628		66.406250
5629		70.312500
5630		62.500000
5631		70.312500
5632		62.500000
5633		66.406250
5634		58.593750
5635		62.500000
5636		58.593750
5637		62.500000
5638		54.687500
5639		58.593750
5640		54.687500
5641		58.593750
5642		50.781250
5643		54.687500
5644		46.875000
5645		54.687500
5646		46.875000
5647		50.781250
5648		42.968750
5649		46.875000
5650		42.968750
5651		46.875000
5652		39.062500
5653		42.968750
5654		35.156250
5655		39.062500
5656		35.156250
5657		39.062500
5658		31.250000
5659		35.156250
5660		27.343750
5661		35.156250
5662		27.343750
5663		31.250000
5664		23.437500
5665		31.250000
5666		23.437500
5667		27.343750
5668		19.531250
5669		23.437500
5670		19.531250
5671		23.437500
5672		15.625000
5673		19.531250
5674		11.718750
5675		19.531250
5676		11.718750
5677		15.625000
5678		7.812500
5679		15.625000
5680		7.812500
5681		11.718750
5682		3.906250
5683		7.812500
5684		3.906250
5685		7.812500
5686		0.000000
5687		3.906250
5688		0.000000
5689		3.906250
5690		-3.906250
5691		3.906250
5692		-3.906250
5693		0.000000
5694		-7.812500
5695		0.000000
5696		-7.812500
5697		-3.906250
5698		-7.812500
5699		-3.906250
5700		-11.718750
5701		-7.812500
5702		-11.718750
5703		-7.812500
5704		-11.718750
5705		-11.718750
5706		-15.625000
5707		-11.718750
5708		-15.625000
5709		-11.718750
5710		-19.531250
5711		-15.625000
5712		-19.531250
5713		-15.625000
5714		-19.531250
5715		-15.625000
5716		-19.531250
5717		-19.531250
5718		-23.437500
5719		-19.531250
5720		-23.437500
5721		-19.531250
5722		-23.437500
5723		-19.531250
5724		-23.437500
5725		-19.531250
5726		-27.343750
5727		-23.437500
5728		-27.343750
5729		-23.437500
5730		-27.343750
5731		-23.437500
5732		-27.343750
5733		-23.437500
5734		-27.343750
5735		-23.437500
5736		-27.343750
5737		-23.437500
5738		-27.343750
5739		-23.437500
5740		-27.343750
5741		-23.437500
5742		-27.343750
5743		-23.437500
5744		-31.250000
5745		-23.437500
5746		-27.343750
5747		-23.437500
5748		-27.343750
5749		-23.437500
5750		-27.343750
5751		-23.437500
5752		-27.343750
5753		-23.437500
5754		-27.343750
5755		-23.437500
5756		-27.343750
5757		-23.437500
5758		-27.343750
5759		-23.437500
5760		-27.343750
5761		-23.437500
5762		-27.343750
5763		-19.531250
5764		-23.437500
5765		-19.531250
5766		-23.437500
5767		-19.531250
5768		-23.437500
5769		-19.531250
5770		-23.437500
5771		-19.531250
5772		-19.531250
5773		-15.625000
5774		-19.531250
5775		-15.625000
5776		-19.531250
5777		-15.625000
5778		-15.625000
5779		-11.718750
5780		-15.625000
5781		-11.718750
5782		-15.625000
5783		-11.718750
5784		-11.718750
5785		-7.812500
5786		-11.718750
5787		-7.812500
5788		-11.718750
5789		-7.812500
5790		-7.812500
5791		-3.906250
5792		-7.812500
5793		0.000000
5794		-7.812500
5795		0.000000
5796		-3.906250
5797		0.000000
5798		-3.906250
5799		3.906250
5800		0.000000
5801		3.906250
5802		0.000000
5803		7.812500
5804		3.906250
5805		7.812500
5806		7.812500
5807		11.718750
5808		7.812500
5809		11.718750
5810		7.812500
5811		15.625000
5812		11.718750
5813		15.625000
5814		11.718750
5815		19.531250
5816		15.625000
5817		19.531250
5818		19.531250
5819		23.437500
5820		19.531250
5821		23.437500
5822		23.437500
5823		27.343750
5824		23.437500
5825		31.250000
5826		27.343750
5827		31.250000
5828		27.343750
5829		35.156250
5830		31.250000
5831		35.156250
5832		31.250000
5833		39.062500
5834		35.156250
5835		39.062500
5836		39.062500
5837		42.968750
5838		39.062500
5839		42.968750
5840		42.968750
5841		46.875000
5842		42.968750
5843		50.781250
5844		46.875000
5845		50.781250
5846		46.875000
5847		54.687500
5848		50.781250
5849		58.593750
5850		54.687500
5851		58.593750
5852		54.687500
5853		62.500000
5854		58.593750
5855		62.500000
5856		58.593750
5857		66.406250
5858		62.500000
5859		66.406250
5860		66.406250
5861		70.312500
5862		66.406250
5863		70.312500
5864		70.312500
5865		74.218750
5866		70.312500
5867		74.218750
5868		74.218750
5869		78.125000
5870		74.218750
5871		78.125000
5872		78.125000
5873		82.031250
5874		78.125000
5875		82.031250
5876		82.031250
5877		85.937500
5878		82.031250
5879		85.937500
5880		85.937500
5881		89.843750
5882		85.937500
5883		89.843750
5884		89.843750
5885		93.750000
5886		89.843750
5887		93.750000
5888		93.750000
5889		97.656250
5890		93.750000
5891		97.656250
5892		93.750000
5893		97.656250
5894		97.656250
5895		101.562500
5896		97.656250
5897		101.562500
5898		97.656250
5899		101.562500
5900		101.562500
5901		105.468750
5902		101.562500
5903		105.468750
5904		105.468750
5905		109.375000
5906		105.468750
5907		109.375000
5908		105.468750
5909		109.375000
5910		105.468750
5911		109.375000
5912		109.375000
5913		113.281250
5914		109.375000
5915		113.281250
5916		109.375000
5917		113.281250
5918		109.375000
5919		113.281250
5920		113.281250
5921		113.281250
5922		113.281250
5923		117.187500
5924		113.281250
5925		117.187500
5926		113.281250
5927		117.187500
5928		113.281250
5929		117.187500
5930		113.281250
5931		117.187500
5932		117.187500
5933		117.187500
5934		117.187500
5935		117.187500
5936		117.187500
5937		121.093750
5938		117.187500
5939		121.093750
5940		117.187500
5941		121.093750
5942		117.187500
5943		121.093750
5944		117.187500
5945		121.093750
5946		117.187500
5947		121.093750
5948		117.187500
5949		121.093750
5950		117.187500
5951		121.093750
5952		117.187500
5953		121.093750
5954		117.187500
5955		121.093750
5956		117.187500
5957		121.093750
5958		113.281250
5959		121.093750
5960		113.281250
5961		121.093750
5962		113.281250
5963		121.093750
5964		113.281250
5965		121.093750
5966		117.187500
5967		117.187500
5968		113.281250
5969		117.187500
5970		113.281250
5971		117.187500
5972		113.281250
5973		117.187500
5974		113.281250
5975		117.187500
5976		109.375000
5977		117.187500
5978		109.375000
5979		117.187500
5980		105.468750
5981		117.187500
5982		109.375000
5983		113.281250
5984		109.375000
5985		109.375000
5986		105.468750
5987		109.375000
5988		105.468750
5989		109.375000
5990		105.468750
5991		105.468750
5992		101.562500
5993		109.375000
5994		97.656250
5995		109.375000
5996		97.656250
5997		105.468750
5998		97.656250
5999		101.562500
6000		97.656250
6001		101.562500
6002		93.750000
6003		97.656250
6004		93.750000
6005		97.656250
6006		89.843750
6007		93.750000
6008		85.937500
6009		97.656250
6010		85.937500
6011		93.750000
6012		82.031250
6013		93.750000
6014		82.031250
6015		93.750000
6016		82.031250
6017		85.937500
6018		82.031250
6019		85.937500
6020		78.125000
6021		82.031250
6022		78.125000
6023		82.031250
6024		74.218750
6025		78.125000
6026		70.312500
6027		78.125000
6028		66.406250
6029		78.125000
6030		66.406250
6031		74.218750
6032		66.406250
6033		70.312500
6034		62.500000
6035		66.406250
6036		62.500000
6037		66.406250
6038		58.593750
6039		62.500000
6040		58.593750
6041		62.500000
6042		50.781250
6043		58.593750
6044		46.875000
6045		58.593750
6046		46.875000
6047		58.593750
6048		46.875000
6049		54.687500
6050		46.875000
6051		50.781250
6052		42.968750
6053		46.875000
6054		39.062500
6055		46.875000
6056		39.062500
6057		42.968750
6058		35.156250
6059		39.062500
6060		31.250000
6061		39.062500
6062		27.343750
6063		39.062500
6064		27.343750
6065		35.156250
6066		27.343750
6067		31.250000
6068		23.437500
6069		27.343750
6070		23.437500
6071		27.343750
6072		19.531250
6073		23.437500
6074		15.625000
6075		19.531250
6076		11.718750
6077		23.437500
6078		11.718750
6079		19.531250
6080		7.812500
6081		19.531250
6082		7.812500
6083		11.718750
6084		7.812500
6085		11.718750
6086		3.906250
6087		7.812500
6088		3.906250
6089		7.812500
6090		0.000000
6091		3.906250
6092		-3.906250
6093		3.906250
6094		-3.906250
6095		3.906250
6096		-7.812500
6097		3.906250
6098		-7.812500
6099		0.000000
6100		-7.812500
6101		-3.906250
6102		-7.812500
6103		-7.812500
6104		-11.718750
6105		-7.812500
6106		-11.718750
6107		-7.812500
6108		-15.625000
6109		-11.718750
6110		-19.531250
6111		-7.812500
6112		-19.531250
6113		-11.718750
6114		-19.531250
6115		-11.718750
6116		-19.531250
6117		-15.625000
6118		-19.531250
6119		-15.625000
6120		-23.437500
6121		-19.531250
6122		-23.437500
6123		-19.531250
6124		-23.437500
6125		-19.531250
6126		-27.343750
6127		-19.531250
6128		-27.343750
6129		-19.531250
6130		-31.250000
6131		-19.531250
6132		-27.343750
6133		-19.531250
6134		-27.343750
6135		-23.437500
6136		-27.343750
6137		-23.437500
6138		-27.343750
6139		-23.437500
6140		-27.343750
6141		-27.343750
6142		-27.343750
6143		-27.343750
6144		-27.343750
6145		-27.343750
6146		-31.250000
6147		-23.437500
6148		-31.250000
6149		-23.437500
6150		-27.343750
6151		-27.343750
6152		-27.343750
6153		-23.437500
6154		-27.343750
6155		-23.437500
6156		-27.343750
6157		-23.437500
6158		-27.343750
6159		-23.437500
6160		-27.343750
6161		-23.437500
6162		-27.343750
6163		-19.531250
6164		-27.343750
6165		-19.531250
6166		-23.437500
6167		-23.437500
6168		-23.437500
6169		-19.531250
6170		-23.437500
6171		-19.531250
6172		-23.437500
6173		-19.531250
6174		-23.437500
6175		-19.531250
6176		-19.531250
6177		-15.625000
6178		-19.531250
6179		-15.625000
6180		-19.531250
6181		-11.718750
6182		-19.531250
6183		-11.718750
6184		-15.625000
6185		-11.718750
6186		-15.625000
6187		-11.718750
6188		-11.718750
6189		-7.812500
6190		-11.718750
6191		-7.812500
6192		-11.718750
6193		-7.812500
6194		-7.812500
6195		-3.906250
6196		-7.812500
6197		-3.906250
6198		-3.906250
6199		0.000000
6200		-3.906250
6201		0.000000
6202		0.000000
6203		3.906250
6204		0.000000
6205		3.906250
6206		0.000000
6207		7.812500
6208		3.906250
6209		7.812500
6210		3.906250
6211		11.718750
6212		7.812500
6213		11.718750
6214		11.718750
6215		15.625000
6216		11.718750
6217		15.625000
6218		15.625000
6219		19.531250
6220		15.625000
6221		19.531250
6222		19.531250
6223		23.437500
6224		19.531250
6225		23.437500
6226		23.437500
6227		27.343750
6228		23.437500
6229		27.343750
6230		27.343750
6231		31.250000
6232		31.250000
6233		35.156250
6234		31.250000
6235		35.156250
6236		35.156250
6237		39.062500
6238		35.156250
6239		39.062500
6240		39.062500
6241		42.968750
6242		39.062500
6243		46.875000
6244		42.968750
6245		46.875000
6246		46.875000
6247		50.781250
6248		46.875000
6249		50.781250
6250		50.781250
6251		54.687500
6252		50.781250
6253		58.593750
6254		54.687500
6255		58.593750
6256		58.593750
6257		62.500000
6258		58.593750
6259		62.500000
6260		62.500000
6261		66.406250
6262		62.500000
6263		66.406250
6264		66.406250
6265		70.312500
6266		66.406250
6267		70.312500
6268		70.312500
6269		74.218750
6270		70.312500
6271		78.125000
6272		74.218750
6273		78.125000
6274		74.218750
6275		82.031250
6276		78.125000
6277		82.031250
6278		78.125000
6279		85.937500
6280		82.031250
6281		85.937500
6282		85.937500
6283		85.937500
6284		85.937500
6285		89.843750
6286		85.937500
6287		89.843750
6288		89.843750
6289		93.750000
6290		89.843750
6291		93.750000
6292		93.750000
6293		97.656250
6294		93.750000
6295		97.656250
6296		93.750000
6297		101.562500
6298		97.656250
6299		101.562500
6300		97.656250
6301		101.562500
6302		101.562500
6303		105.468750
6304		101.562500
6305		105.468750
6306		101.562500
6307		105.468750
6308		105.468750
6309		109.375000
6310		105.468750
6311		109.375000
6312		105.468750
6313		109.375000
6314		105.468750
6315		113.281250
6316		109.375000
6317		113.281250
6318		109.375000
6319		113.281250
6320		109.375000
6321		113.281250
6322		113.281250
6323		113.281250
6324		113.281250
6325		117.187500
6326		113.281250
6327		117.187500
6328		113.281250
6329		117.187500
6330		113.281250
6331		117.187500
6332		113.281250
6333		117.187500
6334		117.187500
6335		121.093750
6336		117.187500
6337		121.093750
6338		117.187500
6339		121.093750
6340		117.187500
6341		121.093750
6342		117.187500
6343		121.093750
6344		117.187500
6345		121.093750
6346		117.187500
6347		121.093750
6348		117.187500
6349		121.093750
6350		117.187500
6351		121.093750
6352		117.187500
6353		121.093750
6354		117.187500
6355		121.093750
6356		117.187500
6357		121.093750
6358		117.187500
6359		121.093750
6360		117.187500
6361		121.093750
6362		117.187500
6363		121.093750
6364		117.187500
6365		121.093750
6366		117.187500
6367		117.187500
6368		113.281250
6369		117.187500
6370		113.281250
6371		117.187500
6372		113.281250
6373		117.187500
6374		113.281250
6375		117.187500
6376		113.281250
6377		117.187500
6378		109.375000
6379		117.187500
6380		109.375000
6381		113.281250
6382		109.375000
6383		113.281250
6384		109.375000
6385		113.281250
6386		105.468750
6387		113.281250
6388		105.468750
6389		109.375000
6390		105.468750
6391		109.375000
6392		105.468750
6393		109.375000
6394		101.562500
6395		105.468750
6396		101.562500
6397		105.468750
6398		97.656250
6399		105.468750
6400		97.656250
6401		101.562500
6402		97.656250
6403		101.562500
6404		97.656250
6405		101.562500
6406		93.750000
6407		97.656250
6408		93.750000
6409		97.656250
6410		89.843750
6411		93.750000
6412		85.937500
6413		93.750000
6414		85.937500
6415		89.843750
6416		85.937500
6417		89.843750
6418		82.031250
6419		85.937500
6420		82.031250
6421		85.937500
6422		78.125000
6423		82.031250
6424		78.125000
6425		82.031250
6426		74.218750
6427		78.125000
6428		70.312500
6429		78.125000
6430		70.312500
6431		74.218750
6432		70.312500
6433		74.218750
6434		66.406250
6435		70.312500
6436		66.406250
6437		70.312500
6438		62.500000
6439		66.406250
6440		58.593750
6441		62.500000
6442		58.593750
6443		62.500000
6444		54.687500
6445		58.593750
6446		54.687500
6447		58.593750
6448		50.781250
6449		54.687500
6450		46.875000
6451		54.687500
6452		46.875000
6453		50.781250
6454		42.968750
6455		46.875000
6456		42.968750
6457		46.875000
6458		39.062500
6459		42.968750
6460		35.156250
6461		39.062500
6462		35.156250
6463		39.062500
6464		31.250000
6465		35.156250
6466		31.250000
6467		35.156250
6468		27.343750
6469		31.250000
6470		23.437500
6471		31.250000
6472		23.437500
6473		27.343750
6474		19.531250
6475		23.437500
6476		19.531250
6477		23.437500
6478		15.625000
6479		19.531250
6480		11.718750
6481		19.531250
6482		11.718750
6483		15.625000
6484		11.718750
6485		15.625000
6486		7.812500
6487		11.718750
6488		3.906250
6489		7.812500
6490		3.906250
6491		7.812500
6492		0.000000
6493		3.906250
6494		0.000000
6495		3.906250
6496		-3.906250
6497		0.000000
6498		-3.906250
6499		0.000000
6500		-3.906250
6501		-3.906250
6502		-7.812500
6503		-3.906250
6504		-7.812500
6505		-3.906250
6506		-11.718750
6507		-7.812500
6508		-11.718750
6509		-7.812500
6510		-15.625000
6511		-11.718750
6512		-15.625000
6513		-11.718750
6514		-15.625000
6515		-11.718750
6516		-19.531250
6517		-15.625000
6518		-19.531250
6519		-15.625000
6520		-19.531250
6521		-15.625000
6522		-23.437500
6523		-19.531250
6524		-23.437500
6525		-19.531250
6526		-23.437500
6527		-19.531250
6528		-23.437500
6529		-19.531250
6530		-23.437500
6531		-23.437500
6532		-27.343750
6533		-23.437500
6534		-27.343750
6535		-23.437500
6536		-27.343750
6537		-23.437500
6538		-27.343750
6539		-23.437500
6540		-27.343750
6541		-23.437500
6542		-27.343750
6543		-23.437500
6544		-27.343750
6545		-23.437500
6546		-27.343750
6547		-23.437500
6548		-27.343750
6549		-27.343750
6550		-27.343750
6551		-23.437500
6552		-27.343750
6553		-27.343750
6554		-27.343750
6555		-27.343750
6556		-27.343750
6557		-27.343750
6558		-27.343750
6559		-27.343750
6560		-27.343750
6561		-23.437500
6562		-27.343750
6563		-23.437500
6564		-27.343750
6565		-23.437500
6566		-27.343750
6567		-23.437500
6568		-27.343750
6569		-23.437500
6570		-23.437500
6571		-23.437500
6572		-23.437500
6573		-19.531250
6574		-23.437500
6575		-19.531250
6576		-23.437500
6577		-19.531250
6578		-19.531250
6579		-19.531250
6580		-19.531250
6581		-15.625000
6582		-19.531250
6583		-15.625000
6584		-19.531250
6585		-15.625000
6586		-15.625000
6587		-11.718750
6588		-15.625000
6589		-11.718750
6590		-15.625000
6591		-7.812500
6592		-11.718750
6593		-7.812500
6594		-11.718750
6595		-7.812500
6596		-7.812500
6597		-3.906250
6598		-7.812500
6599		-3.906250
6600		-7.812500
6601		0.000000
6602		-3.906250
6603		0.000000
6604		-3.906250
6605		0.000000
6606		0.000000
6607		3.906250
6608		0.000000
6609		3.906250
6610		3.906250
6611		7.812500
6612		3.906250
6613		7.812500
6614		7.812500
6615		11.718750
6616		7.812500
6617		11.718750
6618		11.718750
6619		15.625000
6620		11.718750
6621		15.625000
6622		15.625000
6623		19.531250
6624		15.625000
6625		23.437500
6626		19.531250
6627		23.437500
6628		23.437500
6629		27.343750
6630		23.437500
6631		31.250000
6632		23.437500
6633		31.250000
6634		27.343750
6635		31.250000
6636		31.250000
6637		35.156250
6638		31.250000
6639		35.156250
6640		35.156250
6641		39.062500
6642		35.156250
6643		42.968750
6644		39.062500
6645		42.968750
6646		42.968750
6647		46.875000
6648		42.968750
6649		50.781250
6650		46.875000
6651		50.781250
6652		50.781250
6653		54.687500
6654		50.781250
6655		54.687500
6656		54.687500
6657		58.593750
6658		54.687500
6659		58.593750
6660		58.593750
6661		62.500000
6662		58.593750
6663		62.500000
6664		62.500000
6665		66.406250
6666		62.500000
6667		70.312500
6668		66.406250
6669		70.312500
6670		66.406250
6671		74.218750
6672		70.312500
6673		74.218750
6674		74.218750
6675		78.125000
6676		74.218750
6677		78.125000
6678		78.125000
6679		82.031250
6680		78.125000
6681		82.031250
6682		78.125000
6683		85.937500
6684		82.031250
6685		85.937500
6686		85.937500
6687		89.843750
6688		85.937500
6689		89.843750
6690		89.843750
6691		93.750000
6692		89.843750
6693		93.750000
6694		89.843750
6695		93.750000
6696		93.750000
6697		97.656250
6698		93.750000
6699		97.656250
6700		93.750000
6701		101.562500
6702		97.656250
6703		101.562500
6704		97.656250
6705		101.562500
6706		97.656250
6707		105.468750
6708		101.562500
6709		105.468750
6710		101.562500
6711		105.468750
6712		105.468750
6713		109.375000
6714		105.468750
6715		109.375000
6716		105.468750
6717		113.281250
6718		105.468750
6719		113.281250
6720		109.375000
6721		113.281250
6722		109.375000
6723		113.281250
6724		109.375000
6725		113.281250
6726		113.281250
6727		113.281250
6728		113.281250
6729		117.187500
6730		113.281250
6731		117.187500
6732		113.281250
6733		117.187500
6734		113.281250
6735		117.187500
6736		113.281250
6737		117.187500
6738		117.187500
6739		117.187500
6740		117.187500
6741		121.093750
6742		117.187500
6743		121.093750
6744		117.187500
6745		121.093750
6746		117.187500
6747		121.093750
6748		117.187500
6749		121.093750
6750		117.187500
6751		121.093750
6752		117.187500
6753		121.093750
6754		117.187500
6755		121.093750
6756		117.187500
6757		121.093750
6758		117.187500
6759		121.093750
6760		117.187500
6761		121.093750
6762		117.187500
6763		121.093750
6764		117.187500
6765		121.093750
6766		117.187500
6767		121.093750
6768		113.281250
6769		117.187500
6770		117.187500
6771		117.187500
6772		113.281250
6773		117.187500
6774		113.281250
6775		117.187500
6776		113.281250
6777		117.187500
6778		113.281250
6779		117.187500
6780		113.281250
6781		117.187500
6782		109.375000
6783		113.281250
6784		109.375000
6785		113.281250
6786		109.375000
6787		113.281250
6788		109.375000
6789		113.281250
6790		105.468750
6791		109.375000
6792		105.468750
6793		109.375000
6794		105.468750
6795		109.375000
6796		101.562500
6797		105.468750
6798		101.562500
6799		105.468750
6800		101.562500
6801		105.468750
6802		97.656250
6803		101.562500
6804		97.656250
6805		101.562500
6806		97.656250
6807		101.562500
6808		93.750000
6809		97.656250
6810		93.750000
6811		97.656250
6812		89.843750
6813		93.750000
6814		89.843750
6815		93.750000
6816		85.937500
6817		89.843750
6818		85.937500
6819		89.843750
6820		82.031250
6821		89.843750
6822		82.031250
6823		85.937500
6824		82.031250
6825		85.937500
6826		78.125000
6827		82.031250
6828		74.218750
6829		82.031250
6830		74.218750
6831		78.125000
6832		70.312500
6833		74.218750
6834		70.312500
6835		74.218750
6836		66.406250
6837		70.312500
6838		66.406250
6839		70.312500
6840		62.500000
6841		66.406250
6842		58.593750
6843		66.406250
6844		58.593750
6845		62.500000
6846		54.687500
6847		62.500000
6848		54.687500
6849		58.593750
6850		50.781250
6851		54.687500
6852		50.781250
6853		54.687500
6854		46.875000
6855		50.781250
6856		42.968750
6857		50.781250
6858		42.968750
6859		46.875000
6860		39.062500
6861		46.875000
6862		39.062500
6863		42.968750
6864		35.156250
6865		39.062500
6866		31.250000
6867		39.062500
6868		31.250000
6869		35.156250
6870		27.343750
6871		31.250000
6872		27.343750
6873		31.250000
6874		23.437500
6875		27.343750
6876		19.531250
6877		27.343750
6878		19.531250
6879		23.437500
6880		15.625000
6881		23.437500
6882		15.625000
6883		19.531250
6884		11.718750
6885		15.625000
6886		11.718750
6887		15.625000
6888		7.812500
6889		11.718750
6890		7.812500
6891		11.718750
6892		3.906250
6893		7.812500
6894		3.906250
6895		7.812500
6896		0.000000
6897		3.906250
6898		0.000000
6899		3.906250
6900		-3.906250
6901		0.000000
6902		-3.906250
6903		0.000000
6904		-7.812500
6905		-3.906250
6906		-7.812500
6907		-3.906250
6908		-7.812500
6909		-7.812500
6910		-11.718750
6911		-7.812500
6912		-11.718750
6913		-7.812500
6914		-15.625000
6915		-11.718750
6916		-15.625000
6917		-11.718750
6918		-19.531250
6919		-15.625000
6920		-19.531250
6921		-15.625000
6922		-19.531250
6923		-15.625000
6924		-19.531250
6925		-15.625000
6926		-19.531250
6927		-19.531250
6928		-23.437500
6929		-19.531250
6930		-23.437500
6931		-19.531250
6932		-23.437500
6933		-19.531250
6934		-27.343750
6935		-19.531250
6936		-27.343750
6937		-23.437500
6938		-27.343750
6939		-23.437500
6940		-27.343750
6941		-23.437500
6942		-27.343750
6943		-23.437500
6944		-27.343750
6945		-23.437500
6946		-27.343750
6947		-23.437500
6948		-27.343750
6949		-23.437500
6950		-27.343750
6951		-27.343750
6952		-27.343750
6953		-27.343750
6954		-27.343750
6955		-23.437500
6956		-27.343750
6957		-27.343750
6958		-27.343750
6959		-23.437500
6960		-27.343750
6961		-23.437500
6962		-27.343750
6963		-23.437500
6964		-27.343750
6965		-23.437500
6966		-27.343750
6967		-23.437500
6968		-27.343750
6969		-23.437500
6970		-27.343750
6971		-23.437500
6972		-23.437500
6973		-23.437500
6974		-23.437500
6975		-19.531250
6976		-23.437500
6977		-19.531250
6978		-23.437500
6979		-19.531250
6980		-23.437500
6981		-19.531250
6982		-19.531250
6983		-15.625000
6984		-19.531250
6985		-15.625000
6986		-19.531250
6987		-15.625000
6988		-15.625000
6989		-11.718750
6990		-15.625000
6991		-11.718750
6992		-15.625000
6993		-11.718750
6994		-11.718750
6995		-7.812500
6996		-11.718750
6997		-7.812500
6998		-7.812500
6999		-7.812500
7000		-7.812500
7001		-3.906250
7002		-7.812500
7003		-3.906250
7004		-3.906250
7005		0.000000
7006		-3.906250
7007		0.000000
7008		0.000000
7009		3.906250
7010		0.000000
7011		3.906250
7012		3.906250
7013		7.812500
7014		3.906250
7015		7.812500
7016		7.812500
7017		11.718750
7018		7.812500
7019		11.718750
7020		11.718750
7021		15.625000
7022		11.718750
7023		15.625000
7024		15.625000
7025		19.531250
7026		15.625000
7027		19.531250
7028		19.531250
7029		23.437500
7030		19.531250
7031		23.437500
7032		23.437500
7033		27.343750
7034		27.343750
7035		31.250000
7036		27.343750
7037		31.250000
7038		31.250000
7039		35.156250
7040		31.250000
7041		35.156250
7042		35.156250
7043		39.062500
7044		39.062500
7045		42.968750
7046		39.062500
7047		42.968750
7048		42.968750
7049		46.875000
7050		42.968750
7051		46.875000
7052		46.875000
7053		50.781250
7054		46.875000
7055		54.687500
7056		50.781250
7057		54.687500
7058		54.687500
7059		58.593750
7060		54.687500
7061		58.593750
7062		58.593750
7063		62.500000
7064		58.593750
7065		62.500000
7066		62.500000
7067		66.406250
7068		62.500000
7069		66.406250
7070		66.406250
7071		70.312500
7072		66.406250
7073		74.218750
7074		70.312500
7075		74.218750
7076		74.218750
7077		78.125000
7078		74.218750
7079		78.125000
7080		78.125000
7081		82.031250
7082		78.125000
7083		82.031250
7084		78.125000
7085		85.937500
7086		82.031250
7087		85.937500
7088		82.031250
7089		85.937500
7090		85.937500
7091		89.843750
7092		85.937500
7093		93.750000
7094		89.843750
7095		93.750000
7096		89.843750
7097		93.750000
7098		93.750000
7099		97.656250
7100		93.750000
7101		97.656250
7102		97.656250
7103		101.562500
7104		97.656250
7105		101.562500
7106		97.656250
7107		101.562500
7108		101.562500
7109		105.468750
7110		101.562500
7111		105.468750
7112		101.562500
7113		105.468750
7114		105.468750
7115		109.375000
7116		105.468750
7117		109.375000
7118		105.468750
7119		109.375000
7120		105.468750
7121		113.281250
7122		109.375000
7123		113.281250
7124		109.375000
7125		113.281250
7126		109.375000
7127		113.281250
7128		113.281250
7129		113.281250
7130		113.281250
7131		117.187500
7132		113.281250
7133		117.187500
7134		113.281250
7135		117.187500
7136		113.281250
7137		117.187500
7138		113.281250
7139		117.187500
7140		117.187500
7141		117.187500
7142		117.187500
7143		117.187500
7144		117.187500
7145		121.093750
7146		117.187500
7147		121.093750
7148		117.187500
7149		121.093750
7150		117.187500
7151		121.093750
7152		117.187500
7153		121.093750
7154		117.187500
7155		121.093750
7156		117.187500
7157		121.093750
7158		117.187500
7159		121.093750
7160		117.187500
7161		121.093750
7162		117.187500
7163		121.093750
7164		117.187500
7165		121.093750
7166		117.187500
7167		121.093750
7168		117.187500
7169		121.093750
7170		117.187500
7171		117.187500
7172		117.187500
7173		121.093750
7174		113.281250
7175		117.187500
7176		113.281250
7177		117.187500
7178		113.281250
7179		117.187500
7180		113.281250
7181		117.187500
7182		113.281250
7183		117.187500
7184		113.281250
7185		113.281250
7186		109.375000
7187		113.281250
7188		109.375000
7189		113.281250
7190		109.375000
7191		113.281250
7192		105.468750
7193		113.281250
7194		105.468750
7195		109.375000
7196		105.468750
7197		109.375000
7198		105.468750
7199		109.375000
7200		101.562500
7201		105.468750
7202		101.562500
7203		105.468750
7204		101.562500
7205		105.468750
7206		97.656250
7207		101.562500
7208		97.656250
7209		101.562500
7210		93.750000
7211		97.656250
7212		93.750000
7213		97.656250
7214		89.843750
7215		93.750000
7216		89.843750
7217		93.750000
7218		89.843750
7219		93.750000
7220		85.937500
7221		89.843750
7222		85.937500
7223		89.843750
7224		82.031250
7225		85.937500
7226		82.031250
7227		85.937500
7228		78.125000
7229		82.031250
7230		78.125000
7231		82.031250
7232		74.218750
7233		78.125000
7234		74.218750
7235		78.125000
7236		70.312500
7237		74.218750
7238		70.312500
7239		74.218750
7240		66.406250
7241		70.312500
7242		62.500000
7243		66.406250
7244		62.500000
7245		66.406250
7246		58.593750
7247		62.500000
7248		58.593750
7249		62.500000
7250		54.687500
7251		58.593750
7252		54.687500
7253		58.593750
7254		50.781250
7255		54.687500
7256		46.875000
7257		54.687500
7258		46.875000
7259		50.781250
7260		42.968750
7261		46.875000
7262		42.968750
7263		46.875000
7264		39.062500
7265		42.968750
7266		35.156250
7267		39.062500
7268		35.156250
7269		39.062500
7270		31.250000
7271		35.156250
7272		31.250000
7273		35.156250
7274		27.343750
7275		31.250000
7276		23.437500
7277		27.343750
7278		23.437500
7279		27.343750
7280		19.531250
7281		23.437500
7282		19.531250
7283		23.437500
7284		15.625000
7285		19.531250
7286		11.718750
7287		19.531250
7288		11.718750
7289		15.625000
7290		7.812500
7291		11.718750
7292		7.812500
7293		11.718750
7294		3.906250
7295		7.812500
7296		3.906250
7297		7.812500
7298		0.000000
7299		3.906250
7300		0.000000
7301		3.906250
7302		-3.906250
7303		3.906250
7304		-3.906250
7305		0.000000
7306		-7.812500
7307		-3.906250
7308		-7.812500
7309		-3.906250
7310		-7.812500
7311		-3.906250
7312		-11.718750
7313		-7.812500
7314		-11.718750
7315		-7.812500
7316		-15.625000
7317		-11.718750
7318		-15.625000
7319		-11.718750
7320		-15.625000
7321		-11.718750
7322		-19.531250
7323		-15.625000
7324		-19.531250
7325		-15.625000
7326		-19.531250
7327		-15.625000
7328		-23.437500
7329		-19.531250
7330		-23.437500
7331		-19.531250
7332		-23.437500
7333		-19.531250
7334		-23.437500
7335		-19.531250
7336		-23.437500
7337		-23.437500
7338		-27.343750
7339		-23.437500
7340		-27.343750
7341		-23.437500
7342		-27.343750
7343		-23.437500
7344		-27.343750
7345		-23.437500
7346		-27.343750
7347		-23.437500
7348		-27.343750
7349		-23.437500
7350		-27.343750
7351		-23.437500
7352		-27.343750
7353		-27.343750
7354		-27.343750
7355		-23.437500
7356		-27.343750
7357		-23.437500
7358		-27.343750
7359		-27.343750
7360		-27.343750
7361		-23.437500
7362		-27.343750
7363		-27.343750
7364		-27.343750
7365		-23.437500
7366		-27.343750
7367		-23.437500
7368		-27.343750
7369		-23.437500
7370		-27.343750
7371		-23.437500
7372		-27.343750
7373		-23.437500
7374		-23.437500
7375		-23.437500
7376		-23.437500
7377		-19.531250
7378		-23.437500
7379		-19.531250
7380		-23.437500
7381		-19.531250
7382		-23.437500
7383		-19.531250
7384		-19.531250
7385		-19.531250
7386		-19.531250
7387		-15.625000
7388		-19.531250
7389		-15.625000
7390		-15.625000
7391		-15.625000
7392		-15.625000
7393		-11.718750
7394		-15.625000
7395		-11.718750
7396		-11.718750
7397		-11.718750
7398		-11.718750
7399		-7.812500
7400		-11.718750
7401		-7.812500
7402		-7.812500
7403		-3.906250
7404		-7.812500
7405		-3.906250
7406		-3.906250
7407		0.000000
7408		-3.906250
7409		0.000000
7410		-3.906250
7411		0.000000
7412		0.000000
7413		3.906250
7414		0.000000
7415		3.906250
7416		3.906250
7417		7.812500
7418		3.906250
7419		7.812500
7420		7.812500
7421		11.718750
7422		7.812500
7423		15.625000
7424		11.718750
7425		15.625000
7426		11.718750
7427		19.531250
7428		15.625000
7429		19.531250
7430		19.531250
7431		23.437500
7432		19.531250
7433		23.437500
7434		23.437500
7435		27.343750
7436		23.437500
7437		27.343750
7438		27.343750
7439		31.250000
7440		27.343750
7441		31.250000
7442		31.250000
7443		35.156250
7444		35.156250
7445		39.062500
7446		35.156250
7447		39.062500
7448		39.062500
7449		42.968750
7450		39.062500
7451		42.968750
7452		42.968750
7453		46.875000
7454		42.968750
7455		50.781250
7456		46.875000
7457		50.781250
7458		50.781250
7459		54.687500
7460		50.781250
7461		54.687500
7462		54.687500
7463		58.593750
7464		54.687500
7465		58.593750
7466		54.687500
7467		62.500000
7468		58.593750
7469		62.500000
7470		62.500000
7471		66.406250
7472		62.500000
7473		70.312500
7474		66.406250
7475		70.312500
7476		70.312500
7477		74.218750
7478		70.312500
7479		74.218750
7480		74.218750
7481		78.125000
7482		74.218750
7483		78.125000
7484		78.125000
7485		82.031250
7486		78.125000
7487		82.031250
7488		82.031250
7489		85.937500
7490		82.031250
7491		85.937500
7492		85.937500
7493		89.843750
7494		85.937500
7495		89.843750
7496		89.843750
7497		93.750000
7498		89.843750
7499		93.750000
7500		89.843750
7501		93.750000
7502		93.750000
7503		97.656250
7504		93.750000
7505		97.656250
7506		97.656250
7507		101.562500
7508		97.656250
7509		101.562500
7510		97.656250
7511		101.562500
7512		101.562500
7513		105.468750
7514		101.562500
7515		105.468750
7516		101.562500
7517		105.468750
7518		105.468750
7519		109.375000
7520		105.468750
7521		109.375000
7522		105.468750
7523		113.281250
7524		109.375000
7525		113.281250
7526		109.375000
7527		113.281250
7528		109.375000
7529		113.281250
7530		109.375000
7531		113.281250
7532		113.281250
7533		117.187500
7534		113.281250
7535		117.187500
7536		113.281250
7537		117.187500
7538		113.281250
7539		117.187500
7540		113.281250
7541		117.187500
7542		113.281250
7543		121.093750
7544		117.187500
7545		117.187500
7546		117.187500
7547		121.093750
7548		117.187500
7549		121.093750
7550		117.187500
7551		121.093750
7552		117.187500
7553		121.093750
7554		117.187500
7555		121.093750
7556		117.187500
7557		121.093750
7558		117.187500
7559		121.093750
7560		117.187500
7561		121.093750
7562		117.187500
7563		121.093750
7564		117.187500
7565		121.093750
7566		117.187500
7567		121.093750
7568		117.187500
7569		121.093750
7570		117.187500
7571		121.093750
7572		117.187500
7573		121.093750
7574		117.187500
7575		117.187500
7576		113.281250
7577		117.187500
7578		113.281250
7579		117.187500
7580		113.281250
7581		117.187500
7582		113.281250
7583		117.187500
7584		113.281250
7585		117.187500
7586		113.281250
7587		117.187500
7588		109.375000
7589		113.281250
7590		109.375000
7591		113.281250
7592		109.375000
7593		113.281250
7594		109.375000
7595		109.375000
7596		105.468750
7597		109.375000
7598		105.468750
7599		109.375000
7600		105.468750
7601		109.375000
7602		105.468750
7603		105.468750
7604		101.562500
7605		105.468750
7606		101.562500
7607		105.468750
7608		97.656250
7609		101.562500
7610		97.656250
7611		101.562500
7612		97.656250
7613		101.562500
7614		93.750000
7615		97.656250
7616		93.750000
7617		97.656250
7618		89.843750
7619		93.750000
7620		89.843750
7621		93.750000
7622		85.937500
7623		89.843750
7624		85.937500
7625		89.843750
7626		82.031250
7627		89.843750
7628		82.031250
7629		85.937500
7630		78.125000
7631		85.937500
7632		78.125000
7633		82.031250
7634		74.218750
7635		82.031250
7636		74.218750
7637		78.125000
7638		70.312500
7639		78.125000
7640		70.312500
7641		74.218750
7642		66.406250
7643		74.218750
7644		66.406250
7645		70.312500
7646		62.500000
7647		66.406250
7648		62.500000
7649		66.406250
7650		58.593750
7651		62.500000
7652		58.593750
7653		62.500000
7654		54.687500
7655		58.593750
7656		50.781250
7657		54.687500
7658		50.781250
7659		54.687500
7660		46.875000
7661		50.781250
7662		42.968750
7663		50.781250
7664		39.062500
7665		46.875000
7666		39.062500
7667		42.968750
7668		39.062500
7669		42.968750
7670		35.156250
7671		39.062500
7672		35.156250
7673		39.062500
7674		31.250000
7675		35.156250
7676		27.343750
7677		35.156250
7678		27.343750
7679		31.250000
7680		23.437500
7681		27.343750
7682		19.531250
7683		27.343750
7684		15.625000
7685		23.437500
7686		15.625000
7687		23.437500
7688		15.625000
7689		19.531250
7690		11.718750
7691		19.531250
7692		7.812500
7693		15.625000
7694		7.812500
7695		15.625000
7696		7.812500
7697		11.718750
7698		0.000000
7699		11.718750
7700		3.906250
7701		11.718750
7702		0.000000
7703		7.812500
7704		0.000000
7705		3.906250
7706		-3.906250
7707		0.000000
7708		-7.812500
7709		0.000000
7710		-7.812500
7711		-3.906250
7712		-7.812500
7713		-3.906250
7714		-11.718750
7715		-3.906250
7716		-15.625000
7717		-3.906250
7718		-19.531250
7719		-7.812500
7720		-15.625000
7721		-11.718750
7722		-15.625000
7723		-11.718750
7724		-19.531250
7725		-11.718750
7726		-23.437500
7727		-11.718750
7728		-19.531250
7729		-15.625000
7730		-19.531250
7731		-15.625000
7732		-23.437500
7733		-15.625000
7734		-23.437500
7735		-19.531250
7736		-27.343750
7737		-15.625000
7738		-23.437500
7739		-23.437500
7740		-27.343750
7741		-19.531250
7742		-31.250000
7743		-19.531250
7744		-27.343750
7745		-23.437500
7746		-27.343750
7747		-23.437500
7748		-31.250000
7749		-23.437500
7750		-31.250000
7751		-19.531250
7752		-31.250000
7753		-19.531250
7754		-27.343750
7755		-27.343750
7756		-27.343750
7757		-27.343750
7758		-31.250000
7759		-23.437500
7760		-31.250000
7761		-23.437500
7762		-27.343750
7763		-27.343750
7764		-27.343750
7765		-27.343750
7766		-31.250000
7767		-23.437500
7768		-31.250000
7769		-23.437500
7770		-27.343750
7771		-23.437500
7772		-27.343750
7773		-23.437500
7774		-27.343750
7775		-23.437500
7776		-27.343750
7777		-19.531250
7778		-27.343750
7779		-19.531250
7780		-23.437500
7781		-19.531250
7782		-27.343750
7783		-19.531250
7784		-27.343750
7785		-15.625000
7786		-23.437500
7787		-15.625000
7788		-19.531250
7789		-15.625000
7790		-19.531250
7791		-15.625000
7792		-19.531250
7793		-11.718750
7794		-19.531250
7795		-11.718750
7796		-15.625000
7797		-11.718750
7798		-15.625000
7799		-11.718750
7800		-15.625000
7801		-7.812500
7802		-11.718750
7803		-3.906250
7804		-11.718750
7805		-7.812500
7806		-7.812500
7807		-3.906250
7808		-7.812500
7809		-3.906250
7810		-7.812500
7811		0.000000
7812		-3.906250
7813		0.000000
7814		0.000000
7815		3.906250
7816		0.000000
7817		7.812500
7818		0.000000
7819		7.812500
7820		0.000000
7821		7.812500
7822		7.812500
7823		11.718750
7824		7.812500
7825		11.718750
7826		7.812500
7827		15.625000
7828		11.718750
7829		15.625000
7830		15.625000
7831		19.531250
7832		15.625000
7833		23.437500
7834		15.625000
7835		23.437500
7836		19.531250
7837		27.343750
7838		23.437500
7839		27.343750
7840		23.437500
7841		27.343750
7842		27.343750
7843		31.250000
7844		27.343750
7845		35.156250
7846		31.250000
7847		35.156250
7848		35.156250
7849		39.062500
7850		35.156250
7851		42.968750
7852		39.062500
7853		46.875000
7854		39.062500
7855		46.875000
7856		42.968750
7857		46.875000
7858		46.875000
7859		50.781250
7860		46.875000
7861		54.687500
7862		50.781250
7863		54.687500
7864		50.781250
7865		54.687500
7866		54.687500
7867		62.500000
7868		54.687500
7869		62.500000
7870		58.593750
7871		62.500000
7872		62.500000
7873		66.406250
7874		62.500000
7875		66.406250
7876		66.406250
7877		70.312500
7878		66.406250
7879		74.218750
7880		70.312500
7881		74.218750
7882		70.312500
7883		74.218750
7884		70.312500
7885		78.125000
7886		74.218750
7887		82.031250
7888		78.125000
7889		82.031250
7890		78.125000
7891		82.031250
7892		82.031250
7893		85.937500
7894		82.031250
7895		89.843750
7896		82.031250
7897		89.843750
7898		85.937500
7899		89.843750
7900		85.937500
7901		93.750000
7902		89.843750
7903		93.750000
7904		93.750000
7905		97.656250
7906		93.750000
7907		97.656250
7908		97.656250
7909		101.562500
7910		97.656250
7911		101.562500
7912		97.656250
7913		105.468750
7914		101.562500
7915		105.468750
7916		101.562500
7917		105.468750
7918		101.562500
7919		105.468750
7920		101.562500
7921		109.375000
7922		105.468750
7923		109.375000
7924		105.468750
7925		109.375000
7926		105.468750
7927		109.375000
7928		109.375000
7929		113.281250
7930		109.375000
7931		113.281250
7932		109.375000
7933		113.281250
7934		109.375000
7935		113.281250
7936		113.281250
7937		117.187500
7938		113.281250
7939		117.187500
7940		113.281250
7941		117.187500
7942		113.281250
7943		117.187500
7944		113.281250
7945		117.187500
7946		117.187500
7947		117.187500
7948		117.187500
7949		121.093750
7950		117.187500
7951		121.093750
7952		117.187500
7953		121.093750
7954		117.187500
7955		121.093750
7956		117.187500
7957		121.093750
7958		117.187500
7959		121.093750
7960		117.187500
7961		121.093750
7962		117.187500
7963		121.093750
7964		117.187500
7965		121.093750
7966		117.187500
7967		121.093750
7968		117.187500
7969		121.093750
7970		117.187500
7971		121.093750
7972		117.187500
7973		121.093750
7974		117.187500
7975		121.093750
7976		117.187500
7977		121.093750
7978		113.281250
7979		121.093750
7980		113.281250
7981		121.093750
7982		113.281250
7983		117.187500
7984		113.281250
7985		117.187500
7986		113.281250
7987		117.187500
7988		113.281250
7989		117.187500
7990		113.281250
7991		113.281250
7992		109.375000
7993		113.281250
7994		109.375000
7995		113.281250
7996		109.375000
7997		113.281250
7998		105.468750
7999		113.281250
8000		105.468750
8001		109.375000
8002		105.468750
8003		109.375000
8004		101.562500
8005		109.375000
8006		101.562500
8007		105.468750
8008		101.562500
8009		105.468750
8010		97.656250
8011		105.468750
8012		97.656250
8013		105.468750
8014		93.750000
8015		101.562500
8016		93.750000
8017		101.562500
8018		93.750000
8019		97.656250
8020		89.843750
8021		97.656250
8022		89.843750
8023		93.750000
8024		89.843750
8025		93.750000
8026		85.937500
8027		89.843750
8028		85.937500
8029		89.843750
8030		82.031250
8031		89.843750
8032		78.125000
8033		85.937500
8034		78.125000
8035		82.031250
8036		74.218750
8037		82.031250
8038		74.218750
8039		78.125000
8040		74.218750
8041		78.125000
8042		70.312500
8043		74.218750
8044		70.312500
8045		74.218750
8046		66.406250
8047		70.312500
8048		62.500000
8049		70.312500
8050		62.500000
8051		70.312500
8052		58.593750
8053		62.500000
8054		58.593750
8055		62.500000
8056		54.687500
8057		62.500000
8058		54.687500
8059		58.593750
8060		50.781250
8061		54.687500
8062		46.875000
8063		54.687500
8064		46.875000
8065		50.781250
8066		42.968750
8067		50.781250
8068		39.062500
8069		46.875000
8070		39.062500
8071		42.968750
8072		35.156250
8073		42.968750
8074		35.156250
8075		39.062500
8076		31.250000
8077		35.156250
8078		27.343750
8079		35.156250
8080		27.343750
8081		31.250000
8082		23.437500
8083		31.250000
8084		23.437500
8085		27.343750
8086		19.531250
8087		23.437500
8088		19.531250
8089		23.437500
8090		15.625000
8091		19.531250
8092		15.625000
8093		19.531250
8094		11.718750
8095		15.625000
8096		7.812500
8097		15.625000
8098		7.812500
8099		11.718750
8100		3.906250
8101		11.718750
8102		3.906250
8103		7.812500
8104		0.000000
8105		3.906250
8106		0.000000
8107		3.906250
8108		-3.906250
8109		0.000000
8110		-3.906250
8111		0.000000
8112		-7.812500
8113		0.000000
8114		-7.812500
8115		-3.906250
8116		-11.718750
8117		-3.906250
8118		-11.718750
8119		-7.812500
8120		-11.718750
8121		-7.812500
8122		-15.625000
8123		-11.718750
8124		-15.625000
8125		-11.718750
8126		-15.625000
8127		-11.718750
8128		-19.531250
8129		-15.625000
8130		-19.531250
8131		-15.625000
8132		-23.437500
8133		-15.625000
8134		-23.437500
8135		-15.625000
8136		-23.437500
8137		-19.531250
8138		-23.437500
8139		-19.531250
8140		-23.437500
8141		-19.531250
8142		-23.437500
8143		-19.531250
8144		-27.343750
8145		-23.437500
8146		-27.343750
8147		-23.437500
8148		-27.343750
8149		-23.437500
8150		-27.343750
8151		-23.437500
8152		-27.343750
8153		-23.437500
8154		-27.343750
8155		-23.437500
8156		-27.343750
8157		-23.437500
8158		-27.343750
8159		-27.343750
8160		-31.250000
8161		-23.437500
8162		-27.343750
8163		-23.437500
8164		-27.343750
8165		-23.437500
8166		-31.250000
8167		-23.437500
8168		-27.343750
8169		-23.437500
8170		-27.343750
8171		-23.437500
8172		-27.343750
8173		-23.437500
8174		-27.343750
8175		-23.437500
8176		-27.343750
8177		-23.437500
8178		-27.343750
8179		-23.437500
8180		-27.343750
8181		-23.437500
8182		-23.437500
8183		-19.531250
8184		-23.437500
8185		-19.531250
8186		-23.437500
8187		-19.531250
8188		-23.437500
8189		-19.531250
8190		-23.437500
8191		-15.625000
8192		-19.531250
8193		-15.625000
8194		-19.531250
8195		-15.625000
8196		-19.531250
8197		-11.718750
8198		-15.625000
8199		-11.718750
8200		-15.625000
8201		-11.718750
8202		-15.625000
8203		-11.718750
8204		-11.718750
8205		-7.812500
8206		-11.718750
8207		-7.812500
8208		-7.812500
8209		-3.906250
8210		-7.812500
8211		-3.906250
8212		-7.812500
8213		0.000000
8214		-3.906250
8215		0.000000
8216		-3.906250
8217		0.000000
8218		0.000000
8219		3.906250
8220		0.000000
8221		3.906250
8222		3.906250
8223		7.812500
8224		3.906250
8225		7.812500
8226		7.812500
8227		11.718750
8228		7.812500
8229		15.625000
8230		11.718750
8231		15.625000
8232		11.718750
8233		15.625000
8234		15.625000
8235		19.531250
8236		19.531250
8237		23.437500
8238		19.531250
8239		23.437500
8240		19.531250
8241		27.343750
8242		23.437500
8243		27.343750
8244		27.343750
8245		31.250000
8246		27.343750
8247		35.156250
8248		31.250000
8249		35.156250
8250		31.250000
8251		39.062500
8252		35.156250
8253		39.062500
8254		35.156250
8255		42.968750
8256		39.062500
8257		42.968750
8258		42.968750
8259		46.875000
8260		42.968750
8261		46.875000
8262		46.875000
8263		50.781250
8264		46.875000
8265		54.687500
8266		50.781250
8267		54.687500
8268		54.687500
8269		58.593750
8270		54.687500
8271		58.593750
8272		58.593750
8273		62.500000
8274		58.593750
8275		62.500000
8276		62.500000
8277		66.406250
8278		62.500000
8279		70.312500
8280		66.406250
8281		70.312500
8282		66.406250
8283		74.218750
8284		70.312500
8285		74.218750
8286		74.218750
8287		78.125000
8288		74.218750
8289		78.125000
8290		78.125000
8291		82.031250
8292		78.125000
8293		82.031250
8294		82.031250
8295		85.937500
8296		82.031250
8297		85.937500
8298		82.031250
8299		89.843750
8300		85.937500
8301		89.843750
8302		85.937500
8303		93.750000
8304		89.843750
8305		93.750000
8306		89.843750
8307		93.750000
8308		93.750000
8309		97.656250
8310		93.750000
8311		97.656250
8312		97.656250
8313		101.562500
8314		97.656250
8315		101.562500
8316		97.656250
8317		101.562500
8318		101.562500
8319		105.468750
8320		101.562500
8321		105.468750
8322		101.562500
8323		109.375000
8324		105.468750
8325		109.375000
8326		105.468750
8327		109.375000
8328		105.468750
8329		109.375000
8330		109.375000
8331		109.375000
8332		109.375000
8333		113.281250
8334		109.375000
8335		113.281250
8336		109.375000
8337		113.281250
8338		113.281250
8339		117.187500
8340		113.281250
8341		117.187500
8342		113.281250
8343		117.187500
8344		113.281250
8345		117.187500
8346		113.281250
8347		117.187500
8348		113.281250
8349		117.187500
8350		117.187500
8351		117.187500
8352		117.187500
8353		121.093750
8354		117.187500
8355		121.093750
8356		117.187500
8357		121.093750
8358		117.187500
8359		121.093750
8360		117.187500
8361		121.093750
8362		117.187500
8363		121.093750
8364		117.187500
8365		121.093750
8366		117.187500
8367		121.093750
8368		117.187500
8369		121.093750
8370		117.187500
8371		121.093750
8372		117.187500
8373		121.093750
8374		117.187500
8375		121.093750
8376		117.187500
8377		121.093750
8378		117.187500
8379		121.093750
8380		117.187500
8381		121.093750
8382		113.281250
8383		121.093750
8384		113.281250
8385		117.187500
8386		113.281250
8387		117.187500
8388		113.281250
8389		117.187500
8390		113.281250
8391		117.187500
8392		113.281250
8393		117.187500
8394		113.281250
8395		117.187500
8396		109.375000
8397		113.281250
8398		109.375000
8399		113.281250
8400		109.375000
8401		113.281250
8402		109.375000
8403		109.375000
8404		105.468750
8405		109.375000
8406		105.468750
8407		109.375000
8408		105.468750
8409		109.375000
8410		101.562500
8411		105.468750
8412		101.562500
8413		105.468750
8414		101.562500
8415		105.468750
8416		97.656250
8417		101.562500
8418		97.656250
8419		101.562500
8420		93.750000
8421		97.656250
8422		93.750000
8423		97.656250
8424		89.843750
8425		97.656250
8426		89.843750
8427		93.750000
8428		89.843750
8429		93.750000
8430		85.937500
8431		89.843750
8432		82.031250
8433		89.843750
8434		82.031250
8435		85.937500
8436		82.031250
8437		85.937500
8438		78.125000
8439		82.031250
8440		78.125000
8441		82.031250
8442		74.218750
8443		78.125000
8444		70.312500
8445		78.125000
8446		70.312500
8447		74.218750
8448		66.406250
8449		74.218750
8450		66.406250
8451		70.312500
8452		62.500000
8453		66.406250
8454		62.500000
8455		66.406250
8456		58.593750
8457		62.500000
8458		58.593750
8459		62.500000
8460		54.687500
8461		58.593750
8462		50.781250
8463		58.593750
8464		50.781250
8465		54.687500
8466		46.875000
8467		54.687500
8468		46.875000
8469		50.781250
8470		42.968750
8471		46.875000
8472		39.062500
8473		46.875000
8474		39.062500
8475		42.968750
8476		35.156250
8477		39.062500
8478		35.156250
8479		39.062500
8480		31.250000
8481		35.156250
8482		27.343750
8483		35.156250
8484		27.343750
8485		31.250000
8486		23.437500
8487		31.250000
8488		23.437500
8489		27.343750
8490		19.531250
8491		23.437500
8492		19.531250
8493		23.437500
8494		15.625000
8495		19.531250
8496		11.718750
8497		19.531250
8498		11.718750
8499		15.625000
8500		7.812500
8501		15.625000
8502		7.812500
8503		11.718750
8504		3.906250
8505		7.812500
8506		3.906250
8507		7.812500
8508		0.000000
8509		3.906250
8510		0.000000
8511		3.906250
8512		-3.906250
8513		0.000000
8514		-3.906250
8515		0.000000
8516		-7.812500
8517		0.000000
8518		-7.812500
8519		-3.906250
8520		-7.812500
8521		-3.906250
8522		-11.718750
8523		-7.812500
8524		-11.718750
8525		-7.812500
8526		-15.625000
8527		-7.812500
8528		-15.625000
8529		-11.718750
8530		-15.625000
8531		-11.718750
8532		-19.531250
8533		-15.625000
8534		-19.531250
8535		-15.625000
8536		-19.531250
8537		-15.625000
8538		-23.437500
8539		-15.625000
8540		-23.437500
8541		-19.531250
8542		-23.437500
8543		-19.531250
8544		-23.437500
8545		-19.531250
8546		-23.437500
8547		-19.531250
8548		-27.343750
8549		-23.437500
8550		-27.343750
8551		-23.437500
8552		-27.343750
8553		-23.437500
8554		-27.343750
8555		-23.437500
8556		-27.343750
8557		-23.437500
8558		-27.343750
8559		-23.437500
8560		-27.343750
8561		-23.437500
8562		-27.343750
8563		-23.437500
8564		-27.343750
8565		-23.437500
8566		-27.343750
8567		-23.437500
8568		-27.343750
8569		-23.437500
8570		-27.343750
8571		-23.437500
8572		-27.343750
8573		-23.437500
8574		-27.343750
8575		-23.437500
8576		-27.343750
8577		-23.437500
8578		-27.343750
8579		-23.437500
8580		-27.343750
8581		-23.437500
8582		-27.343750
8583		-23.437500
8584		-23.437500
8585		-23.437500
8586		-23.437500
8587		-19.531250
8588		-23.437500
8589		-19.531250
8590		-23.437500
8591		-19.531250
8592		-23.437500
8593		-15.625000
8594		-23.437500
8595		-15.625000
8596		-19.531250
8597		-15.625000
8598		-19.531250
8599		-15.625000
8600		-15.625000
8601		-11.718750
8602		-15.625000
8603		-11.718750
8604		-15.625000
8605		-11.718750
8606		-11.718750
8607		-7.812500
8608		-11.718750
8609		-7.812500
8610		-11.718750
8611		-3.906250
8612		-7.812500
8613		-3.906250
8614		-7.812500
8615		-3.906250
8616		-3.906250
8617		0.000000
8618		-3.906250
8619		0.000000
8620		0.000000
8621		3.906250
8622		0.000000
8623		3.906250
8624		3.906250
8625		7.812500
8626		3.906250
8627		7.812500
8628		7.812500
8629		11.718750
8630		7.812500
8631		11.718750
8632		7.812500
8633		15.625000
8634		11.718750
8635		15.625000
8636		15.625000
8637		19.531250
8638		15.625000
8639		19.531250
8640		19.531250
8641		23.437500
8642		19.531250
8643		23.437500
8644		23.437500
8645		27.343750
8646		23.437500
8647		27.343750
8648		27.343750
8649		31.250000
8650		27.343750
8651		35.156250
8652		31.250000
8653		35.156250
8654		35.156250
8655		39.062500
8656		35.156250
8657		39.062500
8658		39.062500
8659		42.968750
8660		39.062500
8661		46.875000
8662		42.968750
8663		46.875000
8664		46.875000
8665		50.781250
8666		46.875000
8667		50.781250
8668		50.781250
8669		54.687500
8670		50.781250
8671		58.593750
8672		54.687500
8673		58.593750
8674		54.687500
8675		62.500000
8676		58.593750
8677		62.500000
8678		62.500000
8679		66.406250
8680		62.500000
8681		66.406250
8682		66.406250
8683		70.312500
8684		66.406250
8685		70.312500
8686		70.312500
8687		74.218750
8688		70.312500
8689		74.218750
8690		74.218750
8691		78.125000
8692		74.218750
8693		78.125000
8694		78.125000
8695		82.031250
8696		78.125000
8697		82.031250
8698		82.031250
8699		85.937500
8700		82.031250
8701		89.843750
8702		85.937500
8703		89.843750
8704		85.937500
8705		89.843750
8706		89.843750
8707		93.750000
8708		89.843750
8709		93.750000
8710		89.843750
8711		97.656250
8712		93.750000
8713		97.656250
8714		93.750000
8715		97.656250
8716		97.656250
8717		101.562500
8718		97.656250
8719		101.562500
8720		97.656250
8721		105.468750
8722		101.562500
8723		105.468750
8724		101.562500
8725		105.468750
8726		105.468750
8727		109.375000
8728		105.468750
8729		109.375000
8730		105.468750
8731		109.375000
8732		105.468750
8733		113.281250
8734		109.375000
8735		113.281250
8736		109.375000
8737		113.281250
8738		109.375000
8739		113.281250
8740		113.281250
8741		113.281250
8742		113.281250
8743		117.187500
8744		113.281250
8745		117.187500
8746		113.281250
8747		117.187500
8748		113.281250
8749		117.187500
8750		113.281250
8751		117.187500
8752		113.281250
8753		117.187500
8754		117.187500
8755		121.093750
8756		117.187500
8757		121.093750
8758		117.187500
8759		121.093750
8760		117.187500
8761		121.093750
8762		117.187500
8763		121.093750
8764		117.187500
8765		121.093750
8766		117.187500
8767		121.093750
8768		117.187500
8769		121.093750
8770		117.187500
8771		121.093750
8772		117.187500
8773		121.093750
8774		117.187500
8775		121.093750
8776		117.187500
8777		121.093750
8778		117.187500
8779		121.093750
8780		117.187500
8781		121.093750
8782		117.187500
8783		121.093750
8784		117.187500
8785		121.093750
8786		113.281250
8787		121.093750
8788		113.281250
8789		117.187500
8790		113.281250
8791		117.187500
8792		113.281250
8793		117.187500
8794		113.281250
8795		117.187500
8796		113.281250
8797		117.187500
8798		113.281250
8799		113.281250
8800		109.375000
8801		113.281250
8802		109.375000
8803		113.281250
8804		109.375000
8805		113.281250
8806		105.468750
8807		109.375000
8808		105.468750
8809		109.375000
8810		105.468750
8811		109.375000
8812		105.468750
8813		109.375000
8814		101.562500
8815		105.468750
8816		101.562500
8817		105.468750
8818		101.562500
8819		105.468750
8820		97.656250
8821		101.562500
8822		97.656250
8823		101.562500
8824		93.750000
8825		97.656250
8826		93.750000
8827		97.656250
8828		93.750000
8829		97.656250
8830		89.843750
8831		93.750000
8832		85.937500
8833		93.750000
8834		85.937500
8835		89.843750
8836		85.937500
8837		89.843750
8838		82.031250
8839		85.937500
8840		82.031250
8841		85.937500
8842		78.125000
8843		82.031250
8844		74.218750
8845		82.031250
8846		74.218750
8847		78.125000
8848		70.312500
8849		78.125000
8850		70.312500
8851		74.218750
8852		66.406250
8853		70.312500
8854		66.406250
8855		70.312500
8856		62.500000
8857		70.312500
8858		62.500000
8859		66.406250
8860		58.593750
8861		62.500000
8862		58.593750
8863		62.500000
8864		54.687500
8865		58.593750
8866		50.781250
8867		54.687500
8868		50.781250
8869		54.687500
8870		46.875000
8871		50.781250
8872		42.968750
8873		50.781250
8874		42.968750
8875		46.875000
8876		39.062500
8877		42.968750
8878		39.062500
8879		42.968750
8880		35.156250
8881		39.062500
8882		31.250000
8883		39.062500
8884		31.250000
8885		35.156250
8886		27.343750
8887		31.250000
8888		27.343750
8889		31.250000
8890		23.437500
8891		27.343750
8892		23.437500
8893		27.343750
8894		19.531250
8895		23.437500
8896		15.625000
8897		23.437500
8898		15.625000
8899		19.531250
8900		11.718750
8901		15.625000
8902		11.718750
8903		15.625000
8904		7.812500
8905		11.718750
8906		7.812500
8907		11.718750
8908		3.906250
8909		7.812500
8910		3.906250
8911		7.812500
8912		0.000000
8913		3.906250
8914		0.000000
8915		3.906250
8916		-3.906250
8917		0.000000
8918		-3.906250
8919		0.000000
8920		-7.812500
8921		-3.906250
8922		-7.812500
8923		-3.906250
8924		-7.812500
8925		-7.812500
8926		-11.718750
8927		-7.812500
8928		-11.718750
8929		-7.812500
8930		-15.625000
8931		-11.718750
8932		-15.625000
8933		-11.718750
8934		-15.625000
8935		-11.718750
8936		-19.531250
8937		-15.625000
8938		-19.531250
8939		-15.625000
8940		-19.531250
8941		-15.625000
8942		-23.437500
8943		-19.531250
8944		-23.437500
8945		-19.531250
8946		-23.437500
8947		-19.531250
8948		-23.437500
8949		-19.531250
8950		-27.343750
8951		-23.437500
8952		-27.343750
8953		-23.437500
8954		-27.343750
8955		-23.437500
8956		-27.343750
8957		-23.437500
8958		-27.343750
8959		-23.437500
8960		-27.343750
8961		-23.437500
8962		-27.343750
8963		-23.437500
8964		-27.343750
8965		-23.437500
8966		-27.343750
8967		-27.343750
8968		-31.250000
8969		-23.437500
8970		-27.343750
8971		-27.343750
8972		-31.250000
8973		-23.437500
8974		-27.343750
8975		-23.437500
8976		-27.343750
8977		-23.437500
8978		-27.343750
8979		-23.437500
8980		-27.343750
8981		-23.437500
8982		-27.343750
8983		-23.437500
8984		-27.343750
8985		-23.437500
8986		-27.343750
8987		-23.437500
8988		-23.437500
8989		-19.531250
8990		-23.437500
8991		-19.531250
8992		-23.437500
8993		-19.531250
8994		-23.437500
8995		-19.531250
8996		-23.437500
8997		-15.625000
8998		-19.531250
8999		-15.625000
9000		-19.531250
9001		-15.625000
9002		-19.531250
9003		-15.625000
9004		-15.625000
9005		-11.718750
9006		-15.625000
9007		-11.718750
9008		-15.625000
9009		-7.812500
9010		-11.718750
9011		-7.812500
9012		-11.718750
9013		-7.812500
9014		-11.718750
9015		-3.906250
9016		-7.812500
9017		-3.906250
9018		-3.906250
9019		-3.906250
9020		-3.906250
9021		0.000000
9022		-3.906250
9023		0.000000
9024		0.000000
9025		3.906250
9026		0.000000
9027		3.906250
9028		3.906250
9029		7.812500
9030		3.906250
9031		11.718750
9032		7.812500
9033		11.718750
9034		7.812500
9035		11.718750
9036		11.718750
9037		15.625000
9038		11.718750
9039		15.625000
9040		15.625000
9041		19.531250
9042		15.625000
9043		23.437500
9044		19.531250
9045		23.437500
9046		23.437500
9047		27.343750
9048		23.437500
9049		27.343750
9050		27.343750
9051		31.250000
9052		27.343750
9053		35.156250
9054		31.250000
9055		35.156250
9056		31.250000
9057		39.062500
9058		35.156250
9059		39.062500
9060		39.062500
9061		42.968750
9062		39.062500
9063		42.968750
9064		42.968750
9065		46.875000
9066		42.968750
9067		50.781250
9068		46.875000
9069		50.781250
9070		50.781250
9071		54.687500
9072		50.781250
9073		54.687500
9074		54.687500
9075		58.593750
9076		54.687500
9077		58.593750
9078		58.593750
9079		62.500000
9080		58.593750
9081		62.500000
9082		62.500000
9083		66.406250
9084		62.500000
9085		70.312500
9086		66.406250
9087		70.312500
9088		70.312500
9089		74.218750
9090		70.312500
9091		74.218750
9092		70.312500
9093		78.125000
9094		74.218750
9095		78.125000
9096		78.125000
9097		82.031250
9098		78.125000
9099		82.031250
9100		82.031250
9101		85.937500
9102		82.031250
9103		85.937500
9104		82.031250
9105		89.843750
9106		85.937500
9107		89.843750
9108		85.937500
9109		93.750000
9110		89.843750
9111		93.750000
9112		89.843750
9113		93.750000
9114		93.750000
9115		97.656250
9116		93.750000
9117		97.656250
9118		97.656250
9119		101.562500
9120		97.656250
9121		101.562500
9122		97.656250
9123		101.562500
9124		101.562500
9125		105.468750
9126		101.562500
9127		105.468750
9128		101.562500
9129		105.468750
9130		105.468750
9131		109.375000
9132		105.468750
9133		109.375000
9134		105.468750
9135		109.375000
9136		105.468750
9137		113.281250
9138		109.375000
9139		113.281250
9140		109.375000
9141		113.281250
9142		109.375000
9143		113.281250
9144		113.281250
9145		117.187500
9146		113.281250
9147		117.187500
9148		113.281250
9149		117.187500
9150		113.281250
9151		117.187500
9152		113.281250
9153		117.187500
9154		113.281250
9155		117.187500
9156		117.187500
9157		121.093750
9158		117.187500
9159		121.093750
9160		117.187500
9161		121.093750
9162		117.187500
9163		121.093750
9164		117.187500
9165		121.093750
9166		117.187500
9167		121.093750
9168		117.187500
9169		121.093750
9170		117.187500
9171		121.093750
9172		117.187500
9173		121.093750
9174		117.187500
9175		121.093750
9176		117.187500
9177		121.093750
9178		117.187500
9179		121.093750
9180		117.187500
9181		121.093750
9182		117.187500
9183		121.093750
9184		117.187500
9185		121.093750
9186		117.187500
9187		121.093750
9188		117.187500
9189		117.187500
9190		113.281250
9191		117.187500
9192		113.281250
9193		117.187500
9194		113.281250
9195		117.187500
9196		113.281250
9197		117.187500
9198		113.281250
9199		117.187500
9200		113.281250
9201		113.281250
9202		109.375000
9203		113.281250
9204		109.375000
9205		113.281250
9206		109.375000
9207		113.281250
9208		109.375000
9209		109.375000
9210		105.468750
9211		109.375000
9212		105.468750
9213		109.375000
9214		101.562500
9215		109.375000
9216		101.562500
9217		105.468750
9218		101.562500
9219		105.468750
9220		101.562500
9221		105.468750
9222		97.656250
9223		101.562500
9224		97.656250
9225		101.562500
9226		93.750000
9227		97.656250
9228		93.750000
9229		97.656250
9230		93.750000
9231		97.656250
9232		89.843750
9233		93.750000
9234		89.843750
9235		93.750000
9236		85.937500
9237		89.843750
9238		85.937500
9239		89.843750
9240		82.031250
9241		85.937500
9242		82.031250
9243		85.937500
9244		78.125000
9245		82.031250
9246		78.125000
9247		82.031250
9248		74.218750
9249		78.125000
9250		74.218750
9251		78.125000
9252		70.312500
9253		74.218750
9254		66.406250
9255		74.218750
9256		66.406250
9257		70.312500
9258		62.500000
9259		70.312500
9260		62.500000
9261		66.406250
9262		58.593750
9263		62.500000
9264		58.593750
9265		62.500000
9266		54.687500
9267		58.593750
9268		54.687500
9269		58.593750
9270		50.781250
9271		54.687500
9272		46.875000
9273		54.687500
9274		46.875000
9275		50.781250
9276		42.968750
9277		46.875000
9278		42.968750
9279		46.875000
9280		39.062500
9281		42.968750
9282		35.156250
9283		39.062500
9284		35.156250
9285		39.062500
9286		31.250000
9287		35.156250
9288		31.250000
9289		35.156250
9290		27.343750
9291		31.250000
9292		23.437500
9293		31.250000
9294		23.437500
9295		27.343750
9296		19.531250
9297		23.437500
9298		15.625000
9299		23.437500
9300		15.625000
9301		19.531250
9302		15.625000
9303		19.531250
9304		11.718750
9305		15.625000
9306		7.812500
9307		15.625000
9308		7.812500
9309		11.718750
9310		3.906250
9311		11.718750
9312		3.906250
9313		7.812500
9314		0.000000
9315		3.906250
9316		0.000000
9317		3.906250
9318		-3.906250
9319		0.000000
9320		-3.906250
9321		0.000000
9322		-3.906250
9323		0.000000
9324		-7.812500
9325		-3.906250
9326		-7.812500
9327		-3.906250
9328		-11.718750
9329		-7.812500
9330		-11.718750
9331		-7.812500
9332		-15.625000
9333		-7.812500
9334		-15.625000
9335		-11.718750
9336		-15.625000
9337		-11.718750
9338		-19.531250
9339		-11.718750
9340		-19.531250
9341		-15.625000
9342		-19.531250
9343		-15.625000
9344		-19.531250
9345		-15.625000
9346		-23.437500
9347		-19.531250
9348		-23.437500
9349		-19.531250
9350		-23.437500
9351		-19.531250
9352		-23.437500
9353		-19.531250
9354		-27.343750
9355		-23.437500
9356		-27.343750
9357		-23.437500
9358		-27.343750
9359		-23.437500
9360		-27.343750
9361		-23.437500
9362		-27.343750
9363		-23.437500
9364		-27.343750
9365		-23.437500
9366		-27.343750
9367		-23.437500
9368		-27.343750
9369		-23.437500
9370		-27.343750
9371		-23.437500
9372		-27.343750
9373		-23.437500
9374		-27.343750
9375		-23.437500
9376		-27.343750
9377		-23.437500
9378		-27.343750
9379		-23.437500
9380		-27.343750
9381		-23.437500
9382		-27.343750
9383		-23.437500
9384		-27.343750
9385		-23.437500
9386		-27.343750
9387		-23.437500
9388		-27.343750
9389		-23.437500
9390		-23.437500
9391		-19.531250
9392		-23.437500
9393		-19.531250
9394		-23.437500
9395		-19.531250
9396		-23.437500
9397		-19.531250
9398		-23.437500
9399		-19.531250
9400		-19.531250
9401		-15.625000
9402		-19.531250
9403		-15.625000
9404		-19.531250
9405		-15.625000
9406		-15.625000
9407		-11.718750
9408		-15.625000
9409		-11.718750
9410		-15.625000
9411		-11.718750
9412		-15.625000
9413		-7.812500
9414		-11.718750
9415		-7.812500
9416		-11.718750
9417		-3.906250
9418		-7.812500
9419		-3.906250
9420		-7.812500
9421		-3.906250
9422		-3.906250
9423		0.000000
9424		-3.906250
9425		0.000000
9426		-3.906250
9427		3.906250
9428		0.000000
9429		3.906250
9430		0.000000
9431		7.812500
9432		3.906250
9433		7.812500
9434		3.906250
9435		11.718750
9436		7.812500
9437		11.718750
9438		11.718750
9439		15.625000
9440		11.718750
9441		15.625000
9442		11.718750
9443		19.531250
9444		15.625000
9445		19.531250
9446		19.531250
9447		23.437500
9448		19.531250
9449		23.437500
9450		23.437500
9451		27.343750
9452		23.437500
9453		31.250000
9454		27.343750
9455		31.250000
9456		27.343750
9457		35.156250
9458		31.250000
9459		35.156250
9460		35.156250
9461		39.062500
9462		35.156250
9463		39.062500
9464		39.062500
9465		42.968750
9466		39.062500
9467		46.875000
9468		42.968750
9469		46.875000
9470		42.968750
9471		50.781250
9472		46.875000
9473		50.781250
9474		50.781250
9475		54.687500
9476		50.781250
9477		54.687500
9478		54.687500
9479		58.593750
9480		54.687500
9481		62.500000
9482		58.593750
9483		62.500000
9484		58.593750
9485		66.406250
9486		62.500000
9487		66.406250
9488		66.406250
9489		70.312500
9490		66.406250
9491		70.312500
9492		70.312500
9493		74.218750
9494		70.312500
9495		74.218750
9496		74.218750
9497		78.125000
9498		74.218750
9499		82.031250
9500		78.125000
9501		82.031250
9502		78.125000
9503		85.937500
9504		82.031250
9505		85.937500
9506		82.031250
9507		85.937500
9508		85.937500
9509		89.843750
9510		85.937500
9511		89.843750
9512		89.843750
9513		93.750000
9514		89.843750
9515		93.750000
9516		93.750000
9517		97.656250
9518		93.750000
9519		97.656250
9520		93.750000
9521		97.656250
9522		97.656250
9523		101.562500
9524		97.656250
9525		101.562500
9526		97.656250
9527		105.468750
9528		101.562500
9529		105.468750
9530		101.562500
9531		105.468750
9532		105.468750
9533		109.375000
9534		105.468750
9535		109.375000
9536		105.468750
9537		109.375000
9538		105.468750
9539		109.375000
9540		109.375000
9541		113.281250
9542		109.375000
9543		113.281250
9544		109.375000
9545		113.281250
9546		109.375000
9547		113.281250
9548		113.281250
9549		117.187500
9550		113.281250
9551		117.187500
9552		113.281250
9553		117.187500
9554		113.281250
9555		117.187500
9556		113.281250
9557		117.187500
9558		117.187500
9559		117.187500
9560		117.187500
9561		117.187500
9562		117.187500
9563		121.093750
9564		117.187500
9565		121.093750
9566		117.187500
9567		121.093750
9568		117.187500
9569		121.093750
9570		117.187500
9571		121.093750
9572		117.187500
9573		121.093750
9574		117.187500
9575		121.093750
9576		117.187500
9577		121.093750
9578		117.187500
9579		121.093750
9580		117.187500
9581		121.093750
9582		117.187500
9583		121.093750
9584		117.187500
9585		121.093750
9586		117.187500
9587		121.093750
9588		117.187500
9589		121.093750
9590		117.187500
9591		121.093750
9592		117.187500
9593		121.093750
9594		113.281250
9595		121.093750
9596		113.281250
9597		117.187500
9598		113.281250
9599		117.187500
9600		113.281250
9601		117.187500
9602		113.281250
9603		117.187500
9604		109.375000
9605		113.281250
9606		109.375000
9607		113.281250
9608		109.375000
9609		113.281250
9610		109.375000
9611		113.281250
9612		109.375000
9613		113.281250
9614		105.468750
9615		109.375000
9616		105.468750
9617		109.375000
9618		101.562500
9619		109.375000
9620		101.562500
9621		105.468750
9622		101.562500
9623		105.468750
9624		101.562500
9625		105.468750
9626		97.656250
9627		101.562500
9628		97.656250
9629		101.562500
9630		93.750000
9631		97.656250
9632		93.750000
9633		97.656250
9634		93.750000
9635		97.656250
9636		89.843750
9637		93.750000
9638		89.843750
9639		93.750000
9640		85.937500
9641		89.843750
9642		85.937500
9643		89.843750
9644		82.031250
9645		85.937500
9646		82.031250
9647		85.937500
9648		78.125000
9649		82.031250
9650		78.125000
9651		82.031250
9652		74.218750
9653		78.125000
9654		74.218750
9655		78.125000
9656		70.312500
9657		74.218750
9658		66.406250
9659		74.218750
9660		66.406250
9661		70.312500
9662		62.500000
9663		66.406250
9664		62.500000
9665		66.406250
9666		58.593750
9667		62.500000
9668		58.593750
9669		62.500000
9670		54.687500
9671		58.593750
9672		50.781250
9673		58.593750
9674		50.781250
9675		54.687500
9676		46.875000
9677		54.687500
9678		46.875000
9679		50.781250
9680		42.968750
9681		46.875000
9682		39.062500
9683		46.875000
9684		39.062500
9685		42.968750
9686		35.156250
9687		42.968750
9688		35.156250
9689		39.062500
9690		31.250000
9691		35.156250
9692		31.250000
9693		35.156250
9694		27.343750
9695		31.250000
9696		23.437500
9697		27.343750
9698		23.437500
9699		27.343750
9700		19.531250
9701		23.437500
9702		15.625000
9703		23.437500
9704		15.625000
9705		19.531250
9706		11.718750
9707		19.531250
9708		11.718750
9709		15.625000
9710		7.812500
9711		15.625000
9712		7.812500
9713		11.718750
9714		3.906250
9715		7.812500
9716		3.906250
9717		7.812500
9718		0.000000
9719		3.906250
9720		0.000000
9721		3.906250
9722		-3.906250
9723		0.000000
9724		-3.906250
9725		0.000000
9726		-7.812500
9727		0.000000
9728		-7.812500
9729		-3.906250
9730		-7.812500
9731		-3.906250
9732		-11.718750
9733		-7.812500
9734		-11.718750
9735		-7.812500
9736		-15.625000
9737		-11.718750
9738		-15.625000
9739		-11.718750
9740		-19.531250
9741		-11.718750
9742		-19.531250
9743		-15.625000
9744		-19.531250
9745		-15.625000
9746		-19.531250
9747		-15.625000
9748		-19.531250
9749		-15.625000
9750		-23.437500
9751		-19.531250
9752		-23.437500
9753		-19.531250
9754		-23.437500
9755		-19.531250
9756		-23.437500
9757		-19.531250
9758		-27.343750
9759		-23.437500
9760		-27.343750
9761		-23.437500
9762		-27.343750
9763		-23.437500
9764		-27.343750
9765		-23.437500
9766		-27.343750
9767		-23.437500
9768		-27.343750
9769		-23.437500
9770		-27.343750
9771		-23.437500
9772		-27.343750
9773		-23.437500
9774		-27.343750
9775		-23.437500
9776		-27.343750
9777		-23.437500
9778		-27.343750
9779		-23.437500
9780		-27.343750
9781		-23.437500
9782		-27.343750
9783		-23.437500
9784		-27.343750
9785		-23.437500
9786		-27.343750
9787		-23.437500
9788		-27.343750
9789		-23.437500
9790		-27.343750
9791		-23.437500
9792		-27.343750
9793		-23.437500
9794		-23.437500
9795		-19.531250
9796		-23.437500
9797		-19.531250
9798		-23.437500
9799		-19.531250
9800		-23.437500
9801		-19.531250
9802		-19.531250
9803		-19.531250
9804		-19.531250
9805		-15.625000
9806		-19.531250
9807		-15.625000
9808		-15.625000
9809		-11.718750
9810		-15.625000
9811		-11.718750
9812		-15.625000
9813		-11.718750
9814		-15.625000
9815		-7.812500
9816		-11.718750
9817		-7.812500
9818		-11.718750
9819		-7.812500
9820		-7.812500
9821		-3.906250
9822		-7.812500
9823		-3.906250
9824		-3.906250
9825		0.000000
9826		-3.906250
9827		0.000000
9828		-3.906250
9829		0.000000
9830		0.000000
9831		3.906250
9832		0.000000
9833		3.906250
9834		3.906250
9835		7.812500
9836		3.906250
9837		11.718750
9838		7.812500
9839		11.718750
9840		7.812500
9841		11.718750
9842		11.718750
9843		15.625000
9844		11.718750
9845		15.625000
9846		15.625000
9847		19.531250
9848		15.625000
9849		23.437500
9850		19.531250
9851		23.437500
9852		23.437500
9853		27.343750
9854		23.437500
9855		27.343750
9856		27.343750
9857		31.250000
9858		27.343750
9859		31.250000
9860		31.250000
9861		35.156250
9862		31.250000
9863		39.062500
9864		35.156250
9865		39.062500
9866		39.062500
9867		42.968750
9868		39.062500
9869		42.968750
9870		42.968750
9871		46.875000
9872		42.968750
9873		50.781250
9874		46.875000
9875		50.781250
9876		46.875000
9877		54.687500
9878		50.781250
9879		54.687500
9880		54.687500
9881		58.593750
9882		54.687500
9883		62.500000
9884		58.593750
9885		62.500000
9886		58.593750
9887		66.406250
9888		62.500000
9889		66.406250
9890		66.406250
9891		70.312500
9892		66.406250
9893		70.312500
9894		66.406250
9895		74.218750
9896		70.312500
9897		74.218750
9898		74.218750
9899		78.125000
9900		74.218750
9901		78.125000
9902		74.218750
9903		82.031250
9904		78.125000
9905		82.031250
9906		82.031250
9907		85.937500
9908		82.031250
9909		85.937500
9910		82.031250
9911		89.843750
9912		85.937500
9913		89.843750
9914		89.843750
9915		93.750000
9916		89.843750
9917		93.750000
9918		89.843750
9919		97.656250
9920		93.750000
9921		97.656250
9922		93.750000
9923		97.656250
9924		97.656250
9925		101.562500
9926		97.656250
9927		101.562500
9928		97.656250
9929		105.468750
9930		101.562500
9931		105.468750
9932		101.562500
9933		105.468750
9934		101.562500
9935		109.375000
9936		105.468750
9937		109.375000
9938		105.468750
9939		109.375000
9940		105.468750
9941		109.375000
9942		105.468750
9943		113.281250
9944		109.375000
9945		113.281250
9946		109.375000
9947		113.281250
9948		109.375000
9949		113.281250
9950		113.281250
9951		117.187500
9952		113.281250
9953		117.187500
9954		113.281250
9955		117.187500
9956		113.281250
9957		117.187500
9958		117.187500
9959		117.187500
9960		113.281250
9961		121.093750
9962		117.187500
9963		121.093750
9964		117.187500
9965		121.093750
9966		117.187500
9967		121.093750
9968		117.187500
9969		121.093750
9970		117.187500
9971		121.093750
9972		117.187500
9973		121.093750
9974		117.187500
9975		121.093750
9976		117.187500
9977		121.093750
9978		117.187500
9979		121.093750
9980		117.187500
9981		121.093750
9982		117.187500
9983		121.093750
9984		117.187500
9985		121.093750
9986		117.187500
9987		121.093750
9988		117.187500
9989		121.093750
9990		117.187500
9991		121.093750
9992		117.187500
9993		121.093750
9994		117.187500
9995		121.093750
9996		117.187500
9997		121.093750
9998		113.281250
9999		117.187500
10000		113.281250
