Channel              :		CH1
Frequency            :		1.240kHz
Period               :		0.807ms
PK-PK                :		355.5mV
Probe attenuation    :		1X
Voltage per ADC value:		0.244141mV
Time interval        :		2.00000us

index		CH1_Voltage(mV)
1		-15.625000
2		-15.625000
3		-31.250000
4		-23.437500
5		-35.156250
6		-27.343750
7		-39.062500
8		-35.156250
9		-46.875000
10		-39.062500
11		-50.781250
12		-42.968750
13		-54.687500
14		-50.781250
15		-62.500000
16		-54.687500
17		-66.406250
18		-58.593750
19		-70.312500
20		-66.406250
21		-78.125000
22		-70.312500
23		-82.031250
24		-74.218750
25		-85.937500
26		-78.125000
27		-89.843750
28		-85.937500
29		-93.750000
30		-89.843750
31		-97.656250
32		-93.750000
33		-105.468750
34		-97.656250
35		-109.375000
36		-101.562500
37		-109.375000
38		-105.468750
39		-113.281250
40		-109.375000
41		-117.187500
42		-113.281250
43		-121.093750
44		-117.187500
45		-125.000000
46		-121.093750
47		-128.906250
48		-121.093750
49		-128.906250
50		-125.000000
51		-132.812500
52		-128.906250
53		-136.718750
54		-132.812500
55		-136.718750
56		-132.812500
57		-140.625000
58		-136.718750
59		-144.531250
60		-140.625000
61		-144.531250
62		-140.625000
63		-144.531250
64		-140.625000
65		-148.437500
66		-144.531250
67		-148.437500
68		-144.531250
69		-148.437500
70		-148.437500
71		-152.343750
72		-148.437500
73		-152.343750
74		-148.437500
75		-152.343750
76		-148.437500
77		-152.343750
78		-148.437500
79		-152.343750
80		-148.437500
81		-152.343750
82		-148.437500
83		-156.250000
84		-148.437500
85		-152.343750
86		-148.437500
87		-152.343750
88		-148.437500
89		-152.343750
90		-148.437500
91		-152.343750
92		-148.437500
93		-148.437500
94		-144.531250
95		-148.437500
96		-144.531250
97		-148.437500
98		-144.531250
99		-144.531250
100		-140.625000
101		-144.531250
102		-140.625000
103		-140.625000
104		-136.718750
105		-140.625000
106		-132.812500
107		-136.718750
108		-128.906250
109		-132.812500
110		-128.906250
111		-128.906250
112		-125.000000
113		-128.906250
114		-121.093750
115		-125.000000
116		-121.093750
117		-121.093750
118		-117.187500
119		-117.187500
120		-113.281250
121		-113.281250
122		-109.375000
123		-109.375000
124		-105.468750
125		-105.468750
126		-101.562500
127		-101.562500
128		-97.656250
129		-97.656250
130		-93.750000
131		-93.750000
132		-85.937500
133		-89.843750
134		-82.031250
135		-85.937500
136		-78.125000
137		-82.031250
138		-74.218750
139		-74.218750
140		-70.312500
141		-70.312500
142		-62.500000
143		-66.406250
144		-58.593750
145		-62.500000
146		-54.687500
147		-54.687500
148		-46.875000
149		-50.781250
150		-42.968750
151		-42.968750
152		-39.062500
153		-39.062500
154		-31.250000
155		-35.156250
156		-27.343750
157		-27.343750
158		-19.531250
159		-23.437500
160		-15.625000
161		-15.625000
162		-7.812500
163		-11.718750
164		-3.906250
165		-7.812500
166		0.000000
167		0.000000
168		7.812500
169		3.906250
170		11.718750
171		11.718750
172		19.531250
173		15.625000
174		23.437500
175		23.437500
176		31.250000
177		27.343750
178		35.156250
179		35.156250
180		39.062500
181		39.062500
182		46.875000
183		42.968750
184		50.781250
185		50.781250
186		58.593750
187		54.687500
188		62.500000
189		58.593750
190		66.406250
191		66.406250
192		74.218750
193		70.312500
194		78.125000
195		78.125000
196		82.031250
197		82.031250
198		89.843750
199		85.937500
200		93.750000
201		89.843750
202		97.656250
203		97.656250
204		101.562500
205		101.562500
206		105.468750
207		105.468750
208		113.281250
209		109.375000
210		117.187500
211		113.281250
212		121.093750
213		117.187500
214		125.000000
215		121.093750
216		128.906250
217		125.000000
218		132.812500
219		128.906250
220		136.718750
221		132.812500
222		140.625000
223		136.718750
224		144.531250
225		140.625000
226		148.437500
227		144.531250
228		148.437500
229		148.437500
230		152.343750
231		152.343750
232		156.250000
233		156.250000
234		160.156250
235		160.156250
236		164.062500
237		160.156250
238		167.968750
239		164.062500
240		167.968750
241		167.968750
242		171.875000
243		167.968750
244		175.781250
245		171.875000
246		175.781250
247		171.875000
248		175.781250
249		175.781250
250		179.687500
251		175.781250
252		183.593750
253		179.687500
254		183.593750
255		179.687500
256		187.500000
257		183.593750
258		187.500000
259		183.593750
260		187.500000
261		183.593750
262		191.406250
263		187.500000
264		191.406250
265		187.500000
266		191.406250
267		187.500000
268		195.312500
269		191.406250
270		195.312500
271		191.406250
272		195.312500
273		191.406250
274		195.312500
275		191.406250
276		195.312500
277		191.406250
278		195.312500
279		191.406250
280		195.312500
281		191.406250
282		195.312500
283		191.406250
284		195.312500
285		191.406250
286		195.312500
287		191.406250
288		195.312500
289		191.406250
290		195.312500
291		191.406250
292		195.312500
293		191.406250
294		195.312500
295		191.406250
296		195.312500
297		191.406250
298		195.312500
299		187.500000
300		191.406250
301		187.500000
302		191.406250
303		187.500000
304		191.406250
305		183.593750
306		187.500000
307		183.593750
308		187.500000
309		179.687500
310		187.500000
311		179.687500
312		183.593750
313		179.687500
314		183.593750
315		175.781250
316		179.687500
317		171.875000
318		179.687500
319		171.875000
320		175.781250
321		167.968750
322		171.875000
323		167.968750
324		171.875000
325		164.062500
326		167.968750
327		160.156250
328		167.968750
329		156.250000
330		164.062500
331		156.250000
332		160.156250
333		152.343750
334		156.250000
335		148.437500
336		156.250000
337		144.531250
338		148.437500
339		140.625000
340		148.437500
341		136.718750
342		144.531250
343		132.812500
344		140.625000
345		128.906250
346		136.718750
347		125.000000
348		132.812500
349		121.093750
350		128.906250
351		117.187500
352		121.093750
353		113.281250
354		117.187500
355		109.375000
356		113.281250
357		101.562500
358		109.375000
359		97.656250
360		105.468750
361		93.750000
362		101.562500
363		89.843750
364		97.656250
365		85.937500
366		89.843750
367		78.125000
368		85.937500
369		74.218750
370		82.031250
371		70.312500
372		74.218750
373		62.500000
374		70.312500
375		58.593750
376		66.406250
377		50.781250
378		58.593750
379		46.875000
380		54.687500
381		42.968750
382		46.875000
383		35.156250
384		42.968750
385		31.250000
386		39.062500
387		23.437500
388		31.250000
389		19.531250
390		27.343750
391		11.718750
392		23.437500
393		7.812500
394		15.625000
395		3.906250
396		11.718750
397		-3.906250
398		3.906250
399		-7.812500
400		0.000000
401		-15.625000
402		-7.812500
403		-19.531250
404		-11.718750
405		-27.343750
406		-19.531250
407		-31.250000
408		-23.437500
409		-35.156250
410		-27.343750
411		-42.968750
412		-35.156250
413		-46.875000
414		-39.062500
415		-54.687500
416		-42.968750
417		-58.593750
418		-50.781250
419		-62.500000
420		-54.687500
421		-66.406250
422		-58.593750
423		-70.312500
424		-66.406250
425		-78.125000
426		-70.312500
427		-82.031250
428		-74.218750
429		-85.937500
430		-78.125000
431		-89.843750
432		-85.937500
433		-93.750000
434		-89.843750
435		-97.656250
436		-93.750000
437		-101.562500
438		-97.656250
439		-105.468750
440		-101.562500
441		-109.375000
442		-105.468750
443		-113.281250
444		-109.375000
445		-117.187500
446		-113.281250
447		-121.093750
448		-117.187500
449		-125.000000
450		-117.187500
451		-128.906250
452		-125.000000
453		-132.812500
454		-125.000000
455		-132.812500
456		-128.906250
457		-136.718750
458		-132.812500
459		-140.625000
460		-132.812500
461		-140.625000
462		-136.718750
463		-144.531250
464		-140.625000
465		-144.531250
466		-140.625000
467		-148.437500
468		-144.531250
469		-148.437500
470		-144.531250
471		-148.437500
472		-144.531250
473		-152.343750
474		-148.437500
475		-152.343750
476		-148.437500
477		-152.343750
478		-148.437500
479		-152.343750
480		-148.437500
481		-152.343750
482		-148.437500
483		-152.343750
484		-148.437500
485		-152.343750
486		-148.437500
487		-152.343750
488		-148.437500
489		-152.343750
490		-148.437500
491		-152.343750
492		-148.437500
493		-152.343750
494		-148.437500
495		-148.437500
496		-144.531250
497		-148.437500
498		-144.531250
499		-148.437500
500		-144.531250
501		-144.531250
502		-140.625000
503		-144.531250
504		-140.625000
505		-140.625000
506		-136.718750
507		-140.625000
508		-132.812500
509		-136.718750
510		-132.812500
511		-136.718750
512		-128.906250
513		-132.812500
514		-128.906250
515		-128.906250
516		-125.000000
517		-125.000000
518		-121.093750
519		-125.000000
520		-117.187500
521		-121.093750
522		-113.281250
523		-117.187500
524		-109.375000
525		-113.281250
526		-105.468750
527		-109.375000
528		-101.562500
529		-105.468750
530		-97.656250
531		-101.562500
532		-93.750000
533		-97.656250
534		-89.843750
535		-93.750000
536		-85.937500
537		-85.937500
538		-82.031250
539		-82.031250
540		-74.218750
541		-78.125000
542		-70.312500
543		-74.218750
544		-66.406250
545		-70.312500
546		-62.500000
547		-62.500000
548		-54.687500
549		-58.593750
550		-50.781250
551		-54.687500
552		-46.875000
553		-46.875000
554		-39.062500
555		-42.968750
556		-35.156250
557		-35.156250
558		-31.250000
559		-31.250000
560		-23.437500
561		-27.343750
562		-19.531250
563		-19.531250
564		-11.718750
565		-15.625000
566		-7.812500
567		-7.812500
568		0.000000
569		-3.906250
570		3.906250
571		0.000000
572		7.812500
573		7.812500
574		15.625000
575		11.718750
576		19.531250
577		19.531250
578		27.343750
579		23.437500
580		31.250000
581		31.250000
582		39.062500
583		35.156250
584		42.968750
585		39.062500
586		46.875000
587		46.875000
588		54.687500
589		50.781250
590		58.593750
591		58.593750
592		66.406250
593		62.500000
594		70.312500
595		66.406250
596		74.218750
597		74.218750
598		82.031250
599		78.125000
600		85.937500
601		82.031250
602		89.843750
603		89.843750
604		93.750000
605		93.750000
606		97.656250
607		97.656250
608		105.468750
609		101.562500
610		109.375000
611		105.468750
612		113.281250
613		109.375000
614		117.187500
615		117.187500
616		121.093750
617		121.093750
618		125.000000
619		125.000000
620		128.906250
621		128.906250
622		132.812500
623		132.812500
624		136.718750
625		136.718750
626		140.625000
627		140.625000
628		144.531250
629		144.531250
630		148.437500
631		148.437500
632		152.343750
633		148.437500
634		156.250000
635		152.343750
636		160.156250
637		156.250000
638		160.156250
639		160.156250
640		164.062500
641		164.062500
642		167.968750
643		164.062500
644		171.875000
645		167.968750
646		171.875000
647		167.968750
648		175.781250
649		171.875000
650		175.781250
651		175.781250
652		179.687500
653		175.781250
654		179.687500
655		179.687500
656		183.593750
657		179.687500
658		183.593750
659		183.593750
660		187.500000
661		183.593750
662		187.500000
663		187.500000
664		191.406250
665		187.500000
666		191.406250
667		187.500000
668		191.406250
669		187.500000
670		191.406250
671		191.406250
672		195.312500
673		191.406250
674		195.312500
675		191.406250
676		195.312500
677		191.406250
678		195.312500
679		191.406250
680		195.312500
681		191.406250
682		195.312500
683		191.406250
684		195.312500
685		191.406250
686		195.312500
687		191.406250
688		195.312500
689		191.406250
690		195.312500
691		191.406250
692		195.312500
693		191.406250
694		195.312500
695		191.406250
696		195.312500
697		191.406250
698		195.312500
699		191.406250
700		195.312500
701		191.406250
702		195.312500
703		187.500000
704		195.312500
705		187.500000
706		191.406250
707		187.500000
708		191.406250
709		183.593750
710		187.500000
711		183.593750
712		187.500000
713		183.593750
714		187.500000
715		179.687500
716		183.593750
717		175.781250
718		183.593750
719		175.781250
720		179.687500
721		175.781250
722		179.687500
723		171.875000
724		175.781250
725		167.968750
726		171.875000
727		167.968750
728		171.875000
729		164.062500
730		167.968750
731		160.156250
732		164.062500
733		156.250000
734		164.062500
735		156.250000
736		160.156250
737		152.343750
738		156.250000
739		148.437500
740		156.250000
741		144.531250
742		152.343750
743		140.625000
744		148.437500
745		136.718750
746		144.531250
747		132.812500
748		140.625000
749		128.906250
750		136.718750
751		125.000000
752		132.812500
753		121.093750
754		128.906250
755		117.187500
756		121.093750
757		113.281250
758		117.187500
759		109.375000
760		113.281250
761		101.562500
762		113.281250
763		97.656250
764		105.468750
765		93.750000
766		101.562500
767		89.843750
768		93.750000
769		82.031250
770		89.843750
771		78.125000
772		85.937500
773		74.218750
774		82.031250
775		66.406250
776		74.218750
777		62.500000
778		70.312500
779		58.593750
780		62.500000
781		50.781250
782		62.500000
783		46.875000
784		54.687500
785		39.062500
786		46.875000
787		35.156250
788		42.968750
789		31.250000
790		39.062500
791		23.437500
792		31.250000
793		19.531250
794		27.343750
795		11.718750
796		23.437500
797		7.812500
798		15.625000
799		0.000000
800		7.812500
801		-3.906250
802		3.906250
803		-7.812500
804		0.000000
805		-15.625000
806		-7.812500
807		-19.531250
808		-11.718750
809		-27.343750
810		-19.531250
811		-31.250000
812		-23.437500
813		-39.062500
814		-27.343750
815		-42.968750
816		-35.156250
817		-46.875000
818		-39.062500
819		-50.781250
820		-46.875000
821		-58.593750
822		-46.875000
823		-62.500000
824		-54.687500
825		-66.406250
826		-62.500000
827		-74.218750
828		-66.406250
829		-78.125000
830		-70.312500
831		-82.031250
832		-74.218750
833		-89.843750
834		-78.125000
835		-93.750000
836		-85.937500
837		-97.656250
838		-85.937500
839		-97.656250
840		-93.750000
841		-101.562500
842		-97.656250
843		-109.375000
844		-101.562500
845		-113.281250
846		-105.468750
847		-113.281250
848		-109.375000
849		-121.093750
850		-109.375000
851		-125.000000
852		-113.281250
853		-125.000000
854		-117.187500
855		-128.906250
856		-121.093750
857		-132.812500
858		-125.000000
859		-132.812500
860		-128.906250
861		-136.718750
862		-132.812500
863		-140.625000
864		-132.812500
865		-140.625000
866		-132.812500
867		-144.531250
868		-136.718750
869		-144.531250
870		-136.718750
871		-148.437500
872		-140.625000
873		-148.437500
874		-144.531250
875		-148.437500
876		-144.531250
877		-152.343750
878		-148.437500
879		-152.343750
880		-144.531250
881		-152.343750
882		-144.531250
883		-152.343750
884		-148.437500
885		-156.250000
886		-148.437500
887		-152.343750
888		-148.437500
889		-156.250000
890		-148.437500
891		-152.343750
892		-148.437500
893		-152.343750
894		-148.437500
895		-152.343750
896		-144.531250
897		-152.343750
898		-144.531250
899		-152.343750
900		-144.531250
901		-148.437500
902		-140.625000
903		-148.437500
904		-140.625000
905		-148.437500
906		-140.625000
907		-144.531250
908		-136.718750
909		-140.625000
910		-136.718750
911		-140.625000
912		-132.812500
913		-136.718750
914		-128.906250
915		-136.718750
916		-128.906250
917		-132.812500
918		-125.000000
919		-128.906250
920		-121.093750
921		-125.000000
922		-117.187500
923		-125.000000
924		-117.187500
925		-117.187500
926		-113.281250
927		-113.281250
928		-109.375000
929		-113.281250
930		-105.468750
931		-109.375000
932		-101.562500
933		-105.468750
934		-97.656250
935		-101.562500
936		-89.843750
937		-97.656250
938		-85.937500
939		-89.843750
940		-82.031250
941		-85.937500
942		-78.125000
943		-82.031250
944		-74.218750
945		-78.125000
946		-66.406250
947		-70.312500
948		-62.500000
949		-66.406250
950		-58.593750
951		-62.500000
952		-54.687500
953		-58.593750
954		-46.875000
955		-54.687500
956		-42.968750
957		-46.875000
958		-39.062500
959		-39.062500
960		-31.250000
961		-35.156250
962		-27.343750
963		-31.250000
964		-19.531250
965		-23.437500
966		-15.625000
967		-19.531250
968		-7.812500
969		-15.625000
970		-3.906250
971		-7.812500
972		0.000000
973		-3.906250
974		7.812500
975		3.906250
976		11.718750
977		7.812500
978		15.625000
979		15.625000
980		23.437500
981		19.531250
982		31.250000
983		23.437500
984		35.156250
985		31.250000
986		42.968750
987		35.156250
988		46.875000
989		42.968750
990		50.781250
991		46.875000
992		54.687500
993		54.687500
994		62.500000
995		58.593750
996		66.406250
997		62.500000
998		74.218750
999		70.312500
1000		78.125000
1001		74.218750
1002		82.031250
1003		78.125000
1004		89.843750
1005		85.937500
1006		93.750000
1007		89.843750
1008		97.656250
1009		93.750000
1010		101.562500
1011		97.656250
1012		105.468750
1013		101.562500
1014		113.281250
1015		105.468750
1016		117.187500
1017		113.281250
1018		121.093750
1019		117.187500
1020		125.000000
1021		117.187500
1022		128.906250
1023		125.000000
1024		132.812500
1025		128.906250
1026		136.718750
1027		132.812500
1028		140.625000
1029		136.718750
1030		144.531250
1031		140.625000
1032		148.437500
1033		144.531250
1034		152.343750
1035		148.437500
1036		156.250000
1037		148.437500
1038		156.250000
1039		152.343750
1040		160.156250
1041		156.250000
1042		164.062500
1043		160.156250
1044		164.062500
1045		164.062500
1046		167.968750
1047		164.062500
1048		171.875000
1049		167.968750
1050		175.781250
1051		171.875000
1052		175.781250
1053		171.875000
1054		179.687500
1055		171.875000
1056		179.687500
1057		175.781250
1058		183.593750
1059		179.687500
1060		183.593750
1061		183.593750
1062		187.500000
1063		179.687500
1064		187.500000
1065		183.593750
1066		191.406250
1067		183.593750
1068		191.406250
1069		187.500000
1070		191.406250
1071		187.500000
1072		195.312500
1073		187.500000
1074		195.312500
1075		191.406250
1076		195.312500
1077		191.406250
1078		195.312500
1079		191.406250
1080		195.312500
1081		191.406250
1082		199.218750
1083		191.406250
1084		199.218750
1085		191.406250
1086		199.218750
1087		191.406250
1088		199.218750
1089		191.406250
1090		199.218750
1091		191.406250
1092		199.218750
1093		195.312500
1094		199.218750
1095		195.312500
1096		195.312500
1097		191.406250
1098		199.218750
1099		191.406250
1100		199.218750
1101		191.406250
1102		195.312500
1103		187.500000
1104		195.312500
1105		187.500000
1106		195.312500
1107		187.500000
1108		195.312500
1109		187.500000
1110		191.406250
1111		187.500000
1112		191.406250
1113		183.593750
1114		187.500000
1115		179.687500
1116		187.500000
1117		179.687500
1118		187.500000
1119		179.687500
1120		187.500000
1121		175.781250
1122		183.593750
1123		175.781250
1124		183.593750
1125		171.875000
1126		179.687500
1127		171.875000
1128		175.781250
1129		167.968750
1130		171.875000
1131		164.062500
1132		171.875000
1133		160.156250
1134		171.875000
1135		160.156250
1136		167.968750
1137		156.250000
1138		164.062500
1139		152.343750
1140		160.156250
1141		152.343750
1142		156.250000
1143		148.437500
1144		152.343750
1145		144.531250
1146		148.437500
1147		136.718750
1148		148.437500
1149		136.718750
1150		144.531250
1151		128.906250
1152		140.625000
1153		125.000000
1154		136.718750
1155		125.000000
1156		132.812500
1157		117.187500
1158		128.906250
1159		113.281250
1160		121.093750
1161		109.375000
1162		117.187500
1163		105.468750
1164		113.281250
1165		97.656250
1166		109.375000
1167		93.750000
1168		105.468750
1169		89.843750
1170		101.562500
1171		85.937500
1172		97.656250
1173		82.031250
1174		89.843750
1175		78.125000
1176		85.937500
1177		70.312500
1178		78.125000
1179		66.406250
1180		74.218750
1181		58.593750
1182		70.312500
1183		54.687500
1184		62.500000
1185		46.875000
1186		58.593750
1187		42.968750
1188		54.687500
1189		35.156250
1190		46.875000
1191		31.250000
1192		42.968750
1193		27.343750
1194		39.062500
1195		23.437500
1196		31.250000
1197		15.625000
1198		23.437500
1199		11.718750
1200		19.531250
1201		3.906250
1202		15.625000
1203		0.000000
1204		7.812500
1205		-7.812500
1206		3.906250
1207		-11.718750
1208		0.000000
1209		-15.625000
1210		-7.812500
1211		-23.437500
1212		-15.625000
1213		-27.343750
1214		-19.531250
1215		-35.156250
1216		-23.437500
1217		-39.062500
1218		-27.343750
1219		-42.968750
1220		-35.156250
1221		-50.781250
1222		-39.062500
1223		-54.687500
1224		-46.875000
1225		-58.593750
1226		-50.781250
1227		-62.500000
1228		-58.593750
1229		-70.312500
1230		-62.500000
1231		-74.218750
1232		-66.406250
1233		-78.125000
1234		-70.312500
1235		-85.937500
1236		-74.218750
1237		-89.843750
1238		-78.125000
1239		-93.750000
1240		-82.031250
1241		-97.656250
1242		-89.843750
1243		-101.562500
1244		-93.750000
1245		-105.468750
1246		-97.656250
1247		-109.375000
1248		-101.562500
1249		-113.281250
1250		-105.468750
1251		-117.187500
1252		-109.375000
1253		-121.093750
1254		-109.375000
1255		-125.000000
1256		-113.281250
1257		-125.000000
1258		-117.187500
1259		-128.906250
1260		-121.093750
1261		-128.906250
1262		-125.000000
1263		-132.812500
1264		-128.906250
1265		-136.718750
1266		-128.906250
1267		-140.625000
1268		-132.812500
1269		-140.625000
1270		-132.812500
1271		-144.531250
1272		-136.718750
1273		-144.531250
1274		-136.718750
1275		-144.531250
1276		-136.718750
1277		-144.531250
1278		-140.625000
1279		-148.437500
1280		-144.531250
1281		-148.437500
1282		-144.531250
1283		-152.343750
1284		-144.531250
1285		-152.343750
1286		-144.531250
1287		-152.343750
1288		-144.531250
1289		-152.343750
1290		-144.531250
1291		-152.343750
1292		-144.531250
1293		-152.343750
1294		-144.531250
1295		-148.437500
1296		-144.531250
1297		-148.437500
1298		-144.531250
1299		-148.437500
1300		-140.625000
1301		-148.437500
1302		-140.625000
1303		-148.437500
1304		-140.625000
1305		-144.531250
1306		-136.718750
1307		-144.531250
1308		-136.718750
1309		-144.531250
1310		-136.718750
1311		-140.625000
1312		-136.718750
1313		-136.718750
1314		-132.812500
1315		-136.718750
1316		-128.906250
1317		-132.812500
1318		-125.000000
1319		-128.906250
1320		-125.000000
1321		-128.906250
1322		-121.093750
1323		-125.000000
1324		-117.187500
1325		-121.093750
1326		-113.281250
1327		-117.187500
1328		-109.375000
1329		-113.281250
1330		-109.375000
1331		-109.375000
1332		-101.562500
1333		-109.375000
1334		-97.656250
1335		-105.468750
1336		-93.750000
1337		-97.656250
1338		-89.843750
1339		-93.750000
1340		-85.937500
1341		-89.843750
1342		-82.031250
1343		-85.937500
1344		-78.125000
1345		-82.031250
1346		-74.218750
1347		-74.218750
1348		-70.312500
1349		-70.312500
1350		-62.500000
1351		-66.406250
1352		-54.687500
1353		-62.500000
1354		-50.781250
1355		-58.593750
1356		-46.875000
1357		-50.781250
1358		-42.968750
1359		-46.875000
1360		-35.156250
1361		-39.062500
1362		-31.250000
1363		-35.156250
1364		-27.343750
1365		-27.343750
1366		-19.531250
1367		-27.343750
1368		-15.625000
1369		-19.531250
1370		-7.812500
1371		-15.625000
1372		-3.906250
1373		-7.812500
1374		3.906250
1375		0.000000
1376		7.812500
1377		3.906250
1378		11.718750
1379		11.718750
1380		19.531250
1381		15.625000
1382		23.437500
1383		19.531250
1384		31.250000
1385		23.437500
1386		35.156250
1387		31.250000
1388		42.968750
1389		35.156250
1390		46.875000
1391		42.968750
1392		54.687500
1393		46.875000
1394		58.593750
1395		54.687500
1396		62.500000
1397		58.593750
1398		66.406250
1399		66.406250
1400		74.218750
1401		70.312500
1402		78.125000
1403		74.218750
1404		85.937500
1405		78.125000
1406		89.843750
1407		82.031250
1408		93.750000
1409		89.843750
1410		97.656250
1411		93.750000
1412		101.562500
1413		101.562500
1414		105.468750
1415		105.468750
1416		113.281250
1417		109.375000
1418		117.187500
1419		113.281250
1420		121.093750
1421		117.187500
1422		125.000000
1423		121.093750
1424		128.906250
1425		125.000000
1426		132.812500
1427		128.906250
1428		136.718750
1429		132.812500
1430		140.625000
1431		136.718750
1432		144.531250
1433		140.625000
1434		148.437500
1435		144.531250
1436		152.343750
1437		148.437500
1438		156.250000
1439		148.437500
1440		160.156250
1441		152.343750
1442		160.156250
1443		156.250000
1444		164.062500
1445		160.156250
1446		167.968750
1447		164.062500
1448		167.968750
1449		167.968750
1450		171.875000
1451		167.968750
1452		175.781250
1453		167.968750
1454		179.687500
1455		171.875000
1456		179.687500
1457		175.781250
1458		183.593750
1459		175.781250
1460		183.593750
1461		179.687500
1462		187.500000
1463		183.593750
1464		187.500000
1465		183.593750
1466		187.500000
1467		183.593750
1468		191.406250
1469		183.593750
1470		191.406250
1471		187.500000
1472		195.312500
1473		187.500000
1474		195.312500
1475		187.500000
1476		195.312500
1477		191.406250
1478		195.312500
1479		191.406250
1480		195.312500
1481		195.312500
1482		195.312500
1483		191.406250
1484		199.218750
1485		191.406250
1486		199.218750
1487		195.312500
1488		199.218750
1489		195.312500
1490		199.218750
1491		195.312500
1492		199.218750
1493		195.312500
1494		199.218750
1495		195.312500
1496		199.218750
1497		195.312500
1498		199.218750
1499		195.312500
1500		199.218750
1501		191.406250
1502		199.218750
1503		191.406250
1504		199.218750
1505		191.406250
1506		199.218750
1507		191.406250
1508		199.218750
1509		191.406250
1510		195.312500
1511		187.500000
1512		195.312500
1513		187.500000
1514		191.406250
1515		187.500000
1516		191.406250
1517		183.593750
1518		191.406250
1519		183.593750
1520		191.406250
1521		179.687500
1522		191.406250
1523		179.687500
1524		187.500000
1525		175.781250
1526		183.593750
1527		175.781250
1528		183.593750
1529		175.781250
1530		179.687500
1531		171.875000
1532		175.781250
1533		167.968750
1534		175.781250
1535		164.062500
1536		171.875000
1537		160.156250
1538		171.875000
1539		160.156250
1540		167.968750
1541		156.250000
1542		164.062500
1543		152.343750
1544		160.156250
1545		148.437500
1546		156.250000
1547		148.437500
1548		152.343750
1549		144.531250
1550		148.437500
1551		136.718750
1552		148.437500
1553		136.718750
1554		144.531250
1555		132.812500
1556		140.625000
1557		125.000000
1558		136.718750
1559		121.093750
1560		132.812500
1561		117.187500
1562		128.906250
1563		117.187500
1564		121.093750
1565		109.375000
1566		117.187500
1567		101.562500
1568		113.281250
1569		97.656250
1570		109.375000
1571		93.750000
1572		105.468750
1573		89.843750
1574		101.562500
1575		85.937500
1576		93.750000
1577		78.125000
1578		89.843750
1579		78.125000
1580		85.937500
1581		70.312500
1582		78.125000
1583		66.406250
1584		74.218750
1585		58.593750
1586		70.312500
1587		54.687500
1588		66.406250
1589		46.875000
1590		58.593750
1591		42.968750
1592		50.781250
1593		39.062500
1594		46.875000
1595		35.156250
1596		42.968750
1597		27.343750
1598		35.156250
1599		23.437500
1600		31.250000
1601		15.625000
1602		23.437500
1603		11.718750
1604		19.531250
1605		3.906250
1606		15.625000
1607		-3.906250
1608		7.812500
1609		-7.812500
1610		3.906250
1611		-11.718750
1612		0.000000
1613		-15.625000
1614		-7.812500
1615		-23.437500
1616		-15.625000
1617		-27.343750
1618		-19.531250
1619		-35.156250
1620		-23.437500
1621		-39.062500
1622		-27.343750
1623		-46.875000
1624		-35.156250
1625		-50.781250
1626		-39.062500
1627		-54.687500
1628		-46.875000
1629		-58.593750
1630		-50.781250
1631		-62.500000
1632		-58.593750
1633		-66.406250
1634		-62.500000
1635		-74.218750
1636		-66.406250
1637		-78.125000
1638		-70.312500
1639		-82.031250
1640		-74.218750
1641		-85.937500
1642		-78.125000
1643		-93.750000
1644		-85.937500
1645		-97.656250
1646		-89.843750
1647		-97.656250
1648		-93.750000
1649		-101.562500
1650		-97.656250
1651		-109.375000
1652		-101.562500
1653		-113.281250
1654		-101.562500
1655		-117.187500
1656		-105.468750
1657		-121.093750
1658		-109.375000
1659		-121.093750
1660		-113.281250
1661		-125.000000
1662		-117.187500
1663		-125.000000
1664		-121.093750
1665		-128.906250
1666		-125.000000
1667		-132.812500
1668		-128.906250
1669		-136.718750
1670		-128.906250
1671		-136.718750
1672		-128.906250
1673		-140.625000
1674		-132.812500
1675		-140.625000
1676		-132.812500
1677		-144.531250
1678		-136.718750
1679		-144.531250
1680		-136.718750
1681		-144.531250
1682		-140.625000
1683		-144.531250
1684		-140.625000
1685		-148.437500
1686		-140.625000
1687		-148.437500
1688		-140.625000
1689		-148.437500
1690		-144.531250
1691		-148.437500
1692		-144.531250
1693		-148.437500
1694		-144.531250
1695		-148.437500
1696		-144.531250
1697		-148.437500
1698		-144.531250
1699		-148.437500
1700		-144.531250
1701		-148.437500
1702		-140.625000
1703		-148.437500
1704		-140.625000
1705		-148.437500
1706		-140.625000
1707		-144.531250
1708		-136.718750
1709		-144.531250
1710		-136.718750
1711		-144.531250
1712		-136.718750
1713		-140.625000
1714		-132.812500
1715		-136.718750
1716		-132.812500
1717		-132.812500
1718		-128.906250
1719		-132.812500
1720		-125.000000
1721		-132.812500
1722		-121.093750
1723		-128.906250
1724		-121.093750
1725		-125.000000
1726		-117.187500
1727		-125.000000
1728		-113.281250
1729		-121.093750
1730		-113.281250
1731		-117.187500
1732		-109.375000
1733		-109.375000
1734		-105.468750
1735		-109.375000
1736		-101.562500
1737		-105.468750
1738		-97.656250
1739		-101.562500
1740		-93.750000
1741		-97.656250
1742		-89.843750
1743		-93.750000
1744		-85.937500
1745		-89.843750
1746		-78.125000
1747		-82.031250
1748		-74.218750
1749		-78.125000
1750		-70.312500
1751		-74.218750
1752		-66.406250
1753		-70.312500
1754		-58.593750
1755		-66.406250
1756		-54.687500
1757		-58.593750
1758		-50.781250
1759		-54.687500
1760		-42.968750
1761		-50.781250
1762		-39.062500
1763		-42.968750
1764		-35.156250
1765		-39.062500
1766		-31.250000
1767		-31.250000
1768		-23.437500
1769		-27.343750
1770		-19.531250
1771		-23.437500
1772		-11.718750
1773		-19.531250
1774		-7.812500
1775		-11.718750
1776		0.000000
1777		-3.906250
1778		3.906250
1779		0.000000
1780		11.718750
1781		3.906250
1782		15.625000
1783		11.718750
1784		19.531250
1785		19.531250
1786		27.343750
1787		23.437500
1788		31.250000
1789		27.343750
1790		35.156250
1791		31.250000
1792		42.968750
1793		39.062500
1794		50.781250
1795		42.968750
1796		54.687500
1797		50.781250
1798		58.593750
1799		58.593750
1800		62.500000
1801		62.500000
1802		70.312500
1803		66.406250
1804		74.218750
1805		70.312500
1806		82.031250
1807		78.125000
1808		85.937500
1809		82.031250
1810		89.843750
1811		85.937500
1812		97.656250
1813		89.843750
1814		101.562500
1815		93.750000
1816		101.562500
1817		101.562500
1818		109.375000
1819		105.468750
1820		113.281250
1821		109.375000
1822		117.187500
1823		113.281250
1824		121.093750
1825		117.187500
1826		128.906250
1827		125.000000
1828		132.812500
1829		125.000000
1830		136.718750
1831		128.906250
1832		136.718750
1833		136.718750
1834		140.625000
1835		140.625000
1836		144.531250
1837		140.625000
1838		152.343750
1839		144.531250
1840		152.343750
1841		148.437500
1842		156.250000
1843		152.343750
1844		160.156250
1845		156.250000
1846		164.062500
1847		160.156250
1848		164.062500
1849		164.062500
1850		167.968750
1851		164.062500
1852		171.875000
1853		167.968750
1854		175.781250
1855		167.968750
1856		175.781250
1857		171.875000
1858		179.687500
1859		175.781250
1860		183.593750
1861		175.781250
1862		183.593750
1863		179.687500
1864		187.500000
1865		179.687500
1866		187.500000
1867		183.593750
1868		187.500000
1869		183.593750
1870		191.406250
1871		183.593750
1872		191.406250
1873		187.500000
1874		195.312500
1875		187.500000
1876		195.312500
1877		187.500000
1878		195.312500
1879		191.406250
1880		199.218750
1881		191.406250
1882		199.218750
1883		195.312500
1884		199.218750
1885		195.312500
1886		199.218750
1887		195.312500
1888		199.218750
1889		195.312500
1890		199.218750
1891		195.312500
1892		199.218750
1893		195.312500
1894		203.125000
1895		195.312500
1896		203.125000
1897		195.312500
1898		203.125000
1899		195.312500
1900		199.218750
1901		195.312500
1902		199.218750
1903		191.406250
1904		199.218750
1905		191.406250
1906		199.218750
1907		191.406250
1908		199.218750
1909		191.406250
1910		199.218750
1911		191.406250
1912		195.312500
1913		191.406250
1914		195.312500
1915		187.500000
1916		195.312500
1917		191.406250
1918		191.406250
1919		187.500000
1920		191.406250
1921		183.593750
1922		191.406250
1923		183.593750
1924		191.406250
1925		179.687500
1926		187.500000
1927		179.687500
1928		187.500000
1929		175.781250
1930		183.593750
1931		175.781250
1932		183.593750
1933		175.781250
1934		179.687500
1935		171.875000
1936		175.781250
1937		167.968750
1938		175.781250
1939		164.062500
1940		171.875000
1941		164.062500
1942		171.875000
1943		160.156250
1944		167.968750
1945		156.250000
1946		164.062500
1947		152.343750
1948		160.156250
1949		152.343750
1950		156.250000
1951		148.437500
1952		152.343750
1953		140.625000
1954		148.437500
1955		136.718750
1956		148.437500
1957		132.812500
1958		144.531250
1959		132.812500
1960		140.625000
1961		125.000000
1962		136.718750
1963		121.093750
1964		132.812500
1965		117.187500
1966		128.906250
1967		113.281250
1968		121.093750
1969		109.375000
1970		117.187500
1971		105.468750
1972		113.281250
1973		97.656250
1974		109.375000
1975		93.750000
1976		105.468750
1977		89.843750
1978		101.562500
1979		85.937500
1980		93.750000
1981		78.125000
1982		89.843750
1983		74.218750
1984		85.937500
1985		70.312500
1986		78.125000
1987		62.500000
1988		74.218750
1989		58.593750
1990		70.312500
1991		54.687500
1992		62.500000
1993		46.875000
1994		58.593750
1995		42.968750
1996		50.781250
1997		35.156250
1998		46.875000
1999		31.250000
2000		42.968750
2001		27.343750
2002		35.156250
2003		19.531250
2004		27.343750
2005		15.625000
2006		23.437500
2007		7.812500
2008		19.531250
2009		3.906250
2010		11.718750
2011		-3.906250
2012		7.812500
2013		-7.812500
2014		0.000000
2015		-11.718750
2016		-3.906250
2017		-19.531250
2018		-11.718750
2019		-23.437500
2020		-15.625000
2021		-31.250000
2022		-19.531250
2023		-35.156250
2024		-23.437500
2025		-39.062500
2026		-31.250000
2027		-46.875000
2028		-35.156250
2029		-50.781250
2030		-42.968750
2031		-54.687500
2032		-46.875000
2033		-58.593750
2034		-50.781250
2035		-62.500000
2036		-58.593750
2037		-70.312500
2038		-62.500000
2039		-74.218750
2040		-66.406250
2041		-78.125000
2042		-70.312500
2043		-85.937500
2044		-74.218750
2045		-89.843750
2046		-82.031250
2047		-93.750000
2048		-82.031250
2049		-97.656250
2050		-89.843750
2051		-101.562500
2052		-93.750000
2053		-105.468750
2054		-97.656250
2055		-109.375000
2056		-101.562500
2057		-113.281250
2058		-105.468750
2059		-117.187500
2060		-109.375000
2061		-121.093750
2062		-109.375000
2063		-121.093750
2064		-113.281250
2065		-125.000000
2066		-117.187500
2067		-128.906250
2068		-121.093750
2069		-128.906250
2070		-125.000000
2071		-132.812500
2072		-128.906250
2073		-136.718750
2074		-128.906250
2075		-136.718750
2076		-128.906250
2077		-140.625000
2078		-132.812500
2079		-140.625000
2080		-132.812500
2081		-144.531250
2082		-136.718750
2083		-144.531250
2084		-136.718750
2085		-144.531250
2086		-140.625000
2087		-144.531250
2088		-140.625000
2089		-148.437500
2090		-140.625000
2091		-148.437500
2092		-140.625000
2093		-148.437500
2094		-140.625000
2095		-148.437500
2096		-144.531250
2097		-148.437500
2098		-144.531250
2099		-148.437500
2100		-140.625000
2101		-148.437500
2102		-144.531250
2103		-148.437500
2104		-144.531250
2105		-148.437500
2106		-140.625000
2107		-148.437500
2108		-140.625000
2109		-144.531250
2110		-136.718750
2111		-144.531250
2112		-136.718750
2113		-144.531250
2114		-136.718750
2115		-140.625000
2116		-132.812500
2117		-140.625000
2118		-132.812500
2119		-136.718750
2120		-132.812500
2121		-132.812500
2122		-128.906250
2123		-132.812500
2124		-125.000000
2125		-132.812500
2126		-121.093750
2127		-125.000000
2128		-117.187500
2129		-125.000000
2130		-117.187500
2131		-121.093750
2132		-113.281250
2133		-117.187500
2134		-109.375000
2135		-113.281250
2136		-109.375000
2137		-109.375000
2138		-105.468750
2139		-105.468750
2140		-97.656250
2141		-101.562500
2142		-93.750000
2143		-101.562500
2144		-89.843750
2145		-93.750000
2146		-85.937500
2147		-89.843750
2148		-82.031250
2149		-85.937500
2150		-78.125000
2151		-82.031250
2152		-74.218750
2153		-74.218750
2154		-70.312500
2155		-70.312500
2156		-62.500000
2157		-66.406250
2158		-58.593750
2159		-62.500000
2160		-50.781250
2161		-58.593750
2162		-46.875000
2163		-50.781250
2164		-42.968750
2165		-46.875000
2166		-35.156250
2167		-42.968750
2168		-31.250000
2169		-35.156250
2170		-27.343750
2171		-27.343750
2172		-23.437500
2173		-23.437500
2174		-15.625000
2175		-19.531250
2176		-7.812500
2177		-11.718750
2178		-3.906250
2179		-7.812500
2180		0.000000
2181		-3.906250
2182		7.812500
2183		3.906250
2184		11.718750
2185		11.718750
2186		15.625000
2187		15.625000
2188		23.437500
2189		19.531250
2190		31.250000
2191		23.437500
2192		35.156250
2193		31.250000
2194		39.062500
2195		39.062500
2196		46.875000
2197		42.968750
2198		54.687500
2199		46.875000
2200		58.593750
2201		54.687500
2202		62.500000
2203		58.593750
2204		66.406250
2205		62.500000
2206		74.218750
2207		66.406250
2208		78.125000
2209		74.218750
2210		82.031250
2211		78.125000
2212		89.843750
2213		82.031250
2214		93.750000
2215		89.843750
2216		97.656250
2217		93.750000
2218		101.562500
2219		101.562500
2220		105.468750
2221		105.468750
2222		109.375000
2223		109.375000
2224		117.187500
2225		109.375000
2226		121.093750
2227		117.187500
2228		125.000000
2229		121.093750
2230		128.906250
2231		125.000000
2232		132.812500
2233		128.906250
2234		136.718750
2235		132.812500
2236		140.625000
2237		136.718750
2238		144.531250
2239		140.625000
2240		148.437500
2241		144.531250
2242		152.343750
2243		148.437500
2244		156.250000
2245		152.343750
2246		160.156250
2247		156.250000
2248		164.062500
2249		156.250000
2250		164.062500
2251		160.156250
2252		167.968750
2253		164.062500
2254		167.968750
2255		167.968750
2256		171.875000
2257		167.968750
2258		175.781250
2259		171.875000
2260		179.687500
2261		171.875000
2262		179.687500
2263		175.781250
2264		183.593750
2265		179.687500
2266		183.593750
2267		179.687500
2268		187.500000
2269		183.593750
2270		187.500000
2271		183.593750
2272		187.500000
2273		187.500000
2274		191.406250
2275		187.500000
2276		195.312500
2277		187.500000
2278		195.312500
2279		187.500000
2280		195.312500
2281		187.500000
2282		199.218750
2283		191.406250
2284		199.218750
2285		191.406250
2286		199.218750
2287		195.312500
2288		199.218750
2289		195.312500
2290		203.125000
2291		195.312500
2292		199.218750
2293		195.312500
2294		203.125000
2295		195.312500
2296		203.125000
2297		195.312500
2298		203.125000
2299		195.312500
2300		203.125000
2301		195.312500
2302		203.125000
2303		195.312500
2304		199.218750
2305		195.312500
2306		199.218750
2307		195.312500
2308		199.218750
2309		191.406250
2310		199.218750
2311		191.406250
2312		199.218750
2313		191.406250
2314		199.218750
2315		191.406250
2316		199.218750
2317		187.500000
2318		199.218750
2319		187.500000
2320		195.312500
2321		187.500000
2322		191.406250
2323		183.593750
2324		191.406250
2325		183.593750
2326		191.406250
2327		183.593750
2328		191.406250
2329		179.687500
2330		187.500000
2331		179.687500
2332		187.500000
2333		175.781250
2334		183.593750
2335		175.781250
2336		183.593750
2337		171.875000
2338		179.687500
2339		171.875000
2340		175.781250
2341		167.968750
2342		175.781250
2343		164.062500
2344		171.875000
2345		164.062500
2346		171.875000
2347		156.250000
2348		167.968750
2349		152.343750
2350		164.062500
2351		152.343750
2352		160.156250
2353		148.437500
2354		156.250000
2355		144.531250
2356		152.343750
2357		140.625000
2358		148.437500
2359		136.718750
2360		148.437500
2361		132.812500
2362		144.531250
2363		128.906250
2364		136.718750
2365		125.000000
2366		132.812500
2367		121.093750
2368		132.812500
2369		117.187500
2370		125.000000
2371		113.281250
2372		121.093750
2373		109.375000
2374		117.187500
2375		101.562500
2376		113.281250
2377		97.656250
2378		109.375000
2379		93.750000
2380		101.562500
2381		85.937500
2382		97.656250
2383		82.031250
2384		93.750000
2385		78.125000
2386		89.843750
2387		74.218750
2388		82.031250
2389		70.312500
2390		74.218750
2391		62.500000
2392		70.312500
2393		54.687500
2394		66.406250
2395		50.781250
2396		62.500000
2397		46.875000
2398		54.687500
2399		39.062500
2400		50.781250
2401		35.156250
2402		46.875000
2403		31.250000
2404		42.968750
2405		27.343750
2406		35.156250
2407		19.531250
2408		27.343750
2409		15.625000
2410		23.437500
2411		7.812500
2412		19.531250
2413		0.000000
2414		11.718750
2415		-3.906250
2416		7.812500
2417		-7.812500
2418		0.000000
2419		-11.718750
2420		-3.906250
2421		-19.531250
2422		-11.718750
2423		-23.437500
2424		-15.625000
2425		-31.250000
2426		-19.531250
2427		-35.156250
2428		-27.343750
2429		-42.968750
2430		-31.250000
2431		-46.875000
2432		-39.062500
2433		-50.781250
2434		-42.968750
2435		-58.593750
2436		-46.875000
2437		-62.500000
2438		-50.781250
2439		-66.406250
2440		-58.593750
2441		-70.312500
2442		-62.500000
2443		-78.125000
2444		-66.406250
2445		-82.031250
2446		-70.312500
2447		-85.937500
2448		-74.218750
2449		-89.843750
2450		-82.031250
2451		-93.750000
2452		-85.937500
2453		-97.656250
2454		-89.843750
2455		-101.562500
2456		-93.750000
2457		-105.468750
2458		-97.656250
2459		-109.375000
2460		-101.562500
2461		-113.281250
2462		-105.468750
2463		-117.187500
2464		-109.375000
2465		-121.093750
2466		-113.281250
2467		-125.000000
2468		-117.187500
2469		-128.906250
2470		-117.187500
2471		-128.906250
2472		-125.000000
2473		-128.906250
2474		-125.000000
2475		-132.812500
2476		-125.000000
2477		-136.718750
2478		-128.906250
2479		-136.718750
2480		-132.812500
2481		-140.625000
2482		-132.812500
2483		-140.625000
2484		-136.718750
2485		-144.531250
2486		-136.718750
2487		-144.531250
2488		-136.718750
2489		-144.531250
2490		-140.625000
2491		-148.437500
2492		-140.625000
2493		-148.437500
2494		-140.625000
2495		-148.437500
2496		-140.625000
2497		-148.437500
2498		-140.625000
2499		-148.437500
2500		-144.531250
2501		-148.437500
2502		-140.625000
2503		-148.437500
2504		-140.625000
2505		-148.437500
2506		-144.531250
2507		-144.531250
2508		-144.531250
2509		-148.437500
2510		-140.625000
2511		-148.437500
2512		-140.625000
2513		-144.531250
2514		-136.718750
2515		-144.531250
2516		-136.718750
2517		-140.625000
2518		-132.812500
2519		-140.625000
2520		-132.812500
2521		-136.718750
2522		-132.812500
2523		-136.718750
2524		-128.906250
2525		-132.812500
2526		-125.000000
2527		-132.812500
2528		-125.000000
2529		-128.906250
2530		-121.093750
2531		-125.000000
2532		-117.187500
2533		-121.093750
2534		-113.281250
2535		-121.093750
2536		-109.375000
2537		-117.187500
2538		-109.375000
2539		-113.281250
2540		-105.468750
2541		-109.375000
2542		-101.562500
2543		-105.468750
2544		-97.656250
2545		-101.562500
2546		-93.750000
2547		-97.656250
2548		-89.843750
2549		-93.750000
2550		-85.937500
2551		-89.843750
2552		-78.125000
2553		-82.031250
2554		-74.218750
2555		-78.125000
2556		-70.312500
2557		-74.218750
2558		-66.406250
2559		-70.312500
2560		-58.593750
2561		-66.406250
2562		-54.687500
2563		-58.593750
2564		-50.781250
2565		-54.687500
2566		-46.875000
2567		-50.781250
2568		-39.062500
2569		-46.875000
2570		-35.156250
2571		-39.062500
2572		-31.250000
2573		-31.250000
2574		-27.343750
2575		-27.343750
2576		-19.531250
2577		-23.437500
2578		-11.718750
2579		-19.531250
2580		-7.812500
2581		-11.718750
2582		0.000000
2583		-7.812500
2584		3.906250
2585		0.000000
2586		7.812500
2587		3.906250
2588		11.718750
2589		11.718750
2590		19.531250
2591		15.625000
2592		23.437500
2593		23.437500
2594		31.250000
2595		27.343750
2596		35.156250
2597		31.250000
2598		42.968750
2599		39.062500
2600		46.875000
2601		42.968750
2602		54.687500
2603		50.781250
2604		58.593750
2605		54.687500
2606		62.500000
2607		62.500000
2608		66.406250
2609		66.406250
2610		74.218750
2611		70.312500
2612		78.125000
2613		74.218750
2614		85.937500
2615		82.031250
2616		89.843750
2617		85.937500
2618		93.750000
2619		89.843750
2620		101.562500
2621		93.750000
2622		101.562500
2623		101.562500
2624		105.468750
2625		105.468750
2626		113.281250
2627		109.375000
2628		117.187500
2629		113.281250
2630		125.000000
2631		117.187500
2632		128.906250
2633		121.093750
2634		132.812500
2635		125.000000
2636		136.718750
2637		128.906250
2638		136.718750
2639		136.718750
2640		140.625000
2641		140.625000
2642		144.531250
2643		140.625000
2644		148.437500
2645		144.531250
2646		152.343750
2647		148.437500
2648		156.250000
2649		148.437500
2650		160.156250
2651		156.250000
2652		164.062500
2653		160.156250
2654		164.062500
2655		160.156250
2656		167.968750
2657		164.062500
2658		167.968750
2659		167.968750
2660		175.781250
2661		167.968750
2662		175.781250
2663		171.875000
2664		179.687500
2665		171.875000
2666		183.593750
2667		175.781250
2668		183.593750
2669		175.781250
2670		187.500000
2671		179.687500
2672		187.500000
2673		183.593750
2674		187.500000
2675		183.593750
2676		187.500000
2677		183.593750
2678		191.406250
2679		187.500000
2680		195.312500
2681		187.500000
2682		195.312500
2683		187.500000
2684		195.312500
2685		191.406250
2686		195.312500
2687		191.406250
2688		199.218750
2689		191.406250
2690		199.218750
2691		195.312500
2692		199.218750
2693		195.312500
2694		199.218750
2695		195.312500
2696		199.218750
2697		195.312500
2698		203.125000
2699		195.312500
2700		203.125000
2701		195.312500
2702		203.125000
2703		195.312500
2704		203.125000
2705		195.312500
2706		203.125000
2707		195.312500
2708		199.218750
2709		195.312500
2710		199.218750
2711		191.406250
2712		199.218750
2713		191.406250
2714		199.218750
2715		191.406250
2716		199.218750
2717		191.406250
2718		199.218750
2719		191.406250
2720		199.218750
2721		187.500000
2722		195.312500
2723		191.406250
2724		195.312500
2725		187.500000
2726		191.406250
2727		183.593750
2728		191.406250
2729		183.593750
2730		191.406250
2731		179.687500
2732		187.500000
2733		179.687500
2734		187.500000
2735		175.781250
2736		183.593750
2737		175.781250
2738		183.593750
2739		175.781250
2740		179.687500
2741		171.875000
2742		175.781250
2743		167.968750
2744		175.781250
2745		164.062500
2746		171.875000
2747		164.062500
2748		167.968750
2749		160.156250
2750		167.968750
2751		156.250000
2752		164.062500
2753		152.343750
2754		160.156250
2755		148.437500
2756		160.156250
2757		148.437500
2758		152.343750
2759		144.531250
2760		148.437500
2761		140.625000
2762		148.437500
2763		136.718750
2764		144.531250
2765		132.812500
2766		140.625000
2767		125.000000
2768		136.718750
2769		125.000000
2770		132.812500
2771		117.187500
2772		128.906250
2773		113.281250
2774		121.093750
2775		109.375000
2776		117.187500
2777		105.468750
2778		113.281250
2779		101.562500
2780		109.375000
2781		97.656250
2782		105.468750
2783		89.843750
2784		101.562500
2785		85.937500
2786		93.750000
2787		82.031250
2788		89.843750
2789		78.125000
2790		85.937500
2791		70.312500
2792		78.125000
2793		66.406250
2794		74.218750
2795		58.593750
2796		70.312500
2797		54.687500
2798		62.500000
2799		50.781250
2800		58.593750
2801		42.968750
2802		50.781250
2803		39.062500
2804		46.875000
2805		31.250000
2806		42.968750
2807		27.343750
2808		35.156250
2809		23.437500
2810		31.250000
2811		15.625000
2812		23.437500
2813		7.812500
2814		19.531250
2815		3.906250
2816		15.625000
2817		0.000000
2818		7.812500
2819		-7.812500
2820		3.906250
2821		-11.718750
2822		-3.906250
2823		-15.625000
2824		-7.812500
2825		-23.437500
2826		-15.625000
2827		-31.250000
2828		-19.531250
2829		-35.156250
2830		-23.437500
2831		-39.062500
2832		-31.250000
2833		-42.968750
2834		-31.250000
2835		-50.781250
2836		-39.062500
2837		-54.687500
2838		-42.968750
2839		-58.593750
2840		-50.781250
2841		-62.500000
2842		-54.687500
2843		-66.406250
2844		-62.500000
2845		-74.218750
2846		-66.406250
2847		-82.031250
2848		-70.312500
2849		-85.937500
2850		-74.218750
2851		-89.843750
2852		-78.125000
2853		-93.750000
2854		-82.031250
2855		-97.656250
2856		-85.937500
2857		-97.656250
2858		-89.843750
2859		-105.468750
2860		-97.656250
2861		-109.375000
2862		-101.562500
2863		-113.281250
2864		-105.468750
2865		-117.187500
2866		-109.375000
2867		-121.093750
2868		-109.375000
2869		-121.093750
2870		-113.281250
2871		-125.000000
2872		-117.187500
2873		-128.906250
2874		-121.093750
2875		-128.906250
2876		-125.000000
2877		-132.812500
2878		-128.906250
2879		-136.718750
2880		-128.906250
2881		-140.625000
2882		-132.812500
2883		-140.625000
2884		-132.812500
2885		-144.531250
2886		-136.718750
2887		-144.531250
2888		-136.718750
2889		-144.531250
2890		-136.718750
2891		-144.531250
2892		-140.625000
2893		-144.531250
2894		-140.625000
2895		-148.437500
2896		-140.625000
2897		-148.437500
2898		-140.625000
2899		-152.343750
2900		-144.531250
2901		-148.437500
2902		-144.531250
2903		-148.437500
2904		-144.531250
2905		-148.437500
2906		-144.531250
2907		-152.343750
2908		-144.531250
2909		-148.437500
2910		-144.531250
2911		-148.437500
2912		-140.625000
2913		-148.437500
2914		-140.625000
2915		-148.437500
2916		-140.625000
2917		-144.531250
2918		-136.718750
2919		-144.531250
2920		-136.718750
2921		-144.531250
2922		-136.718750
2923		-140.625000
2924		-132.812500
2925		-136.718750
2926		-132.812500
2927		-136.718750
2928		-132.812500
2929		-132.812500
2930		-125.000000
2931		-132.812500
2932		-125.000000
2933		-128.906250
2934		-121.093750
2935		-128.906250
2936		-117.187500
2937		-121.093750
2938		-113.281250
2939		-121.093750
2940		-109.375000
2941		-113.281250
2942		-109.375000
2943		-113.281250
2944		-105.468750
2945		-105.468750
2946		-101.562500
2947		-105.468750
2948		-97.656250
2949		-101.562500
2950		-93.750000
2951		-97.656250
2952		-85.937500
2953		-93.750000
2954		-82.031250
2955		-89.843750
2956		-78.125000
2957		-85.937500
2958		-74.218750
2959		-78.125000
2960		-70.312500
2961		-74.218750
2962		-66.406250
2963		-70.312500
2964		-58.593750
2965		-66.406250
2966		-54.687500
2967		-58.593750
2968		-50.781250
2969		-54.687500
2970		-42.968750
2971		-46.875000
2972		-39.062500
2973		-42.968750
2974		-31.250000
2975		-39.062500
2976		-27.343750
2977		-31.250000
2978		-23.437500
2979		-27.343750
2980		-15.625000
2981		-19.531250
2982		-11.718750
2983		-15.625000
2984		-7.812500
2985		-11.718750
2986		0.000000
2987		-3.906250
2988		3.906250
2989		0.000000
2990		11.718750
2991		3.906250
2992		15.625000
2993		11.718750
2994		19.531250
2995		19.531250
2996		27.343750
2997		23.437500
2998		35.156250
2999		27.343750
3000		39.062500
3001		35.156250
3002		42.968750
3003		39.062500
3004		50.781250
3005		46.875000
3006		54.687500
3007		50.781250
3008		58.593750
3009		58.593750
3010		66.406250
3011		62.500000
3012		70.312500
3013		66.406250
3014		78.125000
3015		70.312500
3016		82.031250
3017		78.125000
3018		85.937500
3019		82.031250
3020		89.843750
3021		85.937500
3022		93.750000
3023		89.843750
3024		101.562500
3025		93.750000
3026		105.468750
3027		101.562500
3028		109.375000
3029		105.468750
3030		113.281250
3031		109.375000
3032		121.093750
3033		113.281250
3034		121.093750
3035		117.187500
3036		128.906250
3037		125.000000
3038		132.812500
3039		128.906250
3040		136.718750
3041		128.906250
3042		140.625000
3043		136.718750
3044		144.531250
3045		140.625000
3046		144.531250
3047		144.531250
3048		152.343750
3049		144.531250
3050		152.343750
3051		148.437500
3052		160.156250
3053		152.343750
3054		160.156250
3055		156.250000
3056		164.062500
3057		160.156250
3058		167.968750
3059		164.062500
3060		167.968750
3061		167.968750
3062		171.875000
3063		167.968750
3064		175.781250
3065		171.875000
3066		175.781250
3067		171.875000
3068		179.687500
3069		175.781250
3070		183.593750
3071		175.781250
3072		183.593750
3073		179.687500
3074		187.500000
3075		179.687500
3076		187.500000
3077		183.593750
3078		187.500000
3079		183.593750
3080		191.406250
3081		183.593750
3082		195.312500
3083		187.500000
3084		195.312500
3085		187.500000
3086		195.312500
3087		187.500000
3088		195.312500
3089		191.406250
3090		199.218750
3091		191.406250
3092		199.218750
3093		195.312500
3094		195.312500
3095		195.312500
3096		199.218750
3097		195.312500
3098		199.218750
3099		195.312500
3100		203.125000
3101		195.312500
3102		199.218750
3103		195.312500
3104		199.218750
3105		195.312500
3106		203.125000
3107		195.312500
3108		203.125000
3109		195.312500
3110		199.218750
3111		195.312500
3112		199.218750
3113		195.312500
3114		199.218750
3115		191.406250
3116		199.218750
3117		191.406250
3118		199.218750
3119		191.406250
3120		199.218750
3121		191.406250
3122		199.218750
3123		187.500000
3124		195.312500
3125		187.500000
3126		195.312500
3127		187.500000
3128		191.406250
3129		187.500000
3130		191.406250
3131		183.593750
3132		191.406250
3133		183.593750
3134		191.406250
3135		179.687500
3136		187.500000
3137		179.687500
3138		187.500000
3139		175.781250
3140		183.593750
3141		175.781250
3142		183.593750
3143		171.875000
3144		179.687500
3145		171.875000
3146		175.781250
3147		167.968750
3148		175.781250
3149		164.062500
3150		171.875000
3151		160.156250
3152		167.968750
3153		160.156250
3154		167.968750
3155		156.250000
3156		164.062500
3157		152.343750
3158		160.156250
3159		148.437500
3160		156.250000
3161		148.437500
3162		152.343750
3163		140.625000
3164		148.437500
3165		136.718750
3166		148.437500
3167		132.812500
3168		140.625000
3169		128.906250
3170		140.625000
3171		125.000000
3172		132.812500
3173		121.093750
3174		128.906250
3175		117.187500
3176		125.000000
3177		113.281250
3178		121.093750
3179		109.375000
3180		117.187500
3181		101.562500
3182		109.375000
3183		97.656250
3184		109.375000
3185		93.750000
3186		101.562500
3187		89.843750
3188		97.656250
3189		82.031250
3190		93.750000
3191		78.125000
3192		85.937500
3193		74.218750
3194		82.031250
3195		70.312500
3196		78.125000
3197		62.500000
3198		70.312500
3199		58.593750
3200		66.406250
3201		50.781250
3202		62.500000
3203		46.875000
3204		54.687500
3205		39.062500
3206		54.687500
3207		35.156250
3208		42.968750
3209		31.250000
3210		39.062500
3211		27.343750
3212		35.156250
3213		19.531250
3214		27.343750
3215		11.718750
3216		23.437500
3217		7.812500
3218		15.625000
3219		3.906250
3220		11.718750
3221		-3.906250
3222		7.812500
3223		-11.718750
3224		0.000000
3225		-15.625000
3226		-3.906250
3227		-19.531250
3228		-11.718750
3229		-23.437500
3230		-15.625000
3231		-31.250000
3232		-23.437500
3233		-35.156250
3234		-27.343750
3235		-42.968750
3236		-31.250000
3237		-46.875000
3238		-35.156250
3239		-50.781250
3240		-42.968750
3241		-58.593750
3242		-46.875000
3243		-62.500000
3244		-50.781250
3245		-66.406250
3246		-58.593750
3247		-74.218750
3248		-62.500000
3249		-78.125000
3250		-66.406250
3251		-82.031250
3252		-70.312500
3253		-85.937500
3254		-74.218750
3255		-89.843750
3256		-82.031250
3257		-93.750000
3258		-85.937500
3259		-97.656250
3260		-89.843750
3261		-101.562500
3262		-93.750000
3263		-105.468750
3264		-97.656250
3265		-109.375000
3266		-101.562500
3267		-113.281250
3268		-105.468750
3269		-117.187500
3270		-109.375000
3271		-121.093750
3272		-113.281250
3273		-125.000000
3274		-117.187500
3275		-125.000000
3276		-117.187500
3277		-128.906250
3278		-121.093750
3279		-128.906250
3280		-125.000000
3281		-132.812500
3282		-128.906250
3283		-136.718750
3284		-128.906250
3285		-140.625000
3286		-132.812500
3287		-140.625000
3288		-132.812500
3289		-144.531250
3290		-136.718750
3291		-144.531250
3292		-136.718750
3293		-144.531250
3294		-136.718750
3295		-144.531250
3296		-140.625000
3297		-144.531250
3298		-144.531250
3299		-148.437500
3300		-140.625000
3301		-148.437500
3302		-144.531250
3303		-148.437500
3304		-140.625000
3305		-148.437500
3306		-144.531250
3307		-148.437500
3308		-144.531250
3309		-148.437500
3310		-144.531250
3311		-148.437500
3312		-144.531250
3313		-148.437500
3314		-144.531250
3315		-148.437500
3316		-140.625000
3317		-148.437500
3318		-140.625000
3319		-144.531250
3320		-140.625000
3321		-144.531250
3322		-136.718750
3323		-144.531250
3324		-136.718750
3325		-140.625000
3326		-136.718750
3327		-140.625000
3328		-132.812500
3329		-136.718750
3330		-132.812500
3331		-132.812500
3332		-128.906250
3333		-132.812500
3334		-125.000000
3335		-132.812500
3336		-121.093750
3337		-128.906250
3338		-117.187500
3339		-125.000000
3340		-117.187500
3341		-121.093750
3342		-113.281250
3343		-117.187500
3344		-109.375000
3345		-113.281250
3346		-105.468750
3347		-109.375000
3348		-105.468750
3349		-105.468750
3350		-97.656250
3351		-105.468750
3352		-93.750000
3353		-101.562500
3354		-89.843750
3355		-93.750000
3356		-85.937500
3357		-89.843750
3358		-82.031250
3359		-85.937500
3360		-78.125000
3361		-82.031250
3362		-74.218750
3363		-74.218750
3364		-70.312500
3365		-70.312500
3366		-62.500000
3367		-66.406250
3368		-58.593750
3369		-62.500000
3370		-50.781250
3371		-58.593750
3372		-46.875000
3373		-50.781250
3374		-42.968750
3375		-46.875000
3376		-35.156250
3377		-42.968750
3378		-31.250000
3379		-35.156250
3380		-27.343750
3381		-31.250000
3382		-23.437500
3383		-23.437500
3384		-15.625000
3385		-19.531250
3386		-7.812500
3387		-11.718750
3388		-3.906250
3389		-7.812500
3390		0.000000
3391		-3.906250
3392		7.812500
3393		3.906250
3394		15.625000
3395		7.812500
3396		15.625000
3397		15.625000
3398		23.437500
3399		19.531250
3400		31.250000
3401		23.437500
3402		35.156250
3403		31.250000
3404		39.062500
3405		35.156250
3406		46.875000
3407		42.968750
3408		50.781250
3409		46.875000
3410		58.593750
3411		50.781250
3412		62.500000
3413		58.593750
3414		66.406250
3415		62.500000
3416		70.312500
3417		66.406250
3418		78.125000
3419		70.312500
3420		82.031250
3421		78.125000
3422		89.843750
3423		85.937500
3424		93.750000
3425		89.843750
3426		97.656250
3427		93.750000
3428		101.562500
3429		101.562500
3430		105.468750
3431		105.468750
3432		113.281250
3433		109.375000
3434		117.187500
3435		109.375000
3436		121.093750
3437		117.187500
3438		125.000000
3439		121.093750
3440		128.906250
3441		125.000000
3442		132.812500
3443		128.906250
3444		136.718750
3445		132.812500
3446		140.625000
3447		136.718750
3448		144.531250
3449		140.625000
3450		148.437500
3451		144.531250
3452		152.343750
3453		148.437500
3454		156.250000
3455		148.437500
3456		160.156250
3457		152.343750
3458		164.062500
3459		156.250000
3460		164.062500
3461		160.156250
3462		167.968750
3463		164.062500
3464		167.968750
3465		167.968750
3466		171.875000
3467		167.968750
3468		175.781250
3469		171.875000
3470		179.687500
3471		171.875000
3472		179.687500
3473		175.781250
3474		183.593750
3475		175.781250
3476		183.593750
3477		179.687500
3478		187.500000
3479		179.687500
3480		187.500000
3481		183.593750
3482		187.500000
3483		183.593750
3484		191.406250
3485		183.593750
3486		191.406250
3487		187.500000
3488		195.312500
3489		187.500000
3490		195.312500
3491		187.500000
3492		195.312500
3493		191.406250
3494		199.218750
3495		191.406250
3496		199.218750
3497		195.312500
3498		195.312500
3499		195.312500
3500		199.218750
3501		195.312500
3502		199.218750
3503		191.406250
3504		199.218750
3505		195.312500
3506		203.125000
3507		195.312500
3508		199.218750
3509		195.312500
3510		199.218750
3511		195.312500
3512		199.218750
3513		195.312500
3514		199.218750
3515		195.312500
3516		199.218750
3517		191.406250
3518		199.218750
3519		191.406250
3520		199.218750
3521		191.406250
3522		199.218750
3523		191.406250
3524		199.218750
3525		191.406250
3526		195.312500
3527		187.500000
3528		195.312500
3529		187.500000
3530		195.312500
3531		187.500000
3532		191.406250
3533		183.593750
3534		191.406250
3535		183.593750
3536		191.406250
3537		179.687500
3538		187.500000
3539		179.687500
3540		187.500000
3541		175.781250
3542		187.500000
3543		175.781250
3544		183.593750
3545		171.875000
3546		179.687500
3547		171.875000
3548		175.781250
3549		167.968750
3550		175.781250
3551		164.062500
3552		175.781250
3553		164.062500
3554		171.875000
3555		160.156250
3556		167.968750
3557		156.250000
3558		164.062500
3559		152.343750
3560		160.156250
3561		152.343750
3562		160.156250
3563		148.437500
3564		156.250000
3565		144.531250
3566		152.343750
3567		140.625000
3568		148.437500
3569		136.718750
3570		144.531250
3571		132.812500
3572		140.625000
3573		128.906250
3574		136.718750
3575		125.000000
3576		132.812500
3577		121.093750
3578		128.906250
3579		117.187500
3580		125.000000
3581		113.281250
3582		117.187500
3583		109.375000
3584		113.281250
3585		101.562500
3586		109.375000
3587		97.656250
3588		105.468750
3589		89.843750
3590		101.562500
3591		85.937500
3592		97.656250
3593		82.031250
3594		89.843750
3595		74.218750
3596		85.937500
3597		74.218750
3598		82.031250
3599		66.406250
3600		74.218750
3601		58.593750
3602		70.312500
3603		54.687500
3604		66.406250
3605		50.781250
3606		58.593750
3607		42.968750
3608		54.687500
3609		35.156250
3610		50.781250
3611		31.250000
3612		42.968750
3613		27.343750
3614		35.156250
3615		23.437500
3616		31.250000
3617		15.625000
3618		23.437500
3619		11.718750
3620		19.531250
3621		3.906250
3622		15.625000
3623		0.000000
3624		7.812500
3625		-3.906250
3626		3.906250
3627		-11.718750
3628		0.000000
3629		-15.625000
3630		-7.812500
3631		-19.531250
3632		-15.625000
3633		-27.343750
3634		-19.531250
3635		-31.250000
3636		-23.437500
3637		-39.062500
3638		-27.343750
3639		-42.968750
3640		-35.156250
3641		-50.781250
3642		-39.062500
3643		-54.687500
3644		-42.968750
3645		-58.593750
3646		-50.781250
3647		-62.500000
3648		-54.687500
3649		-66.406250
3650		-58.593750
3651		-74.218750
3652		-66.406250
3653		-78.125000
3654		-70.312500
3655		-82.031250
3656		-74.218750
3657		-89.843750
3658		-78.125000
3659		-89.843750
3660		-82.031250
3661		-93.750000
3662		-85.937500
3663		-97.656250
3664		-89.843750
3665		-101.562500
3666		-97.656250
3667		-105.468750
3668		-101.562500
3669		-113.281250
3670		-105.468750
3671		-117.187500
3672		-105.468750
3673		-117.187500
3674		-109.375000
3675		-121.093750
3676		-113.281250
3677		-125.000000
3678		-117.187500
3679		-128.906250
3680		-121.093750
3681		-128.906250
3682		-125.000000
3683		-132.812500
3684		-128.906250
3685		-136.718750
3686		-128.906250
3687		-136.718750
3688		-132.812500
3689		-140.625000
3690		-132.812500
3691		-140.625000
3692		-136.718750
3693		-144.531250
3694		-136.718750
3695		-148.437500
3696		-136.718750
3697		-148.437500
3698		-140.625000
3699		-144.531250
3700		-140.625000
3701		-148.437500
3702		-144.531250
3703		-148.437500
3704		-140.625000
3705		-148.437500
3706		-144.531250
3707		-152.343750
3708		-140.625000
3709		-148.437500
3710		-144.531250
3711		-152.343750
3712		-144.531250
3713		-148.437500
3714		-144.531250
3715		-148.437500
3716		-144.531250
3717		-148.437500
3718		-144.531250
3719		-148.437500
3720		-140.625000
3721		-144.531250
3722		-140.625000
3723		-144.531250
3724		-140.625000
3725		-144.531250
3726		-136.718750
3727		-140.625000
3728		-136.718750
3729		-140.625000
3730		-132.812500
3731		-140.625000
3732		-132.812500
3733		-136.718750
3734		-128.906250
3735		-132.812500
3736		-125.000000
3737		-128.906250
3738		-125.000000
3739		-128.906250
3740		-121.093750
3741		-125.000000
3742		-117.187500
3743		-125.000000
3744		-113.281250
3745		-117.187500
3746		-113.281250
3747		-117.187500
3748		-109.375000
3749		-113.281250
3750		-105.468750
3751		-109.375000
3752		-101.562500
3753		-105.468750
3754		-97.656250
3755		-101.562500
3756		-93.750000
3757		-97.656250
3758		-89.843750
3759		-93.750000
3760		-85.937500
3761		-89.843750
3762		-78.125000
3763		-85.937500
3764		-74.218750
3765		-78.125000
3766		-70.312500
3767		-74.218750
3768		-66.406250
3769		-70.312500
3770		-62.500000
3771		-62.500000
3772		-58.593750
3773		-58.593750
3774		-50.781250
3775		-54.687500
3776		-46.875000
3777		-46.875000
3778		-42.968750
3779		-42.968750
3780		-35.156250
3781		-39.062500
3782		-31.250000
3783		-31.250000
3784		-23.437500
3785		-27.343750
3786		-19.531250
3787		-23.437500
3788		-15.625000
3789		-15.625000
3790		-7.812500
3791		-11.718750
3792		-3.906250
3793		-3.906250
3794		3.906250
3795		0.000000
3796		7.812500
3797		7.812500
3798		15.625000
3799		11.718750
3800		19.531250
3801		15.625000
3802		27.343750
3803		23.437500
3804		31.250000
3805		27.343750
3806		35.156250
3807		35.156250
3808		42.968750
3809		39.062500
3810		46.875000
3811		46.875000
3812		54.687500
3813		50.781250
3814		58.593750
3815		54.687500
3816		62.500000
3817		62.500000
3818		70.312500
3819		66.406250
3820		74.218750
3821		70.312500
3822		78.125000
3823		78.125000
3824		85.937500
3825		82.031250
3826		89.843750
3827		85.937500
3828		93.750000
3829		93.750000
3830		97.656250
3831		97.656250
3832		105.468750
3833		101.562500
3834		109.375000
3835		105.468750
3836		113.281250
3837		109.375000
3838		117.187500
3839		113.281250
3840		121.093750
3841		117.187500
3842		125.000000
3843		125.000000
3844		132.812500
3845		128.906250
3846		132.812500
3847		132.812500
3848		136.718750
3849		136.718750
3850		140.625000
3851		140.625000
3852		144.531250
3853		144.531250
3854		148.437500
3855		148.437500
3856		152.343750
3857		148.437500
3858		156.250000
3859		152.343750
3860		160.156250
3861		156.250000
3862		160.156250
3863		160.156250
3864		164.062500
3865		164.062500
3866		167.968750
3867		164.062500
3868		171.875000
3869		167.968750
3870		175.781250
3871		167.968750
3872		175.781250
3873		171.875000
3874		175.781250
3875		175.781250
3876		179.687500
3877		175.781250
3878		179.687500
3879		179.687500
3880		183.593750
3881		179.687500
3882		187.500000
3883		183.593750
3884		187.500000
3885		183.593750
3886		187.500000
3887		187.500000
3888		191.406250
3889		187.500000
3890		191.406250
3891		187.500000
3892		195.312500
3893		191.406250
3894		195.312500
3895		191.406250
3896		195.312500
3897		191.406250
3898		195.312500
3899		195.312500
3900		199.218750
3901		195.312500
3902		199.218750
3903		195.312500
3904		199.218750
3905		195.312500
3906		199.218750
3907		195.312500
3908		199.218750
3909		195.312500
3910		199.218750
3911		195.312500
3912		199.218750
3913		195.312500
3914		199.218750
3915		195.312500
3916		199.218750
3917		195.312500
3918		199.218750
3919		195.312500
3920		199.218750
3921		195.312500
3922		199.218750
3923		191.406250
3924		199.218750
3925		191.406250
3926		199.218750
3927		191.406250
3928		195.312500
3929		191.406250
3930		195.312500
3931		187.500000
3932		195.312500
3933		187.500000
3934		195.312500
3935		187.500000
3936		191.406250
3937		187.500000
3938		191.406250
3939		183.593750
3940		187.500000
3941		183.593750
3942		187.500000
3943		179.687500
3944		183.593750
3945		175.781250
3946		183.593750
3947		175.781250
3948		183.593750
3949		175.781250
3950		179.687500
3951		171.875000
3952		175.781250
3953		167.968750
3954		171.875000
3955		167.968750
3956		171.875000
3957		164.062500
3958		167.968750
3959		160.156250
3960		164.062500
3961		156.250000
3962		164.062500
3963		152.343750
3964		160.156250
3965		148.437500
3966		156.250000
3967		148.437500
3968		152.343750
3969		144.531250
3970		148.437500
3971		140.625000
3972		144.531250
3973		136.718750
3974		140.625000
3975		132.812500
3976		136.718750
3977		128.906250
3978		132.812500
3979		121.093750
3980		128.906250
3981		117.187500
3982		125.000000
3983		113.281250
3984		121.093750
3985		109.375000
3986		117.187500
3987		105.468750
3988		113.281250
3989		101.562500
3990		109.375000
3991		93.750000
3992		101.562500
3993		89.843750
3994		97.656250
3995		85.937500
3996		93.750000
3997		82.031250
3998		85.937500
3999		74.218750
4000		82.031250
4001		70.312500
4002		78.125000
4003		66.406250
4004		70.312500
4005		58.593750
4006		66.406250
4007		54.687500
4008		62.500000
4009		46.875000
4010		54.687500
4011		42.968750
4012		50.781250
4013		39.062500
4014		42.968750
4015		31.250000
4016		39.062500
4017		27.343750
4018		35.156250
4019		19.531250
4020		27.343750
4021		15.625000
4022		23.437500
4023		7.812500
4024		15.625000
4025		3.906250
4026		11.718750
4027		-3.906250
4028		3.906250
4029		-7.812500
4030		0.000000
4031		-11.718750
4032		-3.906250
4033		-19.531250
4034		-11.718750
4035		-23.437500
4036		-15.625000
4037		-27.343750
4038		-23.437500
4039		-35.156250
4040		-27.343750
4041		-39.062500
4042		-31.250000
4043		-42.968750
4044		-39.062500
4045		-50.781250
4046		-42.968750
4047		-54.687500
4048		-46.875000
4049		-58.593750
4050		-54.687500
4051		-66.406250
4052		-58.593750
4053		-70.312500
4054		-62.500000
4055		-74.218750
4056		-66.406250
4057		-78.125000
4058		-74.218750
4059		-85.937500
4060		-78.125000
4061		-89.843750
4062		-82.031250
4063		-93.750000
4064		-85.937500
4065		-97.656250
4066		-89.843750
4067		-101.562500
4068		-93.750000
4069		-105.468750
4070		-97.656250
4071		-109.375000
4072		-101.562500
4073		-113.281250
4074		-105.468750
4075		-117.187500
4076		-109.375000
4077		-121.093750
4078		-113.281250
4079		-121.093750
4080		-117.187500
4081		-125.000000
4082		-117.187500
4083		-128.906250
4084		-121.093750
4085		-128.906250
4086		-125.000000
4087		-132.812500
4088		-128.906250
4089		-136.718750
4090		-128.906250
4091		-136.718750
4092		-132.812500
4093		-140.625000
4094		-136.718750
4095		-140.625000
4096		-136.718750
4097		-144.531250
4098		-136.718750
4099		-144.531250
4100		-140.625000
4101		-144.531250
4102		-140.625000
4103		-148.437500
4104		-144.531250
4105		-148.437500
4106		-144.531250
4107		-148.437500
4108		-144.531250
4109		-148.437500
4110		-144.531250
4111		-148.437500
4112		-144.531250
4113		-148.437500
4114		-144.531250
4115		-148.437500
4116		-144.531250
4117		-148.437500
4118		-144.531250
4119		-148.437500
4120		-144.531250
4121		-148.437500
4122		-144.531250
4123		-148.437500
4124		-140.625000
4125		-144.531250
4126		-140.625000
4127		-144.531250
4128		-140.625000
4129		-140.625000
4130		-136.718750
4131		-140.625000
4132		-136.718750
4133		-140.625000
4134		-132.812500
4135		-136.718750
4136		-132.812500
4137		-136.718750
4138		-128.906250
4139		-132.812500
4140		-128.906250
4141		-128.906250
4142		-125.000000
4143		-128.906250
4144		-121.093750
4145		-125.000000
4146		-121.093750
4147		-121.093750
4148		-113.281250
4149		-117.187500
4150		-113.281250
4151		-113.281250
4152		-109.375000
4153		-109.375000
4154		-105.468750
4155		-109.375000
4156		-101.562500
4157		-101.562500
4158		-97.656250
4159		-97.656250
4160		-93.750000
4161		-93.750000
4162		-89.843750
4163		-89.843750
4164		-85.937500
4165		-85.937500
4166		-78.125000
4167		-82.031250
4168		-74.218750
4169		-78.125000
4170		-70.312500
4171		-70.312500
4172		-66.406250
4173		-66.406250
4174		-58.593750
4175		-62.500000
4176		-54.687500
4177		-58.593750
4178		-50.781250
4179		-50.781250
4180		-46.875000
4181		-46.875000
4182		-39.062500
4183		-42.968750
4184		-35.156250
4185		-35.156250
4186		-27.343750
4187		-31.250000
4188		-23.437500
4189		-23.437500
4190		-19.531250
4191		-19.531250
4192		-11.718750
4193		-15.625000
4194		-7.812500
4195		-7.812500
4196		0.000000
4197		-3.906250
4198		3.906250
4199		3.906250
4200		7.812500
4201		7.812500
4202		15.625000
4203		11.718750
4204		19.531250
4205		19.531250
4206		27.343750
4207		23.437500
4208		31.250000
4209		31.250000
4210		39.062500
4211		35.156250
4212		42.968750
4213		42.968750
4214		46.875000
4215		46.875000
4216		54.687500
4217		50.781250
4218		58.593750
4219		54.687500
4220		62.500000
4221		62.500000
4222		70.312500
4223		66.406250
4224		74.218750
4225		74.218750
4226		82.031250
4227		78.125000
4228		85.937500
4229		82.031250
4230		89.843750
4231		89.843750
4232		93.750000
4233		93.750000
4234		101.562500
4235		97.656250
4236		105.468750
4237		101.562500
4238		109.375000
4239		109.375000
4240		113.281250
4241		113.281250
4242		117.187500
4243		117.187500
4244		121.093750
4245		121.093750
4246		125.000000
4247		125.000000
4248		132.812500
4249		128.906250
4250		136.718750
4251		132.812500
4252		140.625000
4253		136.718750
4254		144.531250
4255		140.625000
4256		144.531250
4257		144.531250
4258		148.437500
4259		148.437500
4260		152.343750
4261		152.343750
4262		156.250000
4263		156.250000
4264		160.156250
4265		156.250000
4266		164.062500
4267		160.156250
4268		164.062500
4269		164.062500
4270		167.968750
4271		164.062500
4272		171.875000
4273		167.968750
4274		175.781250
4275		171.875000
4276		175.781250
4277		175.781250
4278		179.687500
4279		175.781250
4280		179.687500
4281		179.687500
4282		183.593750
4283		179.687500
4284		183.593750
4285		183.593750
4286		187.500000
4287		183.593750
4288		187.500000
4289		183.593750
4290		191.406250
4291		187.500000
4292		191.406250
4293		187.500000
4294		191.406250
4295		191.406250
4296		195.312500
4297		191.406250
4298		195.312500
4299		191.406250
4300		195.312500
4301		191.406250
4302		199.218750
4303		195.312500
4304		199.218750
4305		195.312500
4306		199.218750
4307		195.312500
4308		199.218750
4309		195.312500
4310		199.218750
4311		195.312500
4312		199.218750
4313		195.312500
4314		199.218750
4315		195.312500
4316		199.218750
4317		195.312500
4318		199.218750
4319		195.312500
4320		199.218750
4321		195.312500
4322		199.218750
4323		195.312500
4324		199.218750
4325		195.312500
4326		199.218750
4327		195.312500
4328		199.218750
4329		191.406250
4330		195.312500
4331		191.406250
4332		195.312500
4333		191.406250
4334		195.312500
4335		191.406250
4336		191.406250
4337		187.500000
4338		191.406250
4339		187.500000
4340		191.406250
4341		183.593750
4342		191.406250
4343		183.593750
4344		187.500000
4345		179.687500
4346		187.500000
4347		179.687500
4348		183.593750
4349		175.781250
4350		183.593750
4351		175.781250
4352		179.687500
4353		171.875000
4354		179.687500
4355		171.875000
4356		175.781250
4357		167.968750
4358		171.875000
4359		164.062500
4360		171.875000
4361		160.156250
4362		167.968750
4363		160.156250
4364		164.062500
4365		156.250000
4366		160.156250
4367		152.343750
4368		160.156250
4369		148.437500
4370		156.250000
4371		144.531250
4372		152.343750
4373		140.625000
4374		148.437500
4375		136.718750
4376		144.531250
4377		132.812500
4378		140.625000
4379		128.906250
4380		136.718750
4381		125.000000
4382		132.812500
4383		121.093750
4384		128.906250
4385		117.187500
4386		125.000000
4387		113.281250
4388		121.093750
4389		109.375000
4390		113.281250
4391		105.468750
4392		109.375000
4393		97.656250
4394		105.468750
4395		93.750000
4396		101.562500
4397		89.843750
4398		97.656250
4399		82.031250
4400		89.843750
4401		78.125000
4402		85.937500
4403		74.218750
4404		82.031250
4405		66.406250
4406		74.218750
4407		62.500000
4408		70.312500
4409		58.593750
4410		66.406250
4411		50.781250
4412		58.593750
4413		46.875000
4414		54.687500
4415		42.968750
4416		50.781250
4417		35.156250
4418		42.968750
4419		31.250000
4420		39.062500
4421		23.437500
4422		31.250000
4423		19.531250
4424		27.343750
4425		11.718750
4426		23.437500
4427		7.812500
4428		15.625000
4429		0.000000
4430		11.718750
4431		-3.906250
4432		3.906250
4433		-7.812500
4434		0.000000
4435		-15.625000
4436		-7.812500
4437		-19.531250
4438		-11.718750
4439		-23.437500
4440		-19.531250
4441		-31.250000
4442		-23.437500
4443		-35.156250
4444		-27.343750
4445		-42.968750
4446		-35.156250
4447		-46.875000
4448		-39.062500
4449		-50.781250
4450		-42.968750
4451		-54.687500
4452		-50.781250
4453		-62.500000
4454		-54.687500
4455		-66.406250
4456		-58.593750
4457		-70.312500
4458		-62.500000
4459		-74.218750
4460		-70.312500
4461		-82.031250
4462		-74.218750
4463		-85.937500
4464		-78.125000
4465		-89.843750
4466		-82.031250
4467		-93.750000
4468		-85.937500
4469		-97.656250
4470		-89.843750
4471		-101.562500
4472		-93.750000
4473		-105.468750
4474		-101.562500
4475		-109.375000
4476		-105.468750
4477		-113.281250
4478		-105.468750
4479		-117.187500
4480		-109.375000
4481		-121.093750
4482		-113.281250
4483		-121.093750
4484		-117.187500
4485		-125.000000
4486		-121.093750
4487		-128.906250
4488		-125.000000
4489		-128.906250
4490		-125.000000
4491		-132.812500
4492		-128.906250
4493		-136.718750
4494		-128.906250
4495		-136.718750
4496		-132.812500
4497		-140.625000
4498		-136.718750
4499		-140.625000
4500		-136.718750
4501		-144.531250
4502		-140.625000
4503		-144.531250
4504		-140.625000
4505		-144.531250
4506		-140.625000
4507		-144.531250
4508		-144.531250
4509		-148.437500
4510		-144.531250
4511		-148.437500
4512		-144.531250
4513		-148.437500
4514		-144.531250
4515		-148.437500
4516		-144.531250
4517		-148.437500
4518		-144.531250
4519		-148.437500
4520		-144.531250
4521		-148.437500
4522		-144.531250
4523		-148.437500
4524		-144.531250
4525		-144.531250
4526		-140.625000
4527		-144.531250
4528		-140.625000
4529		-144.531250
4530		-140.625000
4531		-140.625000
4532		-136.718750
4533		-140.625000
4534		-136.718750
4535		-140.625000
4536		-136.718750
4537		-136.718750
4538		-132.812500
4539		-136.718750
4540		-128.906250
4541		-132.812500
4542		-128.906250
4543		-132.812500
4544		-125.000000
4545		-128.906250
4546		-121.093750
4547		-125.000000
4548		-121.093750
4549		-121.093750
4550		-117.187500
4551		-117.187500
4552		-113.281250
4553		-117.187500
4554		-109.375000
4555		-113.281250
4556		-105.468750
4557		-109.375000
4558		-101.562500
4559		-105.468750
4560		-97.656250
4561		-101.562500
4562		-93.750000
4563		-97.656250
4564		-89.843750
4565		-93.750000
4566		-85.937500
4567		-89.843750
4568		-82.031250
4569		-82.031250
4570		-78.125000
4571		-78.125000
4572		-70.312500
4573		-74.218750
4574		-66.406250
4575		-70.312500
4576		-62.500000
4577		-62.500000
4578		-58.593750
4579		-58.593750
4580		-50.781250
4581		-54.687500
4582		-46.875000
4583		-46.875000
4584		-39.062500
4585		-42.968750
4586		-35.156250
4587		-39.062500
4588		-31.250000
4589		-31.250000
4590		-23.437500
4591		-27.343750
4592		-19.531250
4593		-23.437500
4594		-15.625000
4595		-15.625000
4596		-7.812500
4597		-11.718750
4598		-3.906250
4599		-3.906250
4600		3.906250
4601		0.000000
4602		7.812500
4603		7.812500
4604		15.625000
4605		11.718750
4606		19.531250
4607		15.625000
4608		23.437500
4609		23.437500
4610		31.250000
4611		27.343750
4612		35.156250
4613		35.156250
4614		42.968750
4615		39.062500
4616		46.875000
4617		42.968750
4618		54.687500
4619		50.781250
4620		58.593750
4621		54.687500
4622		62.500000
4623		62.500000
4624		70.312500
4625		66.406250
4626		74.218750
4627		70.312500
4628		78.125000
4629		74.218750
4630		82.031250
4631		82.031250
4632		89.843750
4633		85.937500
4634		93.750000
4635		89.843750
4636		97.656250
4637		97.656250
4638		101.562500
4639		101.562500
4640		109.375000
4641		105.468750
4642		113.281250
4643		109.375000
4644		117.187500
4645		113.281250
4646		121.093750
4647		117.187500
4648		125.000000
4649		125.000000
4650		128.906250
4651		128.906250
4652		132.812500
4653		132.812500
4654		136.718750
4655		136.718750
4656		140.625000
4657		140.625000
4658		144.531250
4659		144.531250
4660		148.437500
4661		144.531250
4662		152.343750
4663		148.437500
4664		156.250000
4665		152.343750
4666		160.156250
4667		156.250000
4668		160.156250
4669		160.156250
4670		164.062500
4671		164.062500
4672		167.968750
4673		164.062500
4674		171.875000
4675		167.968750
4676		171.875000
4677		171.875000
4678		175.781250
4679		171.875000
4680		179.687500
4681		175.781250
4682		179.687500
4683		175.781250
4684		183.593750
4685		179.687500
4686		183.593750
4687		183.593750
4688		187.500000
4689		183.593750
4690		187.500000
4691		187.500000
4692		191.406250
4693		187.500000
4694		191.406250
4695		187.500000
4696		191.406250
4697		191.406250
4698		195.312500
4699		191.406250
4700		195.312500
4701		191.406250
4702		195.312500
4703		191.406250
4704		195.312500
4705		195.312500
4706		199.218750
4707		195.312500
4708		199.218750
4709		195.312500
4710		199.218750
4711		195.312500
4712		199.218750
4713		195.312500
4714		199.218750
4715		195.312500
4716		199.218750
4717		195.312500
4718		199.218750
4719		195.312500
4720		199.218750
4721		195.312500
4722		199.218750
4723		195.312500
4724		199.218750
4725		195.312500
4726		199.218750
4727		195.312500
4728		199.218750
4729		195.312500
4730		199.218750
4731		195.312500
4732		195.312500
4733		191.406250
4734		195.312500
4735		191.406250
4736		195.312500
4737		191.406250
4738		195.312500
4739		187.500000
4740		195.312500
4741		187.500000
4742		191.406250
4743		187.500000
4744		191.406250
4745		183.593750
4746		191.406250
4747		183.593750
4748		187.500000
4749		179.687500
4750		187.500000
4751		179.687500
4752		183.593750
4753		175.781250
4754		179.687500
4755		175.781250
4756		179.687500
4757		171.875000
4758		175.781250
4759		167.968750
4760		175.781250
4761		167.968750
4762		171.875000
4763		164.062500
4764		167.968750
4765		160.156250
4766		167.968750
4767		156.250000
4768		164.062500
4769		152.343750
4770		160.156250
4771		152.343750
4772		156.250000
4773		148.437500
4774		152.343750
4775		144.531250
4776		148.437500
4777		140.625000
4778		144.531250
4779		136.718750
4780		144.531250
4781		132.812500
4782		136.718750
4783		128.906250
4784		132.812500
4785		125.000000
4786		128.906250
4787		121.093750
4788		125.000000
4789		117.187500
4790		121.093750
4791		109.375000
4792		117.187500
4793		105.468750
4794		113.281250
4795		101.562500
4796		109.375000
4797		97.656250
4798		101.562500
4799		89.843750
4800		97.656250
4801		85.937500
4802		93.750000
4803		82.031250
4804		89.843750
4805		74.218750
4806		82.031250
4807		70.312500
4808		78.125000
4809		66.406250
4810		74.218750
4811		62.500000
4812		66.406250
4813		54.687500
4814		62.500000
4815		50.781250
4816		58.593750
4817		42.968750
4818		50.781250
4819		39.062500
4820		46.875000
4821		35.156250
4822		39.062500
4823		27.343750
4824		35.156250
4825		23.437500
4826		31.250000
4827		15.625000
4828		23.437500
4829		11.718750
4830		19.531250
4831		3.906250
4832		11.718750
4833		0.000000
4834		7.812500
4835		-7.812500
4836		3.906250
4837		-11.718750
4838		-3.906250
4839		-15.625000
4840		-7.812500
4841		-23.437500
4842		-15.625000
4843		-27.343750
4844		-19.531250
4845		-31.250000
4846		-27.343750
4847		-39.062500
4848		-31.250000
4849		-42.968750
4850		-35.156250
4851		-50.781250
4852		-42.968750
4853		-54.687500
4854		-46.875000
4855		-58.593750
4856		-50.781250
4857		-62.500000
4858		-54.687500
4859		-70.312500
4860		-62.500000
4861		-74.218750
4862		-66.406250
4863		-78.125000
4864		-70.312500
4865		-82.031250
4866		-78.125000
4867		-85.937500
4868		-82.031250
4869		-89.843750
4870		-85.937500
4871		-93.750000
4872		-89.843750
4873		-97.656250
4874		-93.750000
4875		-101.562500
4876		-97.656250
4877		-105.468750
4878		-101.562500
4879		-109.375000
4880		-105.468750
4881		-113.281250
4882		-109.375000
4883		-117.187500
4884		-113.281250
4885		-121.093750
4886		-117.187500
4887		-125.000000
4888		-117.187500
4889		-125.000000
4890		-121.093750
4891		-128.906250
4892		-125.000000
4893		-132.812500
4894		-125.000000
4895		-136.718750
4896		-128.906250
4897		-136.718750
4898		-132.812500
4899		-140.625000
4900		-132.812500
4901		-140.625000
4902		-136.718750
4903		-140.625000
4904		-136.718750
4905		-144.531250
4906		-140.625000
4907		-144.531250
4908		-140.625000
4909		-144.531250
4910		-140.625000
4911		-148.437500
4912		-140.625000
4913		-148.437500
4914		-144.531250
4915		-148.437500
4916		-144.531250
4917		-148.437500
4918		-144.531250
4919		-148.437500
4920		-144.531250
4921		-148.437500
4922		-144.531250
4923		-148.437500
4924		-144.531250
4925		-148.437500
4926		-144.531250
4927		-148.437500
4928		-144.531250
4929		-144.531250
4930		-140.625000
4931		-144.531250
4932		-140.625000
4933		-144.531250
4934		-140.625000
4935		-144.531250
4936		-136.718750
4937		-140.625000
4938		-136.718750
4939		-140.625000
4940		-136.718750
4941		-136.718750
4942		-132.812500
4943		-132.812500
4944		-128.906250
4945		-132.812500
4946		-128.906250
4947		-128.906250
4948		-125.000000
4949		-128.906250
4950		-121.093750
4951		-125.000000
4952		-117.187500
4953		-121.093750
4954		-117.187500
4955		-117.187500
4956		-113.281250
4957		-113.281250
4958		-109.375000
4959		-113.281250
4960		-105.468750
4961		-105.468750
4962		-101.562500
4963		-105.468750
4964		-97.656250
4965		-101.562500
4966		-93.750000
4967		-93.750000
4968		-89.843750
4969		-89.843750
4970		-85.937500
4971		-85.937500
4972		-78.125000
4973		-82.031250
4974		-74.218750
4975		-78.125000
4976		-70.312500
4977		-70.312500
4978		-66.406250
4979		-66.406250
4980		-58.593750
4981		-62.500000
4982		-54.687500
4983		-58.593750
4984		-50.781250
4985		-50.781250
4986		-46.875000
4987		-46.875000
4988		-39.062500
4989		-42.968750
4990		-31.250000
4991		-35.156250
4992		-31.250000
4993		-31.250000
4994		-23.437500
4995		-27.343750
4996		-19.531250
4997		-19.531250
4998		-11.718750
4999		-15.625000
5000		-7.812500
5001		-7.812500
5002		0.000000
5003		-3.906250
5004		3.906250
5005		3.906250
5006		7.812500
5007		7.812500
5008		15.625000
5009		11.718750
5010		19.531250
5011		19.531250
5012		27.343750
5013		23.437500
5014		31.250000
5015		31.250000
5016		39.062500
5017		35.156250
5018		42.968750
5019		39.062500
5020		46.875000
5021		46.875000
5022		54.687500
5023		50.781250
5024		58.593750
5025		58.593750
5026		66.406250
5027		62.500000
5028		70.312500
5029		66.406250
5030		74.218750
5031		74.218750
5032		82.031250
5033		78.125000
5034		85.937500
5035		82.031250
5036		89.843750
5037		89.843750
5038		93.750000
5039		89.843750
5040		101.562500
5041		97.656250
5042		105.468750
5043		101.562500
5044		109.375000
5045		105.468750
5046		113.281250
5047		109.375000
5048		117.187500
5049		117.187500
5050		121.093750
5051		121.093750
5052		125.000000
5053		125.000000
5054		128.906250
5055		128.906250
5056		136.718750
5057		132.812500
5058		136.718750
5059		136.718750
5060		140.625000
5061		140.625000
5062		144.531250
5063		144.531250
5064		148.437500
5065		148.437500
5066		152.343750
5067		152.343750
5068		156.250000
5069		152.343750
5070		160.156250
5071		156.250000
5072		164.062500
5073		160.156250
5074		164.062500
5075		164.062500
5076		167.968750
5077		164.062500
5078		171.875000
5079		167.968750
5080		171.875000
5081		167.968750
5082		175.781250
5083		171.875000
5084		179.687500
5085		175.781250
5086		179.687500
5087		179.687500
5088		183.593750
5089		179.687500
5090		183.593750
5091		183.593750
5092		187.500000
5093		183.593750
5094		187.500000
5095		183.593750
5096		191.406250
5097		187.500000
5098		191.406250
5099		187.500000
5100		191.406250
5101		191.406250
5102		195.312500
5103		191.406250
5104		195.312500
5105		191.406250
5106		195.312500
5107		191.406250
5108		195.312500
5109		195.312500
5110		199.218750
5111		195.312500
5112		199.218750
5113		195.312500
5114		199.218750
5115		195.312500
5116		199.218750
5117		195.312500
5118		199.218750
5119		195.312500
5120		199.218750
5121		195.312500
5122		199.218750
5123		195.312500
5124		199.218750
5125		195.312500
5126		199.218750
5127		195.312500
5128		199.218750
5129		195.312500
5130		199.218750
5131		195.312500
5132		199.218750
5133		195.312500
5134		199.218750
5135		191.406250
5136		199.218750
5137		191.406250
5138		195.312500
5139		191.406250
5140		195.312500
5141		191.406250
5142		195.312500
5143		187.500000
5144		195.312500
5145		187.500000
5146		191.406250
5147		183.593750
5148		191.406250
5149		183.593750
5150		187.500000
5151		183.593750
5152		187.500000
5153		179.687500
5154		183.593750
5155		175.781250
5156		183.593750
5157		175.781250
5158		179.687500
5159		171.875000
5160		179.687500
5161		171.875000
5162		175.781250
5163		167.968750
5164		171.875000
5165		164.062500
5166		171.875000
5167		164.062500
5168		167.968750
5169		160.156250
5170		167.968750
5171		156.250000
5172		164.062500
5173		152.343750
5174		160.156250
5175		148.437500
5176		156.250000
5177		148.437500
5178		152.343750
5179		144.531250
5180		148.437500
5181		140.625000
5182		144.531250
5183		136.718750
5184		140.625000
5185		132.812500
5186		136.718750
5187		125.000000
5188		132.812500
5189		125.000000
5190		128.906250
5191		117.187500
5192		125.000000
5193		113.281250
5194		121.093750
5195		109.375000
5196		117.187500
5197		105.468750
5198		113.281250
5199		101.562500
5200		105.468750
5201		93.750000
5202		101.562500
5203		89.843750
5204		97.656250
5205		85.937500
5206		93.750000
5207		78.125000
5208		85.937500
5209		74.218750
5210		82.031250
5211		70.312500
5212		78.125000
5213		62.500000
5214		70.312500
5215		58.593750
5216		66.406250
5217		50.781250
5218		62.500000
5219		46.875000
5220		54.687500
5221		42.968750
5222		50.781250
5223		35.156250
5224		42.968750
5225		31.250000
5226		39.062500
5227		27.343750
5228		31.250000
5229		19.531250
5230		27.343750
5231		15.625000
5232		23.437500
5233		7.812500
5234		15.625000
5235		3.906250
5236		11.718750
5237		0.000000
5238		7.812500
5239		-7.812500
5240		0.000000
5241		-11.718750
5242		-3.906250
5243		-19.531250
5244		-11.718750
5245		-23.437500
5246		-15.625000
5247		-27.343750
5248		-23.437500
5249		-35.156250
5250		-27.343750
5251		-39.062500
5252		-31.250000
5253		-42.968750
5254		-35.156250
5255		-50.781250
5256		-42.968750
5257		-54.687500
5258		-46.875000
5259		-58.593750
5260		-54.687500
5261		-66.406250
5262		-58.593750
5263		-70.312500
5264		-62.500000
5265		-74.218750
5266		-66.406250
5267		-78.125000
5268		-74.218750
5269		-82.031250
5270		-78.125000
5271		-89.843750
5272		-82.031250
5273		-93.750000
5274		-85.937500
5275		-97.656250
5276		-89.843750
5277		-101.562500
5278		-93.750000
5279		-105.468750
5280		-97.656250
5281		-109.375000
5282		-101.562500
5283		-113.281250
5284		-105.468750
5285		-113.281250
5286		-109.375000
5287		-117.187500
5288		-113.281250
5289		-121.093750
5290		-117.187500
5291		-125.000000
5292		-117.187500
5293		-128.906250
5294		-121.093750
5295		-128.906250
5296		-125.000000
5297		-132.812500
5298		-128.906250
5299		-136.718750
5300		-128.906250
5301		-136.718750
5302		-132.812500
5303		-140.625000
5304		-136.718750
5305		-140.625000
5306		-136.718750
5307		-144.531250
5308		-136.718750
5309		-144.531250
5310		-140.625000
5311		-144.531250
5312		-140.625000
5313		-144.531250
5314		-144.531250
5315		-148.437500
5316		-144.531250
5317		-148.437500
5318		-144.531250
5319		-148.437500
5320		-144.531250
5321		-148.437500
5322		-144.531250
5323		-148.437500
5324		-144.531250
5325		-148.437500
5326		-144.531250
5327		-148.437500
5328		-144.531250
5329		-148.437500
5330		-144.531250
5331		-148.437500
5332		-144.531250
5333		-144.531250
5334		-140.625000
5335		-144.531250
5336		-140.625000
5337		-144.531250
5338		-140.625000
5339		-140.625000
5340		-136.718750
5341		-140.625000
5342		-132.812500
5343		-136.718750
5344		-132.812500
5345		-136.718750
5346		-132.812500
5347		-132.812500
5348		-128.906250
5349		-132.812500
5350		-125.000000
5351		-128.906250
5352		-125.000000
5353		-128.906250
5354		-121.093750
5355		-125.000000
5356		-117.187500
5357		-121.093750
5358		-113.281250
5359		-117.187500
5360		-113.281250
5361		-113.281250
5362		-109.375000
5363		-109.375000
5364		-105.468750
5365		-105.468750
5366		-101.562500
5367		-101.562500
5368		-97.656250
5369		-97.656250
5370		-93.750000
5371		-93.750000
5372		-89.843750
5373		-89.843750
5374		-82.031250
5375		-85.937500
5376		-78.125000
5377		-82.031250
5378		-74.218750
5379		-78.125000
5380		-70.312500
5381		-70.312500
5382		-66.406250
5383		-66.406250
5384		-58.593750
5385		-62.500000
5386		-54.687500
5387		-58.593750
5388		-50.781250
5389		-50.781250
5390		-42.968750
5391		-46.875000
5392		-39.062500
5393		-42.968750
5394		-35.156250
5395		-35.156250
5396		-27.343750
5397		-31.250000
5398		-23.437500
5399		-23.437500
5400		-15.625000
5401		-19.531250
5402		-11.718750
5403		-11.718750
5404		-7.812500
5405		-7.812500
5406		0.000000
5407		-3.906250
5408		3.906250
5409		3.906250
5410		11.718750
5411		7.812500
5412		15.625000
5413		11.718750
5414		23.437500
5415		19.531250
5416		27.343750
5417		27.343750
5418		35.156250
5419		31.250000
5420		39.062500
5421		35.156250
5422		42.968750
5423		42.968750
5424		50.781250
5425		46.875000
5426		54.687500
5427		54.687500
5428		62.500000
5429		58.593750
5430		66.406250
5431		62.500000
5432		70.312500
5433		70.312500
5434		78.125000
5435		74.218750
5436		82.031250
5437		78.125000
5438		85.937500
5439		85.937500
5440		89.843750
5441		89.843750
5442		97.656250
5443		93.750000
5444		101.562500
5445		97.656250
5446		105.468750
5447		105.468750
5448		109.375000
5449		109.375000
5450		113.281250
5451		113.281250
5452		121.093750
5453		117.187500
5454		125.000000
5455		121.093750
5456		128.906250
5457		125.000000
5458		132.812500
5459		128.906250
5460		136.718750
5461		132.812500
5462		140.625000
5463		136.718750
5464		144.531250
5465		140.625000
5466		148.437500
5467		144.531250
5468		148.437500
5469		148.437500
5470		152.343750
5471		152.343750
5472		156.250000
5473		156.250000
5474		160.156250
5475		156.250000
5476		164.062500
5477		160.156250
5478		164.062500
5479		164.062500
5480		167.968750
5481		164.062500
5482		171.875000
5483		167.968750
5484		171.875000
5485		171.875000
5486		175.781250
5487		171.875000
5488		179.687500
5489		175.781250
5490		179.687500
5491		175.781250
5492		183.593750
5493		179.687500
5494		183.593750
5495		179.687500
5496		187.500000
5497		183.593750
5498		187.500000
5499		183.593750
5500		187.500000
5501		187.500000
5502		191.406250
5503		187.500000
5504		191.406250
5505		187.500000
5506		191.406250
5507		191.406250
5508		195.312500
5509		191.406250
5510		195.312500
5511		191.406250
5512		195.312500
5513		191.406250
5514		195.312500
5515		191.406250
5516		199.218750
5517		195.312500
5518		199.218750
5519		195.312500
5520		199.218750
5521		195.312500
5522		199.218750
5523		195.312500
5524		199.218750
5525		195.312500
5526		199.218750
5527		195.312500
5528		199.218750
5529		195.312500
5530		199.218750
5531		195.312500
5532		199.218750
5533		195.312500
5534		195.312500
5535		191.406250
5536		199.218750
5537		191.406250
5538		195.312500
5539		191.406250
5540		195.312500
5541		191.406250
5542		195.312500
5543		191.406250
5544		195.312500
5545		187.500000
5546		191.406250
5547		187.500000
5548		191.406250
5549		187.500000
5550		187.500000
5551		183.593750
5552		187.500000
5553		179.687500
5554		187.500000
5555		179.687500
5556		183.593750
5557		179.687500
5558		183.593750
5559		175.781250
5560		179.687500
5561		171.875000
5562		179.687500
5563		171.875000
5564		175.781250
5565		167.968750
5566		175.781250
5567		164.062500
5568		171.875000
5569		164.062500
5570		167.968750
5571		160.156250
5572		167.968750
5573		156.250000
5574		164.062500
5575		152.343750
5576		160.156250
5577		152.343750
5578		156.250000
5579		148.437500
5580		152.343750
5581		144.531250
5582		148.437500
5583		140.625000
5584		144.531250
5585		136.718750
5586		140.625000
5587		132.812500
5588		136.718750
5589		128.906250
5590		132.812500
5591		125.000000
5592		128.906250
5593		121.093750
5594		125.000000
5595		113.281250
5596		121.093750
5597		109.375000
5598		117.187500
5599		105.468750
5600		113.281250
5601		101.562500
5602		109.375000
5603		97.656250
5604		105.468750
5605		89.843750
5606		97.656250
5607		85.937500
5608		93.750000
5609		82.031250
5610		89.843750
5611		74.218750
5612		82.031250
5613		70.312500
5614		78.125000
5615		66.406250
5616		74.218750
5617		58.593750
5618		66.406250
5619		54.687500
5620		62.500000
5621		50.781250
5622		58.593750
5623		42.968750
5624		50.781250
5625		39.062500
5626		46.875000
5627		31.250000
5628		39.062500
5629		27.343750
5630		35.156250
5631		23.437500
5632		31.250000
5633		15.625000
5634		23.437500
5635		11.718750
5636		19.531250
5637		3.906250
5638		11.718750
5639		0.000000
5640		7.812500
5641		-7.812500
5642		0.000000
5643		-11.718750
5644		-3.906250
5645		-15.625000
5646		-11.718750
5647		-23.437500
5648		-15.625000
5649		-27.343750
5650		-19.531250
5651		-35.156250
5652		-27.343750
5653		-39.062500
5654		-31.250000
5655		-42.968750
5656		-35.156250
5657		-50.781250
5658		-42.968750
5659		-54.687500
5660		-46.875000
5661		-58.593750
5662		-50.781250
5663		-66.406250
5664		-58.593750
5665		-70.312500
5666		-62.500000
5667		-74.218750
5668		-66.406250
5669		-78.125000
5670		-74.218750
5671		-82.031250
5672		-78.125000
5673		-89.843750
5674		-82.031250
5675		-93.750000
5676		-85.937500
5677		-97.656250
5678		-89.843750
5679		-101.562500
5680		-93.750000
5681		-105.468750
5682		-97.656250
5683		-109.375000
5684		-101.562500
5685		-113.281250
5686		-105.468750
5687		-117.187500
5688		-109.375000
5689		-121.093750
5690		-113.281250
5691		-121.093750
5692		-117.187500
5693		-125.000000
5694		-121.093750
5695		-128.906250
5696		-125.000000
5697		-132.812500
5698		-125.000000
5699		-132.812500
5700		-128.906250
5701		-136.718750
5702		-132.812500
5703		-136.718750
5704		-132.812500
5705		-140.625000
5706		-136.718750
5707		-144.531250
5708		-136.718750
5709		-144.531250
5710		-140.625000
5711		-144.531250
5712		-140.625000
5713		-148.437500
5714		-140.625000
5715		-148.437500
5716		-144.531250
5717		-148.437500
5718		-144.531250
5719		-148.437500
5720		-144.531250
5721		-152.343750
5722		-144.531250
5723		-152.343750
5724		-148.437500
5725		-152.343750
5726		-144.531250
5727		-152.343750
5728		-144.531250
5729		-152.343750
5730		-148.437500
5731		-148.437500
5732		-144.531250
5733		-148.437500
5734		-144.531250
5735		-148.437500
5736		-144.531250
5737		-148.437500
5738		-144.531250
5739		-148.437500
5740		-140.625000
5741		-144.531250
5742		-140.625000
5743		-144.531250
5744		-136.718750
5745		-140.625000
5746		-136.718750
5747		-140.625000
5748		-132.812500
5749		-136.718750
5750		-132.812500
5751		-132.812500
5752		-128.906250
5753		-132.812500
5754		-128.906250
5755		-128.906250
5756		-125.000000
5757		-125.000000
5758		-121.093750
5759		-125.000000
5760		-117.187500
5761		-121.093750
5762		-113.281250
5763		-117.187500
5764		-113.281250
5765		-113.281250
5766		-109.375000
5767		-109.375000
5768		-105.468750
5769		-105.468750
5770		-97.656250
5771		-101.562500
5772		-93.750000
5773		-97.656250
5774		-89.843750
5775		-93.750000
5776		-85.937500
5777		-89.843750
5778		-82.031250
5779		-85.937500
5780		-78.125000
5781		-82.031250
5782		-74.218750
5783		-74.218750
5784		-70.312500
5785		-70.312500
5786		-62.500000
5787		-66.406250
5788		-58.593750
5789		-62.500000
5790		-54.687500
5791		-54.687500
5792		-46.875000
5793		-50.781250
5794		-42.968750
5795		-46.875000
5796		-35.156250
5797		-39.062500
5798		-31.250000
5799		-35.156250
5800		-27.343750
5801		-27.343750
5802		-23.437500
5803		-23.437500
5804		-15.625000
5805		-19.531250
5806		-7.812500
5807		-11.718750
5808		-3.906250
5809		-7.812500
5810		0.000000
5811		0.000000
5812		7.812500
5813		3.906250
5814		11.718750
5815		7.812500
5816		15.625000
5817		15.625000
5818		23.437500
5819		19.531250
5820		27.343750
5821		27.343750
5822		35.156250
5823		31.250000
5824		42.968750
5825		35.156250
5826		46.875000
5827		42.968750
5828		50.781250
5829		46.875000
5830		58.593750
5831		54.687500
5832		62.500000
5833		58.593750
5834		66.406250
5835		66.406250
5836		74.218750
5837		70.312500
5838		78.125000
5839		74.218750
5840		82.031250
5841		82.031250
5842		85.937500
5843		85.937500
5844		93.750000
5845		89.843750
5846		97.656250
5847		93.750000
5848		101.562500
5849		101.562500
5850		105.468750
5851		105.468750
5852		109.375000
5853		109.375000
5854		117.187500
5855		113.281250
5856		121.093750
5857		117.187500
5858		125.000000
5859		121.093750
5860		128.906250
5861		125.000000
5862		132.812500
5863		128.906250
5864		136.718750
5865		132.812500
5866		140.625000
5867		136.718750
5868		144.531250
5869		140.625000
5870		148.437500
5871		144.531250
5872		152.343750
5873		148.437500
5874		156.250000
5875		152.343750
5876		156.250000
5877		156.250000
5878		160.156250
5879		156.250000
5880		164.062500
5881		160.156250
5882		167.968750
5883		164.062500
5884		167.968750
5885		167.968750
5886		171.875000
5887		171.875000
5888		175.781250
5889		171.875000
5890		175.781250
5891		175.781250
5892		179.687500
5893		175.781250
5894		179.687500
5895		179.687500
5896		183.593750
5897		179.687500
5898		183.593750
5899		183.593750
5900		187.500000
5901		183.593750
5902		187.500000
5903		187.500000
5904		191.406250
5905		187.500000
5906		191.406250
5907		187.500000
5908		191.406250
5909		191.406250
5910		195.312500
5911		191.406250
5912		195.312500
5913		191.406250
5914		195.312500
5915		191.406250
5916		195.312500
5917		195.312500
5918		199.218750
5919		195.312500
5920		199.218750
5921		195.312500
5922		199.218750
5923		195.312500
5924		199.218750
5925		195.312500
5926		199.218750
5927		195.312500
5928		199.218750
5929		195.312500
5930		199.218750
5931		195.312500
5932		199.218750
5933		195.312500
5934		199.218750
5935		195.312500
5936		199.218750
5937		191.406250
5938		199.218750
5939		191.406250
5940		199.218750
5941		191.406250
5942		199.218750
5943		191.406250
5944		199.218750
5945		191.406250
5946		195.312500
5947		191.406250
5948		191.406250
5949		187.500000
5950		191.406250
5951		187.500000
5952		191.406250
5953		183.593750
5954		191.406250
5955		183.593750
5956		191.406250
5957		179.687500
5958		187.500000
5959		175.781250
5960		187.500000
5961		175.781250
5962		183.593750
5963		175.781250
5964		179.687500
5965		171.875000
5966		175.781250
5967		171.875000
5968		175.781250
5969		167.968750
5970		171.875000
5971		164.062500
5972		171.875000
5973		160.156250
5974		167.968750
5975		156.250000
5976		167.968750
5977		156.250000
5978		164.062500
5979		152.343750
5980		160.156250
5981		148.437500
5982		156.250000
5983		144.531250
5984		152.343750
5985		140.625000
5986		148.437500
5987		140.625000
5988		144.531250
5989		132.812500
5990		144.531250
5991		128.906250
5992		140.625000
5993		125.000000
5994		136.718750
5995		121.093750
5996		128.906250
5997		117.187500
5998		125.000000
5999		113.281250
6000		121.093750
6001		109.375000
6002		117.187500
6003		105.468750
6004		109.375000
6005		97.656250
6006		109.375000
6007		89.843750
6008		101.562500
6009		85.937500
6010		97.656250
6011		85.937500
6012		93.750000
6013		78.125000
6014		85.937500
6015		74.218750
6016		82.031250
6017		70.312500
6018		74.218750
6019		62.500000
6020		70.312500
6021		54.687500
6022		66.406250
6023		50.781250
6024		62.500000
6025		42.968750
6026		58.593750
6027		42.968750
6028		54.687500
6029		35.156250
6030		42.968750
6031		31.250000
6032		39.062500
6033		27.343750
6034		31.250000
6035		19.531250
6036		27.343750
6037		15.625000
6038		23.437500
6039		7.812500
6040		19.531250
6041		0.000000
6042		11.718750
6043		-3.906250
6044		7.812500
6045		-7.812500
6046		0.000000
6047		-11.718750
6048		-7.812500
6049		-19.531250
6050		-11.718750
6051		-23.437500
6052		-15.625000
6053		-31.250000
6054		-23.437500
6055		-39.062500
6056		-27.343750
6057		-42.968750
6058		-27.343750
6059		-46.875000
6060		-35.156250
6061		-50.781250
6062		-39.062500
6063		-54.687500
6064		-50.781250
6065		-62.500000
6066		-54.687500
6067		-66.406250
6068		-58.593750
6069		-70.312500
6070		-66.406250
6071		-74.218750
6072		-70.312500
6073		-82.031250
6074		-70.312500
6075		-85.937500
6076		-74.218750
6077		-89.843750
6078		-78.125000
6079		-93.750000
6080		-85.937500
6081		-97.656250
6082		-89.843750
6083		-101.562500
6084		-97.656250
6085		-105.468750
6086		-101.562500
6087		-109.375000
6088		-105.468750
6089		-117.187500
6090		-105.468750
6091		-121.093750
6092		-109.375000
6093		-121.093750
6094		-113.281250
6095		-125.000000
6096		-117.187500
6097		-125.000000
6098		-121.093750
6099		-128.906250
6100		-125.000000
6101		-132.812500
6102		-125.000000
6103		-132.812500
6104		-128.906250
6105		-136.718750
6106		-132.812500
6107		-140.625000
6108		-128.906250
6109		-144.531250
6110		-132.812500
6111		-144.531250
6112		-136.718750
6113		-144.531250
6114		-140.625000
6115		-144.531250
6116		-140.625000
6117		-148.437500
6118		-144.531250
6119		-148.437500
6120		-144.531250
6121		-148.437500
6122		-144.531250
6123		-148.437500
6124		-144.531250
6125		-152.343750
6126		-144.531250
6127		-152.343750
6128		-144.531250
6129		-148.437500
6130		-144.531250
6131		-148.437500
6132		-148.437500
6133		-148.437500
6134		-144.531250
6135		-148.437500
6136		-144.531250
6137		-148.437500
6138		-144.531250
6139		-148.437500
6140		-144.531250
6141		-148.437500
6142		-140.625000
6143		-148.437500
6144		-140.625000
6145		-144.531250
6146		-140.625000
6147		-144.531250
6148		-136.718750
6149		-140.625000
6150		-136.718750
6151		-136.718750
6152		-132.812500
6153		-136.718750
6154		-132.812500
6155		-136.718750
6156		-128.906250
6157		-132.812500
6158		-125.000000
6159		-128.906250
6160		-121.093750
6161		-128.906250
6162		-121.093750
6163		-121.093750
6164		-117.187500
6165		-121.093750
6166		-113.281250
6167		-117.187500
6168		-109.375000
6169		-113.281250
6170		-105.468750
6171		-109.375000
6172		-101.562500
6173		-105.468750
6174		-97.656250
6175		-101.562500
6176		-93.750000
6177		-97.656250
6178		-89.843750
6179		-93.750000
6180		-85.937500
6181		-89.843750
6182		-82.031250
6183		-82.031250
6184		-78.125000
6185		-78.125000
6186		-74.218750
6187		-74.218750
6188		-66.406250
6189		-70.312500
6190		-62.500000
6191		-62.500000
6192		-58.593750
6193		-58.593750
6194		-50.781250
6195		-54.687500
6196		-46.875000
6197		-50.781250
6198		-42.968750
6199		-42.968750
6200		-35.156250
6201		-39.062500
6202		-31.250000
6203		-31.250000
6204		-27.343750
6205		-27.343750
6206		-19.531250
6207		-23.437500
6208		-15.625000
6209		-15.625000
6210		-7.812500
6211		-11.718750
6212		-3.906250
6213		-3.906250
6214		3.906250
6215		0.000000
6216		7.812500
6217		7.812500
6218		11.718750
6219		11.718750
6220		19.531250
6221		15.625000
6222		27.343750
6223		23.437500
6224		31.250000
6225		27.343750
6226		35.156250
6227		35.156250
6228		42.968750
6229		39.062500
6230		46.875000
6231		42.968750
6232		50.781250
6233		50.781250
6234		58.593750
6235		54.687500
6236		62.500000
6237		62.500000
6238		66.406250
6239		66.406250
6240		74.218750
6241		70.312500
6242		78.125000
6243		78.125000
6244		82.031250
6245		82.031250
6246		89.843750
6247		85.937500
6248		93.750000
6249		89.843750
6250		97.656250
6251		97.656250
6252		101.562500
6253		101.562500
6254		109.375000
6255		105.468750
6256		113.281250
6257		109.375000
6258		117.187500
6259		113.281250
6260		121.093750
6261		121.093750
6262		125.000000
6263		125.000000
6264		128.906250
6265		125.000000
6266		132.812500
6267		132.812500
6268		136.718750
6269		136.718750
6270		140.625000
6271		140.625000
6272		144.531250
6273		144.531250
6274		148.437500
6275		144.531250
6276		152.343750
6277		148.437500
6278		156.250000
6279		152.343750
6280		156.250000
6281		156.250000
6282		164.062500
6283		156.250000
6284		164.062500
6285		164.062500
6286		167.968750
6287		164.062500
6288		167.968750
6289		167.968750
6290		171.875000
6291		167.968750
6292		175.781250
6293		171.875000
6294		175.781250
6295		175.781250
6296		179.687500
6297		175.781250
6298		179.687500
6299		179.687500
6300		183.593750
6301		179.687500
6302		183.593750
6303		183.593750
6304		187.500000
6305		183.593750
6306		187.500000
6307		187.500000
6308		191.406250
6309		187.500000
6310		191.406250
6311		187.500000
6312		191.406250
6313		191.406250
6314		195.312500
6315		191.406250
6316		195.312500
6317		191.406250
6318		195.312500
6319		191.406250
6320		195.312500
6321		191.406250
6322		195.312500
6323		195.312500
6324		195.312500
6325		195.312500
6326		199.218750
6327		195.312500
6328		199.218750
6329		195.312500
6330		199.218750
6331		195.312500
6332		199.218750
6333		195.312500
6334		199.218750
6335		195.312500
6336		199.218750
6337		195.312500
6338		199.218750
6339		195.312500
6340		199.218750
6341		191.406250
6342		199.218750
6343		191.406250
6344		195.312500
6345		191.406250
6346		195.312500
6347		191.406250
6348		195.312500
6349		187.500000
6350		195.312500
6351		187.500000
6352		191.406250
6353		187.500000
6354		191.406250
6355		187.500000
6356		191.406250
6357		183.593750
6358		187.500000
6359		183.593750
6360		187.500000
6361		179.687500
6362		183.593750
6363		179.687500
6364		183.593750
6365		175.781250
6366		179.687500
6367		171.875000
6368		179.687500
6369		171.875000
6370		175.781250
6371		167.968750
6372		171.875000
6373		167.968750
6374		171.875000
6375		164.062500
6376		167.968750
6377		160.156250
6378		167.968750
6379		156.250000
6380		164.062500
6381		152.343750
6382		160.156250
6383		152.343750
6384		156.250000
6385		148.437500
6386		152.343750
6387		144.531250
6388		148.437500
6389		140.625000
6390		144.531250
6391		136.718750
6392		140.625000
6393		132.812500
6394		140.625000
6395		128.906250
6396		132.812500
6397		125.000000
6398		128.906250
6399		121.093750
6400		125.000000
6401		113.281250
6402		121.093750
6403		109.375000
6404		117.187500
6405		105.468750
6406		113.281250
6407		101.562500
6408		109.375000
6409		97.656250
6410		105.468750
6411		93.750000
6412		97.656250
6413		85.937500
6414		93.750000
6415		82.031250
6416		89.843750
6417		78.125000
6418		82.031250
6419		70.312500
6420		78.125000
6421		66.406250
6422		74.218750
6423		62.500000
6424		66.406250
6425		54.687500
6426		62.500000
6427		50.781250
6428		58.593750
6429		42.968750
6430		50.781250
6431		39.062500
6432		46.875000
6433		35.156250
6434		42.968750
6435		27.343750
6436		35.156250
6437		23.437500
6438		31.250000
6439		15.625000
6440		23.437500
6441		11.718750
6442		19.531250
6443		3.906250
6444		15.625000
6445		0.000000
6446		7.812500
6447		-3.906250
6448		0.000000
6449		-11.718750
6450		-3.906250
6451		-15.625000
6452		-7.812500
6453		-23.437500
6454		-15.625000
6455		-27.343750
6456		-19.531250
6457		-31.250000
6458		-27.343750
6459		-39.062500
6460		-31.250000
6461		-42.968750
6462		-35.156250
6463		-50.781250
6464		-42.968750
6465		-54.687500
6466		-46.875000
6467		-58.593750
6468		-50.781250
6469		-62.500000
6470		-58.593750
6471		-70.312500
6472		-62.500000
6473		-74.218750
6474		-66.406250
6475		-78.125000
6476		-70.312500
6477		-82.031250
6478		-78.125000
6479		-89.843750
6480		-82.031250
6481		-93.750000
6482		-85.937500
6483		-97.656250
6484		-89.843750
6485		-101.562500
6486		-93.750000
6487		-105.468750
6488		-97.656250
6489		-109.375000
6490		-101.562500
6491		-113.281250
6492		-105.468750
6493		-113.281250
6494		-109.375000
6495		-117.187500
6496		-113.281250
6497		-121.093750
6498		-117.187500
6499		-125.000000
6500		-121.093750
6501		-128.906250
6502		-125.000000
6503		-132.812500
6504		-125.000000
6505		-132.812500
6506		-128.906250
6507		-136.718750
6508		-132.812500
6509		-136.718750
6510		-132.812500
6511		-140.625000
6512		-136.718750
6513		-140.625000
6514		-136.718750
6515		-144.531250
6516		-140.625000
6517		-144.531250
6518		-140.625000
6519		-148.437500
6520		-144.531250
6521		-148.437500
6522		-144.531250
6523		-148.437500
6524		-144.531250
6525		-152.343750
6526		-144.531250
6527		-148.437500
6528		-144.531250
6529		-152.343750
6530		-148.437500
6531		-152.343750
6532		-148.437500
6533		-152.343750
6534		-148.437500
6535		-148.437500
6536		-148.437500
6537		-152.343750
6538		-144.531250
6539		-148.437500
6540		-144.531250
6541		-148.437500
6542		-144.531250
6543		-148.437500
6544		-144.531250
6545		-148.437500
6546		-144.531250
6547		-144.531250
6548		-140.625000
6549		-144.531250
6550		-140.625000
6551		-140.625000
6552		-136.718750
6553		-140.625000
6554		-136.718750
6555		-136.718750
6556		-132.812500
6557		-136.718750
6558		-132.812500
6559		-132.812500
6560		-128.906250
6561		-132.812500
6562		-125.000000
6563		-128.906250
6564		-121.093750
6565		-125.000000
6566		-121.093750
6567		-121.093750
6568		-117.187500
6569		-117.187500
6570		-113.281250
6571		-113.281250
6572		-109.375000
6573		-113.281250
6574		-105.468750
6575		-109.375000
6576		-101.562500
6577		-105.468750
6578		-97.656250
6579		-101.562500
6580		-93.750000
6581		-93.750000
6582		-89.843750
6583		-89.843750
6584		-85.937500
6585		-85.937500
6586		-82.031250
6587		-82.031250
6588		-74.218750
6589		-78.125000
6590		-70.312500
6591		-70.312500
6592		-66.406250
6593		-66.406250
6594		-58.593750
6595		-62.500000
6596		-54.687500
6597		-58.593750
6598		-50.781250
6599		-50.781250
6600		-42.968750
6601		-46.875000
6602		-39.062500
6603		-39.062500
6604		-35.156250
6605		-35.156250
6606		-27.343750
6607		-31.250000
6608		-23.437500
6609		-23.437500
6610		-15.625000
6611		-19.531250
6612		-11.718750
6613		-15.625000
6614		-7.812500
6615		-7.812500
6616		0.000000
6617		-3.906250
6618		3.906250
6619		3.906250
6620		11.718750
6621		7.812500
6622		15.625000
6623		15.625000
6624		23.437500
6625		19.531250
6626		27.343750
6627		23.437500
6628		35.156250
6629		31.250000
6630		39.062500
6631		35.156250
6632		42.968750
6633		42.968750
6634		50.781250
6635		46.875000
6636		54.687500
6637		54.687500
6638		58.593750
6639		58.593750
6640		66.406250
6641		62.500000
6642		70.312500
6643		70.312500
6644		78.125000
6645		70.312500
6646		82.031250
6647		78.125000
6648		85.937500
6649		85.937500
6650		89.843750
6651		89.843750
6652		97.656250
6653		93.750000
6654		101.562500
6655		97.656250
6656		105.468750
6657		101.562500
6658		109.375000
6659		109.375000
6660		113.281250
6661		113.281250
6662		117.187500
6663		117.187500
6664		125.000000
6665		121.093750
6666		128.906250
6667		125.000000
6668		132.812500
6669		128.906250
6670		136.718750
6671		132.812500
6672		140.625000
6673		136.718750
6674		144.531250
6675		140.625000
6676		144.531250
6677		144.531250
6678		152.343750
6679		144.531250
6680		152.343750
6681		152.343750
6682		156.250000
6683		152.343750
6684		160.156250
6685		156.250000
6686		164.062500
6687		160.156250
6688		164.062500
6689		164.062500
6690		167.968750
6691		167.968750
6692		171.875000
6693		167.968750
6694		175.781250
6695		171.875000
6696		175.781250
6697		171.875000
6698		179.687500
6699		175.781250
6700		179.687500
6701		175.781250
6702		183.593750
6703		179.687500
6704		183.593750
6705		183.593750
6706		187.500000
6707		183.593750
6708		187.500000
6709		183.593750
6710		187.500000
6711		183.593750
6712		191.406250
6713		187.500000
6714		191.406250
6715		187.500000
6716		191.406250
6717		191.406250
6718		195.312500
6719		191.406250
6720		195.312500
6721		191.406250
6722		195.312500
6723		191.406250
6724		195.312500
6725		195.312500
6726		199.218750
6727		195.312500
6728		199.218750
6729		191.406250
6730		199.218750
6731		195.312500
6732		199.218750
6733		195.312500
6734		199.218750
6735		195.312500
6736		199.218750
6737		195.312500
6738		199.218750
6739		195.312500
6740		199.218750
6741		195.312500
6742		199.218750
6743		195.312500
6744		199.218750
6745		191.406250
6746		199.218750
6747		191.406250
6748		195.312500
6749		191.406250
6750		195.312500
6751		191.406250
6752		195.312500
6753		191.406250
6754		195.312500
6755		187.500000
6756		191.406250
6757		187.500000
6758		191.406250
6759		183.593750
6760		191.406250
6761		183.593750
6762		187.500000
6763		183.593750
6764		187.500000
6765		179.687500
6766		183.593750
6767		179.687500
6768		183.593750
6769		175.781250
6770		179.687500
6771		171.875000
6772		179.687500
6773		171.875000
6774		175.781250
6775		167.968750
6776		171.875000
6777		164.062500
6778		171.875000
6779		164.062500
6780		167.968750
6781		160.156250
6782		164.062500
6783		156.250000
6784		164.062500
6785		152.343750
6786		160.156250
6787		152.343750
6788		156.250000
6789		148.437500
6790		152.343750
6791		144.531250
6792		148.437500
6793		140.625000
6794		144.531250
6795		136.718750
6796		140.625000
6797		132.812500
6798		140.625000
6799		128.906250
6800		132.812500
6801		125.000000
6802		128.906250
6803		121.093750
6804		125.000000
6805		113.281250
6806		121.093750
6807		109.375000
6808		117.187500
6809		105.468750
6810		113.281250
6811		101.562500
6812		109.375000
6813		97.656250
6814		101.562500
6815		89.843750
6816		97.656250
6817		85.937500
6818		93.750000
6819		82.031250
6820		85.937500
6821		74.218750
6822		82.031250
6823		70.312500
6824		78.125000
6825		66.406250
6826		70.312500
6827		58.593750
6828		66.406250
6829		54.687500
6830		62.500000
6831		50.781250
6832		54.687500
6833		42.968750
6834		50.781250
6835		39.062500
6836		46.875000
6837		31.250000
6838		39.062500
6839		27.343750
6840		35.156250
6841		19.531250
6842		27.343750
6843		15.625000
6844		23.437500
6845		7.812500
6846		15.625000
6847		3.906250
6848		11.718750
6849		0.000000
6850		3.906250
6851		-7.812500
6852		0.000000
6853		-11.718750
6854		-3.906250
6855		-19.531250
6856		-11.718750
6857		-23.437500
6858		-15.625000
6859		-27.343750
6860		-23.437500
6861		-35.156250
6862		-27.343750
6863		-39.062500
6864		-31.250000
6865		-42.968750
6866		-39.062500
6867		-50.781250
6868		-42.968750
6869		-54.687500
6870		-46.875000
6871		-58.593750
6872		-54.687500
6873		-66.406250
6874		-58.593750
6875		-70.312500
6876		-62.500000
6877		-74.218750
6878		-66.406250
6879		-78.125000
6880		-74.218750
6881		-85.937500
6882		-78.125000
6883		-89.843750
6884		-82.031250
6885		-93.750000
6886		-85.937500
6887		-97.656250
6888		-89.843750
6889		-101.562500
6890		-93.750000
6891		-105.468750
6892		-97.656250
6893		-109.375000
6894		-101.562500
6895		-113.281250
6896		-105.468750
6897		-117.187500
6898		-109.375000
6899		-121.093750
6900		-113.281250
6901		-125.000000
6902		-117.187500
6903		-125.000000
6904		-121.093750
6905		-128.906250
6906		-125.000000
6907		-132.812500
6908		-125.000000
6909		-132.812500
6910		-128.906250
6911		-136.718750
6912		-132.812500
6913		-136.718750
6914		-132.812500
6915		-140.625000
6916		-136.718750
6917		-140.625000
6918		-136.718750
6919		-144.531250
6920		-140.625000
6921		-144.531250
6922		-140.625000
6923		-148.437500
6924		-144.531250
6925		-148.437500
6926		-144.531250
6927		-148.437500
6928		-144.531250
6929		-148.437500
6930		-144.531250
6931		-148.437500
6932		-144.531250
6933		-148.437500
6934		-148.437500
6935		-148.437500
6936		-144.531250
6937		-148.437500
6938		-148.437500
6939		-148.437500
6940		-148.437500
6941		-148.437500
6942		-144.531250
6943		-148.437500
6944		-144.531250
6945		-148.437500
6946		-144.531250
6947		-148.437500
6948		-144.531250
6949		-144.531250
6950		-140.625000
6951		-144.531250
6952		-140.625000
6953		-140.625000
6954		-140.625000
6955		-140.625000
6956		-136.718750
6957		-140.625000
6958		-136.718750
6959		-136.718750
6960		-132.812500
6961		-132.812500
6962		-128.906250
6963		-132.812500
6964		-128.906250
6965		-128.906250
6966		-125.000000
6967		-125.000000
6968		-121.093750
6969		-125.000000
6970		-117.187500
6971		-121.093750
6972		-113.281250
6973		-117.187500
6974		-113.281250
6975		-113.281250
6976		-105.468750
6977		-109.375000
6978		-101.562500
6979		-105.468750
6980		-101.562500
6981		-101.562500
6982		-97.656250
6983		-97.656250
6984		-89.843750
6985		-93.750000
6986		-85.937500
6987		-89.843750
6988		-82.031250
6989		-85.937500
6990		-78.125000
6991		-78.125000
6992		-74.218750
6993		-74.218750
6994		-66.406250
6995		-70.312500
6996		-62.500000
6997		-66.406250
6998		-58.593750
6999		-58.593750
7000		-50.781250
7001		-54.687500
7002		-46.875000
7003		-50.781250
7004		-42.968750
7005		-42.968750
7006		-35.156250
7007		-39.062500
7008		-31.250000
7009		-35.156250
7010		-27.343750
7011		-27.343750
7012		-19.531250
7013		-23.437500
7014		-15.625000
7015		-15.625000
7016		-7.812500
7017		-11.718750
7018		-3.906250
7019		-3.906250
7020		0.000000
7021		0.000000
7022		7.812500
7023		3.906250
7024		11.718750
7025		11.718750
7026		19.531250
7027		15.625000
7028		23.437500
7029		23.437500
7030		31.250000
7031		27.343750
7032		35.156250
7033		31.250000
7034		39.062500
7035		39.062500
7036		46.875000
7037		42.968750
7038		50.781250
7039		50.781250
7040		58.593750
7041		54.687500
7042		62.500000
7043		58.593750
7044		66.406250
7045		66.406250
7046		74.218750
7047		70.312500
7048		78.125000
7049		78.125000
7050		82.031250
7051		82.031250
7052		85.937500
7053		85.937500
7054		93.750000
7055		89.843750
7056		97.656250
7057		97.656250
7058		101.562500
7059		101.562500
7060		105.468750
7061		105.468750
7062		113.281250
7063		109.375000
7064		117.187500
7065		113.281250
7066		121.093750
7067		117.187500
7068		125.000000
7069		121.093750
7070		128.906250
7071		125.000000
7072		132.812500
7073		132.812500
7074		136.718750
7075		136.718750
7076		140.625000
7077		136.718750
7078		144.531250
7079		140.625000
7080		148.437500
7081		144.531250
7082		152.343750
7083		148.437500
7084		152.343750
7085		152.343750
7086		156.250000
7087		156.250000
7088		160.156250
7089		160.156250
7090		164.062500
7091		160.156250
7092		167.968750
7093		164.062500
7094		167.968750
7095		167.968750
7096		171.875000
7097		167.968750
7098		175.781250
7099		171.875000
7100		175.781250
7101		175.781250
7102		179.687500
7103		175.781250
7104		179.687500
7105		179.687500
7106		183.593750
7107		179.687500
7108		187.500000
7109		183.593750
7110		187.500000
7111		183.593750
7112		187.500000
7113		187.500000
7114		191.406250
7115		187.500000
7116		191.406250
7117		187.500000
7118		191.406250
7119		191.406250
7120		195.312500
7121		191.406250
7122		195.312500
7123		191.406250
7124		195.312500
7125		191.406250
7126		195.312500
7127		195.312500
7128		199.218750
7129		195.312500
7130		199.218750
7131		195.312500
7132		199.218750
7133		195.312500
7134		199.218750
7135		195.312500
7136		199.218750
7137		195.312500
7138		199.218750
7139		195.312500
7140		199.218750
7141		195.312500
7142		199.218750
7143		195.312500
7144		199.218750
7145		195.312500
7146		199.218750
7147		195.312500
7148		195.312500
7149		195.312500
7150		195.312500
7151		191.406250
7152		195.312500
7153		191.406250
7154		195.312500
7155		191.406250
7156		195.312500
7157		187.500000
7158		195.312500
7159		187.500000
7160		191.406250
7161		187.500000
7162		191.406250
7163		183.593750
7164		187.500000
7165		183.593750
7166		187.500000
7167		179.687500
7168		187.500000
7169		179.687500
7170		183.593750
7171		175.781250
7172		179.687500
7173		175.781250
7174		179.687500
7175		171.875000
7176		175.781250
7177		171.875000
7178		175.781250
7179		167.968750
7180		171.875000
7181		164.062500
7182		171.875000
7183		164.062500
7184		167.968750
7185		160.156250
7186		164.062500
7187		156.250000
7188		160.156250
7189		152.343750
7190		156.250000
7191		148.437500
7192		156.250000
7193		144.531250
7194		152.343750
7195		144.531250
7196		148.437500
7197		140.625000
7198		144.531250
7199		132.812500
7200		140.625000
7201		128.906250
7202		136.718750
7203		125.000000
7204		132.812500
7205		121.093750
7206		128.906250
7207		117.187500
7208		125.000000
7209		113.281250
7210		121.093750
7211		109.375000
7212		117.187500
7213		105.468750
7214		109.375000
7215		97.656250
7216		105.468750
7217		93.750000
7218		101.562500
7219		89.843750
7220		97.656250
7221		85.937500
7222		89.843750
7223		78.125000
7224		85.937500
7225		74.218750
7226		82.031250
7227		70.312500
7228		74.218750
7229		62.500000
7230		70.312500
7231		58.593750
7232		66.406250
7233		54.687500
7234		58.593750
7235		46.875000
7236		54.687500
7237		42.968750
7238		50.781250
7239		35.156250
7240		42.968750
7241		31.250000
7242		39.062500
7243		23.437500
7244		31.250000
7245		19.531250
7246		27.343750
7247		15.625000
7248		19.531250
7249		7.812500
7250		15.625000
7251		3.906250
7252		11.718750
7253		-3.906250
7254		3.906250
7255		-7.812500
7256		0.000000
7257		-15.625000
7258		-7.812500
7259		-19.531250
7260		-11.718750
7261		-23.437500
7262		-19.531250
7263		-31.250000
7264		-23.437500
7265		-35.156250
7266		-27.343750
7267		-39.062500
7268		-35.156250
7269		-46.875000
7270		-39.062500
7271		-50.781250
7272		-42.968750
7273		-54.687500
7274		-50.781250
7275		-62.500000
7276		-54.687500
7277		-66.406250
7278		-58.593750
7279		-70.312500
7280		-66.406250
7281		-74.218750
7282		-70.312500
7283		-82.031250
7284		-74.218750
7285		-85.937500
7286		-78.125000
7287		-89.843750
7288		-82.031250
7289		-93.750000
7290		-85.937500
7291		-97.656250
7292		-89.843750
7293		-101.562500
7294		-97.656250
7295		-105.468750
7296		-97.656250
7297		-109.375000
7298		-101.562500
7299		-113.281250
7300		-105.468750
7301		-117.187500
7302		-109.375000
7303		-121.093750
7304		-113.281250
7305		-125.000000
7306		-117.187500
7307		-125.000000
7308		-121.093750
7309		-128.906250
7310		-125.000000
7311		-132.812500
7312		-125.000000
7313		-132.812500
7314		-128.906250
7315		-136.718750
7316		-132.812500
7317		-136.718750
7318		-132.812500
7319		-140.625000
7320		-136.718750
7321		-140.625000
7322		-136.718750
7323		-144.531250
7324		-140.625000
7325		-144.531250
7326		-140.625000
7327		-144.531250
7328		-140.625000
7329		-148.437500
7330		-144.531250
7331		-148.437500
7332		-144.531250
7333		-148.437500
7334		-144.531250
7335		-148.437500
7336		-144.531250
7337		-148.437500
7338		-144.531250
7339		-148.437500
7340		-144.531250
7341		-148.437500
7342		-144.531250
7343		-148.437500
7344		-144.531250
7345		-148.437500
7346		-144.531250
7347		-148.437500
7348		-144.531250
7349		-144.531250
7350		-140.625000
7351		-144.531250
7352		-140.625000
7353		-144.531250
7354		-140.625000
7355		-140.625000
7356		-136.718750
7357		-140.625000
7358		-136.718750
7359		-136.718750
7360		-132.812500
7361		-136.718750
7362		-132.812500
7363		-132.812500
7364		-128.906250
7365		-132.812500
7366		-128.906250
7367		-128.906250
7368		-125.000000
7369		-125.000000
7370		-121.093750
7371		-125.000000
7372		-117.187500
7373		-121.093750
7374		-113.281250
7375		-117.187500
7376		-113.281250
7377		-113.281250
7378		-109.375000
7379		-109.375000
7380		-105.468750
7381		-105.468750
7382		-101.562500
7383		-101.562500
7384		-97.656250
7385		-97.656250
7386		-93.750000
7387		-93.750000
7388		-89.843750
7389		-89.843750
7390		-82.031250
7391		-85.937500
7392		-78.125000
7393		-82.031250
7394		-74.218750
7395		-78.125000
7396		-70.312500
7397		-70.312500
7398		-66.406250
7399		-66.406250
7400		-58.593750
7401		-62.500000
7402		-54.687500
7403		-58.593750
7404		-50.781250
7405		-50.781250
7406		-42.968750
7407		-46.875000
7408		-39.062500
7409		-42.968750
7410		-35.156250
7411		-35.156250
7412		-27.343750
7413		-31.250000
7414		-23.437500
7415		-23.437500
7416		-19.531250
7417		-19.531250
7418		-11.718750
7419		-15.625000
7420		-7.812500
7421		-7.812500
7422		0.000000
7423		-3.906250
7424		3.906250
7425		3.906250
7426		11.718750
7427		7.812500
7428		15.625000
7429		15.625000
7430		23.437500
7431		19.531250
7432		27.343750
7433		27.343750
7434		35.156250
7435		31.250000
7436		39.062500
7437		35.156250
7438		42.968750
7439		42.968750
7440		50.781250
7441		46.875000
7442		54.687500
7443		54.687500
7444		58.593750
7445		58.593750
7446		66.406250
7447		62.500000
7448		70.312500
7449		70.312500
7450		74.218750
7451		74.218750
7452		82.031250
7453		78.125000
7454		85.937500
7455		85.937500
7456		89.843750
7457		89.843750
7458		97.656250
7459		93.750000
7460		101.562500
7461		97.656250
7462		105.468750
7463		105.468750
7464		109.375000
7465		109.375000
7466		113.281250
7467		113.281250
7468		121.093750
7469		117.187500
7470		125.000000
7471		121.093750
7472		128.906250
7473		125.000000
7474		132.812500
7475		128.906250
7476		136.718750
7477		132.812500
7478		140.625000
7479		136.718750
7480		144.531250
7481		140.625000
7482		148.437500
7483		144.531250
7484		152.343750
7485		148.437500
7486		152.343750
7487		152.343750
7488		156.250000
7489		156.250000
7490		160.156250
7491		156.250000
7492		164.062500
7493		160.156250
7494		164.062500
7495		164.062500
7496		167.968750
7497		167.968750
7498		171.875000
7499		167.968750
7500		175.781250
7501		171.875000
7502		175.781250
7503		175.781250
7504		179.687500
7505		175.781250
7506		179.687500
7507		179.687500
7508		183.593750
7509		179.687500
7510		183.593750
7511		183.593750
7512		187.500000
7513		183.593750
7514		187.500000
7515		187.500000
7516		191.406250
7517		187.500000
7518		191.406250
7519		187.500000
7520		191.406250
7521		191.406250
7522		195.312500
7523		191.406250
7524		195.312500
7525		191.406250
7526		195.312500
7527		191.406250
7528		195.312500
7529		195.312500
7530		199.218750
7531		195.312500
7532		199.218750
7533		195.312500
7534		199.218750
7535		195.312500
7536		199.218750
7537		195.312500
7538		199.218750
7539		195.312500
7540		199.218750
7541		195.312500
7542		199.218750
7543		195.312500
7544		199.218750
7545		195.312500
7546		199.218750
7547		195.312500
7548		199.218750
7549		195.312500
7550		199.218750
7551		195.312500
7552		199.218750
7553		195.312500
7554		195.312500
7555		191.406250
7556		195.312500
7557		191.406250
7558		195.312500
7559		191.406250
7560		195.312500
7561		191.406250
7562		191.406250
7563		187.500000
7564		191.406250
7565		187.500000
7566		191.406250
7567		183.593750
7568		187.500000
7569		183.593750
7570		187.500000
7571		179.687500
7572		183.593750
7573		179.687500
7574		183.593750
7575		175.781250
7576		183.593750
7577		175.781250
7578		179.687500
7579		171.875000
7580		175.781250
7581		171.875000
7582		175.781250
7583		167.968750
7584		171.875000
7585		164.062500
7586		167.968750
7587		164.062500
7588		167.968750
7589		160.156250
7590		164.062500
7591		156.250000
7592		160.156250
7593		152.343750
7594		156.250000
7595		148.437500
7596		156.250000
7597		144.531250
7598		152.343750
7599		140.625000
7600		148.437500
7601		136.718750
7602		144.531250
7603		132.812500
7604		140.625000
7605		128.906250
7606		136.718750
7607		125.000000
7608		132.812500
7609		121.093750
7610		128.906250
7611		117.187500
7612		125.000000
7613		109.375000
7614		117.187500
7615		109.375000
7616		113.281250
7617		101.562500
7618		109.375000
7619		97.656250
7620		105.468750
7621		93.750000
7622		101.562500
7623		89.843750
7624		97.656250
7625		82.031250
7626		89.843750
7627		78.125000
7628		85.937500
7629		74.218750
7630		82.031250
7631		66.406250
7632		78.125000
7633		62.500000
7634		70.312500
7635		54.687500
7636		66.406250
7637		50.781250
7638		58.593750
7639		46.875000
7640		54.687500
7641		39.062500
7642		46.875000
7643		35.156250
7644		42.968750
7645		31.250000
7646		35.156250
7647		23.437500
7648		31.250000
7649		19.531250
7650		27.343750
7651		11.718750
7652		19.531250
7653		7.812500
7654		15.625000
7655		0.000000
7656		11.718750
7657		-3.906250
7658		3.906250
7659		-7.812500
7660		0.000000
7661		-15.625000
7662		-7.812500
7663		-19.531250
7664		-11.718750
7665		-27.343750
7666		-15.625000
7667		-31.250000
7668		-23.437500
7669		-35.156250
7670		-27.343750
7671		-42.968750
7672		-35.156250
7673		-46.875000
7674		-39.062500
7675		-50.781250
7676		-42.968750
7677		-58.593750
7678		-50.781250
7679		-62.500000
7680		-50.781250
7681		-70.312500
7682		-58.593750
7683		-70.312500
7684		-66.406250
7685		-78.125000
7686		-70.312500
7687		-82.031250
7688		-74.218750
7689		-85.937500
7690		-78.125000
7691		-89.843750
7692		-82.031250
7693		-93.750000
7694		-89.843750
7695		-97.656250
7696		-89.843750
7697		-105.468750
7698		-97.656250
7699		-105.468750
7700		-101.562500
7701		-109.375000
7702		-105.468750
7703		-117.187500
7704		-109.375000
7705		-117.187500
7706		-109.375000
7707		-121.093750
7708		-113.281250
7709		-125.000000
7710		-117.187500
7711		-128.906250
7712		-121.093750
7713		-128.906250
7714		-121.093750
7715		-132.812500
7716		-125.000000
7717		-132.812500
7718		-128.906250
7719		-136.718750
7720		-132.812500
7721		-140.625000
7722		-132.812500
7723		-140.625000
7724		-132.812500
7725		-140.625000
7726		-140.625000
7727		-144.531250
7728		-140.625000
7729		-148.437500
7730		-136.718750
7731		-148.437500
7732		-140.625000
7733		-148.437500
7734		-144.531250
7735		-148.437500
7736		-144.531250
7737		-148.437500
7738		-144.531250
7739		-152.343750
7740		-144.531250
7741		-152.343750
7742		-144.531250
7743		-148.437500
7744		-144.531250
7745		-152.343750
7746		-140.625000
7747		-148.437500
7748		-144.531250
7749		-152.343750
7750		-144.531250
7751		-148.437500
7752		-144.531250
7753		-144.531250
7754		-140.625000
7755		-148.437500
7756		-136.718750
7757		-144.531250
7758		-140.625000
7759		-144.531250
7760		-136.718750
7761		-140.625000
7762		-132.812500
7763		-140.625000
7764		-132.812500
7765		-140.625000
7766		-128.906250
7767		-132.812500
7768		-128.906250
7769		-132.812500
7770		-128.906250
7771		-128.906250
7772		-121.093750
7773		-128.906250
7774		-121.093750
7775		-125.000000
7776		-117.187500
7777		-121.093750
7778		-113.281250
7779		-117.187500
7780		-109.375000
7781		-113.281250
7782		-105.468750
7783		-109.375000
7784		-105.468750
7785		-105.468750
7786		-101.562500
7787		-101.562500
7788		-93.750000
7789		-97.656250
7790		-89.843750
7791		-93.750000
7792		-85.937500
7793		-89.843750
7794		-82.031250
7795		-85.937500
7796		-74.218750
7797		-82.031250
7798		-74.218750
7799		-78.125000
7800		-66.406250
7801		-70.312500
7802		-62.500000
7803		-66.406250
7804		-58.593750
7805		-62.500000
7806		-50.781250
7807		-58.593750
7808		-46.875000
7809		-50.781250
7810		-42.968750
7811		-42.968750
7812		-35.156250
7813		-42.968750
7814		-31.250000
7815		-35.156250
7816		-27.343750
7817		-27.343750
7818		-19.531250
7819		-23.437500
7820		-15.625000
7821		-15.625000
7822		-7.812500
7823		-11.718750
7824		-3.906250
7825		-7.812500
7826		0.000000
7827		0.000000
7828		7.812500
7829		3.906250
7830		15.625000
7831		7.812500
7832		15.625000
7833		15.625000
7834		23.437500
7835		19.531250
7836		27.343750
7837		27.343750
7838		35.156250
7839		31.250000
7840		42.968750
7841		39.062500
7842		46.875000
7843		42.968750
7844		50.781250
7845		50.781250
7846		58.593750
7847		50.781250
7848		62.500000
7849		58.593750
7850		66.406250
7851		66.406250
7852		74.218750
7853		70.312500
7854		78.125000
7855		74.218750
7856		82.031250
7857		78.125000
7858		89.843750
7859		85.937500
7860		93.750000
7861		89.843750
7862		97.656250
7863		93.750000
7864		101.562500
7865		101.562500
7866		109.375000
7867		105.468750
7868		109.375000
7869		109.375000
7870		117.187500
7871		113.281250
7872		121.093750
7873		117.187500
7874		125.000000
7875		121.093750
7876		128.906250
7877		125.000000
7878		132.812500
7879		128.906250
7880		136.718750
7881		132.812500
7882		140.625000
7883		136.718750
7884		144.531250
7885		140.625000
7886		148.437500
7887		144.531250
7888		152.343750
7889		148.437500
7890		152.343750
7891		152.343750
7892		160.156250
7893		156.250000
7894		160.156250
7895		160.156250
7896		164.062500
7897		160.156250
7898		167.968750
7899		164.062500
7900		167.968750
7901		167.968750
7902		171.875000
7903		167.968750
7904		175.781250
7905		171.875000
7906		175.781250
7907		175.781250
7908		179.687500
7909		175.781250
7910		179.687500
7911		179.687500
7912		183.593750
7913		179.687500
7914		183.593750
7915		183.593750
7916		187.500000
7917		183.593750
7918		187.500000
7919		187.500000
7920		191.406250
7921		187.500000
7922		191.406250
7923		187.500000
7924		191.406250
7925		191.406250
7926		191.406250
7927		191.406250
7928		195.312500
7929		191.406250
7930		195.312500
7931		191.406250
7932		195.312500
7933		191.406250
7934		195.312500
7935		195.312500
7936		199.218750
7937		195.312500
7938		199.218750
7939		195.312500
7940		199.218750
7941		195.312500
7942		199.218750
7943		195.312500
7944		199.218750
7945		195.312500
7946		199.218750
7947		195.312500
7948		199.218750
7949		195.312500
7950		199.218750
7951		195.312500
7952		199.218750
7953		195.312500
7954		199.218750
7955		191.406250
7956		199.218750
7957		191.406250
7958		199.218750
7959		191.406250
7960		195.312500
7961		191.406250
7962		195.312500
7963		187.500000
7964		195.312500
7965		187.500000
7966		191.406250
7967		187.500000
7968		191.406250
7969		187.500000
7970		191.406250
7971		183.593750
7972		187.500000
7973		179.687500
7974		187.500000
7975		179.687500
7976		187.500000
7977		175.781250
7978		183.593750
7979		175.781250
7980		183.593750
7981		171.875000
7982		179.687500
7983		171.875000
7984		175.781250
7985		167.968750
7986		171.875000
7987		164.062500
7988		171.875000
7989		164.062500
7990		167.968750
7991		160.156250
7992		164.062500
7993		156.250000
7994		164.062500
7995		152.343750
7996		160.156250
7997		148.437500
7998		160.156250
7999		144.531250
8000		152.343750
8001		144.531250
8002		148.437500
8003		140.625000
8004		144.531250
8005		132.812500
8006		140.625000
8007		128.906250
8008		136.718750
8009		128.906250
8010		136.718750
8011		121.093750
8012		128.906250
8013		117.187500
8014		125.000000
8015		113.281250
8016		121.093750
8017		109.375000
8018		117.187500
8019		105.468750
8020		113.281250
8021		101.562500
8022		105.468750
8023		93.750000
8024		101.562500
8025		89.843750
8026		97.656250
8027		85.937500
8028		93.750000
8029		78.125000
8030		89.843750
8031		74.218750
8032		82.031250
8033		70.312500
8034		78.125000
8035		66.406250
8036		70.312500
8037		58.593750
8038		66.406250
8039		54.687500
8040		62.500000
8041		46.875000
8042		54.687500
8043		42.968750
8044		50.781250
8045		35.156250
8046		46.875000
8047		31.250000
8048		39.062500
8049		27.343750
8050		35.156250
8051		19.531250
8052		27.343750
8053		15.625000
8054		23.437500
8055		7.812500
8056		19.531250
8057		3.906250
8058		11.718750
8059		0.000000
8060		7.812500
8061		-7.812500
8062		0.000000
8063		-11.718750
8064		-3.906250
8065		-19.531250
8066		-11.718750
8067		-23.437500
8068		-15.625000
8069		-31.250000
8070		-23.437500
8071		-35.156250
8072		-27.343750
8073		-39.062500
8074		-35.156250
8075		-46.875000
8076		-39.062500
8077		-50.781250
8078		-42.968750
8079		-54.687500
8080		-46.875000
8081		-62.500000
8082		-54.687500
8083		-66.406250
8084		-58.593750
8085		-70.312500
8086		-62.500000
8087		-74.218750
8088		-70.312500
8089		-82.031250
8090		-74.218750
8091		-85.937500
8092		-78.125000
8093		-89.843750
8094		-82.031250
8095		-93.750000
8096		-85.937500
8097		-97.656250
8098		-89.843750
8099		-101.562500
8100		-97.656250
8101		-105.468750
8102		-101.562500
8103		-109.375000
8104		-105.468750
8105		-113.281250
8106		-109.375000
8107		-117.187500
8108		-109.375000
8109		-121.093750
8110		-113.281250
8111		-125.000000
8112		-117.187500
8113		-125.000000
8114		-117.187500
8115		-128.906250
8116		-125.000000
8117		-132.812500
8118		-125.000000
8119		-136.718750
8120		-128.906250
8121		-136.718750
8122		-132.812500
8123		-140.625000
8124		-136.718750
8125		-140.625000
8126		-136.718750
8127		-144.531250
8128		-140.625000
8129		-144.531250
8130		-140.625000
8131		-148.437500
8132		-144.531250
8133		-148.437500
8134		-144.531250
8135		-148.437500
8136		-144.531250
8137		-148.437500
8138		-148.437500
8139		-152.343750
8140		-148.437500
8141		-152.343750
8142		-148.437500
8143		-152.343750
8144		-148.437500
8145		-152.343750
8146		-148.437500
8147		-152.343750
8148		-148.437500
8149		-152.343750
8150		-148.437500
8151		-152.343750
8152		-148.437500
8153		-152.343750
8154		-148.437500
8155		-148.437500
8156		-148.437500
8157		-148.437500
8158		-144.531250
8159		-148.437500
8160		-144.531250
8161		-148.437500
8162		-140.625000
8163		-144.531250
8164		-140.625000
8165		-144.531250
8166		-140.625000
8167		-140.625000
8168		-136.718750
8169		-140.625000
8170		-132.812500
8171		-136.718750
8172		-132.812500
8173		-132.812500
8174		-128.906250
8175		-132.812500
8176		-125.000000
8177		-128.906250
8178		-121.093750
8179		-125.000000
8180		-121.093750
8181		-121.093750
8182		-117.187500
8183		-117.187500
8184		-113.281250
8185		-113.281250
8186		-109.375000
8187		-113.281250
8188		-105.468750
8189		-109.375000
8190		-101.562500
8191		-105.468750
8192		-97.656250
8193		-101.562500
8194		-93.750000
8195		-93.750000
8196		-89.843750
8197		-89.843750
8198		-82.031250
8199		-85.937500
8200		-78.125000
8201		-82.031250
8202		-74.218750
8203		-78.125000
8204		-70.312500
8205		-70.312500
8206		-66.406250
8207		-66.406250
8208		-58.593750
8209		-62.500000
8210		-54.687500
8211		-58.593750
8212		-50.781250
8213		-50.781250
8214		-42.968750
8215		-46.875000
8216		-39.062500
8217		-39.062500
8218		-31.250000
8219		-35.156250
8220		-27.343750
8221		-31.250000
8222		-23.437500
8223		-23.437500
8224		-15.625000
8225		-19.531250
8226		-11.718750
8227		-11.718750
8228		-3.906250
8229		-7.812500
8230		0.000000
8231		0.000000
8232		3.906250
8233		3.906250
8234		11.718750
8235		7.812500
8236		19.531250
8237		15.625000
8238		23.437500
8239		19.531250
8240		27.343750
8241		27.343750
8242		35.156250
8243		31.250000
8244		39.062500
8245		39.062500
8246		42.968750
8247		42.968750
8248		50.781250
8249		46.875000
8250		54.687500
8251		54.687500
8252		62.500000
8253		58.593750
8254		66.406250
8255		62.500000
8256		70.312500
8257		70.312500
8258		78.125000
8259		74.218750
8260		82.031250
8261		78.125000
8262		85.937500
8263		82.031250
8264		89.843750
8265		89.843750
8266		97.656250
8267		93.750000
8268		101.562500
8269		97.656250
8270		105.468750
8271		105.468750
8272		109.375000
8273		109.375000
8274		113.281250
8275		113.281250
8276		117.187500
8277		117.187500
8278		121.093750
8279		121.093750
8280		128.906250
8281		125.000000
8282		132.812500
8283		128.906250
8284		136.718750
8285		132.812500
8286		140.625000
8287		136.718750
8288		144.531250
8289		140.625000
8290		148.437500
8291		144.531250
8292		148.437500
8293		148.437500
8294		152.343750
8295		148.437500
8296		156.250000
8297		156.250000
8298		160.156250
8299		156.250000
8300		164.062500
8301		160.156250
8302		164.062500
8303		164.062500
8304		167.968750
8305		164.062500
8306		171.875000
8307		167.968750
8308		171.875000
8309		171.875000
8310		175.781250
8311		171.875000
8312		179.687500
8313		175.781250
8314		179.687500
8315		175.781250
8316		179.687500
8317		179.687500
8318		183.593750
8319		179.687500
8320		187.500000
8321		183.593750
8322		187.500000
8323		183.593750
8324		187.500000
8325		187.500000
8326		191.406250
8327		187.500000
8328		191.406250
8329		187.500000
8330		191.406250
8331		191.406250
8332		195.312500
8333		191.406250
8334		195.312500
8335		191.406250
8336		195.312500
8337		191.406250
8338		195.312500
8339		191.406250
8340		195.312500
8341		191.406250
8342		195.312500
8343		191.406250
8344		199.218750
8345		195.312500
8346		199.218750
8347		195.312500
8348		199.218750
8349		195.312500
8350		199.218750
8351		195.312500
8352		195.312500
8353		191.406250
8354		195.312500
8355		191.406250
8356		195.312500
8357		191.406250
8358		195.312500
8359		191.406250
8360		195.312500
8361		191.406250
8362		195.312500
8363		191.406250
8364		195.312500
8365		187.500000
8366		191.406250
8367		187.500000
8368		191.406250
8369		187.500000
8370		191.406250
8371		183.593750
8372		191.406250
8373		183.593750
8374		187.500000
8375		179.687500
8376		187.500000
8377		179.687500
8378		183.593750
8379		175.781250
8380		183.593750
8381		175.781250
8382		179.687500
8383		171.875000
8384		179.687500
8385		171.875000
8386		175.781250
8387		167.968750
8388		175.781250
8389		164.062500
8390		171.875000
8391		164.062500
8392		167.968750
8393		160.156250
8394		167.968750
8395		156.250000
8396		164.062500
8397		156.250000
8398		160.156250
8399		152.343750
8400		156.250000
8401		148.437500
8402		152.343750
8403		144.531250
8404		148.437500
8405		140.625000
8406		148.437500
8407		136.718750
8408		144.531250
8409		132.812500
8410		140.625000
8411		128.906250
8412		136.718750
8413		125.000000
8414		128.906250
8415		121.093750
8416		125.000000
8417		117.187500
8418		121.093750
8419		113.281250
8420		117.187500
8421		105.468750
8422		113.281250
8423		101.562500
8424		109.375000
8425		97.656250
8426		105.468750
8427		93.750000
8428		97.656250
8429		85.937500
8430		93.750000
8431		82.031250
8432		89.843750
8433		78.125000
8434		82.031250
8435		70.312500
8436		78.125000
8437		66.406250
8438		74.218750
8439		62.500000
8440		66.406250
8441		54.687500
8442		62.500000
8443		50.781250
8444		58.593750
8445		42.968750
8446		54.687500
8447		39.062500
8448		46.875000
8449		35.156250
8450		42.968750
8451		27.343750
8452		35.156250
8453		23.437500
8454		31.250000
8455		15.625000
8456		23.437500
8457		11.718750
8458		19.531250
8459		3.906250
8460		11.718750
8461		0.000000
8462		7.812500
8463		-3.906250
8464		0.000000
8465		-11.718750
8466		-3.906250
8467		-15.625000
8468		-7.812500
8469		-23.437500
8470		-15.625000
8471		-27.343750
8472		-19.531250
8473		-31.250000
8474		-27.343750
8475		-39.062500
8476		-31.250000
8477		-42.968750
8478		-35.156250
8479		-46.875000
8480		-42.968750
8481		-54.687500
8482		-46.875000
8483		-58.593750
8484		-50.781250
8485		-62.500000
8486		-58.593750
8487		-70.312500
8488		-62.500000
8489		-74.218750
8490		-66.406250
8491		-78.125000
8492		-70.312500
8493		-82.031250
8494		-78.125000
8495		-85.937500
8496		-82.031250
8497		-93.750000
8498		-85.937500
8499		-97.656250
8500		-89.843750
8501		-101.562500
8502		-93.750000
8503		-105.468750
8504		-97.656250
8505		-109.375000
8506		-101.562500
8507		-113.281250
8508		-105.468750
8509		-117.187500
8510		-109.375000
8511		-117.187500
8512		-113.281250
8513		-121.093750
8514		-117.187500
8515		-125.000000
8516		-121.093750
8517		-128.906250
8518		-125.000000
8519		-132.812500
8520		-125.000000
8521		-132.812500
8522		-128.906250
8523		-136.718750
8524		-132.812500
8525		-140.625000
8526		-132.812500
8527		-140.625000
8528		-136.718750
8529		-144.531250
8530		-136.718750
8531		-144.531250
8532		-140.625000
8533		-148.437500
8534		-144.531250
8535		-148.437500
8536		-144.531250
8537		-148.437500
8538		-144.531250
8539		-152.343750
8540		-144.531250
8541		-152.343750
8542		-148.437500
8543		-152.343750
8544		-148.437500
8545		-152.343750
8546		-148.437500
8547		-152.343750
8548		-148.437500
8549		-152.343750
8550		-148.437500
8551		-152.343750
8552		-148.437500
8553		-152.343750
8554		-148.437500
8555		-152.343750
8556		-148.437500
8557		-152.343750
8558		-148.437500
8559		-148.437500
8560		-144.531250
8561		-148.437500
8562		-144.531250
8563		-148.437500
8564		-144.531250
8565		-144.531250
8566		-140.625000
8567		-144.531250
8568		-140.625000
8569		-144.531250
8570		-136.718750
8571		-140.625000
8572		-136.718750
8573		-140.625000
8574		-132.812500
8575		-136.718750
8576		-132.812500
8577		-132.812500
8578		-128.906250
8579		-132.812500
8580		-125.000000
8581		-128.906250
8582		-121.093750
8583		-125.000000
8584		-117.187500
8585		-121.093750
8586		-117.187500
8587		-117.187500
8588		-113.281250
8589		-113.281250
8590		-105.468750
8591		-109.375000
8592		-105.468750
8593		-105.468750
8594		-97.656250
8595		-101.562500
8596		-93.750000
8597		-97.656250
8598		-93.750000
8599		-93.750000
8600		-85.937500
8601		-89.843750
8602		-82.031250
8603		-85.937500
8604		-78.125000
8605		-82.031250
8606		-74.218750
8607		-74.218750
8608		-70.312500
8609		-70.312500
8610		-62.500000
8611		-66.406250
8612		-58.593750
8613		-58.593750
8614		-54.687500
8615		-54.687500
8616		-46.875000
8617		-50.781250
8618		-42.968750
8619		-42.968750
8620		-35.156250
8621		-39.062500
8622		-31.250000
8623		-35.156250
8624		-27.343750
8625		-27.343750
8626		-19.531250
8627		-23.437500
8628		-15.625000
8629		-15.625000
8630		-7.812500
8631		-11.718750
8632		0.000000
8633		-3.906250
8634		0.000000
8635		0.000000
8636		7.812500
8637		3.906250
8638		11.718750
8639		11.718750
8640		19.531250
8641		15.625000
8642		23.437500
8643		23.437500
8644		31.250000
8645		27.343750
8646		35.156250
8647		35.156250
8648		42.968750
8649		39.062500
8650		46.875000
8651		42.968750
8652		50.781250
8653		50.781250
8654		58.593750
8655		54.687500
8656		62.500000
8657		58.593750
8658		70.312500
8659		66.406250
8660		74.218750
8661		70.312500
8662		78.125000
8663		78.125000
8664		82.031250
8665		82.031250
8666		89.843750
8667		85.937500
8668		93.750000
8669		89.843750
8670		97.656250
8671		97.656250
8672		101.562500
8673		101.562500
8674		109.375000
8675		105.468750
8676		113.281250
8677		109.375000
8678		117.187500
8679		113.281250
8680		121.093750
8681		117.187500
8682		125.000000
8683		121.093750
8684		128.906250
8685		128.906250
8686		132.812500
8687		132.812500
8688		136.718750
8689		136.718750
8690		140.625000
8691		140.625000
8692		144.531250
8693		144.531250
8694		148.437500
8695		144.531250
8696		152.343750
8697		148.437500
8698		156.250000
8699		152.343750
8700		160.156250
8701		156.250000
8702		164.062500
8703		160.156250
8704		164.062500
8705		164.062500
8706		167.968750
8707		164.062500
8708		167.968750
8709		167.968750
8710		171.875000
8711		171.875000
8712		175.781250
8713		171.875000
8714		175.781250
8715		175.781250
8716		179.687500
8717		175.781250
8718		179.687500
8719		179.687500
8720		183.593750
8721		179.687500
8722		183.593750
8723		183.593750
8724		187.500000
8725		183.593750
8726		187.500000
8727		187.500000
8728		191.406250
8729		187.500000
8730		191.406250
8731		187.500000
8732		191.406250
8733		187.500000
8734		195.312500
8735		191.406250
8736		195.312500
8737		191.406250
8738		195.312500
8739		191.406250
8740		195.312500
8741		191.406250
8742		195.312500
8743		195.312500
8744		199.218750
8745		191.406250
8746		199.218750
8747		195.312500
8748		199.218750
8749		195.312500
8750		199.218750
8751		195.312500
8752		199.218750
8753		195.312500
8754		199.218750
8755		195.312500
8756		199.218750
8757		195.312500
8758		199.218750
8759		195.312500
8760		195.312500
8761		191.406250
8762		195.312500
8763		191.406250
8764		195.312500
8765		191.406250
8766		195.312500
8767		191.406250
8768		195.312500
8769		187.500000
8770		191.406250
8771		187.500000
8772		191.406250
8773		187.500000
8774		191.406250
8775		183.593750
8776		187.500000
8777		183.593750
8778		187.500000
8779		179.687500
8780		187.500000
8781		179.687500
8782		183.593750
8783		175.781250
8784		183.593750
8785		175.781250
8786		179.687500
8787		171.875000
8788		175.781250
8789		171.875000
8790		175.781250
8791		167.968750
8792		171.875000
8793		164.062500
8794		171.875000
8795		164.062500
8796		167.968750
8797		160.156250
8798		164.062500
8799		156.250000
8800		160.156250
8801		152.343750
8802		160.156250
8803		148.437500
8804		156.250000
8805		144.531250
8806		152.343750
8807		140.625000
8808		148.437500
8809		140.625000
8810		144.531250
8811		136.718750
8812		144.531250
8813		132.812500
8814		136.718750
8815		128.906250
8816		132.812500
8817		121.093750
8818		128.906250
8819		117.187500
8820		125.000000
8821		113.281250
8822		121.093750
8823		109.375000
8824		117.187500
8825		105.468750
8826		113.281250
8827		101.562500
8828		109.375000
8829		93.750000
8830		101.562500
8831		89.843750
8832		97.656250
8833		85.937500
8834		93.750000
8835		82.031250
8836		85.937500
8837		74.218750
8838		82.031250
8839		70.312500
8840		78.125000
8841		66.406250
8842		70.312500
8843		58.593750
8844		66.406250
8845		54.687500
8846		62.500000
8847		46.875000
8848		54.687500
8849		42.968750
8850		50.781250
8851		39.062500
8852		46.875000
8853		31.250000
8854		39.062500
8855		27.343750
8856		35.156250
8857		19.531250
8858		27.343750
8859		15.625000
8860		23.437500
8861		11.718750
8862		19.531250
8863		3.906250
8864		11.718750
8865		0.000000
8866		7.812500
8867		-7.812500
8868		0.000000
8869		-11.718750
8870		-3.906250
8871		-19.531250
8872		-11.718750
8873		-23.437500
8874		-15.625000
8875		-31.250000
8876		-19.531250
8877		-35.156250
8878		-27.343750
8879		-39.062500
8880		-31.250000
8881		-46.875000
8882		-39.062500
8883		-50.781250
8884		-42.968750
8885		-54.687500
8886		-46.875000
8887		-62.500000
8888		-54.687500
8889		-66.406250
8890		-58.593750
8891		-70.312500
8892		-62.500000
8893		-74.218750
8894		-70.312500
8895		-78.125000
8896		-74.218750
8897		-85.937500
8898		-78.125000
8899		-89.843750
8900		-82.031250
8901		-93.750000
8902		-85.937500
8903		-97.656250
8904		-89.843750
8905		-101.562500
8906		-93.750000
8907		-105.468750
8908		-97.656250
8909		-109.375000
8910		-101.562500
8911		-113.281250
8912		-109.375000
8913		-117.187500
8914		-109.375000
8915		-121.093750
8916		-113.281250
8917		-125.000000
8918		-117.187500
8919		-125.000000
8920		-121.093750
8921		-128.906250
8922		-125.000000
8923		-132.812500
8924		-128.906250
8925		-136.718750
8926		-128.906250
8927		-136.718750
8928		-132.812500
8929		-140.625000
8930		-136.718750
8931		-140.625000
8932		-136.718750
8933		-144.531250
8934		-140.625000
8935		-144.531250
8936		-140.625000
8937		-148.437500
8938		-144.531250
8939		-148.437500
8940		-144.531250
8941		-152.343750
8942		-144.531250
8943		-152.343750
8944		-148.437500
8945		-152.343750
8946		-148.437500
8947		-152.343750
8948		-148.437500
8949		-152.343750
8950		-148.437500
8951		-152.343750
8952		-148.437500
8953		-152.343750
8954		-148.437500
8955		-152.343750
8956		-148.437500
8957		-152.343750
8958		-148.437500
8959		-152.343750
8960		-148.437500
8961		-152.343750
8962		-148.437500
8963		-148.437500
8964		-144.531250
8965		-148.437500
8966		-144.531250
8967		-148.437500
8968		-144.531250
8969		-144.531250
8970		-140.625000
8971		-144.531250
8972		-136.718750
8973		-140.625000
8974		-136.718750
8975		-140.625000
8976		-132.812500
8977		-136.718750
8978		-132.812500
8979		-132.812500
8980		-128.906250
8981		-132.812500
8982		-125.000000
8983		-128.906250
8984		-125.000000
8985		-125.000000
8986		-121.093750
8987		-121.093750
8988		-117.187500
8989		-121.093750
8990		-113.281250
8991		-117.187500
8992		-109.375000
8993		-113.281250
8994		-105.468750
8995		-109.375000
8996		-101.562500
8997		-105.468750
8998		-97.656250
8999		-101.562500
9000		-93.750000
9001		-97.656250
9002		-89.843750
9003		-89.843750
9004		-85.937500
9005		-85.937500
9006		-82.031250
9007		-82.031250
9008		-74.218750
9009		-78.125000
9010		-70.312500
9011		-74.218750
9012		-66.406250
9013		-66.406250
9014		-58.593750
9015		-62.500000
9016		-54.687500
9017		-58.593750
9018		-50.781250
9019		-50.781250
9020		-42.968750
9021		-46.875000
9022		-39.062500
9023		-42.968750
9024		-35.156250
9025		-35.156250
9026		-27.343750
9027		-31.250000
9028		-23.437500
9029		-23.437500
9030		-19.531250
9031		-19.531250
9032		-11.718750
9033		-15.625000
9034		-7.812500
9035		-7.812500
9036		0.000000
9037		-3.906250
9038		3.906250
9039		3.906250
9040		11.718750
9041		7.812500
9042		15.625000
9043		15.625000
9044		19.531250
9045		19.531250
9046		27.343750
9047		27.343750
9048		35.156250
9049		31.250000
9050		39.062500
9051		35.156250
9052		42.968750
9053		42.968750
9054		50.781250
9055		46.875000
9056		54.687500
9057		50.781250
9058		58.593750
9059		58.593750
9060		66.406250
9061		62.500000
9062		70.312500
9063		70.312500
9064		74.218750
9065		74.218750
9066		82.031250
9067		78.125000
9068		85.937500
9069		82.031250
9070		89.843750
9071		89.843750
9072		97.656250
9073		93.750000
9074		101.562500
9075		97.656250
9076		105.468750
9077		101.562500
9078		109.375000
9079		109.375000
9080		113.281250
9081		113.281250
9082		117.187500
9083		117.187500
9084		125.000000
9085		121.093750
9086		128.906250
9087		125.000000
9088		128.906250
9089		128.906250
9090		136.718750
9091		132.812500
9092		140.625000
9093		136.718750
9094		140.625000
9095		140.625000
9096		144.531250
9097		144.531250
9098		148.437500
9099		148.437500
9100		152.343750
9101		152.343750
9102		156.250000
9103		152.343750
9104		160.156250
9105		156.250000
9106		164.062500
9107		160.156250
9108		164.062500
9109		160.156250
9110		167.968750
9111		164.062500
9112		171.875000
9113		167.968750
9114		171.875000
9115		171.875000
9116		175.781250
9117		171.875000
9118		179.687500
9119		175.781250
9120		179.687500
9121		175.781250
9122		183.593750
9123		179.687500
9124		183.593750
9125		179.687500
9126		187.500000
9127		183.593750
9128		187.500000
9129		183.593750
9130		187.500000
9131		187.500000
9132		191.406250
9133		187.500000
9134		191.406250
9135		187.500000
9136		191.406250
9137		191.406250
9138		195.312500
9139		191.406250
9140		195.312500
9141		191.406250
9142		195.312500
9143		191.406250
9144		195.312500
9145		191.406250
9146		195.312500
9147		195.312500
9148		195.312500
9149		195.312500
9150		199.218750
9151		195.312500
9152		199.218750
9153		195.312500
9154		199.218750
9155		195.312500
9156		199.218750
9157		195.312500
9158		195.312500
9159		191.406250
9160		199.218750
9161		195.312500
9162		195.312500
9163		191.406250
9164		195.312500
9165		191.406250
9166		195.312500
9167		191.406250
9168		195.312500
9169		191.406250
9170		195.312500
9171		187.500000
9172		195.312500
9173		187.500000
9174		191.406250
9175		187.500000
9176		191.406250
9177		183.593750
9178		191.406250
9179		183.593750
9180		187.500000
9181		183.593750
9182		187.500000
9183		179.687500
9184		183.593750
9185		179.687500
9186		183.593750
9187		175.781250
9188		183.593750
9189		175.781250
9190		179.687500
9191		171.875000
9192		175.781250
9193		167.968750
9194		175.781250
9195		167.968750
9196		171.875000
9197		164.062500
9198		167.968750
9199		160.156250
9200		167.968750
9201		160.156250
9202		164.062500
9203		156.250000
9204		160.156250
9205		152.343750
9206		156.250000
9207		148.437500
9208		156.250000
9209		144.531250
9210		152.343750
9211		140.625000
9212		148.437500
9213		136.718750
9214		144.531250
9215		132.812500
9216		140.625000
9217		128.906250
9218		136.718750
9219		125.000000
9220		132.812500
9221		121.093750
9222		128.906250
9223		117.187500
9224		125.000000
9225		113.281250
9226		121.093750
9227		109.375000
9228		113.281250
9229		101.562500
9230		109.375000
9231		97.656250
9232		105.468750
9233		93.750000
9234		101.562500
9235		89.843750
9236		93.750000
9237		82.031250
9238		89.843750
9239		78.125000
9240		85.937500
9241		74.218750
9242		82.031250
9243		66.406250
9244		74.218750
9245		62.500000
9246		70.312500
9247		58.593750
9248		66.406250
9249		50.781250
9250		58.593750
9251		46.875000
9252		54.687500
9253		42.968750
9254		46.875000
9255		35.156250
9256		42.968750
9257		31.250000
9258		39.062500
9259		23.437500
9260		31.250000
9261		19.531250
9262		27.343750
9263		11.718750
9264		19.531250
9265		7.812500
9266		15.625000
9267		3.906250
9268		11.718750
9269		-3.906250
9270		3.906250
9271		-7.812500
9272		0.000000
9273		-15.625000
9274		-7.812500
9275		-19.531250
9276		-11.718750
9277		-27.343750
9278		-19.531250
9279		-31.250000
9280		-23.437500
9281		-35.156250
9282		-31.250000
9283		-42.968750
9284		-35.156250
9285		-46.875000
9286		-39.062500
9287		-50.781250
9288		-46.875000
9289		-58.593750
9290		-50.781250
9291		-62.500000
9292		-54.687500
9293		-66.406250
9294		-58.593750
9295		-70.312500
9296		-66.406250
9297		-78.125000
9298		-70.312500
9299		-82.031250
9300		-74.218750
9301		-85.937500
9302		-78.125000
9303		-89.843750
9304		-82.031250
9305		-93.750000
9306		-89.843750
9307		-97.656250
9308		-93.750000
9309		-105.468750
9310		-97.656250
9311		-105.468750
9312		-101.562500
9313		-109.375000
9314		-105.468750
9315		-113.281250
9316		-109.375000
9317		-117.187500
9318		-113.281250
9319		-121.093750
9320		-117.187500
9321		-125.000000
9322		-121.093750
9323		-128.906250
9324		-121.093750
9325		-128.906250
9326		-125.000000
9327		-132.812500
9328		-128.906250
9329		-136.718750
9330		-132.812500
9331		-136.718750
9332		-132.812500
9333		-140.625000
9334		-136.718750
9335		-140.625000
9336		-136.718750
9337		-144.531250
9338		-140.625000
9339		-144.531250
9340		-140.625000
9341		-148.437500
9342		-140.625000
9343		-148.437500
9344		-144.531250
9345		-148.437500
9346		-144.531250
9347		-148.437500
9348		-148.437500
9349		-152.343750
9350		-148.437500
9351		-152.343750
9352		-148.437500
9353		-152.343750
9354		-148.437500
9355		-152.343750
9356		-148.437500
9357		-152.343750
9358		-148.437500
9359		-152.343750
9360		-148.437500
9361		-152.343750
9362		-144.531250
9363		-148.437500
9364		-144.531250
9365		-148.437500
9366		-144.531250
9367		-148.437500
9368		-144.531250
9369		-144.531250
9370		-140.625000
9371		-144.531250
9372		-140.625000
9373		-144.531250
9374		-140.625000
9375		-140.625000
9376		-136.718750
9377		-140.625000
9378		-132.812500
9379		-136.718750
9380		-132.812500
9381		-132.812500
9382		-128.906250
9383		-132.812500
9384		-125.000000
9385		-128.906250
9386		-125.000000
9387		-128.906250
9388		-121.093750
9389		-125.000000
9390		-117.187500
9391		-121.093750
9392		-113.281250
9393		-117.187500
9394		-109.375000
9395		-113.281250
9396		-105.468750
9397		-109.375000
9398		-101.562500
9399		-105.468750
9400		-97.656250
9401		-101.562500
9402		-93.750000
9403		-97.656250
9404		-89.843750
9405		-93.750000
9406		-85.937500
9407		-89.843750
9408		-82.031250
9409		-85.937500
9410		-78.125000
9411		-78.125000
9412		-70.312500
9413		-74.218750
9414		-66.406250
9415		-70.312500
9416		-62.500000
9417		-62.500000
9418		-58.593750
9419		-58.593750
9420		-50.781250
9421		-54.687500
9422		-46.875000
9423		-46.875000
9424		-42.968750
9425		-42.968750
9426		-35.156250
9427		-39.062500
9428		-31.250000
9429		-31.250000
9430		-23.437500
9431		-27.343750
9432		-19.531250
9433		-23.437500
9434		-15.625000
9435		-15.625000
9436		-7.812500
9437		-11.718750
9438		-3.906250
9439		-3.906250
9440		3.906250
9441		0.000000
9442		7.812500
9443		7.812500
9444		15.625000
9445		11.718750
9446		19.531250
9447		15.625000
9448		23.437500
9449		23.437500
9450		31.250000
9451		27.343750
9452		35.156250
9453		35.156250
9454		42.968750
9455		39.062500
9456		46.875000
9457		42.968750
9458		54.687500
9459		50.781250
9460		58.593750
9461		54.687500
9462		62.500000
9463		62.500000
9464		66.406250
9465		66.406250
9466		74.218750
9467		70.312500
9468		78.125000
9469		78.125000
9470		85.937500
9471		82.031250
9472		89.843750
9473		85.937500
9474		93.750000
9475		93.750000
9476		97.656250
9477		97.656250
9478		101.562500
9479		101.562500
9480		109.375000
9481		105.468750
9482		113.281250
9483		109.375000
9484		117.187500
9485		113.281250
9486		121.093750
9487		117.187500
9488		125.000000
9489		125.000000
9490		128.906250
9491		128.906250
9492		132.812500
9493		132.812500
9494		136.718750
9495		136.718750
9496		140.625000
9497		140.625000
9498		144.531250
9499		144.531250
9500		148.437500
9501		144.531250
9502		152.343750
9503		148.437500
9504		156.250000
9505		152.343750
9506		160.156250
9507		156.250000
9508		160.156250
9509		160.156250
9510		164.062500
9511		160.156250
9512		167.968750
9513		164.062500
9514		171.875000
9515		167.968750
9516		171.875000
9517		167.968750
9518		175.781250
9519		171.875000
9520		175.781250
9521		175.781250
9522		179.687500
9523		175.781250
9524		183.593750
9525		179.687500
9526		183.593750
9527		179.687500
9528		183.593750
9529		183.593750
9530		187.500000
9531		183.593750
9532		187.500000
9533		187.500000
9534		191.406250
9535		187.500000
9536		191.406250
9537		187.500000
9538		195.312500
9539		191.406250
9540		195.312500
9541		191.406250
9542		195.312500
9543		191.406250
9544		195.312500
9545		191.406250
9546		195.312500
9547		195.312500
9548		195.312500
9549		195.312500
9550		199.218750
9551		195.312500
9552		199.218750
9553		195.312500
9554		199.218750
9555		195.312500
9556		199.218750
9557		195.312500
9558		199.218750
9559		195.312500
9560		199.218750
9561		195.312500
9562		199.218750
9563		195.312500
9564		199.218750
9565		195.312500
9566		199.218750
9567		195.312500
9568		195.312500
9569		191.406250
9570		195.312500
9571		191.406250
9572		195.312500
9573		191.406250
9574		195.312500
9575		191.406250
9576		195.312500
9577		187.500000
9578		191.406250
9579		187.500000
9580		191.406250
9581		187.500000
9582		191.406250
9583		183.593750
9584		187.500000
9585		183.593750
9586		187.500000
9587		179.687500
9588		187.500000
9589		179.687500
9590		183.593750
9591		175.781250
9592		179.687500
9593		171.875000
9594		179.687500
9595		171.875000
9596		175.781250
9597		167.968750
9598		175.781250
9599		167.968750
9600		171.875000
9601		164.062500
9602		167.968750
9603		160.156250
9604		167.968750
9605		156.250000
9606		164.062500
9607		156.250000
9608		160.156250
9609		152.343750
9610		156.250000
9611		148.437500
9612		152.343750
9613		144.531250
9614		148.437500
9615		140.625000
9616		144.531250
9617		136.718750
9618		140.625000
9619		132.812500
9620		136.718750
9621		128.906250
9622		136.718750
9623		125.000000
9624		132.812500
9625		121.093750
9626		128.906250
9627		113.281250
9628		121.093750
9629		109.375000
9630		117.187500
9631		105.468750
9632		113.281250
9633		101.562500
9634		109.375000
9635		97.656250
9636		105.468750
9637		89.843750
9638		97.656250
9639		85.937500
9640		93.750000
9641		82.031250
9642		89.843750
9643		74.218750
9644		85.937500
9645		70.312500
9646		78.125000
9647		66.406250
9648		74.218750
9649		62.500000
9650		70.312500
9651		54.687500
9652		62.500000
9653		46.875000
9654		58.593750
9655		42.968750
9656		54.687500
9657		35.156250
9658		46.875000
9659		35.156250
9660		42.968750
9661		27.343750
9662		35.156250
9663		19.531250
9664		31.250000
9665		15.625000
9666		23.437500
9667		11.718750
9668		19.531250
9669		3.906250
9670		11.718750
9671		0.000000
9672		7.812500
9673		-7.812500
9674		3.906250
9675		-11.718750
9676		-3.906250
9677		-19.531250
9678		-7.812500
9679		-23.437500
9680		-11.718750
9681		-27.343750
9682		-19.531250
9683		-35.156250
9684		-27.343750
9685		-39.062500
9686		-31.250000
9687		-42.968750
9688		-35.156250
9689		-50.781250
9690		-39.062500
9691		-54.687500
9692		-46.875000
9693		-62.500000
9694		-50.781250
9695		-66.406250
9696		-54.687500
9697		-70.312500
9698		-62.500000
9699		-74.218750
9700		-66.406250
9701		-78.125000
9702		-70.312500
9703		-85.937500
9704		-78.125000
9705		-89.843750
9706		-78.125000
9707		-93.750000
9708		-82.031250
9709		-97.656250
9710		-89.843750
9711		-101.562500
9712		-93.750000
9713		-105.468750
9714		-97.656250
9715		-109.375000
9716		-101.562500
9717		-113.281250
9718		-105.468750
9719		-113.281250
9720		-109.375000
9721		-121.093750
9722		-113.281250
9723		-125.000000
9724		-117.187500
9725		-125.000000
9726		-117.187500
9727		-128.906250
9728		-121.093750
9729		-132.812500
9730		-125.000000
9731		-132.812500
9732		-128.906250
9733		-136.718750
9734		-128.906250
9735		-136.718750
9736		-132.812500
9737		-140.625000
9738		-136.718750
9739		-144.531250
9740		-136.718750
9741		-144.531250
9742		-136.718750
9743		-148.437500
9744		-140.625000
9745		-148.437500
9746		-140.625000
9747		-148.437500
9748		-140.625000
9749		-148.437500
9750		-144.531250
9751		-148.437500
9752		-144.531250
9753		-152.343750
9754		-144.531250
9755		-152.343750
9756		-144.531250
9757		-152.343750
9758		-144.531250
9759		-152.343750
9760		-144.531250
9761		-152.343750
9762		-144.531250
9763		-152.343750
9764		-144.531250
9765		-152.343750
9766		-144.531250
9767		-148.437500
9768		-144.531250
9769		-148.437500
9770		-144.531250
9771		-148.437500
9772		-140.625000
9773		-148.437500
9774		-140.625000
9775		-144.531250
9776		-136.718750
9777		-144.531250
9778		-136.718750
9779		-140.625000
9780		-132.812500
9781		-140.625000
9782		-128.906250
9783		-136.718750
9784		-128.906250
9785		-132.812500
9786		-128.906250
9787		-128.906250
9788		-125.000000
9789		-128.906250
9790		-121.093750
9791		-125.000000
9792		-117.187500
9793		-125.000000
9794		-113.281250
9795		-117.187500
9796		-109.375000
9797		-117.187500
9798		-105.468750
9799		-109.375000
9800		-105.468750
9801		-105.468750
9802		-101.562500
9803		-101.562500
9804		-97.656250
9805		-97.656250
9806		-89.843750
9807		-93.750000
9808		-85.937500
9809		-89.843750
9810		-82.031250
9811		-85.937500
9812		-78.125000
9813		-82.031250
9814		-74.218750
9815		-78.125000
9816		-70.312500
9817		-74.218750
9818		-66.406250
9819		-66.406250
9820		-58.593750
9821		-62.500000
9822		-54.687500
9823		-58.593750
9824		-46.875000
9825		-50.781250
9826		-42.968750
9827		-46.875000
9828		-35.156250
9829		-39.062500
9830		-31.250000
9831		-35.156250
9832		-27.343750
9833		-31.250000
9834		-23.437500
9835		-23.437500
9836		-15.625000
9837		-19.531250
9838		-11.718750
9839		-15.625000
9840		-3.906250
9841		-7.812500
9842		0.000000
9843		-3.906250
9844		7.812500
9845		3.906250
9846		11.718750
9847		7.812500
9848		19.531250
9849		15.625000
9850		23.437500
9851		19.531250
9852		27.343750
9853		27.343750
9854		35.156250
9855		31.250000
9856		42.968750
9857		35.156250
9858		46.875000
9859		42.968750
9860		50.781250
9861		46.875000
9862		54.687500
9863		50.781250
9864		62.500000
9865		58.593750
9866		66.406250
9867		62.500000
9868		70.312500
9869		70.312500
9870		78.125000
9871		74.218750
9872		82.031250
9873		78.125000
9874		89.843750
9875		85.937500
9876		93.750000
9877		85.937500
9878		97.656250
9879		93.750000
9880		101.562500
9881		97.656250
9882		109.375000
9883		101.562500
9884		113.281250
9885		109.375000
9886		113.281250
9887		113.281250
9888		121.093750
9889		117.187500
9890		125.000000
9891		121.093750
9892		128.906250
9893		125.000000
9894		132.812500
9895		128.906250
9896		136.718750
9897		132.812500
9898		140.625000
9899		136.718750
9900		144.531250
9901		140.625000
9902		148.437500
9903		144.531250
9904		152.343750
9905		148.437500
9906		156.250000
9907		152.343750
9908		160.156250
9909		152.343750
9910		160.156250
9911		156.250000
9912		164.062500
9913		160.156250
9914		167.968750
9915		160.156250
9916		171.875000
9917		164.062500
9918		171.875000
9919		167.968750
9920		175.781250
9921		171.875000
9922		175.781250
9923		171.875000
9924		179.687500
9925		175.781250
9926		183.593750
9927		175.781250
9928		183.593750
9929		179.687500
9930		187.500000
9931		179.687500
9932		187.500000
9933		183.593750
9934		191.406250
9935		187.500000
9936		191.406250
9937		187.500000
9938		191.406250
9939		187.500000
9940		195.312500
9941		187.500000
9942		195.312500
9943		187.500000
9944		195.312500
9945		191.406250
9946		195.312500
9947		191.406250
9948		199.218750
9949		191.406250
9950		199.218750
9951		195.312500
9952		199.218750
9953		195.312500
9954		199.218750
9955		195.312500
9956		199.218750
9957		191.406250
9958		199.218750
9959		195.312500
9960		199.218750
9961		195.312500
9962		199.218750
9963		191.406250
9964		199.218750
9965		195.312500
9966		199.218750
9967		191.406250
9968		199.218750
9969		195.312500
9970		199.218750
9971		195.312500
9972		195.312500
9973		191.406250
9974		199.218750
9975		191.406250
9976		199.218750
9977		187.500000
9978		195.312500
9979		187.500000
9980		195.312500
9981		187.500000
9982		195.312500
9983		183.593750
9984		191.406250
9985		183.593750
9986		191.406250
9987		183.593750
9988		187.500000
9989		179.687500
9990		187.500000
9991		179.687500
9992		187.500000
9993		175.781250
9994		183.593750
9995		175.781250
9996		179.687500
9997		171.875000
9998		179.687500
9999		171.875000
10000		175.781250
