Channel              :		CH1
Frequency            :		1.771kHz
Period               :		0.565ms
PK-PK                :		230.5mV
Probe attenuation    :		1X
Voltage per ADC value:		0.122070mV
Time interval        :		2.00000us

index		CH1_Voltage(mV)
1		123.046875
2		123.046875
3		119.140625
4		121.093750
5		117.187500
6		121.093750
7		117.187500
8		119.140625
9		115.234375
10		119.140625
11		115.234375
12		119.140625
13		113.281250
14		117.187500
15		111.328125
16		115.234375
17		109.375000
18		113.281250
19		107.421875
20		113.281250
21		105.468750
22		109.375000
23		103.515625
24		107.421875
25		101.562500
26		105.468750
27		97.656250
28		103.515625
29		95.703125
30		99.609375
31		91.796875
32		97.656250
33		89.843750
34		93.750000
35		85.937500
36		91.796875
37		82.031250
38		87.890625
39		80.078125
40		83.984375
41		76.171875
42		80.078125
43		70.312500
44		76.171875
45		68.359375
46		72.265625
47		62.500000
48		68.359375
49		58.593750
50		64.453125
51		54.687500
52		60.546875
53		48.828125
54		56.640625
55		44.921875
56		50.781250
57		41.015625
58		46.875000
59		37.109375
60		42.968750
61		31.250000
62		37.109375
63		27.343750
64		33.203125
65		21.484375
66		27.343750
67		17.578125
68		23.437500
69		11.718750
70		17.578125
71		7.812500
72		13.671875
73		1.953125
74		7.812500
75		-3.906250
76		3.906250
77		-7.812500
78		-1.953125
79		-13.671875
80		-5.859375
81		-17.578125
82		-11.718750
83		-23.437500
84		-15.625000
85		-27.343750
86		-21.484375
87		-31.250000
88		-25.390625
89		-37.109375
90		-31.250000
91		-41.015625
92		-35.156250
93		-44.921875
94		-39.062500
95		-50.781250
96		-42.968750
97		-54.687500
98		-48.828125
99		-58.593750
100		-52.734375
101		-62.500000
102		-56.640625
103		-66.406250
104		-60.546875
105		-70.312500
106		-64.453125
107		-72.265625
108		-68.359375
109		-76.171875
110		-72.265625
111		-78.125000
112		-74.218750
113		-82.031250
114		-78.125000
115		-83.984375
116		-80.078125
117		-87.890625
118		-82.031250
119		-89.843750
120		-83.984375
121		-91.796875
122		-85.937500
123		-93.750000
124		-87.890625
125		-93.750000
126		-91.796875
127		-97.656250
128		-91.796875
129		-97.656250
130		-93.750000
131		-97.656250
132		-95.703125
133		-97.656250
134		-95.703125
135		-99.609375
136		-95.703125
137		-99.609375
138		-95.703125
139		-99.609375
140		-95.703125
141		-97.656250
142		-95.703125
143		-97.656250
144		-95.703125
145		-97.656250
146		-93.750000
147		-95.703125
148		-91.796875
149		-93.750000
150		-91.796875
151		-93.750000
152		-89.843750
153		-91.796875
154		-87.890625
155		-89.843750
156		-85.937500
157		-89.843750
158		-83.984375
159		-85.937500
160		-82.031250
161		-83.984375
162		-78.125000
163		-80.078125
164		-76.171875
165		-78.125000
166		-72.265625
167		-74.218750
168		-68.359375
169		-70.312500
170		-66.406250
171		-68.359375
172		-62.500000
173		-62.500000
174		-58.593750
175		-58.593750
176		-54.687500
177		-54.687500
178		-48.828125
179		-50.781250
180		-44.921875
181		-46.875000
182		-41.015625
183		-42.968750
184		-37.109375
185		-39.062500
186		-33.203125
187		-33.203125
188		-27.343750
189		-29.296875
190		-21.484375
191		-23.437500
192		-17.578125
193		-19.531250
194		-13.671875
195		-13.671875
196		-7.812500
197		-9.765625
198		-3.906250
199		-5.859375
200		1.953125
201		0.000000
202		5.859375
203		5.859375
204		11.718750
205		9.765625
206		15.625000
207		13.671875
208		21.484375
209		19.531250
210		25.390625
211		25.390625
212		31.250000
213		29.296875
214		35.156250
215		35.156250
216		41.015625
217		39.062500
218		44.921875
219		42.968750
220		48.828125
221		48.828125
222		54.687500
223		52.734375
224		58.593750
225		56.640625
226		62.500000
227		60.546875
228		66.406250
229		64.453125
230		70.312500
231		68.359375
232		74.218750
233		72.265625
234		78.125000
235		78.125000
236		82.031250
237		80.078125
238		85.937500
239		83.984375
240		89.843750
241		85.937500
242		91.796875
243		89.843750
244		95.703125
245		93.750000
246		97.656250
247		97.656250
248		101.562500
249		99.609375
250		103.515625
251		101.562500
252		105.468750
253		105.468750
254		107.421875
255		105.468750
256		109.375000
257		109.375000
258		111.328125
259		111.328125
260		113.281250
261		111.328125
262		115.234375
263		113.281250
264		117.187500
265		115.234375
266		119.140625
267		115.234375
268		119.140625
269		117.187500
270		121.093750
271		117.187500
272		121.093750
273		119.140625
274		121.093750
275		119.140625
276		121.093750
277		119.140625
278		121.093750
279		119.140625
280		123.046875
281		119.140625
282		123.046875
283		119.140625
284		123.046875
285		119.140625
286		121.093750
287		117.187500
288		121.093750
289		117.187500
290		121.093750
291		115.234375
292		119.140625
293		115.234375
294		117.187500
295		113.281250
296		117.187500
297		111.328125
298		115.234375
299		109.375000
300		113.281250
301		107.421875
302		111.328125
303		105.468750
304		109.375000
305		101.562500
306		107.421875
307		101.562500
308		105.468750
309		97.656250
310		101.562500
311		95.703125
312		99.609375
313		91.796875
314		97.656250
315		87.890625
316		95.703125
317		85.937500
318		91.796875
319		82.031250
320		87.890625
321		78.125000
322		85.937500
323		74.218750
324		82.031250
325		72.265625
326		78.125000
327		68.359375
328		72.265625
329		64.453125
330		70.312500
331		58.593750
332		66.406250
333		54.687500
334		62.500000
335		50.781250
336		56.640625
337		44.921875
338		52.734375
339		41.015625
340		46.875000
341		37.109375
342		44.921875
343		31.250000
344		37.109375
345		25.390625
346		33.203125
347		21.484375
348		29.296875
349		15.625000
350		25.390625
351		11.718750
352		19.531250
353		5.859375
354		15.625000
355		1.953125
356		9.765625
357		-3.906250
358		5.859375
359		-7.812500
360		-1.953125
361		-11.718750
362		-5.859375
363		-17.578125
364		-11.718750
365		-23.437500
366		-15.625000
367		-27.343750
368		-19.531250
369		-33.203125
370		-25.390625
371		-37.109375
372		-27.343750
373		-42.968750
374		-33.203125
375		-44.921875
376		-37.109375
377		-48.828125
378		-42.968750
379		-54.687500
380		-48.828125
381		-60.546875
382		-50.781250
383		-62.500000
384		-54.687500
385		-66.406250
386		-58.593750
387		-70.312500
388		-62.500000
389		-74.218750
390		-66.406250
391		-76.171875
392		-68.359375
393		-78.125000
394		-74.218750
395		-82.031250
396		-78.125000
397		-85.937500
398		-80.078125
399		-89.843750
400		-80.078125
401		-91.796875
402		-83.984375
403		-93.750000
404		-85.937500
405		-95.703125
406		-87.890625
407		-97.656250
408		-89.843750
409		-97.656250
410		-89.843750
411		-97.656250
412		-93.750000
413		-99.609375
414		-93.750000
415		-99.609375
416		-93.750000
417		-101.562500
418		-93.750000
419		-101.562500
420		-95.703125
421		-101.562500
422		-93.750000
423		-101.562500
424		-93.750000
425		-101.562500
426		-93.750000
427		-97.656250
428		-93.750000
429		-97.656250
430		-91.796875
431		-97.656250
432		-89.843750
433		-95.703125
434		-87.890625
435		-93.750000
436		-87.890625
437		-93.750000
438		-83.984375
439		-89.843750
440		-82.031250
441		-87.890625
442		-80.078125
443		-83.984375
444		-80.078125
445		-80.078125
446		-76.171875
447		-78.125000
448		-72.265625
449		-78.125000
450		-68.359375
451		-74.218750
452		-64.453125
453		-70.312500
454		-60.546875
455		-66.406250
456		-56.640625
457		-62.500000
458		-52.734375
459		-58.593750
460		-50.781250
461		-52.734375
462		-46.875000
463		-46.875000
464		-41.015625
465		-44.921875
466		-35.156250
467		-41.015625
468		-31.250000
469		-37.109375
470		-27.343750
471		-31.250000
472		-21.484375
473		-27.343750
474		-17.578125
475		-21.484375
476		-13.671875
477		-15.625000
478		-9.765625
479		-9.765625
480		-3.906250
481		-5.859375
482		1.953125
483		-3.906250
484		7.812500
485		1.953125
486		11.718750
487		5.859375
488		17.578125
489		11.718750
490		21.484375
491		15.625000
492		27.343750
493		21.484375
494		29.296875
495		29.296875
496		35.156250
497		33.203125
498		41.015625
499		35.156250
500		44.921875
501		41.015625
502		50.781250
503		44.921875
504		54.687500
505		48.828125
506		60.546875
507		54.687500
508		64.453125
509		58.593750
510		66.406250
511		64.453125
512		70.312500
513		68.359375
514		74.218750
515		72.265625
516		78.125000
517		74.218750
518		83.984375
519		78.125000
520		85.937500
521		80.078125
522		89.843750
523		83.984375
524		93.750000
525		87.890625
526		95.703125
527		93.750000
528		97.656250
529		95.703125
530		99.609375
531		97.656250
532		103.515625
533		97.656250
534		107.421875
535		101.562500
536		109.375000
537		103.515625
538		111.328125
539		105.468750
540		113.281250
541		107.421875
542		115.234375
543		109.375000
544		117.187500
545		113.281250
546		117.187500
547		113.281250
548		119.140625
549		113.281250
550		121.093750
551		113.281250
552		121.093750
553		115.234375
554		121.093750
555		115.234375
556		123.046875
557		117.187500
558		123.046875
559		117.187500
560		123.046875
561		119.140625
562		121.093750
563		119.140625
564		121.093750
565		117.187500
566		123.046875
567		115.234375
568		123.046875
569		115.234375
570		123.046875
571		115.234375
572		123.046875
573		113.281250
574		121.093750
575		113.281250
576		119.140625
577		111.328125
578		117.187500
579		111.328125
580		115.234375
581		107.421875
582		115.234375
583		105.468750
584		113.281250
585		103.515625
586		111.328125
587		101.562500
588		109.375000
589		99.609375
590		107.421875
591		95.703125
592		105.468750
593		93.750000
594		101.562500
595		91.796875
596		97.656250
597		89.843750
598		93.750000
599		83.984375
600		91.796875
601		80.078125
602		89.843750
603		78.125000
604		85.937500
605		74.218750
606		83.984375
607		70.312500
608		80.078125
609		66.406250
610		74.218750
611		64.453125
612		70.312500
613		60.546875
614		64.453125
615		52.734375
616		60.546875
617		48.828125
618		58.593750
619		44.921875
620		54.687500
621		39.062500
622		48.828125
623		35.156250
624		44.921875
625		31.250000
626		39.062500
627		27.343750
628		35.156250
629		21.484375
630		27.343750
631		15.625000
632		23.437500
633		9.765625
634		21.484375
635		5.859375
636		15.625000
637		0.000000
638		11.718750
639		-3.906250
640		5.859375
641		-9.765625
642		0.000000
643		-13.671875
644		-3.906250
645		-17.578125
646		-11.718750
647		-21.484375
648		-15.625000
649		-29.296875
650		-19.531250
651		-33.203125
652		-23.437500
653		-37.109375
654		-29.296875
655		-42.968750
656		-33.203125
657		-46.875000
658		-37.109375
659		-52.734375
660		-41.015625
661		-52.734375
662		-46.875000
663		-58.593750
664		-52.734375
665		-62.500000
666		-56.640625
667		-68.359375
668		-58.593750
669		-70.312500
670		-62.500000
671		-74.218750
672		-66.406250
673		-78.125000
674		-68.359375
675		-82.031250
676		-72.265625
677		-82.031250
678		-76.171875
679		-83.984375
680		-80.078125
681		-85.937500
682		-83.984375
683		-91.796875
684		-83.984375
685		-93.750000
686		-85.937500
687		-95.703125
688		-87.890625
689		-97.656250
690		-89.843750
691		-97.656250
692		-89.843750
693		-99.609375
694		-91.796875
695		-99.609375
696		-93.750000
697		-97.656250
698		-95.703125
699		-101.562500
700		-93.750000
701		-101.562500
702		-93.750000
703		-101.562500
704		-93.750000
705		-101.562500
706		-93.750000
707		-101.562500
708		-93.750000
709		-99.609375
710		-93.750000
711		-99.609375
712		-91.796875
713		-95.703125
714		-91.796875
715		-93.750000
716		-89.843750
717		-93.750000
718		-87.890625
719		-91.796875
720		-85.937500
721		-91.796875
722		-83.984375
723		-87.890625
724		-82.031250
725		-85.937500
726		-78.125000
727		-82.031250
728		-76.171875
729		-78.125000
730		-74.218750
731		-76.171875
732		-70.312500
733		-72.265625
734		-64.453125
735		-70.312500
736		-62.500000
737		-66.406250
738		-56.640625
739		-62.500000
740		-54.687500
741		-58.593750
742		-50.781250
743		-54.687500
744		-44.921875
745		-50.781250
746		-42.968750
747		-44.921875
748		-39.062500
749		-41.015625
750		-31.250000
751		-37.109375
752		-27.343750
753		-33.203125
754		-23.437500
755		-29.296875
756		-17.578125
757		-23.437500
758		-13.671875
759		-19.531250
760		-7.812500
761		-13.671875
762		-3.906250
763		-7.812500
764		0.000000
765		-1.953125
766		3.906250
767		1.953125
768		11.718750
769		5.859375
770		15.625000
771		11.718750
772		21.484375
773		15.625000
774		25.390625
775		21.484375
776		31.250000
777		25.390625
778		35.156250
779		31.250000
780		39.062500
781		37.109375
782		42.968750
783		41.015625
784		48.828125
785		44.921875
786		54.687500
787		48.828125
788		58.593750
789		52.734375
790		62.500000
791		58.593750
792		66.406250
793		62.500000
794		70.312500
795		66.406250
796		74.218750
797		72.265625
798		76.171875
799		76.171875
800		82.031250
801		76.171875
802		85.937500
803		82.031250
804		89.843750
805		83.984375
806		93.750000
807		87.890625
808		95.703125
809		89.843750
810		99.609375
811		93.750000
812		101.562500
813		97.656250
814		101.562500
815		99.609375
816		105.468750
817		101.562500
818		109.375000
819		103.515625
820		111.328125
821		105.468750
822		113.281250
823		107.421875
824		115.234375
825		109.375000
826		117.187500
827		111.328125
828		117.187500
829		113.281250
830		119.140625
831		115.234375
832		117.187500
833		115.234375
834		121.093750
835		115.234375
836		123.046875
837		115.234375
838		123.046875
839		117.187500
840		123.046875
841		117.187500
842		123.046875
843		117.187500
844		123.046875
845		117.187500
846		123.046875
847		119.140625
848		121.093750
849		119.140625
850		121.093750
851		115.234375
852		123.046875
853		115.234375
854		121.093750
855		113.281250
856		121.093750
857		113.281250
858		119.140625
859		111.328125
860		119.140625
861		109.375000
862		117.187500
863		109.375000
864		115.234375
865		107.421875
866		111.328125
867		103.515625
868		111.328125
869		101.562500
870		109.375000
871		99.609375
872		107.421875
873		95.703125
874		105.468750
875		95.703125
876		101.562500
877		91.796875
878		99.609375
879		89.843750
880		95.703125
881		85.937500
882		91.796875
883		82.031250
884		87.890625
885		78.125000
886		85.937500
887		74.218750
888		82.031250
889		70.312500
890		80.078125
891		66.406250
892		76.171875
893		60.546875
894		72.265625
895		58.593750
896		66.406250
897		56.640625
898		60.546875
899		50.781250
900		56.640625
901		44.921875
902		52.734375
903		41.015625
904		48.828125
905		35.156250
906		44.921875
907		31.250000
908		41.015625
909		25.390625
910		37.109375
911		21.484375
912		31.250000
913		17.578125
914		25.390625
915		13.671875
916		19.531250
917		5.859375
918		15.625000
919		1.953125
920		9.765625
921		-3.906250
922		5.859375
923		-9.765625
924		1.953125
925		-13.671875
926		-3.906250
927		-19.531250
928		-7.812500
929		-23.437500
930		-11.718750
931		-25.390625
932		-19.531250
933		-31.250000
934		-25.390625
935		-37.109375
936		-29.296875
937		-42.968750
938		-33.203125
939		-46.875000
940		-37.109375
941		-50.781250
942		-41.015625
943		-56.640625
944		-44.921875
945		-58.593750
946		-50.781250
947		-60.546875
948		-54.687500
949		-64.453125
950		-60.546875
951		-70.312500
952		-64.453125
953		-72.265625
954		-66.406250
955		-78.125000
956		-68.359375
957		-80.078125
958		-72.265625
959		-83.984375
960		-74.218750
961		-85.937500
962		-78.125000
963		-87.890625
964		-80.078125
965		-89.843750
966		-85.937500
967		-93.750000
968		-87.890625
969		-95.703125
970		-87.890625
971		-97.656250
972		-89.843750
973		-97.656250
974		-89.843750
975		-99.609375
976		-91.796875
977		-101.562500
978		-93.750000
979		-101.562500
980		-93.750000
981		-99.609375
982		-97.656250
983		-99.609375
984		-97.656250
985		-101.562500
986		-95.703125
987		-101.562500
988		-95.703125
989		-101.562500
990		-93.750000
991		-101.562500
992		-93.750000
993		-99.609375
994		-91.796875
995		-97.656250
996		-89.843750
997		-97.656250
998		-89.843750
999		-93.750000
1000		-89.843750
1001		-91.796875
1002		-83.984375
1003		-91.796875
1004		-83.984375
1005		-89.843750
1006		-82.031250
1007		-85.937500
1008		-78.125000
1009		-83.984375
1010		-76.171875
1011		-80.078125
1012		-72.265625
1013		-78.125000
1014		-70.312500
1015		-72.265625
1016		-68.359375
1017		-68.359375
1018		-64.453125
1019		-66.406250
1020		-58.593750
1021		-64.453125
1022		-54.687500
1023		-58.593750
1024		-50.781250
1025		-56.640625
1026		-46.875000
1027		-50.781250
1028		-41.015625
1029		-46.875000
1030		-37.109375
1031		-42.968750
1032		-35.156250
1033		-35.156250
1034		-29.296875
1035		-31.250000
1036		-23.437500
1037		-29.296875
1038		-19.531250
1039		-23.437500
1040		-13.671875
1041		-17.578125
1042		-9.765625
1043		-13.671875
1044		-3.906250
1045		-7.812500
1046		1.953125
1047		-3.906250
1048		3.906250
1049		1.953125
1050		9.765625
1051		7.812500
1052		15.625000
1053		11.718750
1054		19.531250
1055		15.625000
1056		25.390625
1057		21.484375
1058		29.296875
1059		25.390625
1060		35.156250
1061		31.250000
1062		41.015625
1063		35.156250
1064		44.921875
1065		41.015625
1066		46.875000
1067		46.875000
1068		52.734375
1069		50.781250
1070		58.593750
1071		52.734375
1072		62.500000
1073		58.593750
1074		68.359375
1075		60.546875
1076		70.312500
1077		66.406250
1078		74.218750
1079		68.359375
1080		78.125000
1081		72.265625
1082		80.078125
1083		78.125000
1084		83.984375
1085		82.031250
1086		89.843750
1087		83.984375
1088		91.796875
1089		85.937500
1090		95.703125
1091		89.843750
1092		99.609375
1093		93.750000
1094		101.562500
1095		95.703125
1096		103.515625
1097		99.609375
1098		105.468750
1099		103.515625
1100		107.421875
1101		105.468750
1102		109.375000
1103		105.468750
1104		113.281250
1105		107.421875
1106		115.234375
1107		109.375000
1108		117.187500
1109		111.328125
1110		119.140625
1111		111.328125
1112		119.140625
1113		113.281250
1114		119.140625
1115		115.234375
1116		121.093750
1117		117.187500
1118		119.140625
1119		117.187500
1120		123.046875
1121		117.187500
1122		123.046875
1123		117.187500
1124		123.046875
1125		117.187500
1126		123.046875
1127		117.187500
1128		123.046875
1129		117.187500
1130		123.046875
1131		117.187500
1132		123.046875
1133		117.187500
1134		121.093750
1135		117.187500
1136		119.140625
1137		113.281250
1138		121.093750
1139		113.281250
1140		121.093750
1141		111.328125
1142		119.140625
1143		109.375000
1144		117.187500
1145		109.375000
1146		115.234375
1147		107.421875
1148		113.281250
1149		105.468750
1150		109.375000
1151		103.515625
1152		107.421875
1153		99.609375
1154		107.421875
1155		97.656250
1156		105.468750
1157		95.703125
1158		101.562500
1159		91.796875
1160		101.562500
1161		89.843750
1162		97.656250
1163		85.937500
1164		93.750000
1165		83.984375
1166		89.843750
1167		80.078125
1168		85.937500
1169		76.171875
1170		82.031250
1171		70.312500
1172		80.078125
1173		68.359375
1174		76.171875
1175		62.500000
1176		72.265625
1177		58.593750
1178		68.359375
1179		54.687500
1180		64.453125
1181		50.781250
1182		58.593750
1183		46.875000
1184		52.734375
1185		42.968750
1186		48.828125
1187		37.109375
1188		44.921875
1189		31.250000
1190		41.015625
1191		27.343750
1192		37.109375
1193		21.484375
1194		33.203125
1195		15.625000
1196		27.343750
1197		11.718750
1198		21.484375
1199		9.765625
1200		17.578125
1201		3.906250
1202		9.765625
1203		-1.953125
1204		5.859375
1205		-7.812500
1206		1.953125
1207		-11.718750
1208		-1.953125
1209		-17.578125
1210		-7.812500
1211		-21.484375
1212		-11.718750
1213		-27.343750
1214		-17.578125
1215		-31.250000
1216		-23.437500
1217		-35.156250
1218		-29.296875
1219		-39.062500
1220		-33.203125
1221		-46.875000
1222		-37.109375
1223		-48.828125
1224		-41.015625
1225		-54.687500
1226		-44.921875
1227		-58.593750
1228		-48.828125
1229		-62.500000
1230		-52.734375
1231		-66.406250
1232		-56.640625
1233		-68.359375
1234		-62.500000
1235		-72.265625
1236		-66.406250
1237		-76.171875
1238		-70.312500
1239		-80.078125
1240		-70.312500
1241		-83.984375
1242		-74.218750
1243		-85.937500
1244		-78.125000
1245		-87.890625
1246		-80.078125
1247		-91.796875
1248		-82.031250
1249		-91.796875
1250		-85.937500
1251		-91.796875
1252		-89.843750
1253		-97.656250
1254		-89.843750
1255		-97.656250
1256		-89.843750
1257		-99.609375
1258		-91.796875
1259		-99.609375
1260		-91.796875
1261		-99.609375
1262		-93.750000
1263		-101.562500
1264		-93.750000
1265		-101.562500
1266		-95.703125
1267		-99.609375
1268		-95.703125
1269		-99.609375
1270		-95.703125
1271		-99.609375
1272		-93.750000
1273		-99.609375
1274		-93.750000
1275		-99.609375
1276		-91.796875
1277		-97.656250
1278		-89.843750
1279		-97.656250
1280		-89.843750
1281		-95.703125
1282		-87.890625
1283		-93.750000
1284		-85.937500
1285		-89.843750
1286		-85.937500
1287		-87.890625
1288		-82.031250
1289		-87.890625
1290		-76.171875
1291		-83.984375
1292		-76.171875
1293		-80.078125
1294		-72.265625
1295		-78.125000
1296		-68.359375
1297		-74.218750
1298		-64.453125
1299		-72.265625
1300		-64.453125
1301		-66.406250
1302		-60.546875
1303		-62.500000
1304		-56.640625
1305		-58.593750
1306		-50.781250
1307		-56.640625
1308		-46.875000
1309		-50.781250
1310		-42.968750
1311		-46.875000
1312		-37.109375
1313		-42.968750
1314		-33.203125
1315		-39.062500
1316		-29.296875
1317		-33.203125
1318		-25.390625
1319		-27.343750
1320		-21.484375
1321		-21.484375
1322		-13.671875
1323		-19.531250
1324		-9.765625
1325		-13.671875
1326		-3.906250
1327		-9.765625
1328		1.953125
1329		-3.906250
1330		5.859375
1331		0.000000
1332		11.718750
1333		5.859375
1334		13.671875
1335		11.718750
1336		19.531250
1337		17.578125
1338		23.437500
1339		19.531250
1340		29.296875
1341		25.390625
1342		35.156250
1343		29.296875
1344		41.015625
1345		33.203125
1346		44.921875
1347		39.062500
1348		48.828125
1349		42.968750
1350		52.734375
1351		50.781250
1352		56.640625
1353		54.687500
1354		60.546875
1355		58.593750
1356		66.406250
1357		60.546875
1358		70.312500
1359		64.453125
1360		74.218750
1361		68.359375
1362		78.125000
1363		74.218750
1364		82.031250
1365		76.171875
1366		85.937500
1367		80.078125
1368		87.890625
1369		85.937500
1370		89.843750
1371		87.890625
1372		95.703125
1373		89.843750
1374		99.609375
1375		93.750000
1376		101.562500
1377		95.703125
1378		103.515625
1379		97.656250
1380		107.421875
1381		99.609375
1382		109.375000
1383		103.515625
1384		111.328125
1385		107.421875
1386		111.328125
1387		109.375000
1388		113.281250
1389		109.375000
1390		115.234375
1391		111.328125
1392		117.187500
1393		113.281250
1394		119.140625
1395		113.281250
1396		121.093750
1397		115.234375
1398		121.093750
1399		115.234375
1400		123.046875
1401		117.187500
1402		121.093750
1403		119.140625
1404		121.093750
1405		117.187500
1406		125.000000
1407		117.187500
1408		123.046875
1409		117.187500
1410		123.046875
1411		117.187500
1412		123.046875
1413		117.187500
1414		123.046875
1415		117.187500
1416		123.046875
1417		115.234375
1418		123.046875
1419		117.187500
1420		119.140625
1421		115.234375
1422		119.140625
1423		111.328125
1424		119.140625
1425		111.328125
1426		117.187500
1427		109.375000
1428		117.187500
1429		107.421875
1430		113.281250
1431		105.468750
1432		113.281250
1433		101.562500
1434		109.375000
1435		101.562500
1436		107.421875
1437		99.609375
1438		103.515625
1439		95.703125
1440		101.562500
1441		91.796875
1442		99.609375
1443		89.843750
1444		97.656250
1445		85.937500
1446		93.750000
1447		82.031250
1448		91.796875
1449		80.078125
1450		87.890625
1451		78.125000
1452		85.937500
1453		74.218750
1454		78.125000
1455		68.359375
1456		74.218750
1457		62.500000
1458		72.265625
1459		60.546875
1460		68.359375
1461		54.687500
1462		64.453125
1463		50.781250
1464		60.546875
1465		46.875000
1466		56.640625
1467		42.968750
1468		50.781250
1469		39.062500
1470		44.921875
1471		35.156250
1472		41.015625
1473		27.343750
1474		37.109375
1475		23.437500
1476		33.203125
1477		17.578125
1478		27.343750
1479		13.671875
1480		23.437500
1481		7.812500
1482		17.578125
1483		1.953125
1484		13.671875
1485		0.000000
1486		7.812500
1487		-5.859375
1488		1.953125
1489		-11.718750
1490		-3.906250
1491		-17.578125
1492		-7.812500
1493		-21.484375
1494		-11.718750
1495		-27.343750
1496		-15.625000
1497		-31.250000
1498		-21.484375
1499		-37.109375
1500		-25.390625
1501		-39.062500
1502		-31.250000
1503		-42.968750
1504		-37.109375
1505		-48.828125
1506		-41.015625
1507		-54.687500
1508		-44.921875
1509		-56.640625
1510		-48.828125
1511		-62.500000
1512		-52.734375
1513		-64.453125
1514		-56.640625
1515		-68.359375
1516		-60.546875
1517		-72.265625
1518		-64.453125
1519		-74.218750
1520		-70.312500
1521		-78.125000
1522		-72.265625
1523		-82.031250
1524		-74.218750
1525		-85.937500
1526		-76.171875
1527		-87.890625
1528		-80.078125
1529		-89.843750
1530		-82.031250
1531		-93.750000
1532		-83.984375
1533		-93.750000
1534		-85.937500
1535		-95.703125
1536		-87.890625
1537		-95.703125
1538		-91.796875
1539		-99.609375
1540		-91.796875
1541		-99.609375
1542		-91.796875
1543		-99.609375
1544		-93.750000
1545		-101.562500
1546		-93.750000
1547		-101.562500
1548		-93.750000
1549		-101.562500
1550		-93.750000
1551		-101.562500
1552		-93.750000
1553		-97.656250
1554		-95.703125
1555		-97.656250
1556		-95.703125
1557		-97.656250
1558		-91.796875
1559		-97.656250
1560		-91.796875
1561		-95.703125
1562		-89.843750
1563		-93.750000
1564		-87.890625
1565		-91.796875
1566		-85.937500
1567		-91.796875
1568		-83.984375
1569		-87.890625
1570		-82.031250
1571		-83.984375
1572		-80.078125
1573		-82.031250
1574		-76.171875
1575		-82.031250
1576		-72.265625
1577		-78.125000
1578		-70.312500
1579		-74.218750
1580		-66.406250
1581		-72.265625
1582		-62.500000
1583		-68.359375
1584		-58.593750
1585		-64.453125
1586		-56.640625
1587		-58.593750
1588		-52.734375
1589		-54.687500
1590		-46.875000
1591		-50.781250
1592		-42.968750
1593		-46.875000
1594		-39.062500
1595		-42.968750
1596		-33.203125
1597		-39.062500
1598		-29.296875
1599		-33.203125
1600		-23.437500
1601		-29.296875
1602		-19.531250
1603		-23.437500
1604		-17.578125
1605		-17.578125
1606		-11.718750
1607		-13.671875
1608		-5.859375
1609		-9.765625
1610		0.000000
1611		-3.906250
1612		3.906250
1613		0.000000
1614		9.765625
1615		3.906250
1616		13.671875
1617		9.765625
1618		19.531250
1619		13.671875
1620		23.437500
1621		21.484375
1622		27.343750
1623		27.343750
1624		35.156250
1625		29.296875
1626		39.062500
1627		33.203125
1628		44.921875
1629		39.062500
1630		48.828125
1631		42.968750
1632		52.734375
1633		48.828125
1634		56.640625
1635		50.781250
1636		60.546875
1637		58.593750
1638		64.453125
1639		62.500000
1640		68.359375
1641		66.406250
1642		74.218750
1643		68.359375
1644		78.125000
1645		72.265625
1646		82.031250
1647		76.171875
1648		85.937500
1649		80.078125
1650		87.890625
1651		82.031250
1652		91.796875
1653		85.937500
1654		93.750000
1655		91.796875
1656		95.703125
1657		93.750000
1658		101.562500
1659		95.703125
1660		103.515625
1661		97.656250
1662		107.421875
1663		99.609375
1664		109.375000
1665		103.515625
1666		111.328125
1667		105.468750
1668		113.281250
1669		107.421875
1670		113.281250
1671		111.328125
1672		115.234375
1673		113.281250
1674		117.187500
1675		113.281250
1676		119.140625
1677		113.281250
1678		121.093750
1679		115.234375
1680		121.093750
1681		115.234375
1682		123.046875
1683		115.234375
1684		123.046875
1685		117.187500
1686		123.046875
1687		119.140625
1688		121.093750
1689		119.140625
1690		121.093750
1691		117.187500
1692		123.046875
1693		117.187500
1694		123.046875
1695		117.187500
1696		123.046875
1697		115.234375
1698		123.046875
1699		115.234375
1700		123.046875
1701		115.234375
1702		123.046875
1703		115.234375
1704		121.093750
1705		115.234375
1706		117.187500
1707		111.328125
1708		117.187500
1709		109.375000
1710		117.187500
1711		107.421875
1712		115.234375
1713		105.468750
1714		113.281250
1715		103.515625
1716		111.328125
1717		101.562500
1718		109.375000
1719		99.609375
1720		105.468750
1721		97.656250
1722		101.562500
1723		95.703125
1724		99.609375
1725		89.843750
1726		97.656250
1727		85.937500
1728		95.703125
1729		82.031250
1730		91.796875
1731		80.078125
1732		87.890625
1733		76.171875
1734		83.984375
1735		72.265625
1736		82.031250
1737		70.312500
1738		78.125000
1739		66.406250
1740		72.265625
1741		60.546875
1742		68.359375
1743		54.687500
1744		66.406250
1745		50.781250
1746		60.546875
1747		46.875000
1748		56.640625
1749		42.968750
1750		52.734375
1751		37.109375
1752		48.828125
1753		35.156250
1754		42.968750
1755		29.296875
1756		37.109375
1757		25.390625
1758		31.250000
1759		17.578125
1760		27.343750
1761		13.671875
1762		23.437500
1763		9.765625
1764		19.531250
1765		3.906250
1766		13.671875
1767		-1.953125
1768		7.812500
1769		-5.859375
1770		3.906250
1771		-9.765625
1772		-3.906250
1773		-13.671875
1774		-7.812500
1775		-21.484375
1776		-13.671875
1777		-25.390625
1778		-15.625000
1779		-31.250000
1780		-21.484375
1781		-35.156250
1782		-25.390625
1783		-39.062500
1784		-29.296875
1785		-44.921875
1786		-35.156250
1787		-46.875000
1788		-39.062500
1789		-50.781250
1790		-44.921875
1791		-56.640625
1792		-48.828125
1793		-60.546875
1794		-50.781250
1795		-64.453125
1796		-56.640625
1797		-68.359375
1798		-60.546875
1799		-72.265625
1800		-62.500000
1801		-76.171875
1802		-66.406250
1803		-78.125000
1804		-70.312500
1805		-80.078125
1806		-74.218750
1807		-82.031250
1808		-78.125000
1809		-87.890625
1810		-80.078125
1811		-89.843750
1812		-82.031250
1813		-91.796875
1814		-83.984375
1815		-93.750000
1816		-85.937500
1817		-95.703125
1818		-87.890625
1819		-95.703125
1820		-89.843750
1821		-95.703125
1822		-91.796875
1823		-95.703125
1824		-93.750000
1825		-99.609375
1826		-91.796875
1827		-99.609375
1828		-93.750000
1829		-101.562500
1830		-93.750000
1831		-101.562500
1832		-93.750000
1833		-101.562500
1834		-93.750000
1835		-99.609375
1836		-93.750000
1837		-99.609375
1838		-93.750000
1839		-95.703125
1840		-93.750000
1841		-95.703125
1842		-91.796875
1843		-95.703125
1844		-89.843750
1845		-93.750000
1846		-87.890625
1847		-93.750000
1848		-85.937500
1849		-89.843750
1850		-83.984375
1851		-89.843750
1852		-80.078125
1853		-85.937500
1854		-78.125000
1855		-82.031250
1856		-78.125000
1857		-78.125000
1858		-74.218750
1859		-76.171875
1860		-70.312500
1861		-74.218750
1862		-66.406250
1863		-72.265625
1864		-62.500000
1865		-68.359375
1866		-58.593750
1867		-64.453125
1868		-54.687500
1869		-60.546875
1870		-50.781250
1871		-56.640625
1872		-48.828125
1873		-50.781250
1874		-44.921875
1875		-46.875000
1876		-39.062500
1877		-42.968750
1878		-33.203125
1879		-39.062500
1880		-29.296875
1881		-33.203125
1882		-23.437500
1883		-29.296875
1884		-19.531250
1885		-23.437500
1886		-15.625000
1887		-19.531250
1888		-11.718750
1889		-13.671875
1890		-7.812500
1891		-7.812500
1892		-1.953125
1893		-3.906250
1894		5.859375
1895		0.000000
1896		9.765625
1897		5.859375
1898		15.625000
1899		9.765625
1900		19.531250
1901		15.625000
1902		25.390625
1903		19.531250
1904		29.296875
1905		23.437500
1906		33.203125
1907		31.250000
1908		37.109375
1909		35.156250
1910		42.968750
1911		39.062500
1912		48.828125
1913		42.968750
1914		52.734375
1915		46.875000
1916		56.640625
1917		52.734375
1918		62.500000
1919		56.640625
1920		66.406250
1921		60.546875
1922		68.359375
1923		66.406250
1924		72.265625
1925		70.312500
1926		76.171875
1927		72.265625
1928		82.031250
1929		76.171875
1930		83.984375
1931		80.078125
1932		87.890625
1933		82.031250
1934		91.796875
1935		85.937500
1936		95.703125
1937		87.890625
1938		97.656250
1939		93.750000
1940		99.609375
1941		97.656250
1942		101.562500
1943		99.609375
1944		105.468750
1945		99.609375
1946		109.375000
1947		103.515625
1948		111.328125
1949		105.468750
1950		113.281250
1951		107.421875
1952		115.234375
1953		109.375000
1954		117.187500
1955		111.328125
1956		117.187500
1957		115.234375
1958		117.187500
1959		115.234375
1960		119.140625
1961		113.281250
1962		121.093750
1963		115.234375
1964		123.046875
1965		117.187500
1966		125.000000
1967		117.187500
1968		125.000000
1969		117.187500
1970		123.046875
1971		117.187500
1972		125.000000
1973		119.140625
1974		123.046875
1975		119.140625
1976		121.093750
1977		117.187500
1978		125.000000
1979		117.187500
1980		123.046875
1981		115.234375
1982		123.046875
1983		115.234375
1984		123.046875
1985		115.234375
1986		121.093750
1987		113.281250
1988		119.140625
1989		111.328125
1990		119.140625
1991		111.328125
1992		115.234375
1993		107.421875
1994		113.281250
1995		105.468750
1996		113.281250
1997		103.515625
1998		111.328125
1999		101.562500
2000		109.375000
2001		97.656250
2002		107.421875
2003		95.703125
2004		105.468750
2005		93.750000
2006		101.562500
2007		91.796875
2008		97.656250
2009		89.843750
2010		93.750000
2011		83.984375
2012		91.796875
2013		80.078125
2014		89.843750
2015		78.125000
2016		85.937500
2017		74.218750
2018		82.031250
2019		70.312500
2020		78.125000
2021		64.453125
2022		74.218750
2023		62.500000
2024		70.312500
2025		58.593750
2026		64.453125
2027		52.734375
2028		60.546875
2029		48.828125
2030		56.640625
2031		44.921875
2032		52.734375
2033		39.062500
2034		48.828125
2035		33.203125
2036		42.968750
2037		29.296875
2038		39.062500
2039		25.390625
2040		35.156250
2041		21.484375
2042		27.343750
2043		15.625000
2044		23.437500
2045		9.765625
2046		19.531250
2047		3.906250
2048		15.625000
2049		0.000000
2050		9.765625
2051		-5.859375
2052		5.859375
2053		-9.765625
2054		0.000000
2055		-13.671875
2056		-5.859375
2057		-17.578125
2058		-11.718750
2059		-23.437500
2060		-17.578125
2061		-31.250000
2062		-21.484375
2063		-35.156250
2064		-25.390625
2065		-39.062500
2066		-29.296875
2067		-42.968750
2068		-33.203125
2069		-46.875000
2070		-39.062500
2071		-50.781250
2072		-42.968750
2073		-54.687500
2074		-46.875000
2075		-58.593750
2076		-52.734375
2077		-64.453125
2078		-56.640625
2079		-68.359375
2080		-58.593750
2081		-72.265625
2082		-62.500000
2083		-74.218750
2084		-66.406250
2085		-78.125000
2086		-70.312500
2087		-80.078125
2088		-72.265625
2089		-82.031250
2090		-76.171875
2091		-83.984375
2092		-80.078125
2093		-87.890625
2094		-82.031250
2095		-91.796875
2096		-82.031250
2097		-91.796875
2098		-85.937500
2099		-95.703125
2100		-87.890625
2101		-95.703125
2102		-89.843750
2103		-97.656250
2104		-89.843750
2105		-97.656250
2106		-91.796875
2107		-97.656250
2108		-93.750000
2109		-97.656250
2110		-95.703125
2111		-99.609375
2112		-93.750000
2113		-101.562500
2114		-93.750000
2115		-99.609375
2116		-93.750000
2117		-101.562500
2118		-93.750000
2119		-99.609375
2120		-91.796875
2121		-99.609375
2122		-91.796875
2123		-97.656250
2124		-89.843750
2125		-95.703125
2126		-91.796875
2127		-93.750000
2128		-89.843750
2129		-93.750000
2130		-85.937500
2131		-91.796875
2132		-83.984375
2133		-89.843750
2134		-82.031250
2135		-87.890625
2136		-78.125000
2137		-83.984375
2138		-76.171875
2139		-82.031250
2140		-72.265625
2141		-76.171875
2142		-72.265625
2143		-72.265625
2144		-68.359375
2145		-70.312500
2146		-62.500000
2147		-68.359375
2148		-60.546875
2149		-66.406250
2150		-56.640625
2151		-60.546875
2152		-52.734375
2153		-56.640625
2154		-46.875000
2155		-52.734375
2156		-42.968750
2157		-48.828125
2158		-41.015625
2159		-41.015625
2160		-35.156250
2161		-37.109375
2162		-29.296875
2163		-35.156250
2164		-25.390625
2165		-29.296875
2166		-19.531250
2167		-25.390625
2168		-15.625000
2169		-21.484375
2170		-9.765625
2171		-15.625000
2172		-5.859375
2173		-11.718750
2174		-1.953125
2175		-3.906250
2176		1.953125
2177		0.000000
2178		7.812500
2179		5.859375
2180		13.671875
2181		9.765625
2182		19.531250
2183		13.671875
2184		23.437500
2185		17.578125
2186		29.296875
2187		23.437500
2188		33.203125
2189		27.343750
2190		37.109375
2191		31.250000
2192		41.015625
2193		39.062500
2194		44.921875
2195		44.921875
2196		50.781250
2197		46.875000
2198		56.640625
2199		50.781250
2200		60.546875
2201		54.687500
2202		66.406250
2203		60.546875
2204		70.312500
2205		64.453125
2206		72.265625
2207		68.359375
2208		76.171875
2209		74.218750
2210		80.078125
2211		78.125000
2212		83.984375
2213		80.078125
2214		87.890625
2215		83.984375
2216		91.796875
2217		85.937500
2218		93.750000
2219		89.843750
2220		97.656250
2221		91.796875
2222		101.562500
2223		93.750000
2224		103.515625
2225		99.609375
2226		103.515625
2227		101.562500
2228		105.468750
2229		103.515625
2230		111.328125
2231		105.468750
2232		113.281250
2233		107.421875
2234		115.234375
2235		109.375000
2236		115.234375
2237		109.375000
2238		117.187500
2239		111.328125
2240		119.140625
2241		113.281250
2242		119.140625
2243		115.234375
2244		119.140625
2245		115.234375
2246		123.046875
2247		115.234375
2248		123.046875
2249		117.187500
2250		123.046875
2251		117.187500
2252		125.000000
2253		117.187500
2254		125.000000
2255		117.187500
2256		125.000000
2257		117.187500
2258		125.000000
2259		119.140625
2260		121.093750
2261		119.140625
2262		121.093750
2263		115.234375
2264		123.046875
2265		115.234375
2266		123.046875
2267		113.281250
2268		121.093750
2269		113.281250
2270		121.093750
2271		111.328125
2272		119.140625
2273		109.375000
2274		117.187500
2275		109.375000
2276		115.234375
2277		107.421875
2278		111.328125
2279		103.515625
2280		111.328125
2281		101.562500
2282		109.375000
2283		99.609375
2284		107.421875
2285		95.703125
2286		105.468750
2287		93.750000
2288		101.562500
2289		89.843750
2290		99.609375
2291		89.843750
2292		95.703125
2293		85.937500
2294		91.796875
2295		82.031250
2296		87.890625
2297		76.171875
2298		85.937500
2299		74.218750
2300		82.031250
2301		68.359375
2302		78.125000
2303		66.406250
2304		76.171875
2305		60.546875
2306		70.312500
2307		56.640625
2308		66.406250
2309		54.687500
2310		60.546875
2311		50.781250
2312		56.640625
2313		42.968750
2314		52.734375
2315		39.062500
2316		48.828125
2317		35.156250
2318		44.921875
2319		29.296875
2320		41.015625
2321		25.390625
2322		35.156250
2323		19.531250
2324		31.250000
2325		17.578125
2326		25.390625
2327		11.718750
2328		17.578125
2329		5.859375
2330		13.671875
2331		0.000000
2332		9.765625
2333		-3.906250
2334		5.859375
2335		-9.765625
2336		0.000000
2337		-15.625000
2338		-3.906250
2339		-19.531250
2340		-9.765625
2341		-23.437500
2342		-15.625000
2343		-27.343750
2344		-21.484375
2345		-31.250000
2346		-25.390625
2347		-39.062500
2348		-29.296875
2349		-42.968750
2350		-33.203125
2351		-46.875000
2352		-39.062500
2353		-52.734375
2354		-42.968750
2355		-56.640625
2356		-46.875000
2357		-60.546875
2358		-50.781250
2359		-62.500000
2360		-54.687500
2361		-66.406250
2362		-60.546875
2363		-70.312500
2364		-64.453125
2365		-74.218750
2366		-66.406250
2367		-78.125000
2368		-70.312500
2369		-82.031250
2370		-72.265625
2371		-83.984375
2372		-76.171875
2373		-85.937500
2374		-78.125000
2375		-87.890625
2376		-82.031250
2377		-89.843750
2378		-85.937500
2379		-91.796875
2380		-87.890625
2381		-95.703125
2382		-87.890625
2383		-97.656250
2384		-87.890625
2385		-97.656250
2386		-89.843750
2387		-99.609375
2388		-91.796875
2389		-99.609375
2390		-91.796875
2391		-101.562500
2392		-93.750000
2393		-99.609375
2394		-95.703125
2395		-99.609375
2396		-95.703125
2397		-101.562500
2398		-93.750000
2399		-101.562500
2400		-93.750000
2401		-99.609375
2402		-93.750000
2403		-99.609375
2404		-93.750000
2405		-99.609375
2406		-91.796875
2407		-97.656250
2408		-89.843750
2409		-95.703125
2410		-89.843750
2411		-91.796875
2412		-89.843750
2413		-91.796875
2414		-85.937500
2415		-89.843750
2416		-82.031250
2417		-87.890625
2418		-80.078125
2419		-85.937500
2420		-76.171875
2421		-82.031250
2422		-74.218750
2423		-80.078125
2424		-70.312500
2425		-76.171875
2426		-68.359375
2427		-72.265625
2428		-66.406250
2429		-68.359375
2430		-62.500000
2431		-64.453125
2432		-56.640625
2433		-62.500000
2434		-52.734375
2435		-58.593750
2436		-48.828125
2437		-54.687500
2438		-44.921875
2439		-48.828125
2440		-39.062500
2441		-44.921875
2442		-35.156250
2443		-39.062500
2444		-33.203125
2445		-35.156250
2446		-29.296875
2447		-29.296875
2448		-21.484375
2449		-27.343750
2450		-17.578125
2451		-21.484375
2452		-11.718750
2453		-17.578125
2454		-7.812500
2455		-11.718750
2456		-1.953125
2457		-7.812500
2458		1.953125
2459		-1.953125
2460		5.859375
2461		3.906250
2462		9.765625
2463		9.765625
2464		15.625000
2465		11.718750
2466		21.484375
2467		17.578125
2468		27.343750
2469		21.484375
2470		31.250000
2471		27.343750
2472		37.109375
2473		31.250000
2474		41.015625
2475		37.109375
2476		46.875000
2477		42.968750
2478		48.828125
2479		46.875000
2480		52.734375
2481		52.734375
2482		60.546875
2483		54.687500
2484		62.500000
2485		58.593750
2486		68.359375
2487		62.500000
2488		72.265625
2489		66.406250
2490		76.171875
2491		70.312500
2492		80.078125
2493		74.218750
2494		82.031250
2495		80.078125
2496		83.984375
2497		83.984375
2498		89.843750
2499		83.984375
2500		93.750000
2501		87.890625
2502		95.703125
2503		89.843750
2504		99.609375
2505		93.750000
2506		101.562500
2507		95.703125
2508		105.468750
2509		99.609375
2510		107.421875
2511		103.515625
2512		107.421875
2513		105.468750
2514		109.375000
2515		105.468750
2516		113.281250
2517		107.421875
2518		115.234375
2519		109.375000
2520		117.187500
2521		111.328125
2522		117.187500
2523		113.281250
2524		119.140625
2525		113.281250
2526		121.093750
2527		115.234375
2528		121.093750
2529		117.187500
2530		119.140625
2531		115.234375
2532		123.046875
2533		117.187500
2534		123.046875
2535		115.234375
2536		123.046875
2537		117.187500
2538		123.046875
2539		117.187500
2540		123.046875
2541		117.187500
2542		123.046875
2543		117.187500
2544		123.046875
2545		117.187500
2546		119.140625
2547		115.234375
2548		119.140625
2549		113.281250
2550		119.140625
2551		113.281250
2552		119.140625
2553		111.328125
2554		117.187500
2555		109.375000
2556		117.187500
2557		107.421875
2558		115.234375
2559		105.468750
2560		113.281250
2561		105.468750
2562		109.375000
2563		103.515625
2564		107.421875
2565		99.609375
2566		105.468750
2567		95.703125
2568		103.515625
2569		93.750000
2570		101.562500
2571		89.843750
2572		97.656250
2573		85.937500
2574		95.703125
2575		83.984375
2576		91.796875
2577		82.031250
2578		89.843750
2579		78.125000
2580		83.984375
2581		74.218750
2582		80.078125
2583		68.359375
2584		78.125000
2585		64.453125
2586		74.218750
2587		60.546875
2588		70.312500
2589		56.640625
2590		66.406250
2591		50.781250
2592		62.500000
2593		48.828125
2594		56.640625
2595		44.921875
2596		50.781250
2597		41.015625
2598		46.875000
2599		33.203125
2600		42.968750
2601		29.296875
2602		39.062500
2603		23.437500
2604		33.203125
2605		19.531250
2606		29.296875
2607		15.625000
2608		25.390625
2609		9.765625
2610		19.531250
2611		5.859375
2612		15.625000
2613		1.953125
2614		7.812500
2615		-3.906250
2616		3.906250
2617		-9.765625
2618		0.000000
2619		-13.671875
2620		-3.906250
2621		-19.531250
2622		-9.765625
2623		-23.437500
2624		-15.625000
2625		-29.296875
2626		-19.531250
2627		-33.203125
2628		-23.437500
2629		-37.109375
2630		-31.250000
2631		-42.968750
2632		-35.156250
2633		-48.828125
2634		-39.062500
2635		-52.734375
2636		-42.968750
2637		-56.640625
2638		-46.875000
2639		-60.546875
2640		-50.781250
2641		-64.453125
2642		-54.687500
2643		-68.359375
2644		-60.546875
2645		-70.312500
2646		-64.453125
2647		-74.218750
2648		-68.359375
2649		-78.125000
2650		-72.265625
2651		-82.031250
2652		-74.218750
2653		-85.937500
2654		-76.171875
2655		-87.890625
2656		-80.078125
2657		-89.843750
2658		-82.031250
2659		-91.796875
2660		-83.984375
2661		-91.796875
2662		-85.937500
2663		-93.750000
2664		-89.843750
2665		-95.703125
2666		-91.796875
2667		-99.609375
2668		-91.796875
2669		-99.609375
2670		-91.796875
2671		-101.562500
2672		-93.750000
2673		-101.562500
2674		-95.703125
2675		-101.562500
2676		-95.703125
2677		-101.562500
2678		-95.703125
2679		-99.609375
2680		-97.656250
2681		-99.609375
2682		-97.656250
2683		-101.562500
2684		-93.750000
2685		-101.562500
2686		-93.750000
2687		-99.609375
2688		-91.796875
2689		-99.609375
2690		-91.796875
2691		-97.656250
2692		-89.843750
2693		-95.703125
2694		-87.890625
2695		-93.750000
2696		-87.890625
2697		-89.843750
2698		-85.937500
2699		-87.890625
2700		-82.031250
2701		-87.890625
2702		-78.125000
2703		-83.984375
2704		-76.171875
2705		-82.031250
2706		-72.265625
2707		-78.125000
2708		-70.312500
2709		-76.171875
2710		-66.406250
2711		-72.265625
2712		-64.453125
2713		-66.406250
2714		-60.546875
2715		-62.500000
2716		-56.640625
2717		-58.593750
2718		-50.781250
2719		-56.640625
2720		-44.921875
2721		-50.781250
2722		-41.015625
2723		-46.875000
2724		-37.109375
2725		-42.968750
2726		-33.203125
2727		-39.062500
2728		-27.343750
2729		-33.203125
2730		-25.390625
2731		-27.343750
2732		-21.484375
2733		-21.484375
2734		-13.671875
2735		-19.531250
2736		-7.812500
2737		-13.671875
2738		-3.906250
2739		-9.765625
2740		0.000000
2741		-3.906250
2742		5.859375
2743		0.000000
2744		11.718750
2745		5.859375
2746		13.671875
2747		13.671875
2748		19.531250
2749		17.578125
2750		25.390625
2751		19.531250
2752		31.250000
2753		25.390625
2754		35.156250
2755		29.296875
2756		39.062500
2757		35.156250
2758		44.921875
2759		39.062500
2760		48.828125
2761		42.968750
2762		52.734375
2763		50.781250
2764		56.640625
2765		54.687500
2766		60.546875
2767		58.593750
2768		66.406250
2769		60.546875
2770		70.312500
2771		64.453125
2772		74.218750
2773		68.359375
2774		78.125000
2775		74.218750
2776		82.031250
2777		76.171875
2778		85.937500
2779		80.078125
2780		87.890625
2781		85.937500
2782		89.843750
2783		89.843750
2784		95.703125
2785		89.843750
2786		97.656250
2787		93.750000
2788		101.562500
2789		95.703125
2790		103.515625
2791		97.656250
2792		105.468750
2793		99.609375
2794		109.375000
2795		101.562500
2796		109.375000
2797		107.421875
2798		111.328125
2799		109.375000
2800		111.328125
2801		109.375000
2802		115.234375
2803		109.375000
2804		117.187500
2805		111.328125
2806		119.140625
2807		113.281250
2808		119.140625
2809		113.281250
2810		121.093750
2811		115.234375
2812		121.093750
2813		115.234375
2814		121.093750
2815		117.187500
2816		121.093750
2817		117.187500
2818		123.046875
2819		115.234375
2820		123.046875
2821		115.234375
2822		123.046875
2823		115.234375
2824		123.046875
2825		115.234375
2826		121.093750
2827		115.234375
2828		123.046875
2829		113.281250
2830		121.093750
2831		115.234375
2832		117.187500
2833		113.281250
2834		117.187500
2835		109.375000
2836		117.187500
2837		109.375000
2838		117.187500
2839		107.421875
2840		115.234375
2841		105.468750
2842		113.281250
2843		103.515625
2844		111.328125
2845		101.562500
2846		109.375000
2847		99.609375
2848		103.515625
2849		97.656250
2850		101.562500
2851		93.750000
2852		99.609375
2853		89.843750
2854		97.656250
2855		85.937500
2856		95.703125
2857		83.984375
2858		91.796875
2859		80.078125
2860		89.843750
2861		76.171875
2862		85.937500
2863		74.218750
2864		82.031250
2865		70.312500
2866		76.171875
2867		64.453125
2868		72.265625
2869		60.546875
2870		70.312500
2871		58.593750
2872		66.406250
2873		50.781250
2874		62.500000
2875		48.828125
2876		56.640625
2877		42.968750
2878		52.734375
2879		39.062500
2880		48.828125
2881		37.109375
2882		42.968750
2883		31.250000
2884		37.109375
2885		23.437500
2886		33.203125
2887		19.531250
2888		29.296875
2889		13.671875
2890		25.390625
2891		9.765625
2892		19.531250
2893		5.859375
2894		15.625000
2895		-1.953125
2896		9.765625
2897		-3.906250
2898		5.859375
2899		-7.812500
2900		-1.953125
2901		-15.625000
2902		-7.812500
2903		-19.531250
2904		-9.765625
2905		-25.390625
2906		-13.671875
2907		-29.296875
2908		-19.531250
2909		-33.203125
2910		-25.390625
2911		-39.062500
2912		-29.296875
2913		-41.015625
2914		-33.203125
2915		-46.875000
2916		-41.015625
2917		-52.734375
2918		-44.921875
2919		-56.640625
2920		-46.875000
2921		-60.546875
2922		-50.781250
2923		-64.453125
2924		-54.687500
2925		-68.359375
2926		-60.546875
2927		-72.265625
2928		-62.500000
2929		-74.218750
2930		-66.406250
2931		-76.171875
2932		-72.265625
2933		-80.078125
2934		-76.171875
2935		-85.937500
2936		-78.125000
2937		-87.890625
2938		-78.125000
2939		-89.843750
2940		-82.031250
2941		-91.796875
2942		-83.984375
2943		-93.750000
2944		-87.890625
2945		-97.656250
2946		-89.843750
2947		-97.656250
2948		-89.843750
2949		-97.656250
2950		-93.750000
2951		-101.562500
2952		-93.750000
2953		-101.562500
2954		-93.750000
2955		-101.562500
2956		-95.703125
2957		-103.515625
2958		-95.703125
2959		-103.515625
2960		-95.703125
2961		-103.515625
2962		-95.703125
2963		-103.515625
2964		-95.703125
2965		-99.609375
2966		-97.656250
2967		-99.609375
2968		-95.703125
2969		-101.562500
2970		-93.750000
2971		-99.609375
2972		-91.796875
2973		-97.656250
2974		-89.843750
2975		-95.703125
2976		-89.843750
2977		-95.703125
2978		-87.890625
2979		-91.796875
2980		-83.984375
2981		-89.843750
2982		-83.984375
2983		-85.937500
2984		-82.031250
2985		-83.984375
2986		-76.171875
2987		-83.984375
2988		-74.218750
2989		-80.078125
2990		-70.312500
2991		-76.171875
2992		-66.406250
2993		-72.265625
2994		-62.500000
2995		-68.359375
2996		-58.593750
2997		-64.453125
2998		-56.640625
2999		-58.593750
3000		-52.734375
3001		-54.687500
3002		-48.828125
3003		-52.734375
3004		-42.968750
3005		-48.828125
3006		-39.062500
3007		-42.968750
3008		-33.203125
3009		-39.062500
3010		-29.296875
3011		-33.203125
3012		-23.437500
3013		-29.296875
3014		-19.531250
3015		-23.437500
3016		-17.578125
3017		-17.578125
3018		-11.718750
3019		-13.671875
3020		-5.859375
3021		-11.718750
3022		0.000000
3023		-5.859375
3024		3.906250
3025		0.000000
3026		9.765625
3027		3.906250
3028		15.625000
3029		9.765625
3030		19.531250
3031		13.671875
3032		21.484375
3033		21.484375
3034		27.343750
3035		25.390625
3036		33.203125
3037		29.296875
3038		39.062500
3039		33.203125
3040		42.968750
3041		37.109375
3042		48.828125
3043		42.968750
3044		52.734375
3045		46.875000
3046		56.640625
3047		52.734375
3048		60.546875
3049		58.593750
3050		62.500000
3051		62.500000
3052		68.359375
3053		64.453125
3054		74.218750
3055		68.359375
3056		78.125000
3057		72.265625
3058		82.031250
3059		74.218750
3060		83.984375
3061		80.078125
3062		87.890625
3063		82.031250
3064		91.796875
3065		85.937500
3066		91.796875
3067		91.796875
3068		95.703125
3069		93.750000
3070		101.562500
3071		93.750000
3072		103.515625
3073		97.656250
3074		107.421875
3075		99.609375
3076		107.421875
3077		101.562500
3078		111.328125
3079		103.515625
3080		111.328125
3081		105.468750
3082		113.281250
3083		109.375000
3084		113.281250
3085		111.328125
3086		115.234375
3087		109.375000
3088		119.140625
3089		111.328125
3090		119.140625
3091		113.281250
3092		121.093750
3093		113.281250
3094		121.093750
3095		115.234375
3096		121.093750
3097		115.234375
3098		121.093750
3099		117.187500
3100		121.093750
3101		117.187500
3102		121.093750
3103		115.234375
3104		123.046875
3105		115.234375
3106		123.046875
3107		115.234375
3108		121.093750
3109		115.234375
3110		121.093750
3111		113.281250
3112		121.093750
3113		113.281250
3114		119.140625
3115		111.328125
3116		119.140625
3117		111.328125
3118		115.234375
3119		107.421875
3120		115.234375
3121		107.421875
3122		113.281250
3123		105.468750
3124		113.281250
3125		103.515625
3126		111.328125
3127		99.609375
3128		109.375000
3129		99.609375
3130		105.468750
3131		95.703125
3132		103.515625
3133		93.750000
3134		99.609375
3135		91.796875
3136		95.703125
3137		85.937500
3138		95.703125
3139		83.984375
3140		91.796875
3141		80.078125
3142		89.843750
3143		76.171875
3144		85.937500
3145		72.265625
3146		82.031250
3147		68.359375
3148		78.125000
3149		66.406250
3150		74.218750
3151		62.500000
3152		68.359375
3153		56.640625
3154		64.453125
3155		52.734375
3156		60.546875
3157		48.828125
3158		56.640625
3159		42.968750
3160		52.734375
3161		39.062500
3162		48.828125
3163		33.203125
3164		44.921875
3165		31.250000
3166		39.062500
3167		25.390625
3168		33.203125
3169		21.484375
3170		27.343750
3171		13.671875
3172		25.390625
3173		9.765625
3174		19.531250
3175		3.906250
3176		15.625000
3177		0.000000
3178		9.765625
3179		-3.906250
3180		3.906250
3181		-9.765625
3182		0.000000
3183		-13.671875
3184		-5.859375
3185		-17.578125
3186		-11.718750
3187		-25.390625
3188		-15.625000
3189		-29.296875
3190		-19.531250
3191		-35.156250
3192		-23.437500
3193		-39.062500
3194		-29.296875
3195		-42.968750
3196		-33.203125
3197		-46.875000
3198		-39.062500
3199		-50.781250
3200		-42.968750
3201		-54.687500
3202		-48.828125
3203		-60.546875
3204		-52.734375
3205		-64.453125
3206		-54.687500
3207		-68.359375
3208		-58.593750
3209		-72.265625
3210		-64.453125
3211		-76.171875
3212		-66.406250
3213		-80.078125
3214		-70.312500
3215		-82.031250
3216		-74.218750
3217		-83.984375
3218		-78.125000
3219		-85.937500
3220		-82.031250
3221		-91.796875
3222		-82.031250
3223		-93.750000
3224		-83.984375
3225		-95.703125
3226		-87.890625
3227		-97.656250
3228		-89.843750
3229		-99.609375
3230		-91.796875
3231		-99.609375
3232		-91.796875
3233		-99.609375
3234		-93.750000
3235		-99.609375
3236		-97.656250
3237		-103.515625
3238		-97.656250
3239		-101.562500
3240		-97.656250
3241		-103.515625
3242		-97.656250
3243		-103.515625
3244		-97.656250
3245		-101.562500
3246		-97.656250
3247		-101.562500
3248		-97.656250
3249		-101.562500
3250		-97.656250
3251		-99.609375
3252		-95.703125
3253		-97.656250
3254		-95.703125
3255		-99.609375
3256		-91.796875
3257		-97.656250
3258		-89.843750
3259		-95.703125
3260		-87.890625
3261		-93.750000
3262		-85.937500
3263		-91.796875
3264		-83.984375
3265		-87.890625
3266		-80.078125
3267		-85.937500
3268		-80.078125
3269		-82.031250
3270		-76.171875
3271		-78.125000
3272		-70.312500
3273		-78.125000
3274		-68.359375
3275		-74.218750
3276		-64.453125
3277		-70.312500
3278		-60.546875
3279		-66.406250
3280		-56.640625
3281		-62.500000
3282		-52.734375
3283		-58.593750
3284		-50.781250
3285		-52.734375
3286		-46.875000
3287		-46.875000
3288		-39.062500
3289		-44.921875
3290		-35.156250
3291		-41.015625
3292		-31.250000
3293		-35.156250
3294		-25.390625
3295		-31.250000
3296		-19.531250
3297		-25.390625
3298		-15.625000
3299		-21.484375
3300		-11.718750
3301		-13.671875
3302		-7.812500
3303		-9.765625
3304		-3.906250
3305		-3.906250
3306		3.906250
3307		-1.953125
3308		9.765625
3309		3.906250
3310		13.671875
3311		7.812500
3312		19.531250
3313		13.671875
3314		23.437500
3315		19.531250
3316		27.343750
3317		23.437500
3318		31.250000
3319		29.296875
3320		35.156250
3321		35.156250
3322		42.968750
3323		37.109375
3324		46.875000
3325		42.968750
3326		52.734375
3327		44.921875
3328		56.640625
3329		50.781250
3330		60.546875
3331		54.687500
3332		64.453125
3333		58.593750
3334		66.406250
3335		66.406250
3336		70.312500
3337		70.312500
3338		74.218750
3339		72.265625
3340		80.078125
3341		74.218750
3342		83.984375
3343		78.125000
3344		87.890625
3345		82.031250
3346		91.796875
3347		85.937500
3348		93.750000
3349		87.890625
3350		97.656250
3351		91.796875
3352		97.656250
3353		95.703125
3354		101.562500
3355		97.656250
3356		105.468750
3357		97.656250
3358		107.421875
3359		101.562500
3360		109.375000
3361		103.515625
3362		111.328125
3363		105.468750
3364		113.281250
3365		107.421875
3366		115.234375
3367		109.375000
3368		115.234375
3369		113.281250
3370		115.234375
3371		113.281250
3372		119.140625
3373		113.281250
3374		119.140625
3375		113.281250
3376		121.093750
3377		113.281250
3378		121.093750
3379		115.234375
3380		121.093750
3381		115.234375
3382		123.046875
3383		115.234375
3384		123.046875
3385		117.187500
3386		119.140625
3387		117.187500
3388		119.140625
3389		115.234375
3390		121.093750
3391		113.281250
3392		121.093750
3393		113.281250
3394		121.093750
3395		113.281250
3396		119.140625
3397		111.328125
3398		119.140625
3399		109.375000
3400		117.187500
3401		109.375000
3402		115.234375
3403		109.375000
3404		113.281250
3405		105.468750
3406		111.328125
3407		103.515625
3408		111.328125
3409		99.609375
3410		109.375000
3411		97.656250
3412		105.468750
3413		95.703125
3414		105.468750
3415		93.750000
3416		101.562500
3417		91.796875
3418		97.656250
3419		87.890625
3420		93.750000
3421		85.937500
3422		89.843750
3423		80.078125
3424		89.843750
3425		76.171875
3426		85.937500
3427		74.218750
3428		82.031250
3429		68.359375
3430		78.125000
3431		64.453125
3432		76.171875
3433		60.546875
3434		70.312500
3435		58.593750
3436		66.406250
3437		54.687500
3438		60.546875
3439		48.828125
3440		56.640625
3441		42.968750
3442		52.734375
3443		41.015625
3444		48.828125
3445		35.156250
3446		44.921875
3447		29.296875
3448		39.062500
3449		25.390625
3450		35.156250
3451		21.484375
3452		29.296875
3453		17.578125
3454		23.437500
3455		11.718750
3456		17.578125
3457		5.859375
3458		15.625000
3459		0.000000
3460		9.765625
3461		-5.859375
3462		5.859375
3463		-9.765625
3464		0.000000
3465		-15.625000
3466		-3.906250
3467		-19.531250
3468		-9.765625
3469		-23.437500
3470		-15.625000
3471		-27.343750
3472		-21.484375
3473		-33.203125
3474		-25.390625
3475		-39.062500
3476		-29.296875
3477		-42.968750
3478		-33.203125
3479		-48.828125
3480		-39.062500
3481		-52.734375
3482		-42.968750
3483		-56.640625
3484		-46.875000
3485		-58.593750
3486		-50.781250
3487		-62.500000
3488		-56.640625
3489		-68.359375
3490		-60.546875
3491		-72.265625
3492		-62.500000
3493		-76.171875
3494		-66.406250
3495		-80.078125
3496		-70.312500
3497		-82.031250
3498		-74.218750
3499		-85.937500
3500		-76.171875
3501		-85.937500
3502		-80.078125
3503		-87.890625
3504		-83.984375
3505		-89.843750
3506		-85.937500
3507		-95.703125
3508		-87.890625
3509		-95.703125
3510		-89.843750
3511		-99.609375
3512		-91.796875
3513		-101.562500
3514		-91.796875
3515		-101.562500
3516		-93.750000
3517		-103.515625
3518		-95.703125
3519		-101.562500
3520		-95.703125
3521		-101.562500
3522		-97.656250
3523		-103.515625
3524		-97.656250
3525		-103.515625
3526		-97.656250
3527		-103.515625
3528		-97.656250
3529		-103.515625
3530		-95.703125
3531		-101.562500
3532		-95.703125
3533		-101.562500
3534		-93.750000
3535		-99.609375
3536		-93.750000
3537		-97.656250
3538		-93.750000
3539		-95.703125
3540		-91.796875
3541		-95.703125
3542		-87.890625
3543		-93.750000
3544		-85.937500
3545		-91.796875
3546		-82.031250
3547		-89.843750
3548		-82.031250
3549		-85.937500
3550		-78.125000
3551		-82.031250
3552		-74.218750
3553		-78.125000
3554		-74.218750
3555		-74.218750
3556		-70.312500
3557		-72.265625
3558		-64.453125
3559		-70.312500
3560		-60.546875
3561		-66.406250
3562		-56.640625
3563		-60.546875
3564		-52.734375
3565		-58.593750
3566		-48.828125
3567		-52.734375
3568		-44.921875
3569		-50.781250
3570		-41.015625
3571		-42.968750
3572		-37.109375
3573		-39.062500
3574		-31.250000
3575		-35.156250
3576		-25.390625
3577		-31.250000
3578		-21.484375
3579		-25.390625
3580		-17.578125
3581		-21.484375
3582		-11.718750
3583		-15.625000
3584		-5.859375
3585		-11.718750
3586		-3.906250
3587		-3.906250
3588		1.953125
3589		0.000000
3590		5.859375
3591		3.906250
3592		13.671875
3593		7.812500
3594		17.578125
3595		13.671875
3596		23.437500
3597		17.578125
3598		27.343750
3599		21.484375
3600		33.203125
3601		27.343750
3602		37.109375
3603		31.250000
3604		41.015625
3605		39.062500
3606		44.921875
3607		42.968750
3608		50.781250
3609		46.875000
3610		54.687500
3611		50.781250
3612		58.593750
3613		54.687500
3614		64.453125
3615		58.593750
3616		68.359375
3617		62.500000
3618		72.265625
3619		66.406250
3620		74.218750
3621		72.265625
3622		78.125000
3623		76.171875
3624		82.031250
3625		78.125000
3626		87.890625
3627		82.031250
3628		89.843750
3629		83.984375
3630		93.750000
3631		87.890625
3632		95.703125
3633		91.796875
3634		99.609375
3635		93.750000
3636		101.562500
3637		97.656250
3638		103.515625
3639		101.562500
3640		105.468750
3641		101.562500
3642		109.375000
3643		103.515625
3644		111.328125
3645		105.468750
3646		113.281250
3647		107.421875
3648		115.234375
3649		109.375000
3650		115.234375
3651		109.375000
3652		117.187500
3653		111.328125
3654		119.140625
3655		115.234375
3656		117.187500
3657		115.234375
3658		121.093750
3659		115.234375
3660		121.093750
3661		115.234375
3662		121.093750
3663		115.234375
3664		123.046875
3665		115.234375
3666		123.046875
3667		115.234375
3668		123.046875
3669		115.234375
3670		123.046875
3671		117.187500
3672		119.140625
3673		117.187500
3674		119.140625
3675		113.281250
3676		121.093750
3677		113.281250
3678		119.140625
3679		111.328125
3680		119.140625
3681		109.375000
3682		117.187500
3683		107.421875
3684		117.187500
3685		107.421875
3686		115.234375
3687		105.468750
3688		113.281250
3689		105.468750
3690		109.375000
3691		101.562500
3692		107.421875
3693		99.609375
3694		107.421875
3695		95.703125
3696		105.468750
3697		93.750000
3698		101.562500
3699		89.843750
3700		99.609375
3701		87.890625
3702		95.703125
3703		85.937500
3704		93.750000
3705		83.984375
3706		87.890625
3707		78.125000
3708		83.984375
3709		74.218750
3710		82.031250
3711		70.312500
3712		80.078125
3713		66.406250
3714		76.171875
3715		62.500000
3716		72.265625
3717		56.640625
3718		68.359375
3719		52.734375
3720		62.500000
3721		50.781250
3722		58.593750
3723		46.875000
3724		52.734375
3725		39.062500
3726		48.828125
3727		35.156250
3728		44.921875
3729		29.296875
3730		41.015625
3731		25.390625
3732		35.156250
3733		19.531250
3734		31.250000
3735		15.625000
3736		25.390625
3737		13.671875
3738		21.484375
3739		7.812500
3740		15.625000
3741		0.000000
3742		9.765625
3743		-3.906250
3744		5.859375
3745		-9.765625
3746		1.953125
3747		-13.671875
3748		-3.906250
3749		-19.531250
3750		-7.812500
3751		-23.437500
3752		-13.671875
3753		-29.296875
3754		-19.531250
3755		-31.250000
3756		-25.390625
3757		-35.156250
3758		-29.296875
3759		-42.968750
3760		-33.203125
3761		-46.875000
3762		-37.109375
3763		-50.781250
3764		-41.015625
3765		-56.640625
3766		-44.921875
3767		-60.546875
3768		-50.781250
3769		-62.500000
3770		-54.687500
3771		-66.406250
3772		-58.593750
3773		-70.312500
3774		-64.453125
3775		-74.218750
3776		-68.359375
3777		-78.125000
3778		-70.312500
3779		-82.031250
3780		-72.265625
3781		-83.984375
3782		-76.171875
3783		-87.890625
3784		-78.125000
3785		-89.843750
3786		-82.031250
3787		-91.796875
3788		-83.984375
3789		-91.796875
3790		-87.890625
3791		-93.750000
3792		-89.843750
3793		-97.656250
3794		-89.843750
3795		-99.609375
3796		-91.796875
3797		-101.562500
3798		-93.750000
3799		-101.562500
3800		-95.703125
3801		-101.562500
3802		-95.703125
3803		-103.515625
3804		-95.703125
3805		-101.562500
3806		-99.609375
3807		-101.562500
3808		-99.609375
3809		-103.515625
3810		-95.703125
3811		-103.515625
3812		-95.703125
3813		-103.515625
3814		-95.703125
3815		-101.562500
3816		-93.750000
3817		-101.562500
3818		-93.750000
3819		-99.609375
3820		-91.796875
3821		-97.656250
3822		-91.796875
3823		-93.750000
3824		-89.843750
3825		-91.796875
3826		-85.937500
3827		-91.796875
3828		-83.984375
3829		-89.843750
3830		-82.031250
3831		-85.937500
3832		-78.125000
3833		-83.984375
3834		-76.171875
3835		-80.078125
3836		-72.265625
3837		-78.125000
3838		-68.359375
3839		-72.265625
3840		-66.406250
3841		-68.359375
3842		-62.500000
3843		-66.406250
3844		-58.593750
3845		-62.500000
3846		-52.734375
3847		-58.593750
3848		-48.828125
3849		-54.687500
3850		-44.921875
3851		-48.828125
3852		-41.015625
3853		-44.921875
3854		-37.109375
3855		-41.015625
3856		-33.203125
3857		-35.156250
3858		-29.296875
3859		-29.296875
3860		-21.484375
3861		-27.343750
3862		-17.578125
3863		-23.437500
3864		-11.718750
3865		-17.578125
3866		-7.812500
3867		-13.671875
3868		-1.953125
3869		-5.859375
3870		1.953125
3871		-1.953125
3872		5.859375
3873		3.906250
3874		11.718750
3875		9.765625
3876		15.625000
3877		11.718750
3878		21.484375
3879		17.578125
3880		27.343750
3881		21.484375
3882		31.250000
3883		27.343750
3884		37.109375
3885		31.250000
3886		41.015625
3887		35.156250
3888		46.875000
3889		41.015625
3890		48.828125
3891		46.875000
3892		52.734375
3893		50.781250
3894		58.593750
3895		52.734375
3896		64.453125
3897		58.593750
3898		68.359375
3899		62.500000
3900		70.312500
3901		66.406250
3902		76.171875
3903		70.312500
3904		80.078125
3905		74.218750
3906		82.031250
3907		80.078125
3908		83.984375
3909		82.031250
3910		89.843750
3911		83.984375
3912		93.750000
3913		87.890625
3914		97.656250
3915		91.796875
3916		99.609375
3917		93.750000
3918		101.562500
3919		95.703125
3920		103.515625
3921		97.656250
3922		107.421875
3923		103.515625
3924		107.421875
3925		105.468750
3926		109.375000
3927		105.468750
3928		113.281250
3929		107.421875
3930		115.234375
3931		109.375000
3932		115.234375
3933		109.375000
3934		119.140625
3935		111.328125
3936		119.140625
3937		113.281250
3938		119.140625
3939		115.234375
3940		119.140625
3941		117.187500
3942		119.140625
3943		115.234375
3944		121.093750
3945		115.234375
3946		123.046875
3947		115.234375
3948		123.046875
3949		115.234375
3950		123.046875
3951		115.234375
3952		123.046875
3953		115.234375
3954		123.046875
3955		113.281250
3956		121.093750
3957		115.234375
3958		119.140625
3959		115.234375
3960		117.187500
3961		111.328125
3962		119.140625
3963		111.328125
3964		117.187500
3965		109.375000
3966		117.187500
3967		107.421875
3968		115.234375
3969		105.468750
3970		113.281250
3971		103.515625
3972		111.328125
3973		103.515625
3974		107.421875
3975		101.562500
3976		105.468750
3977		95.703125
3978		103.515625
3979		93.750000
3980		101.562500
3981		89.843750
3982		99.609375
3983		87.890625
3984		95.703125
3985		83.984375
3986		93.750000
3987		80.078125
3988		89.843750
3989		80.078125
3990		85.937500
3991		76.171875
3992		80.078125
3993		70.312500
3994		78.125000
3995		66.406250
3996		76.171875
3997		62.500000
3998		70.312500
3999		58.593750
4000		66.406250
4001		52.734375
4002		62.500000
4003		48.828125
4004		58.593750
4005		46.875000
4006		54.687500
4007		42.968750
4008		48.828125
4009		37.109375
4010		42.968750
4011		31.250000
4012		39.062500
4013		27.343750
4014		37.109375
4015		21.484375
4016		31.250000
4017		15.625000
4018		25.390625
4019		11.718750
4020		21.484375
4021		5.859375
4022		15.625000
4023		3.906250
4024		9.765625
4025		-1.953125
4026		3.906250
4027		-7.812500
4028		0.000000
4029		-13.671875
4030		-3.906250
4031		-17.578125
4032		-9.765625
4033		-23.437500
4034		-13.671875
4035		-27.343750
4036		-17.578125
4037		-33.203125
4038		-23.437500
4039		-37.109375
4040		-27.343750
4041		-41.015625
4042		-33.203125
4043		-44.921875
4044		-39.062500
4045		-50.781250
4046		-42.968750
4047		-54.687500
4048		-46.875000
4049		-58.593750
4050		-50.781250
4051		-64.453125
4052		-54.687500
4053		-66.406250
4054		-58.593750
4055		-70.312500
4056		-62.500000
4057		-72.265625
4058		-66.406250
4059		-76.171875
4060		-70.312500
4061		-82.031250
4062		-74.218750
4063		-83.984375
4064		-76.171875
4065		-87.890625
4066		-80.078125
4067		-89.843750
4068		-82.031250
4069		-91.796875
4070		-83.984375
4071		-93.750000
4072		-87.890625
4073		-95.703125
4074		-89.843750
4075		-95.703125
4076		-91.796875
4077		-97.656250
4078		-93.750000
4079		-99.609375
4080		-93.750000
4081		-101.562500
4082		-95.703125
4083		-101.562500
4084		-95.703125
4085		-101.562500
4086		-97.656250
4087		-101.562500
4088		-97.656250
4089		-101.562500
4090		-97.656250
4091		-101.562500
4092		-99.609375
4093		-101.562500
4094		-97.656250
4095		-101.562500
4096		-95.703125
4097		-101.562500
4098		-93.750000
4099		-99.609375
4100		-93.750000
4101		-99.609375
4102		-91.796875
4103		-97.656250
4104		-91.796875
4105		-95.703125
4106		-89.843750
4107		-93.750000
4108		-87.890625
4109		-89.843750
4110		-85.937500
4111		-87.890625
4112		-82.031250
4113		-87.890625
4114		-78.125000
4115		-83.984375
4116		-76.171875
4117		-82.031250
4118		-72.265625
4119		-76.171875
4120		-70.312500
4121		-72.265625
4122		-66.406250
4123		-68.359375
4124		-62.500000
4125		-64.453125
4126		-58.593750
4127		-60.546875
4128		-56.640625
4129		-58.593750
4130		-48.828125
4131		-54.687500
4132		-44.921875
4133		-50.781250
4134		-41.015625
4135		-46.875000
4136		-37.109375
4137		-41.015625
4138		-33.203125
4139		-35.156250
4140		-29.296875
4141		-31.250000
4142		-23.437500
4143		-25.390625
4144		-19.531250
4145		-21.484375
4146		-13.671875
4147		-15.625000
4148		-9.765625
4149		-11.718750
4150		-3.906250
4151		-7.812500
4152		0.000000
4153		-1.953125
4154		5.859375
4155		3.906250
4156		9.765625
4157		7.812500
4158		15.625000
4159		13.671875
4160		19.531250
4161		17.578125
4162		25.390625
4163		21.484375
4164		29.296875
4165		27.343750
4166		33.203125
4167		33.203125
4168		39.062500
4169		37.109375
4170		42.968750
4171		42.968750
4172		48.828125
4173		46.875000
4174		52.734375
4175		50.781250
4176		56.640625
4177		54.687500
4178		60.546875
4179		60.546875
4180		64.453125
4181		64.453125
4182		70.312500
4183		68.359375
4184		74.218750
4185		72.265625
4186		76.171875
4187		76.171875
4188		80.078125
4189		80.078125
4190		83.984375
4191		82.031250
4192		87.890625
4193		85.937500
4194		89.843750
4195		89.843750
4196		93.750000
4197		91.796875
4198		97.656250
4199		95.703125
4200		99.609375
4201		97.656250
4202		101.562500
4203		99.609375
4204		105.468750
4205		103.515625
4206		107.421875
4207		103.515625
4208		109.375000
4209		107.421875
4210		111.328125
4211		109.375000
4212		113.281250
4213		109.375000
4214		113.281250
4215		111.328125
4216		115.234375
4217		113.281250
4218		117.187500
4219		115.234375
4220		117.187500
4221		115.234375
4222		119.140625
4223		115.234375
4224		119.140625
4225		117.187500
4226		119.140625
4227		117.187500
4228		119.140625
4229		117.187500
4230		121.093750
4231		117.187500
4232		121.093750
4233		117.187500
4234		121.093750
4235		117.187500
4236		119.140625
4237		117.187500
4238		119.140625
4239		115.234375
4240		119.140625
4241		115.234375
4242		119.140625
4243		113.281250
4244		117.187500
4245		113.281250
4246		115.234375
4247		111.328125
4248		115.234375
4249		109.375000
4250		113.281250
4251		107.421875
4252		111.328125
4253		105.468750
4254		111.328125
4255		103.515625
4256		107.421875
4257		101.562500
4258		105.468750
4259		99.609375
4260		103.515625
4261		95.703125
4262		99.609375
4263		93.750000
4264		97.656250
4265		89.843750
4266		95.703125
4267		87.890625
4268		91.796875
4269		83.984375
4270		89.843750
4271		80.078125
4272		85.937500
4273		76.171875
4274		82.031250
4275		72.265625
4276		78.125000
4277		68.359375
4278		74.218750
4279		64.453125
4280		70.312500
4281		60.546875
4282		66.406250
4283		56.640625
4284		62.500000
4285		52.734375
4286		58.593750
4287		46.875000
4288		52.734375
4289		42.968750
4290		50.781250
4291		37.109375
4292		44.921875
4293		33.203125
4294		39.062500
4295		29.296875
4296		35.156250
4297		23.437500
4298		31.250000
4299		19.531250
4300		25.390625
4301		13.671875
4302		21.484375
4303		9.765625
4304		15.625000
4305		3.906250
4306		11.718750
4307		-1.953125
4308		5.859375
4309		-5.859375
4310		0.000000
4311		-9.765625
4312		-3.906250
4313		-15.625000
4314		-9.765625
4315		-21.484375
4316		-13.671875
4317		-25.390625
4318		-19.531250
4319		-29.296875
4320		-23.437500
4321		-35.156250
4322		-27.343750
4323		-39.062500
4324		-33.203125
4325		-44.921875
4326		-37.109375
4327		-48.828125
4328		-42.968750
4329		-52.734375
4330		-46.875000
4331		-56.640625
4332		-50.781250
4333		-60.546875
4334		-54.687500
4335		-64.453125
4336		-60.546875
4337		-68.359375
4338		-62.500000
4339		-72.265625
4340		-66.406250
4341		-76.171875
4342		-70.312500
4343		-78.125000
4344		-72.265625
4345		-82.031250
4346		-78.125000
4347		-83.984375
4348		-80.078125
4349		-87.890625
4350		-82.031250
4351		-89.843750
4352		-85.937500
4353		-91.796875
4354		-87.890625
4355		-93.750000
4356		-89.843750
4357		-95.703125
4358		-91.796875
4359		-97.656250
4360		-93.750000
4361		-97.656250
4362		-95.703125
4363		-99.609375
4364		-95.703125
4365		-99.609375
4366		-95.703125
4367		-101.562500
4368		-97.656250
4369		-101.562500
4370		-97.656250
4371		-101.562500
4372		-97.656250
4373		-101.562500
4374		-97.656250
4375		-101.562500
4376		-95.703125
4377		-99.609375
4378		-97.656250
4379		-99.609375
4380		-95.703125
4381		-99.609375
4382		-95.703125
4383		-97.656250
4384		-93.750000
4385		-95.703125
4386		-91.796875
4387		-93.750000
4388		-89.843750
4389		-91.796875
4390		-87.890625
4391		-89.843750
4392		-83.984375
4393		-87.890625
4394		-83.984375
4395		-83.984375
4396		-80.078125
4397		-82.031250
4398		-78.125000
4399		-80.078125
4400		-74.218750
4401		-76.171875
4402		-70.312500
4403		-72.265625
4404		-66.406250
4405		-68.359375
4406		-64.453125
4407		-66.406250
4408		-60.546875
4409		-62.500000
4410		-56.640625
4411		-56.640625
4412		-52.734375
4413		-52.734375
4414		-46.875000
4415		-48.828125
4416		-42.968750
4417		-44.921875
4418		-39.062500
4419		-41.015625
4420		-33.203125
4421		-35.156250
4422		-29.296875
4423		-31.250000
4424		-25.390625
4425		-25.390625
4426		-19.531250
4427		-21.484375
4428		-15.625000
4429		-15.625000
4430		-9.765625
4431		-11.718750
4432		-5.859375
4433		-5.859375
4434		0.000000
4435		-1.953125
4436		5.859375
4437		3.906250
4438		9.765625
4439		7.812500
4440		15.625000
4441		13.671875
4442		19.531250
4443		17.578125
4444		25.390625
4445		23.437500
4446		29.296875
4447		27.343750
4448		35.156250
4449		33.203125
4450		39.062500
4451		37.109375
4452		42.968750
4453		41.015625
4454		48.828125
4455		46.875000
4456		52.734375
4457		50.781250
4458		56.640625
4459		54.687500
4460		60.546875
4461		60.546875
4462		66.406250
4463		64.453125
4464		68.359375
4465		68.359375
4466		74.218750
4467		72.265625
4468		76.171875
4469		76.171875
4470		82.031250
4471		78.125000
4472		83.984375
4473		82.031250
4474		87.890625
4475		85.937500
4476		89.843750
4477		87.890625
4478		93.750000
4479		91.796875
4480		97.656250
4481		93.750000
4482		99.609375
4483		97.656250
4484		103.515625
4485		99.609375
4486		105.468750
4487		103.515625
4488		107.421875
4489		105.468750
4490		109.375000
4491		107.421875
4492		111.328125
4493		107.421875
4494		113.281250
4495		111.328125
4496		113.281250
4497		111.328125
4498		115.234375
4499		113.281250
4500		117.187500
4501		115.234375
4502		117.187500
4503		115.234375
4504		119.140625
4505		117.187500
4506		119.140625
4507		117.187500
4508		121.093750
4509		117.187500
4510		121.093750
4511		117.187500
4512		121.093750
4513		117.187500
4514		121.093750
4515		117.187500
4516		121.093750
4517		117.187500
4518		121.093750
4519		117.187500
4520		121.093750
4521		115.234375
4522		119.140625
4523		115.234375
4524		119.140625
4525		113.281250
4526		117.187500
4527		111.328125
4528		117.187500
4529		111.328125
4530		115.234375
4531		109.375000
4532		113.281250
4533		107.421875
4534		113.281250
4535		105.468750
4536		111.328125
4537		103.515625
4538		109.375000
4539		101.562500
4540		105.468750
4541		99.609375
4542		103.515625
4543		95.703125
4544		101.562500
4545		93.750000
4546		97.656250
4547		91.796875
4548		95.703125
4549		87.890625
4550		91.796875
4551		83.984375
4552		89.843750
4553		80.078125
4554		85.937500
4555		78.125000
4556		82.031250
4557		74.218750
4558		80.078125
4559		70.312500
4560		74.218750
4561		66.406250
4562		70.312500
4563		62.500000
4564		66.406250
4565		56.640625
4566		62.500000
4567		52.734375
4568		58.593750
4569		48.828125
4570		54.687500
4571		44.921875
4572		50.781250
4573		39.062500
4574		44.921875
4575		35.156250
4576		41.015625
4577		29.296875
4578		35.156250
4579		23.437500
4580		31.250000
4581		19.531250
4582		27.343750
4583		15.625000
4584		21.484375
4585		9.765625
4586		15.625000
4587		5.859375
4588		11.718750
4589		0.000000
4590		7.812500
4591		-3.906250
4592		1.953125
4593		-9.765625
4594		-3.906250
4595		-15.625000
4596		-7.812500
4597		-19.531250
4598		-13.671875
4599		-25.390625
4600		-17.578125
4601		-29.296875
4602		-23.437500
4603		-33.203125
4604		-27.343750
4605		-39.062500
4606		-33.203125
4607		-42.968750
4608		-37.109375
4609		-48.828125
4610		-41.015625
4611		-52.734375
4612		-44.921875
4613		-56.640625
4614		-50.781250
4615		-62.500000
4616		-54.687500
4617		-64.453125
4618		-58.593750
4619		-68.359375
4620		-62.500000
4621		-72.265625
4622		-66.406250
4623		-74.218750
4624		-70.312500
4625		-78.125000
4626		-72.265625
4627		-82.031250
4628		-76.171875
4629		-83.984375
4630		-80.078125
4631		-85.937500
4632		-82.031250
4633		-89.843750
4634		-83.984375
4635		-91.796875
4636		-87.890625
4637		-93.750000
4638		-89.843750
4639		-95.703125
4640		-91.796875
4641		-95.703125
4642		-93.750000
4643		-97.656250
4644		-93.750000
4645		-99.609375
4646		-95.703125
4647		-99.609375
4648		-95.703125
4649		-101.562500
4650		-97.656250
4651		-101.562500
4652		-97.656250
4653		-101.562500
4654		-97.656250
4655		-101.562500
4656		-97.656250
4657		-101.562500
4658		-97.656250
4659		-99.609375
4660		-95.703125
4661		-99.609375
4662		-95.703125
4663		-97.656250
4664		-95.703125
4665		-95.703125
4666		-93.750000
4667		-95.703125
4668		-91.796875
4669		-93.750000
4670		-89.843750
4671		-91.796875
4672		-87.890625
4673		-89.843750
4674		-85.937500
4675		-87.890625
4676		-83.984375
4677		-85.937500
4678		-80.078125
4679		-82.031250
4680		-78.125000
4681		-80.078125
4682		-74.218750
4683		-76.171875
4684		-70.312500
4685		-72.265625
4686		-68.359375
4687		-70.312500
4688		-62.500000
4689		-64.453125
4690		-60.546875
4691		-60.546875
4692		-56.640625
4693		-56.640625
4694		-50.781250
4695		-52.734375
4696		-46.875000
4697		-48.828125
4698		-42.968750
4699		-44.921875
4700		-37.109375
4701		-41.015625
4702		-35.156250
4703		-35.156250
4704		-29.296875
4705		-31.250000
4706		-25.390625
4707		-25.390625
4708		-19.531250
4709		-21.484375
4710		-13.671875
4711		-15.625000
4712		-9.765625
4713		-11.718750
4714		-5.859375
4715		-5.859375
4716		0.000000
4717		-1.953125
4718		3.906250
4719		3.906250
4720		9.765625
4721		7.812500
4722		15.625000
4723		13.671875
4724		19.531250
4725		17.578125
4726		25.390625
4727		23.437500
4728		29.296875
4729		27.343750
4730		35.156250
4731		33.203125
4732		39.062500
4733		37.109375
4734		42.968750
4735		41.015625
4736		48.828125
4737		46.875000
4738		52.734375
4739		50.781250
4740		56.640625
4741		54.687500
4742		62.500000
4743		60.546875
4744		64.453125
4745		64.453125
4746		68.359375
4747		68.359375
4748		74.218750
4749		72.265625
4750		76.171875
4751		74.218750
4752		82.031250
4753		78.125000
4754		83.984375
4755		82.031250
4756		87.890625
4757		85.937500
4758		91.796875
4759		89.843750
4760		93.750000
4761		91.796875
4762		97.656250
4763		93.750000
4764		99.609375
4765		97.656250
4766		101.562500
4767		99.609375
4768		105.468750
4769		103.515625
4770		107.421875
4771		103.515625
4772		109.375000
4773		107.421875
4774		111.328125
4775		109.375000
4776		113.281250
4777		111.328125
4778		115.234375
4779		113.281250
4780		115.234375
4781		113.281250
4782		117.187500
4783		115.234375
4784		117.187500
4785		115.234375
4786		119.140625
4787		117.187500
4788		121.093750
4789		117.187500
4790		121.093750
4791		117.187500
4792		121.093750
4793		117.187500
4794		121.093750
4795		117.187500
4796		121.093750
4797		119.140625
4798		121.093750
4799		119.140625
4800		121.093750
4801		117.187500
4802		121.093750
4803		117.187500
4804		121.093750
4805		115.234375
4806		119.140625
4807		115.234375
4808		117.187500
4809		113.281250
4810		117.187500
4811		111.328125
4812		115.234375
4813		109.375000
4814		115.234375
4815		109.375000
4816		113.281250
4817		107.421875
4818		111.328125
4819		103.515625
4820		109.375000
4821		103.515625
4822		107.421875
4823		99.609375
4824		105.468750
4825		95.703125
4826		101.562500
4827		95.703125
4828		99.609375
4829		91.796875
4830		95.703125
4831		87.890625
4832		93.750000
4833		85.937500
4834		89.843750
4835		82.031250
4836		87.890625
4837		78.125000
4838		83.984375
4839		74.218750
4840		80.078125
4841		70.312500
4842		76.171875
4843		66.406250
4844		72.265625
4845		62.500000
4846		68.359375
4847		58.593750
4848		64.453125
4849		54.687500
4850		60.546875
4851		48.828125
4852		56.640625
4853		44.921875
4854		50.781250
4855		41.015625
4856		46.875000
4857		35.156250
4858		41.015625
4859		31.250000
4860		37.109375
4861		25.390625
4862		31.250000
4863		21.484375
4864		27.343750
4865		15.625000
4866		21.484375
4867		11.718750
4868		17.578125
4869		5.859375
4870		13.671875
4871		0.000000
4872		7.812500
4873		-3.906250
4874		1.953125
4875		-7.812500
4876		-1.953125
4877		-13.671875
4878		-7.812500
4879		-19.531250
4880		-11.718750
4881		-23.437500
4882		-15.625000
4883		-27.343750
4884		-21.484375
4885		-33.203125
4886		-27.343750
4887		-39.062500
4888		-31.250000
4889		-42.968750
4890		-37.109375
4891		-46.875000
4892		-41.015625
4893		-50.781250
4894		-44.921875
4895		-54.687500
4896		-48.828125
4897		-58.593750
4898		-52.734375
4899		-62.500000
4900		-56.640625
4901		-68.359375
4902		-60.546875
4903		-70.312500
4904		-64.453125
4905		-74.218750
4906		-68.359375
4907		-76.171875
4908		-72.265625
4909		-80.078125
4910		-76.171875
4911		-82.031250
4912		-78.125000
4913		-85.937500
4914		-82.031250
4915		-87.890625
4916		-83.984375
4917		-91.796875
4918		-85.937500
4919		-91.796875
4920		-87.890625
4921		-93.750000
4922		-89.843750
4923		-95.703125
4924		-91.796875
4925		-97.656250
4926		-93.750000
4927		-97.656250
4928		-95.703125
4929		-99.609375
4930		-95.703125
4931		-99.609375
4932		-95.703125
4933		-99.609375
4934		-97.656250
4935		-99.609375
4936		-95.703125
4937		-101.562500
4938		-95.703125
4939		-99.609375
4940		-97.656250
4941		-99.609375
4942		-95.703125
4943		-99.609375
4944		-95.703125
4945		-97.656250
4946		-93.750000
4947		-97.656250
4948		-91.796875
4949		-95.703125
4950		-91.796875
4951		-93.750000
4952		-89.843750
4953		-91.796875
4954		-87.890625
4955		-89.843750
4956		-85.937500
4957		-87.890625
4958		-83.984375
4959		-83.984375
4960		-80.078125
4961		-82.031250
4962		-78.125000
4963		-80.078125
4964		-74.218750
4965		-76.171875
4966		-72.265625
4967		-72.265625
4968		-68.359375
4969		-68.359375
4970		-64.453125
4971		-66.406250
4972		-60.546875
4973		-62.500000
4974		-56.640625
4975		-58.593750
4976		-52.734375
4977		-52.734375
4978		-48.828125
4979		-50.781250
4980		-42.968750
4981		-44.921875
4982		-39.062500
4983		-41.015625
4984		-35.156250
4985		-37.109375
4986		-29.296875
4987		-31.250000
4988		-25.390625
4989		-27.343750
4990		-21.484375
4991		-21.484375
4992		-15.625000
4993		-17.578125
4994		-9.765625
4995		-11.718750
4996		-5.859375
4997		-7.812500
4998		0.000000
4999		-1.953125
5000		3.906250
5001		3.906250
5002		9.765625
5003		7.812500
5004		13.671875
5005		11.718750
5006		19.531250
5007		17.578125
5008		23.437500
5009		21.484375
5010		29.296875
5011		27.343750
5012		33.203125
5013		31.250000
5014		37.109375
5015		35.156250
5016		42.968750
5017		41.015625
5018		46.875000
5019		46.875000
5020		52.734375
5021		50.781250
5022		56.640625
5023		54.687500
5024		60.546875
5025		58.593750
5026		64.453125
5027		62.500000
5028		68.359375
5029		66.406250
5030		72.265625
5031		70.312500
5032		76.171875
5033		74.218750
5034		80.078125
5035		78.125000
5036		83.984375
5037		82.031250
5038		87.890625
5039		85.937500
5040		89.843750
5041		87.890625
5042		93.750000
5043		91.796875
5044		97.656250
5045		93.750000
5046		99.609375
5047		97.656250
5048		101.562500
5049		99.609375
5050		103.515625
5051		101.562500
5052		105.468750
5053		105.468750
5054		109.375000
5055		107.421875
5056		111.328125
5057		109.375000
5058		111.328125
5059		109.375000
5060		115.234375
5061		111.328125
5062		115.234375
5063		113.281250
5064		117.187500
5065		113.281250
5066		117.187500
5067		115.234375
5068		119.140625
5069		117.187500
5070		121.093750
5071		117.187500
5072		121.093750
5073		117.187500
5074		121.093750
5075		117.187500
5076		121.093750
5077		117.187500
5078		121.093750
5079		117.187500
5080		121.093750
5081		117.187500
5082		121.093750
5083		117.187500
5084		119.140625
5085		117.187500
5086		119.140625
5087		115.234375
5088		119.140625
5089		115.234375
5090		117.187500
5091		113.281250
5092		117.187500
5093		111.328125
5094		115.234375
5095		111.328125
5096		115.234375
5097		109.375000
5098		113.281250
5099		107.421875
5100		111.328125
5101		105.468750
5102		109.375000
5103		101.562500
5104		107.421875
5105		99.609375
5106		103.515625
5107		97.656250
5108		101.562500
5109		93.750000
5110		99.609375
5111		91.796875
5112		97.656250
5113		87.890625
5114		93.750000
5115		85.937500
5116		91.796875
5117		82.031250
5118		87.890625
5119		78.125000
5120		83.984375
5121		74.218750
5122		80.078125
5123		70.312500
5124		76.171875
5125		66.406250
5126		72.265625
5127		62.500000
5128		68.359375
5129		58.593750
5130		64.453125
5131		52.734375
5132		60.546875
5133		48.828125
5134		56.640625
5135		44.921875
5136		50.781250
5137		41.015625
5138		46.875000
5139		35.156250
5140		42.968750
5141		31.250000
5142		37.109375
5143		25.390625
5144		33.203125
5145		21.484375
5146		27.343750
5147		15.625000
5148		23.437500
5149		11.718750
5150		17.578125
5151		5.859375
5152		13.671875
5153		0.000000
5154		7.812500
5155		-3.906250
5156		3.906250
5157		-7.812500
5158		-1.953125
5159		-13.671875
5160		-7.812500
5161		-17.578125
5162		-11.718750
5163		-23.437500
5164		-17.578125
5165		-29.296875
5166		-21.484375
5167		-33.203125
5168		-25.390625
5169		-37.109375
5170		-31.250000
5171		-42.968750
5172		-35.156250
5173		-46.875000
5174		-41.015625
5175		-50.781250
5176		-44.921875
5177		-54.687500
5178		-48.828125
5179		-58.593750
5180		-52.734375
5181		-62.500000
5182		-56.640625
5183		-66.406250
5184		-60.546875
5185		-70.312500
5186		-64.453125
5187		-74.218750
5188		-68.359375
5189		-76.171875
5190		-72.265625
5191		-80.078125
5192		-74.218750
5193		-82.031250
5194		-78.125000
5195		-85.937500
5196		-82.031250
5197		-87.890625
5198		-83.984375
5199		-91.796875
5200		-85.937500
5201		-91.796875
5202		-87.890625
5203		-93.750000
5204		-89.843750
5205		-95.703125
5206		-91.796875
5207		-97.656250
5208		-93.750000
5209		-97.656250
5210		-95.703125
5211		-99.609375
5212		-95.703125
5213		-99.609375
5214		-97.656250
5215		-101.562500
5216		-97.656250
5217		-101.562500
5218		-97.656250
5219		-101.562500
5220		-97.656250
5221		-99.609375
5222		-97.656250
5223		-99.609375
5224		-95.703125
5225		-99.609375
5226		-95.703125
5227		-97.656250
5228		-93.750000
5229		-97.656250
5230		-93.750000
5231		-95.703125
5232		-91.796875
5233		-93.750000
5234		-89.843750
5235		-91.796875
5236		-87.890625
5237		-89.843750
5238		-85.937500
5239		-87.890625
5240		-82.031250
5241		-85.937500
5242		-80.078125
5243		-82.031250
5244		-78.125000
5245		-80.078125
5246		-74.218750
5247		-78.125000
5248		-72.265625
5249		-74.218750
5250		-68.359375
5251		-70.312500
5252		-64.453125
5253		-66.406250
5254		-60.546875
5255		-62.500000
5256		-56.640625
5257		-58.593750
5258		-52.734375
5259		-54.687500
5260		-48.828125
5261		-50.781250
5262		-44.921875
5263		-46.875000
5264		-39.062500
5265		-41.015625
5266		-35.156250
5267		-37.109375
5268		-31.250000
5269		-31.250000
5270		-25.390625
5271		-27.343750
5272		-21.484375
5273		-23.437500
5274		-15.625000
5275		-17.578125
5276		-11.718750
5277		-13.671875
5278		-5.859375
5279		-7.812500
5280		-1.953125
5281		-1.953125
5282		3.906250
5283		1.953125
5284		7.812500
5285		7.812500
5286		13.671875
5287		11.718750
5288		19.531250
5289		17.578125
5290		23.437500
5291		21.484375
5292		29.296875
5293		27.343750
5294		33.203125
5295		31.250000
5296		39.062500
5297		37.109375
5298		42.968750
5299		41.015625
5300		46.875000
5301		44.921875
5302		50.781250
5303		48.828125
5304		54.687500
5305		54.687500
5306		60.546875
5307		58.593750
5308		64.453125
5309		62.500000
5310		68.359375
5311		66.406250
5312		74.218750
5313		70.312500
5314		76.171875
5315		74.218750
5316		80.078125
5317		78.125000
5318		83.984375
5319		82.031250
5320		85.937500
5321		83.984375
5322		89.843750
5323		85.937500
5324		93.750000
5325		91.796875
5326		95.703125
5327		93.750000
5328		99.609375
5329		97.656250
5330		101.562500
5331		99.609375
5332		103.515625
5333		101.562500
5334		107.421875
5335		105.468750
5336		107.421875
5337		105.468750
5338		111.328125
5339		107.421875
5340		113.281250
5341		109.375000
5342		113.281250
5343		111.328125
5344		115.234375
5345		113.281250
5346		117.187500
5347		115.234375
5348		117.187500
5349		115.234375
5350		119.140625
5351		115.234375
5352		119.140625
5353		117.187500
5354		119.140625
5355		117.187500
5356		121.093750
5357		117.187500
5358		121.093750
5359		119.140625
5360		121.093750
5361		119.140625
5362		121.093750
5363		117.187500
5364		121.093750
5365		117.187500
5366		121.093750
5367		117.187500
5368		119.140625
5369		115.234375
5370		119.140625
5371		115.234375
5372		117.187500
5373		113.281250
5374		117.187500
5375		111.328125
5376		115.234375
5377		111.328125
5378		115.234375
5379		107.421875
5380		113.281250
5381		107.421875
5382		111.328125
5383		105.468750
5384		109.375000
5385		101.562500
5386		107.421875
5387		101.562500
5388		105.468750
5389		97.656250
5390		101.562500
5391		95.703125
5392		99.609375
5393		91.796875
5394		97.656250
5395		87.890625
5396		93.750000
5397		85.937500
5398		89.843750
5399		82.031250
5400		87.890625
5401		78.125000
5402		83.984375
5403		76.171875
5404		80.078125
5405		72.265625
5406		76.171875
5407		66.406250
5408		74.218750
5409		62.500000
5410		68.359375
5411		58.593750
5412		64.453125
5413		54.687500
5414		60.546875
5415		48.828125
5416		56.640625
5417		44.921875
5418		50.781250
5419		41.015625
5420		46.875000
5421		37.109375
5422		42.968750
5423		31.250000
5424		37.109375
5425		27.343750
5426		33.203125
5427		21.484375
5428		27.343750
5429		17.578125
5430		23.437500
5431		11.718750
5432		19.531250
5433		7.812500
5434		13.671875
5435		1.953125
5436		7.812500
5437		-1.953125
5438		3.906250
5439		-7.812500
5440		-1.953125
5441		-13.671875
5442		-5.859375
5443		-17.578125
5444		-11.718750
5445		-23.437500
5446		-15.625000
5447		-29.296875
5448		-21.484375
5449		-31.250000
5450		-25.390625
5451		-37.109375
5452		-31.250000
5453		-41.015625
5454		-35.156250
5455		-44.921875
5456		-41.015625
5457		-50.781250
5458		-44.921875
5459		-54.687500
5460		-48.828125
5461		-58.593750
5462		-52.734375
5463		-62.500000
5464		-56.640625
5465		-66.406250
5466		-60.546875
5467		-70.312500
5468		-64.453125
5469		-74.218750
5470		-68.359375
5471		-76.171875
5472		-72.265625
5473		-80.078125
5474		-76.171875
5475		-82.031250
5476		-78.125000
5477		-85.937500
5478		-80.078125
5479		-87.890625
5480		-83.984375
5481		-89.843750
5482		-85.937500
5483		-91.796875
5484		-87.890625
5485		-93.750000
5486		-89.843750
5487		-95.703125
5488		-91.796875
5489		-97.656250
5490		-93.750000
5491		-99.609375
5492		-95.703125
5493		-99.609375
5494		-95.703125
5495		-99.609375
5496		-97.656250
5497		-101.562500
5498		-97.656250
5499		-101.562500
5500		-97.656250
5501		-101.562500
5502		-97.656250
5503		-101.562500
5504		-97.656250
5505		-101.562500
5506		-97.656250
5507		-101.562500
5508		-97.656250
5509		-99.609375
5510		-95.703125
5511		-97.656250
5512		-93.750000
5513		-97.656250
5514		-91.796875
5515		-95.703125
5516		-89.843750
5517		-93.750000
5518		-89.843750
5519		-91.796875
5520		-85.937500
5521		-87.890625
5522		-83.984375
5523		-85.937500
5524		-82.031250
5525		-83.984375
5526		-78.125000
5527		-80.078125
5528		-76.171875
5529		-78.125000
5530		-72.265625
5531		-74.218750
5532		-70.312500
5533		-72.265625
5534		-66.406250
5535		-68.359375
5536		-62.500000
5537		-64.453125
5538		-58.593750
5539		-58.593750
5540		-54.687500
5541		-54.687500
5542		-50.781250
5543		-50.781250
5544		-44.921875
5545		-46.875000
5546		-41.015625
5547		-42.968750
5548		-37.109375
5549		-39.062500
5550		-31.250000
5551		-33.203125
5552		-27.343750
5553		-29.296875
5554		-21.484375
5555		-23.437500
5556		-17.578125
5557		-19.531250
5558		-11.718750
5559		-13.671875
5560		-7.812500
5561		-9.765625
5562		-1.953125
5563		-3.906250
5564		1.953125
5565		0.000000
5566		7.812500
5567		5.859375
5568		11.718750
5569		9.765625
5570		17.578125
5571		15.625000
5572		21.484375
5573		21.484375
5574		27.343750
5575		25.390625
5576		31.250000
5577		29.296875
5578		37.109375
5579		35.156250
5580		41.015625
5581		39.062500
5582		44.921875
5583		44.921875
5584		50.781250
5585		48.828125
5586		54.687500
5587		52.734375
5588		58.593750
5589		56.640625
5590		62.500000
5591		62.500000
5592		66.406250
5593		66.406250
5594		72.265625
5595		70.312500
5596		74.218750
5597		74.218750
5598		78.125000
5599		76.171875
5600		82.031250
5601		80.078125
5602		85.937500
5603		83.984375
5604		89.843750
5605		87.890625
5606		91.796875
5607		89.843750
5608		95.703125
5609		93.750000
5610		97.656250
5611		95.703125
5612		99.609375
5613		99.609375
5614		103.515625
5615		101.562500
5616		105.468750
5617		103.515625
5618		107.421875
5619		105.468750
5620		111.328125
5621		107.421875
5622		111.328125
5623		109.375000
5624		113.281250
5625		111.328125
5626		115.234375
5627		113.281250
5628		115.234375
5629		113.281250
5630		117.187500
5631		115.234375
5632		119.140625
5633		115.234375
5634		119.140625
5635		117.187500
5636		119.140625
5637		117.187500
5638		121.093750
5639		117.187500
5640		119.140625
5641		117.187500
5642		121.093750
5643		117.187500
5644		121.093750
5645		117.187500
5646		121.093750
5647		117.187500
5648		121.093750
5649		115.234375
5650		121.093750
5651		115.234375
5652		119.140625
5653		113.281250
5654		119.140625
5655		113.281250
5656		117.187500
5657		111.328125
5658		115.234375
5659		111.328125
5660		115.234375
5661		109.375000
5662		113.281250
5663		105.468750
5664		111.328125
5665		103.515625
5666		109.375000
5667		103.515625
5668		107.421875
5669		99.609375
5670		105.468750
5671		97.656250
5672		103.515625
5673		95.703125
5674		99.609375
5675		91.796875
5676		97.656250
5677		87.890625
5678		93.750000
5679		85.937500
5680		91.796875
5681		82.031250
5682		87.890625
5683		78.125000
5684		83.984375
5685		76.171875
5686		80.078125
5687		72.265625
5688		78.125000
5689		68.359375
5690		72.265625
5691		62.500000
5692		68.359375
5693		58.593750
5694		66.406250
5695		54.687500
5696		62.500000
5697		50.781250
5698		58.593750
5699		44.921875
5700		52.734375
5701		41.015625
5702		48.828125
5703		35.156250
5704		42.968750
5705		31.250000
5706		39.062500
5707		27.343750
5708		33.203125
5709		21.484375
5710		29.296875
5711		17.578125
5712		25.390625
5713		11.718750
5714		19.531250
5715		5.859375
5716		15.625000
5717		1.953125
5718		9.765625
5719		-3.906250
5720		5.859375
5721		-7.812500
5722		0.000000
5723		-11.718750
5724		-5.859375
5725		-17.578125
5726		-9.765625
5727		-23.437500
5728		-15.625000
5729		-27.343750
5730		-19.531250
5731		-31.250000
5732		-25.390625
5733		-37.109375
5734		-29.296875
5735		-42.968750
5736		-35.156250
5737		-44.921875
5738		-39.062500
5739		-50.781250
5740		-44.921875
5741		-54.687500
5742		-48.828125
5743		-58.593750
5744		-50.781250
5745		-62.500000
5746		-56.640625
5747		-68.359375
5748		-58.593750
5749		-72.265625
5750		-64.453125
5751		-74.218750
5752		-66.406250
5753		-78.125000
5754		-70.312500
5755		-80.078125
5756		-74.218750
5757		-82.031250
5758		-78.125000
5759		-85.937500
5760		-82.031250
5761		-87.890625
5762		-83.984375
5763		-89.843750
5764		-85.937500
5765		-91.796875
5766		-87.890625
5767		-93.750000
5768		-91.796875
5769		-95.703125
5770		-93.750000
5771		-97.656250
5772		-93.750000
5773		-99.609375
5774		-95.703125
5775		-99.609375
5776		-97.656250
5777		-101.562500
5778		-97.656250
5779		-101.562500
5780		-99.609375
5781		-101.562500
5782		-97.656250
5783		-101.562500
5784		-99.609375
5785		-101.562500
5786		-99.609375
5787		-101.562500
5788		-97.656250
5789		-99.609375
5790		-97.656250
5791		-99.609375
5792		-95.703125
5793		-97.656250
5794		-95.703125
5795		-97.656250
5796		-93.750000
5797		-95.703125
5798		-91.796875
5799		-93.750000
5800		-89.843750
5801		-91.796875
5802		-87.890625
5803		-89.843750
5804		-85.937500
5805		-87.890625
5806		-83.984375
5807		-85.937500
5808		-80.078125
5809		-82.031250
5810		-76.171875
5811		-78.125000
5812		-74.218750
5813		-74.218750
5814		-70.312500
5815		-72.265625
5816		-66.406250
5817		-68.359375
5818		-62.500000
5819		-64.453125
5820		-60.546875
5821		-60.546875
5822		-54.687500
5823		-56.640625
5824		-50.781250
5825		-52.734375
5826		-46.875000
5827		-48.828125
5828		-42.968750
5829		-42.968750
5830		-37.109375
5831		-39.062500
5832		-33.203125
5833		-35.156250
5834		-27.343750
5835		-31.250000
5836		-23.437500
5837		-25.390625
5838		-19.531250
5839		-19.531250
5840		-13.671875
5841		-15.625000
5842		-9.765625
5843		-9.765625
5844		-3.906250
5845		-5.859375
5846		0.000000
5847		0.000000
5848		5.859375
5849		3.906250
5850		11.718750
5851		9.765625
5852		15.625000
5853		13.671875
5854		21.484375
5855		19.531250
5856		25.390625
5857		23.437500
5858		31.250000
5859		29.296875
5860		39.062500
5861		31.250000
5862		42.968750
5863		35.156250
5864		46.875000
5865		41.015625
5866		48.828125
5867		46.875000
5868		52.734375
5869		52.734375
5870		58.593750
5871		56.640625
5872		62.500000
5873		60.546875
5874		66.406250
5875		64.453125
5876		70.312500
5877		66.406250
5878		76.171875
5879		70.312500
5880		80.078125
5881		74.218750
5882		83.984375
5883		80.078125
5884		83.984375
5885		83.984375
5886		87.890625
5887		85.937500
5888		91.796875
5889		89.843750
5890		93.750000
5891		91.796875
5892		97.656250
5893		93.750000
5894		103.515625
5895		95.703125
5896		105.468750
5897		97.656250
5898		107.421875
5899		99.609375
5900		107.421875
5901		105.468750
5902		109.375000
5903		107.421875
5904		111.328125
5905		109.375000
5906		113.281250
5907		111.328125
5908		113.281250
5909		111.328125
5910		115.234375
5911		109.375000
5912		119.140625
5913		111.328125
5914		121.093750
5915		111.328125
5916		121.093750
5917		115.234375
5918		119.140625
5919		117.187500
5920		119.140625
5921		117.187500
5922		119.140625
5923		117.187500
5924		121.093750
5925		117.187500
5926		119.140625
5927		113.281250
5928		123.046875
5929		113.281250
5930		123.046875
5931		113.281250
5932		123.046875
5933		115.234375
5934		119.140625
5935		115.234375
5936		117.187500
5937		113.281250
5938		117.187500
5939		111.328125
5940		115.234375
5941		111.328125
5942		113.281250
5943		109.375000
5944		111.328125
5945		103.515625
5946		113.281250
5947		103.515625
5948		111.328125
5949		101.562500
5950		109.375000
5951		99.609375
5952		103.515625
5953		97.656250
5954		101.562500
5955		95.703125
5956		99.609375
5957		91.796875
5958		97.656250
5959		89.843750
5960		93.750000
5961		83.984375
5962		93.750000
5963		80.078125
5964		89.843750
5965		76.171875
5966		85.937500
5967		76.171875
5968		80.078125
5969		72.265625
5970		76.171875
5971		66.406250
5972		72.265625
5973		64.453125
5974		70.312500
5975		60.546875
5976		64.453125
5977		52.734375
5978		60.546875
5979		46.875000
5980		60.546875
5981		42.968750
5982		54.687500
5983		41.015625
5984		50.781250
5985		37.109375
5986		42.968750
5987		31.250000
5988		39.062500
5989		27.343750
5990		33.203125
5991		21.484375
5992		29.296875
5993		17.578125
5994		23.437500
5995		11.718750
5996		21.484375
5997		5.859375
5998		15.625000
5999		0.000000
6000		11.718750
6001		-1.953125
6002		3.906250
6003		-7.812500
6004		0.000000
6005		-11.718750
6006		-5.859375
6007		-17.578125
6008		-9.765625
6009		-21.484375
6010		-15.625000
6011		-29.296875
6012		-19.531250
6013		-35.156250
6014		-21.484375
6015		-39.062500
6016		-27.343750
6017		-41.015625
6018		-33.203125
6019		-44.921875
6020		-39.062500
6021		-48.828125
6022		-44.921875
6023		-54.687500
6024		-48.828125
6025		-58.593750
6026		-52.734375
6027		-62.500000
6028		-56.640625
6029		-66.406250
6030		-56.640625
6031		-72.265625
6032		-62.500000
6033		-74.218750
6034		-66.406250
6035		-76.171875
6036		-72.265625
6037		-80.078125
6038		-76.171875
6039		-82.031250
6040		-78.125000
6041		-85.937500
6042		-82.031250
6043		-87.890625
6044		-83.984375
6045		-89.843750
6046		-87.890625
6047		-95.703125
6048		-87.890625
6049		-95.703125
6050		-89.843750
6051		-95.703125
6052		-93.750000
6053		-97.656250
6054		-93.750000
6055		-99.609375
6056		-95.703125
6057		-99.609375
6058		-97.656250
6059		-101.562500
6060		-97.656250
6061		-101.562500
6062		-99.609375
6063		-103.515625
6064		-95.703125
6065		-103.515625
6066		-95.703125
6067		-101.562500
6068		-99.609375
6069		-101.562500
6070		-99.609375
6071		-101.562500
6072		-97.656250
6073		-99.609375
6074		-97.656250
6075		-99.609375
6076		-95.703125
6077		-97.656250
6078		-95.703125
6079		-97.656250
6080		-93.750000
6081		-95.703125
6082		-89.843750
6083		-93.750000
6084		-89.843750
6085		-89.843750
6086		-85.937500
6087		-87.890625
6088		-83.984375
6089		-85.937500
6090		-80.078125
6091		-82.031250
6092		-78.125000
6093		-80.078125
6094		-74.218750
6095		-76.171875
6096		-72.265625
6097		-72.265625
6098		-68.359375
6099		-70.312500
6100		-64.453125
6101		-66.406250
6102		-60.546875
6103		-62.500000
6104		-56.640625
6105		-56.640625
6106		-52.734375
6107		-54.687500
6108		-46.875000
6109		-48.828125
6110		-42.968750
6111		-44.921875
6112		-39.062500
6113		-41.015625
6114		-33.203125
6115		-35.156250
6116		-29.296875
6117		-31.250000
6118		-25.390625
6119		-25.390625
6120		-19.531250
6121		-21.484375
6122		-15.625000
6123		-15.625000
6124		-9.765625
6125		-11.718750
6126		-5.859375
6127		-5.859375
6128		0.000000
6129		-1.953125
6130		3.906250
6131		3.906250
6132		9.765625
6133		7.812500
6134		13.671875
6135		13.671875
6136		19.531250
6137		17.578125
6138		25.390625
6139		23.437500
6140		29.296875
6141		27.343750
6142		35.156250
6143		33.203125
6144		39.062500
6145		37.109375
6146		42.968750
6147		41.015625
6148		48.828125
6149		46.875000
6150		52.734375
6151		50.781250
6152		56.640625
6153		54.687500
6154		60.546875
6155		58.593750
6156		64.453125
6157		64.453125
6158		68.359375
6159		68.359375
6160		74.218750
6161		72.265625
6162		76.171875
6163		74.218750
6164		80.078125
6165		78.125000
6166		83.984375
6167		82.031250
6168		87.890625
6169		85.937500
6170		91.796875
6171		87.890625
6172		93.750000
6173		91.796875
6174		95.703125
6175		93.750000
6176		99.609375
6177		97.656250
6178		101.562500
6179		99.609375
6180		103.515625
6181		101.562500
6182		105.468750
6183		103.515625
6184		107.421875
6185		107.421875
6186		111.328125
6187		107.421875
6188		111.328125
6189		109.375000
6190		113.281250
6191		111.328125
6192		115.234375
6193		113.281250
6194		117.187500
6195		113.281250
6196		119.140625
6197		113.281250
6198		119.140625
6199		115.234375
6200		119.140625
6201		117.187500
6202		119.140625
6203		117.187500
6204		119.140625
6205		117.187500
6206		119.140625
6207		117.187500
6208		119.140625
6209		117.187500
6210		119.140625
6211		117.187500
6212		119.140625
6213		115.234375
6214		121.093750
6215		115.234375
6216		119.140625
6217		115.234375
6218		117.187500
6219		113.281250
6220		117.187500
6221		111.328125
6222		115.234375
6223		111.328125
6224		113.281250
6225		109.375000
6226		111.328125
6227		107.421875
6228		111.328125
6229		103.515625
6230		109.375000
6231		101.562500
6232		107.421875
6233		99.609375
6234		105.468750
6235		97.656250
6236		101.562500
6237		93.750000
6238		99.609375
6239		91.796875
6240		97.656250
6241		89.843750
6242		93.750000
6243		85.937500
6244		91.796875
6245		82.031250
6246		87.890625
6247		80.078125
6248		83.984375
6249		76.171875
6250		80.078125
6251		72.265625
6252		76.171875
6253		66.406250
6254		72.265625
6255		64.453125
6256		70.312500
6257		58.593750
6258		64.453125
6259		54.687500
6260		60.546875
6261		50.781250
6262		56.640625
6263		44.921875
6264		52.734375
6265		41.015625
6266		48.828125
6267		37.109375
6268		42.968750
6269		31.250000
6270		39.062500
6271		27.343750
6272		35.156250
6273		23.437500
6274		29.296875
6275		17.578125
6276		23.437500
6277		13.671875
6278		19.531250
6279		7.812500
6280		13.671875
6281		1.953125
6282		11.718750
6283		-1.953125
6284		3.906250
6285		-7.812500
6286		0.000000
6287		-11.718750
6288		-5.859375
6289		-17.578125
6290		-9.765625
6291		-21.484375
6292		-15.625000
6293		-27.343750
6294		-19.531250
6295		-31.250000
6296		-25.390625
6297		-37.109375
6298		-29.296875
6299		-41.015625
6300		-35.156250
6301		-44.921875
6302		-39.062500
6303		-50.781250
6304		-42.968750
6305		-54.687500
6306		-46.875000
6307		-58.593750
6308		-52.734375
6309		-62.500000
6310		-56.640625
6311		-66.406250
6312		-60.546875
6313		-70.312500
6314		-64.453125
6315		-74.218750
6316		-68.359375
6317		-76.171875
6318		-70.312500
6319		-80.078125
6320		-76.171875
6321		-83.984375
6322		-78.125000
6323		-85.937500
6324		-80.078125
6325		-87.890625
6326		-83.984375
6327		-91.796875
6328		-85.937500
6329		-93.750000
6330		-89.843750
6331		-93.750000
6332		-91.796875
6333		-95.703125
6334		-93.750000
6335		-97.656250
6336		-95.703125
6337		-99.609375
6338		-95.703125
6339		-99.609375
6340		-97.656250
6341		-101.562500
6342		-97.656250
6343		-101.562500
6344		-99.609375
6345		-101.562500
6346		-99.609375
6347		-103.515625
6348		-99.609375
6349		-101.562500
6350		-99.609375
6351		-101.562500
6352		-99.609375
6353		-101.562500
6354		-99.609375
6355		-99.609375
6356		-97.656250
6357		-99.609375
6358		-95.703125
6359		-97.656250
6360		-95.703125
6361		-97.656250
6362		-93.750000
6363		-95.703125
6364		-91.796875
6365		-93.750000
6366		-89.843750
6367		-89.843750
6368		-87.890625
6369		-87.890625
6370		-83.984375
6371		-85.937500
6372		-82.031250
6373		-83.984375
6374		-78.125000
6375		-80.078125
6376		-76.171875
6377		-76.171875
6378		-72.265625
6379		-74.218750
6380		-68.359375
6381		-70.312500
6382		-64.453125
6383		-66.406250
6384		-60.546875
6385		-62.500000
6386		-56.640625
6387		-58.593750
6388		-52.734375
6389		-54.687500
6390		-48.828125
6391		-50.781250
6392		-44.921875
6393		-44.921875
6394		-39.062500
6395		-41.015625
6396		-35.156250
6397		-37.109375
6398		-29.296875
6399		-31.250000
6400		-25.390625
6401		-27.343750
6402		-21.484375
6403		-21.484375
6404		-15.625000
6405		-17.578125
6406		-11.718750
6407		-11.718750
6408		-5.859375
6409		-7.812500
6410		0.000000
6411		-1.953125
6412		3.906250
6413		3.906250
6414		9.765625
6415		7.812500
6416		13.671875
6417		13.671875
6418		19.531250
6419		17.578125
6420		23.437500
6421		23.437500
6422		29.296875
6423		27.343750
6424		33.203125
6425		33.203125
6426		39.062500
6427		37.109375
6428		42.968750
6429		41.015625
6430		46.875000
6431		44.921875
6432		50.781250
6433		50.781250
6434		56.640625
6435		54.687500
6436		60.546875
6437		58.593750
6438		64.453125
6439		62.500000
6440		68.359375
6441		66.406250
6442		72.265625
6443		70.312500
6444		76.171875
6445		74.218750
6446		80.078125
6447		78.125000
6448		83.984375
6449		82.031250
6450		85.937500
6451		85.937500
6452		89.843750
6453		87.890625
6454		93.750000
6455		91.796875
6456		95.703125
6457		93.750000
6458		97.656250
6459		97.656250
6460		101.562500
6461		99.609375
6462		103.515625
6463		101.562500
6464		105.468750
6465		103.515625
6466		107.421875
6467		107.421875
6468		109.375000
6469		107.421875
6470		111.328125
6471		109.375000
6472		113.281250
6473		111.328125
6474		115.234375
6475		113.281250
6476		115.234375
6477		113.281250
6478		117.187500
6479		115.234375
6480		117.187500
6481		115.234375
6482		119.140625
6483		115.234375
6484		121.093750
6485		115.234375
6486		121.093750
6487		117.187500
6488		119.140625
6489		117.187500
6490		119.140625
6491		117.187500
6492		119.140625
6493		117.187500
6494		119.140625
6495		117.187500
6496		119.140625
6497		115.234375
6498		117.187500
6499		113.281250
6500		119.140625
6501		113.281250
6502		117.187500
6503		111.328125
6504		115.234375
6505		111.328125
6506		113.281250
6507		109.375000
6508		113.281250
6509		107.421875
6510		111.328125
6511		105.468750
6512		109.375000
6513		103.515625
6514		107.421875
6515		99.609375
6516		105.468750
6517		97.656250
6518		103.515625
6519		95.703125
6520		99.609375
6521		91.796875
6522		97.656250
6523		89.843750
6524		93.750000
6525		85.937500
6526		91.796875
6527		83.984375
6528		87.890625
6529		80.078125
6530		85.937500
6531		76.171875
6532		82.031250
6533		70.312500
6534		80.078125
6535		68.359375
6536		74.218750
6537		64.453125
6538		70.312500
6539		60.546875
6540		66.406250
6541		56.640625
6542		62.500000
6543		50.781250
6544		56.640625
6545		46.875000
6546		52.734375
6547		42.968750
6548		48.828125
6549		35.156250
6550		42.968750
6551		33.203125
6552		39.062500
6553		27.343750
6554		33.203125
6555		23.437500
6556		29.296875
6557		17.578125
6558		25.390625
6559		13.671875
6560		19.531250
6561		7.812500
6562		13.671875
6563		3.906250
6564		9.765625
6565		-3.906250
6566		3.906250
6567		-7.812500
6568		1.953125
6569		-11.718750
6570		-3.906250
6571		-15.625000
6572		-9.765625
6573		-21.484375
6574		-15.625000
6575		-25.390625
6576		-19.531250
6577		-31.250000
6578		-25.390625
6579		-35.156250
6580		-29.296875
6581		-41.015625
6582		-33.203125
6583		-44.921875
6584		-39.062500
6585		-48.828125
6586		-42.968750
6587		-52.734375
6588		-48.828125
6589		-58.593750
6590		-52.734375
6591		-62.500000
6592		-56.640625
6593		-66.406250
6594		-60.546875
6595		-70.312500
6596		-64.453125
6597		-72.265625
6598		-68.359375
6599		-78.125000
6600		-70.312500
6601		-80.078125
6602		-72.265625
6603		-82.031250
6604		-78.125000
6605		-85.937500
6606		-82.031250
6607		-87.890625
6608		-83.984375
6609		-89.843750
6610		-85.937500
6611		-91.796875
6612		-89.843750
6613		-95.703125
6614		-91.796875
6615		-95.703125
6616		-93.750000
6617		-99.609375
6618		-93.750000
6619		-99.609375
6620		-95.703125
6621		-99.609375
6622		-97.656250
6623		-101.562500
6624		-97.656250
6625		-101.562500
6626		-99.609375
6627		-101.562500
6628		-99.609375
6629		-101.562500
6630		-99.609375
6631		-101.562500
6632		-99.609375
6633		-103.515625
6634		-97.656250
6635		-101.562500
6636		-97.656250
6637		-99.609375
6638		-97.656250
6639		-99.609375
6640		-97.656250
6641		-97.656250
6642		-95.703125
6643		-97.656250
6644		-93.750000
6645		-95.703125
6646		-91.796875
6647		-93.750000
6648		-89.843750
6649		-91.796875
6650		-85.937500
6651		-89.843750
6652		-83.984375
6653		-87.890625
6654		-82.031250
6655		-83.984375
6656		-78.125000
6657		-82.031250
6658		-76.171875
6659		-78.125000
6660		-72.265625
6661		-74.218750
6662		-68.359375
6663		-70.312500
6664		-66.406250
6665		-66.406250
6666		-62.500000
6667		-62.500000
6668		-58.593750
6669		-58.593750
6670		-52.734375
6671		-54.687500
6672		-48.828125
6673		-50.781250
6674		-44.921875
6675		-46.875000
6676		-41.015625
6677		-41.015625
6678		-35.156250
6679		-37.109375
6680		-31.250000
6681		-31.250000
6682		-25.390625
6683		-27.343750
6684		-21.484375
6685		-23.437500
6686		-15.625000
6687		-17.578125
6688		-11.718750
6689		-13.671875
6690		-5.859375
6691		-7.812500
6692		-1.953125
6693		-3.906250
6694		3.906250
6695		1.953125
6696		7.812500
6697		5.859375
6698		13.671875
6699		11.718750
6700		17.578125
6701		15.625000
6702		23.437500
6703		21.484375
6704		27.343750
6705		27.343750
6706		33.203125
6707		31.250000
6708		37.109375
6709		37.109375
6710		41.015625
6711		41.015625
6712		46.875000
6713		44.921875
6714		50.781250
6715		50.781250
6716		56.640625
6717		54.687500
6718		58.593750
6719		58.593750
6720		64.453125
6721		62.500000
6722		68.359375
6723		66.406250
6724		72.265625
6725		70.312500
6726		76.171875
6727		74.218750
6728		80.078125
6729		78.125000
6730		83.984375
6731		82.031250
6732		85.937500
6733		85.937500
6734		89.843750
6735		87.890625
6736		91.796875
6737		91.796875
6738		95.703125
6739		93.750000
6740		97.656250
6741		97.656250
6742		101.562500
6743		99.609375
6744		103.515625
6745		101.562500
6746		105.468750
6747		103.515625
6748		107.421875
6749		105.468750
6750		109.375000
6751		107.421875
6752		111.328125
6753		109.375000
6754		113.281250
6755		111.328125
6756		113.281250
6757		113.281250
6758		115.234375
6759		113.281250
6760		117.187500
6761		115.234375
6762		117.187500
6763		115.234375
6764		119.140625
6765		115.234375
6766		119.140625
6767		117.187500
6768		119.140625
6769		117.187500
6770		119.140625
6771		117.187500
6772		119.140625
6773		117.187500
6774		119.140625
6775		115.234375
6776		119.140625
6777		115.234375
6778		119.140625
6779		115.234375
6780		117.187500
6781		115.234375
6782		117.187500
6783		113.281250
6784		117.187500
6785		111.328125
6786		115.234375
6787		111.328125
6788		115.234375
6789		109.375000
6790		113.281250
6791		107.421875
6792		111.328125
6793		105.468750
6794		109.375000
6795		103.515625
6796		107.421875
6797		101.562500
6798		105.468750
6799		97.656250
6800		103.515625
6801		95.703125
6802		99.609375
6803		93.750000
6804		97.656250
6805		89.843750
6806		93.750000
6807		85.937500
6808		91.796875
6809		83.984375
6810		87.890625
6811		80.078125
6812		83.984375
6813		76.171875
6814		82.031250
6815		72.265625
6816		78.125000
6817		68.359375
6818		74.218750
6819		64.453125
6820		70.312500
6821		60.546875
6822		66.406250
6823		56.640625
6824		62.500000
6825		50.781250
6826		58.593750
6827		46.875000
6828		52.734375
6829		42.968750
6830		48.828125
6831		39.062500
6832		44.921875
6833		33.203125
6834		39.062500
6835		29.296875
6836		35.156250
6837		23.437500
6838		29.296875
6839		19.531250
6840		25.390625
6841		13.671875
6842		19.531250
6843		9.765625
6844		15.625000
6845		3.906250
6846		9.765625
6847		-1.953125
6848		5.859375
6849		-5.859375
6850		1.953125
6851		-11.718750
6852		-3.906250
6853		-15.625000
6854		-9.765625
6855		-21.484375
6856		-13.671875
6857		-25.390625
6858		-19.531250
6859		-29.296875
6860		-23.437500
6861		-35.156250
6862		-29.296875
6863		-39.062500
6864		-33.203125
6865		-44.921875
6866		-39.062500
6867		-48.828125
6868		-42.968750
6869		-52.734375
6870		-46.875000
6871		-56.640625
6872		-50.781250
6873		-60.546875
6874		-56.640625
6875		-64.453125
6876		-60.546875
6877		-68.359375
6878		-64.453125
6879		-72.265625
6880		-68.359375
6881		-76.171875
6882		-70.312500
6883		-78.125000
6884		-74.218750
6885		-82.031250
6886		-78.125000
6887		-83.984375
6888		-80.078125
6889		-87.890625
6890		-83.984375
6891		-89.843750
6892		-85.937500
6893		-91.796875
6894		-87.890625
6895		-93.750000
6896		-91.796875
6897		-95.703125
6898		-93.750000
6899		-97.656250
6900		-95.703125
6901		-99.609375
6902		-95.703125
6903		-99.609375
6904		-97.656250
6905		-101.562500
6906		-97.656250
6907		-101.562500
6908		-99.609375
6909		-101.562500
6910		-99.609375
6911		-101.562500
6912		-99.609375
6913		-101.562500
6914		-99.609375
6915		-101.562500
6916		-99.609375
6917		-101.562500
6918		-99.609375
6919		-101.562500
6920		-97.656250
6921		-99.609375
6922		-97.656250
6923		-99.609375
6924		-95.703125
6925		-97.656250
6926		-93.750000
6927		-95.703125
6928		-91.796875
6929		-93.750000
6930		-89.843750
6931		-91.796875
6932		-87.890625
6933		-89.843750
6934		-83.984375
6935		-85.937500
6936		-82.031250
6937		-83.984375
6938		-80.078125
6939		-80.078125
6940		-76.171875
6941		-78.125000
6942		-72.265625
6943		-74.218750
6944		-70.312500
6945		-70.312500
6946		-66.406250
6947		-66.406250
6948		-62.500000
6949		-62.500000
6950		-58.593750
6951		-58.593750
6952		-52.734375
6953		-54.687500
6954		-48.828125
6955		-50.781250
6956		-44.921875
6957		-46.875000
6958		-41.015625
6959		-41.015625
6960		-35.156250
6961		-37.109375
6962		-31.250000
6963		-33.203125
6964		-27.343750
6965		-27.343750
6966		-21.484375
6967		-23.437500
6968		-15.625000
6969		-17.578125
6970		-11.718750
6971		-13.671875
6972		-7.812500
6973		-7.812500
6974		-1.953125
6975		-3.906250
6976		3.906250
6977		1.953125
6978		7.812500
6979		5.859375
6980		13.671875
6981		11.718750
6982		17.578125
6983		15.625000
6984		23.437500
6985		21.484375
6986		27.343750
6987		25.390625
6988		33.203125
6989		31.250000
6990		37.109375
6991		35.156250
6992		41.015625
6993		41.015625
6994		46.875000
6995		44.921875
6996		50.781250
6997		48.828125
6998		54.687500
6999		52.734375
7000		58.593750
7001		58.593750
7002		62.500000
7003		62.500000
7004		66.406250
7005		66.406250
7006		72.265625
7007		70.312500
7008		76.171875
7009		74.218750
7010		78.125000
7011		78.125000
7012		82.031250
7013		82.031250
7014		85.937500
7015		83.984375
7016		89.843750
7017		87.890625
7018		91.796875
7019		89.843750
7020		95.703125
7021		93.750000
7022		97.656250
7023		97.656250
7024		99.609375
7025		99.609375
7026		103.515625
7027		101.562500
7028		105.468750
7029		103.515625
7030		107.421875
7031		105.468750
7032		109.375000
7033		107.421875
7034		111.328125
7035		109.375000
7036		113.281250
7037		111.328125
7038		113.281250
7039		113.281250
7040		115.234375
7041		113.281250
7042		117.187500
7043		115.234375
7044		117.187500
7045		115.234375
7046		119.140625
7047		117.187500
7048		119.140625
7049		117.187500
7050		119.140625
7051		117.187500
7052		119.140625
7053		117.187500
7054		119.140625
7055		117.187500
7056		119.140625
7057		117.187500
7058		119.140625
7059		117.187500
7060		119.140625
7061		115.234375
7062		117.187500
7063		115.234375
7064		117.187500
7065		113.281250
7066		117.187500
7067		113.281250
7068		115.234375
7069		111.328125
7070		113.281250
7071		109.375000
7072		113.281250
7073		107.421875
7074		111.328125
7075		105.468750
7076		109.375000
7077		103.515625
7078		107.421875
7079		101.562500
7080		105.468750
7081		99.609375
7082		103.515625
7083		95.703125
7084		99.609375
7085		93.750000
7086		97.656250
7087		89.843750
7088		95.703125
7089		87.890625
7090		91.796875
7091		83.984375
7092		87.890625
7093		80.078125
7094		85.937500
7095		76.171875
7096		82.031250
7097		74.218750
7098		78.125000
7099		68.359375
7100		74.218750
7101		66.406250
7102		70.312500
7103		60.546875
7104		66.406250
7105		56.640625
7106		62.500000
7107		52.734375
7108		58.593750
7109		48.828125
7110		54.687500
7111		42.968750
7112		48.828125
7113		39.062500
7114		44.921875
7115		35.156250
7116		39.062500
7117		29.296875
7118		35.156250
7119		25.390625
7120		31.250000
7121		19.531250
7122		25.390625
7123		15.625000
7124		21.484375
7125		9.765625
7126		15.625000
7127		3.906250
7128		11.718750
7129		0.000000
7130		5.859375
7131		-5.859375
7132		1.953125
7133		-9.765625
7134		-3.906250
7135		-15.625000
7136		-9.765625
7137		-19.531250
7138		-13.671875
7139		-25.390625
7140		-19.531250
7141		-29.296875
7142		-23.437500
7143		-35.156250
7144		-29.296875
7145		-39.062500
7146		-33.203125
7147		-42.968750
7148		-37.109375
7149		-48.828125
7150		-42.968750
7151		-52.734375
7152		-46.875000
7153		-56.640625
7154		-50.781250
7155		-60.546875
7156		-54.687500
7157		-64.453125
7158		-58.593750
7159		-68.359375
7160		-62.500000
7161		-72.265625
7162		-66.406250
7163		-76.171875
7164		-70.312500
7165		-78.125000
7166		-74.218750
7167		-82.031250
7168		-78.125000
7169		-83.984375
7170		-80.078125
7171		-87.890625
7172		-83.984375
7173		-89.843750
7174		-85.937500
7175		-91.796875
7176		-87.890625
7177		-93.750000
7178		-91.796875
7179		-95.703125
7180		-91.796875
7181		-97.656250
7182		-93.750000
7183		-99.609375
7184		-95.703125
7185		-99.609375
7186		-97.656250
7187		-101.562500
7188		-97.656250
7189		-101.562500
7190		-99.609375
7191		-101.562500
7192		-99.609375
7193		-101.562500
7194		-99.609375
7195		-101.562500
7196		-99.609375
7197		-101.562500
7198		-99.609375
7199		-101.562500
7200		-99.609375
7201		-101.562500
7202		-97.656250
7203		-99.609375
7204		-97.656250
7205		-99.609375
7206		-95.703125
7207		-97.656250
7208		-93.750000
7209		-95.703125
7210		-91.796875
7211		-93.750000
7212		-89.843750
7213		-91.796875
7214		-87.890625
7215		-89.843750
7216		-85.937500
7217		-87.890625
7218		-83.984375
7219		-83.984375
7220		-80.078125
7221		-82.031250
7222		-76.171875
7223		-78.125000
7224		-74.218750
7225		-74.218750
7226		-70.312500
7227		-72.265625
7228		-66.406250
7229		-68.359375
7230		-62.500000
7231		-64.453125
7232		-58.593750
7233		-60.546875
7234		-54.687500
7235		-56.640625
7236		-50.781250
7237		-52.734375
7238		-44.921875
7239		-46.875000
7240		-41.015625
7241		-42.968750
7242		-37.109375
7243		-39.062500
7244		-33.203125
7245		-33.203125
7246		-27.343750
7247		-29.296875
7248		-21.484375
7249		-23.437500
7250		-17.578125
7251		-19.531250
7252		-13.671875
7253		-13.671875
7254		-7.812500
7255		-9.765625
7256		-3.906250
7257		-3.906250
7258		1.953125
7259		0.000000
7260		7.812500
7261		5.859375
7262		11.718750
7263		9.765625
7264		17.578125
7265		15.625000
7266		21.484375
7267		19.531250
7268		27.343750
7269		25.390625
7270		31.250000
7271		29.296875
7272		35.156250
7273		35.156250
7274		41.015625
7275		39.062500
7276		44.921875
7277		44.921875
7278		50.781250
7279		48.828125
7280		54.687500
7281		52.734375
7282		58.593750
7283		56.640625
7284		62.500000
7285		62.500000
7286		66.406250
7287		66.406250
7288		70.312500
7289		70.312500
7290		74.218750
7291		74.218750
7292		78.125000
7293		76.171875
7294		82.031250
7295		80.078125
7296		85.937500
7297		83.984375
7298		87.890625
7299		87.890625
7300		91.796875
7301		89.843750
7302		95.703125
7303		93.750000
7304		97.656250
7305		95.703125
7306		99.609375
7307		99.609375
7308		103.515625
7309		101.562500
7310		105.468750
7311		103.515625
7312		107.421875
7313		105.468750
7314		109.375000
7315		107.421875
7316		111.328125
7317		109.375000
7318		113.281250
7319		111.328125
7320		113.281250
7321		113.281250
7322		115.234375
7323		113.281250
7324		117.187500
7325		115.234375
7326		117.187500
7327		115.234375
7328		117.187500
7329		117.187500
7330		119.140625
7331		117.187500
7332		119.140625
7333		117.187500
7334		119.140625
7335		117.187500
7336		119.140625
7337		117.187500
7338		119.140625
7339		117.187500
7340		119.140625
7341		117.187500
7342		119.140625
7343		115.234375
7344		119.140625
7345		115.234375
7346		117.187500
7347		113.281250
7348		117.187500
7349		113.281250
7350		115.234375
7351		111.328125
7352		115.234375
7353		109.375000
7354		113.281250
7355		107.421875
7356		111.328125
7357		105.468750
7358		109.375000
7359		103.515625
7360		107.421875
7361		101.562500
7362		105.468750
7363		99.609375
7364		103.515625
7365		95.703125
7366		99.609375
7367		93.750000
7368		97.656250
7369		89.843750
7370		95.703125
7371		87.890625
7372		91.796875
7373		83.984375
7374		89.843750
7375		80.078125
7376		85.937500
7377		78.125000
7378		82.031250
7379		74.218750
7380		78.125000
7381		70.312500
7382		74.218750
7383		66.406250
7384		70.312500
7385		60.546875
7386		66.406250
7387		56.640625
7388		62.500000
7389		52.734375
7390		58.593750
7391		48.828125
7392		54.687500
7393		44.921875
7394		50.781250
7395		39.062500
7396		44.921875
7397		35.156250
7398		41.015625
7399		29.296875
7400		35.156250
7401		25.390625
7402		31.250000
7403		19.531250
7404		27.343750
7405		15.625000
7406		21.484375
7407		9.765625
7408		15.625000
7409		5.859375
7410		11.718750
7411		0.000000
7412		5.859375
7413		-5.859375
7414		1.953125
7415		-9.765625
7416		-3.906250
7417		-15.625000
7418		-7.812500
7419		-19.531250
7420		-13.671875
7421		-23.437500
7422		-17.578125
7423		-29.296875
7424		-23.437500
7425		-33.203125
7426		-27.343750
7427		-39.062500
7428		-33.203125
7429		-42.968750
7430		-37.109375
7431		-46.875000
7432		-41.015625
7433		-52.734375
7434		-46.875000
7435		-56.640625
7436		-50.781250
7437		-60.546875
7438		-54.687500
7439		-64.453125
7440		-58.593750
7441		-68.359375
7442		-62.500000
7443		-72.265625
7444		-66.406250
7445		-74.218750
7446		-70.312500
7447		-78.125000
7448		-74.218750
7449		-82.031250
7450		-76.171875
7451		-83.984375
7452		-80.078125
7453		-87.890625
7454		-82.031250
7455		-89.843750
7456		-85.937500
7457		-91.796875
7458		-87.890625
7459		-93.750000
7460		-89.843750
7461		-95.703125
7462		-91.796875
7463		-97.656250
7464		-93.750000
7465		-97.656250
7466		-95.703125
7467		-99.609375
7468		-97.656250
7469		-101.562500
7470		-97.656250
7471		-101.562500
7472		-99.609375
7473		-101.562500
7474		-99.609375
7475		-101.562500
7476		-99.609375
7477		-101.562500
7478		-99.609375
7479		-101.562500
7480		-99.609375
7481		-101.562500
7482		-99.609375
7483		-101.562500
7484		-97.656250
7485		-99.609375
7486		-97.656250
7487		-99.609375
7488		-95.703125
7489		-97.656250
7490		-93.750000
7491		-95.703125
7492		-91.796875
7493		-93.750000
7494		-89.843750
7495		-91.796875
7496		-87.890625
7497		-89.843750
7498		-85.937500
7499		-87.890625
7500		-82.031250
7501		-83.984375
7502		-80.078125
7503		-82.031250
7504		-78.125000
7505		-78.125000
7506		-74.218750
7507		-76.171875
7508		-70.312500
7509		-72.265625
7510		-66.406250
7511		-68.359375
7512		-62.500000
7513		-64.453125
7514		-58.593750
7515		-60.546875
7516		-52.734375
7517		-56.640625
7518		-50.781250
7519		-52.734375
7520		-46.875000
7521		-46.875000
7522		-41.015625
7523		-42.968750
7524		-37.109375
7525		-39.062500
7526		-33.203125
7527		-33.203125
7528		-27.343750
7529		-29.296875
7530		-23.437500
7531		-25.390625
7532		-17.578125
7533		-21.484375
7534		-13.671875
7535		-13.671875
7536		-5.859375
7537		-9.765625
7538		-3.906250
7539		-3.906250
7540		1.953125
7541		0.000000
7542		5.859375
7543		3.906250
7544		11.718750
7545		9.765625
7546		15.625000
7547		15.625000
7548		21.484375
7549		19.531250
7550		27.343750
7551		25.390625
7552		31.250000
7553		29.296875
7554		35.156250
7555		35.156250
7556		41.015625
7557		39.062500
7558		44.921875
7559		42.968750
7560		48.828125
7561		48.828125
7562		54.687500
7563		50.781250
7564		58.593750
7565		56.640625
7566		62.500000
7567		58.593750
7568		66.406250
7569		64.453125
7570		72.265625
7571		68.359375
7572		74.218750
7573		72.265625
7574		78.125000
7575		76.171875
7576		82.031250
7577		78.125000
7578		85.937500
7579		83.984375
7580		87.890625
7581		85.937500
7582		91.796875
7583		89.843750
7584		95.703125
7585		93.750000
7586		97.656250
7587		93.750000
7588		99.609375
7589		97.656250
7590		101.562500
7591		101.562500
7592		105.468750
7593		101.562500
7594		109.375000
7595		105.468750
7596		109.375000
7597		107.421875
7598		111.328125
7599		109.375000
7600		113.281250
7601		107.421875
7602		115.234375
7603		107.421875
7604		117.187500
7605		113.281250
7606		115.234375
7607		115.234375
7608		117.187500
7609		113.281250
7610		119.140625
7611		113.281250
7612		121.093750
7613		115.234375
7614		119.140625
7615		115.234375
7616		119.140625
7617		113.281250
7618		123.046875
7619		113.281250
7620		123.046875
7621		117.187500
7622		119.140625
7623		115.234375
7624		119.140625
7625		113.281250
7626		119.140625
7627		111.328125
7628		121.093750
7629		111.328125
7630		119.140625
7631		113.281250
7632		115.234375
7633		109.375000
7634		115.234375
7635		107.421875
7636		117.187500
7637		105.468750
7638		113.281250
7639		105.468750
7640		109.375000
7641		103.515625
7642		107.421875
7643		99.609375
7644		107.421875
7645		97.656250
7646		107.421875
7647		95.703125
7648		101.562500
7649		93.750000
7650		97.656250
7651		87.890625
7652		97.656250
7653		83.984375
7654		93.750000
7655		83.984375
7656		89.843750
7657		82.031250
7658		85.937500
7659		76.171875
7660		82.031250
7661		72.265625
7662		82.031250
7663		70.312500
7664		76.171875
7665		66.406250
7666		72.265625
7667		58.593750
7668		68.359375
7669		56.640625
7670		66.406250
7671		52.734375
7672		60.546875
7673		48.828125
7674		54.687500
7675		42.968750
7676		50.781250
7677		37.109375
7678		46.875000
7679		35.156250
7680		41.015625
7681		29.296875
7682		37.109375
7683		21.484375
7684		31.250000
7685		19.531250
7686		31.250000
7687		11.718750
7688		23.437500
7689		11.718750
7690		17.578125
7691		5.859375
7692		11.718750
7693		0.000000
7694		7.812500
7695		-5.859375
7696		3.906250
7697		-9.765625
7698		-1.953125
7699		-13.671875
7700		-7.812500
7701		-23.437500
7702		-11.718750
7703		-27.343750
7704		-17.578125
7705		-29.296875
7706		-21.484375
7707		-33.203125
7708		-27.343750
7709		-39.062500
7710		-31.250000
7711		-44.921875
7712		-35.156250
7713		-48.828125
7714		-41.015625
7715		-50.781250
7716		-46.875000
7717		-58.593750
7718		-50.781250
7719		-60.546875
7720		-50.781250
7721		-64.453125
7722		-56.640625
7723		-68.359375
7724		-62.500000
7725		-72.265625
7726		-66.406250
7727		-78.125000
7728		-68.359375
7729		-80.078125
7730		-70.312500
7731		-82.031250
7732		-76.171875
7733		-85.937500
7734		-80.078125
7735		-89.843750
7736		-80.078125
7737		-89.843750
7738		-83.984375
7739		-91.796875
7740		-87.890625
7741		-93.750000
7742		-89.843750
7743		-97.656250
7744		-91.796875
7745		-99.609375
7746		-91.796875
7747		-99.609375
7748		-93.750000
7749		-99.609375
7750		-97.656250
7751		-103.515625
7752		-95.703125
7753		-105.468750
7754		-95.703125
7755		-103.515625
7756		-97.656250
7757		-101.562500
7758		-99.609375
7759		-101.562500
7760		-99.609375
7761		-103.515625
7762		-97.656250
7763		-103.515625
7764		-97.656250
7765		-101.562500
7766		-99.609375
7767		-101.562500
7768		-95.703125
7769		-101.562500
7770		-93.750000
7771		-99.609375
7772		-91.796875
7773		-95.703125
7774		-91.796875
7775		-93.750000
7776		-91.796875
7777		-93.750000
7778		-87.890625
7779		-91.796875
7780		-83.984375
7781		-87.890625
7782		-83.984375
7783		-83.984375
7784		-80.078125
7785		-83.984375
7786		-78.125000
7787		-80.078125
7788		-72.265625
7789		-78.125000
7790		-70.312500
7791		-72.265625
7792		-66.406250
7793		-68.359375
7794		-64.453125
7795		-66.406250
7796		-58.593750
7797		-60.546875
7798		-54.687500
7799		-56.640625
7800		-50.781250
7801		-52.734375
7802		-46.875000
7803		-48.828125
7804		-42.968750
7805		-42.968750
7806		-37.109375
7807		-39.062500
7808		-33.203125
7809		-35.156250
7810		-29.296875
7811		-29.296875
7812		-23.437500
7813		-25.390625
7814		-17.578125
7815		-21.484375
7816		-13.671875
7817		-15.625000
7818		-9.765625
7819		-13.671875
7820		-3.906250
7821		-5.859375
7822		0.000000
7823		0.000000
7824		5.859375
7825		3.906250
7826		11.718750
7827		9.765625
7828		15.625000
7829		13.671875
7830		21.484375
7831		19.531250
7832		25.390625
7833		23.437500
7834		31.250000
7835		29.296875
7836		35.156250
7837		33.203125
7838		39.062500
7839		39.062500
7840		44.921875
7841		42.968750
7842		48.828125
7843		46.875000
7844		52.734375
7845		52.734375
7846		58.593750
7847		56.640625
7848		62.500000
7849		60.546875
7850		66.406250
7851		64.453125
7852		70.312500
7853		68.359375
7854		74.218750
7855		72.265625
7856		78.125000
7857		76.171875
7858		80.078125
7859		80.078125
7860		83.984375
7861		82.031250
7862		87.890625
7863		85.937500
7864		91.796875
7865		89.843750
7866		95.703125
7867		91.796875
7868		97.656250
7869		93.750000
7870		99.609375
7871		97.656250
7872		101.562500
7873		99.609375
7874		103.515625
7875		103.515625
7876		105.468750
7877		105.468750
7878		109.375000
7879		105.468750
7880		111.328125
7881		107.421875
7882		113.281250
7883		109.375000
7884		115.234375
7885		111.328125
7886		115.234375
7887		111.328125
7888		117.187500
7889		113.281250
7890		117.187500
7891		115.234375
7892		117.187500
7893		115.234375
7894		119.140625
7895		115.234375
7896		121.093750
7897		115.234375
7898		121.093750
7899		115.234375
7900		121.093750
7901		115.234375
7902		121.093750
7903		115.234375
7904		121.093750
7905		115.234375
7906		121.093750
7907		115.234375
7908		119.140625
7909		115.234375
7910		117.187500
7911		113.281250
7912		117.187500
7913		111.328125
7914		117.187500
7915		111.328125
7916		115.234375
7917		107.421875
7918		115.234375
7919		107.421875
7920		113.281250
7921		105.468750
7922		111.328125
7923		103.515625
7924		109.375000
7925		101.562500
7926		105.468750
7927		99.609375
7928		103.515625
7929		95.703125
7930		101.562500
7931		93.750000
7932		99.609375
7933		89.843750
7934		97.656250
7935		87.890625
7936		93.750000
7937		85.937500
7938		89.843750
7939		82.031250
7940		87.890625
7941		78.125000
7942		83.984375
7943		74.218750
7944		80.078125
7945		70.312500
7946		76.171875
7947		66.406250
7948		72.265625
7949		62.500000
7950		68.359375
7951		58.593750
7952		66.406250
7953		54.687500
7954		60.546875
7955		48.828125
7956		56.640625
7957		44.921875
7958		50.781250
7959		41.015625
7960		46.875000
7961		35.156250
7962		42.968750
7963		31.250000
7964		37.109375
7965		25.390625
7966		33.203125
7967		19.531250
7968		27.343750
7969		15.625000
7970		23.437500
7971		9.765625
7972		17.578125
7973		5.859375
7974		13.671875
7975		1.953125
7976		7.812500
7977		-3.906250
7978		3.906250
7979		-7.812500
7980		-1.953125
7981		-13.671875
7982		-5.859375
7983		-21.484375
7984		-11.718750
7985		-23.437500
7986		-13.671875
7987		-29.296875
7988		-21.484375
7989		-33.203125
7990		-25.390625
7991		-37.109375
7992		-31.250000
7993		-41.015625
7994		-37.109375
7995		-46.875000
7996		-41.015625
7997		-50.781250
7998		-44.921875
7999		-54.687500
8000		-48.828125
8001		-58.593750
8002		-52.734375
8003		-62.500000
8004		-58.593750
8005		-68.359375
8006		-60.546875
8007		-70.312500
8008		-64.453125
8009		-74.218750
8010		-68.359375
8011		-78.125000
8012		-72.265625
8013		-80.078125
8014		-76.171875
8015		-83.984375
8016		-78.125000
8017		-87.890625
8018		-82.031250
8019		-89.843750
8020		-83.984375
8021		-91.796875
8022		-85.937500
8023		-93.750000
8024		-89.843750
8025		-95.703125
8026		-91.796875
8027		-97.656250
8028		-93.750000
8029		-97.656250
8030		-93.750000
8031		-99.609375
8032		-95.703125
8033		-99.609375
8034		-97.656250
8035		-101.562500
8036		-97.656250
8037		-101.562500
8038		-99.609375
8039		-101.562500
8040		-99.609375
8041		-103.515625
8042		-99.609375
8043		-101.562500
8044		-99.609375
8045		-101.562500
8046		-97.656250
8047		-101.562500
8048		-97.656250
8049		-99.609375
8050		-95.703125
8051		-99.609375
8052		-95.703125
8053		-97.656250
8054		-93.750000
8055		-95.703125
8056		-91.796875
8057		-95.703125
8058		-89.843750
8059		-91.796875
8060		-87.890625
8061		-89.843750
8062		-85.937500
8063		-87.890625
8064		-83.984375
8065		-85.937500
8066		-80.078125
8067		-82.031250
8068		-78.125000
8069		-82.031250
8070		-74.218750
8071		-76.171875
8072		-70.312500
8073		-74.218750
8074		-68.359375
8075		-68.359375
8076		-64.453125
8077		-64.453125
8078		-58.593750
8079		-60.546875
8080		-56.640625
8081		-58.593750
8082		-50.781250
8083		-52.734375
8084		-46.875000
8085		-48.828125
8086		-42.968750
8087		-44.921875
8088		-39.062500
8089		-39.062500
8090		-33.203125
8091		-35.156250
8092		-29.296875
8093		-31.250000
8094		-23.437500
8095		-25.390625
8096		-17.578125
8097		-21.484375
8098		-13.671875
8099		-15.625000
8100		-9.765625
8101		-11.718750
8102		-3.906250
8103		-5.859375
8104		0.000000
8105		-1.953125
8106		5.859375
8107		3.906250
8108		11.718750
8109		9.765625
8110		15.625000
8111		13.671875
8112		19.531250
8113		19.531250
8114		25.390625
8115		21.484375
8116		29.296875
8117		29.296875
8118		35.156250
8119		33.203125
8120		39.062500
8121		37.109375
8122		44.921875
8123		42.968750
8124		48.828125
8125		46.875000
8126		52.734375
8127		50.781250
8128		56.640625
8129		56.640625
8130		62.500000
8131		60.546875
8132		64.453125
8133		64.453125
8134		70.312500
8135		68.359375
8136		72.265625
8137		72.265625
8138		78.125000
8139		76.171875
8140		80.078125
8141		78.125000
8142		83.984375
8143		83.984375
8144		87.890625
8145		85.937500
8146		91.796875
8147		87.890625
8148		93.750000
8149		91.796875
8150		97.656250
8151		95.703125
8152		99.609375
8153		97.656250
8154		101.562500
8155		99.609375
8156		103.515625
8157		103.515625
8158		107.421875
8159		103.515625
8160		109.375000
8161		107.421875
8162		109.375000
8163		109.375000
8164		111.328125
8165		109.375000
8166		113.281250
8167		111.328125
8168		115.234375
8169		113.281250
8170		117.187500
8171		113.281250
8172		117.187500
8173		115.234375
8174		119.140625
8175		115.234375
8176		119.140625
8177		117.187500
8178		119.140625
8179		117.187500
8180		121.093750
8181		117.187500
8182		121.093750
8183		117.187500
8184		119.140625
8185		117.187500
8186		119.140625
8187		115.234375
8188		119.140625
8189		115.234375
8190		119.140625
8191		113.281250
8192		119.140625
8193		115.234375
8194		117.187500
8195		113.281250
8196		115.234375
8197		111.328125
8198		115.234375
8199		109.375000
8200		113.281250
8201		107.421875
8202		111.328125
8203		107.421875
8204		111.328125
8205		105.468750
8206		109.375000
8207		101.562500
8208		105.468750
8209		99.609375
8210		105.468750
8211		97.656250
8212		101.562500
8213		93.750000
8214		99.609375
8215		91.796875
8216		95.703125
8217		87.890625
8218		93.750000
8219		83.984375
8220		89.843750
8221		82.031250
8222		87.890625
8223		78.125000
8224		83.984375
8225		76.171875
8226		80.078125
8227		72.265625
8228		76.171875
8229		68.359375
8230		72.265625
8231		62.500000
8232		70.312500
8233		58.593750
8234		64.453125
8235		54.687500
8236		60.546875
8237		50.781250
8238		56.640625
8239		44.921875
8240		52.734375
8241		41.015625
8242		46.875000
8243		37.109375
8244		42.968750
8245		31.250000
8246		39.062500
8247		27.343750
8248		33.203125
8249		21.484375
8250		29.296875
8251		17.578125
8252		23.437500
8253		11.718750
8254		19.531250
8255		7.812500
8256		13.671875
8257		1.953125
8258		9.765625
8259		-1.953125
8260		3.906250
8261		-7.812500
8262		-1.953125
8263		-13.671875
8264		-5.859375
8265		-17.578125
8266		-11.718750
8267		-21.484375
8268		-15.625000
8269		-27.343750
8270		-19.531250
8271		-33.203125
8272		-25.390625
8273		-37.109375
8274		-31.250000
8275		-41.015625
8276		-35.156250
8277		-46.875000
8278		-39.062500
8279		-50.781250
8280		-44.921875
8281		-54.687500
8282		-48.828125
8283		-58.593750
8284		-52.734375
8285		-62.500000
8286		-56.640625
8287		-66.406250
8288		-60.546875
8289		-70.312500
8290		-64.453125
8291		-74.218750
8292		-68.359375
8293		-76.171875
8294		-72.265625
8295		-80.078125
8296		-76.171875
8297		-83.984375
8298		-78.125000
8299		-85.937500
8300		-80.078125
8301		-89.843750
8302		-83.984375
8303		-89.843750
8304		-85.937500
8305		-93.750000
8306		-89.843750
8307		-95.703125
8308		-91.796875
8309		-97.656250
8310		-93.750000
8311		-97.656250
8312		-95.703125
8313		-99.609375
8314		-95.703125
8315		-99.609375
8316		-95.703125
8317		-101.562500
8318		-97.656250
8319		-101.562500
8320		-99.609375
8321		-101.562500
8322		-99.609375
8323		-103.515625
8324		-99.609375
8325		-101.562500
8326		-99.609375
8327		-103.515625
8328		-99.609375
8329		-101.562500
8330		-97.656250
8331		-99.609375
8332		-97.656250
8333		-99.609375
8334		-95.703125
8335		-97.656250
8336		-93.750000
8337		-97.656250
8338		-91.796875
8339		-93.750000
8340		-91.796875
8341		-93.750000
8342		-87.890625
8343		-89.843750
8344		-85.937500
8345		-87.890625
8346		-83.984375
8347		-85.937500
8348		-80.078125
8349		-83.984375
8350		-78.125000
8351		-80.078125
8352		-74.218750
8353		-76.171875
8354		-72.265625
8355		-72.265625
8356		-68.359375
8357		-70.312500
8358		-64.453125
8359		-66.406250
8360		-58.593750
8361		-62.500000
8362		-56.640625
8363		-58.593750
8364		-52.734375
8365		-52.734375
8366		-46.875000
8367		-48.828125
8368		-42.968750
8369		-44.921875
8370		-37.109375
8371		-41.015625
8372		-33.203125
8373		-35.156250
8374		-29.296875
8375		-31.250000
8376		-25.390625
8377		-27.343750
8378		-19.531250
8379		-21.484375
8380		-15.625000
8381		-15.625000
8382		-9.765625
8383		-11.718750
8384		-5.859375
8385		-5.859375
8386		0.000000
8387		-1.953125
8388		3.906250
8389		3.906250
8390		9.765625
8391		7.812500
8392		15.625000
8393		13.671875
8394		19.531250
8395		17.578125
8396		25.390625
8397		23.437500
8398		29.296875
8399		27.343750
8400		35.156250
8401		33.203125
8402		39.062500
8403		37.109375
8404		42.968750
8405		42.968750
8406		48.828125
8407		44.921875
8408		52.734375
8409		50.781250
8410		56.640625
8411		54.687500
8412		60.546875
8413		60.546875
8414		64.453125
8415		62.500000
8416		70.312500
8417		68.359375
8418		72.265625
8419		70.312500
8420		76.171875
8421		76.171875
8422		80.078125
8423		80.078125
8424		83.984375
8425		82.031250
8426		87.890625
8427		85.937500
8428		89.843750
8429		89.843750
8430		93.750000
8431		91.796875
8432		95.703125
8433		93.750000
8434		99.609375
8435		97.656250
8436		101.562500
8437		99.609375
8438		103.515625
8439		101.562500
8440		107.421875
8441		103.515625
8442		109.375000
8443		107.421875
8444		111.328125
8445		109.375000
8446		111.328125
8447		109.375000
8448		113.281250
8449		111.328125
8450		115.234375
8451		113.281250
8452		117.187500
8453		113.281250
8454		117.187500
8455		115.234375
8456		117.187500
8457		115.234375
8458		119.140625
8459		117.187500
8460		119.140625
8461		115.234375
8462		121.093750
8463		117.187500
8464		119.140625
8465		117.187500
8466		121.093750
8467		117.187500
8468		119.140625
8469		117.187500
8470		119.140625
8471		115.234375
8472		119.140625
8473		115.234375
8474		119.140625
8475		113.281250
8476		117.187500
8477		111.328125
8478		117.187500
8479		111.328125
8480		115.234375
8481		111.328125
8482		113.281250
8483		109.375000
8484		113.281250
8485		107.421875
8486		111.328125
8487		105.468750
8488		109.375000
8489		103.515625
8490		107.421875
8491		99.609375
8492		105.468750
8493		97.656250
8494		101.562500
8495		95.703125
8496		99.609375
8497		91.796875
8498		97.656250
8499		87.890625
8500		93.750000
8501		85.937500
8502		91.796875
8503		82.031250
8504		87.890625
8505		80.078125
8506		83.984375
8507		76.171875
8508		82.031250
8509		72.265625
8510		78.125000
8511		68.359375
8512		74.218750
8513		64.453125
8514		70.312500
8515		60.546875
8516		64.453125
8517		54.687500
8518		62.500000
8519		50.781250
8520		56.640625
8521		46.875000
8522		52.734375
8523		42.968750
8524		48.828125
8525		37.109375
8526		42.968750
8527		31.250000
8528		39.062500
8529		27.343750
8530		35.156250
8531		21.484375
8532		29.296875
8533		17.578125
8534		23.437500
8535		11.718750
8536		19.531250
8537		7.812500
8538		15.625000
8539		1.953125
8540		9.765625
8541		-1.953125
8542		3.906250
8543		-7.812500
8544		0.000000
8545		-11.718750
8546		-5.859375
8547		-15.625000
8548		-9.765625
8549		-21.484375
8550		-15.625000
8551		-27.343750
8552		-19.531250
8553		-31.250000
8554		-25.390625
8555		-35.156250
8556		-29.296875
8557		-41.015625
8558		-35.156250
8559		-44.921875
8560		-39.062500
8561		-48.828125
8562		-42.968750
8563		-52.734375
8564		-48.828125
8565		-58.593750
8566		-52.734375
8567		-62.500000
8568		-56.640625
8569		-66.406250
8570		-60.546875
8571		-70.312500
8572		-64.453125
8573		-72.265625
8574		-68.359375
8575		-76.171875
8576		-70.312500
8577		-80.078125
8578		-74.218750
8579		-82.031250
8580		-78.125000
8581		-85.937500
8582		-80.078125
8583		-87.890625
8584		-83.984375
8585		-89.843750
8586		-85.937500
8587		-93.750000
8588		-87.890625
8589		-93.750000
8590		-89.843750
8591		-95.703125
8592		-91.796875
8593		-97.656250
8594		-93.750000
8595		-99.609375
8596		-95.703125
8597		-99.609375
8598		-97.656250
8599		-101.562500
8600		-97.656250
8601		-101.562500
8602		-97.656250
8603		-101.562500
8604		-97.656250
8605		-101.562500
8606		-99.609375
8607		-101.562500
8608		-99.609375
8609		-101.562500
8610		-99.609375
8611		-101.562500
8612		-97.656250
8613		-101.562500
8614		-97.656250
8615		-99.609375
8616		-95.703125
8617		-97.656250
8618		-93.750000
8619		-95.703125
8620		-91.796875
8621		-93.750000
8622		-91.796875
8623		-93.750000
8624		-87.890625
8625		-91.796875
8626		-85.937500
8627		-87.890625
8628		-83.984375
8629		-85.937500
8630		-82.031250
8631		-82.031250
8632		-78.125000
8633		-80.078125
8634		-74.218750
8635		-78.125000
8636		-72.265625
8637		-74.218750
8638		-68.359375
8639		-70.312500
8640		-64.453125
8641		-66.406250
8642		-60.546875
8643		-62.500000
8644		-56.640625
8645		-58.593750
8646		-52.734375
8647		-54.687500
8648		-48.828125
8649		-48.828125
8650		-42.968750
8651		-44.921875
8652		-39.062500
8653		-41.015625
8654		-35.156250
8655		-37.109375
8656		-29.296875
8657		-31.250000
8658		-25.390625
8659		-27.343750
8660		-19.531250
8661		-21.484375
8662		-15.625000
8663		-17.578125
8664		-9.765625
8665		-11.718750
8666		-5.859375
8667		-7.812500
8668		0.000000
8669		-1.953125
8670		3.906250
8671		3.906250
8672		9.765625
8673		7.812500
8674		13.671875
8675		11.718750
8676		19.531250
8677		17.578125
8678		23.437500
8679		21.484375
8680		29.296875
8681		27.343750
8682		33.203125
8683		33.203125
8684		39.062500
8685		35.156250
8686		42.968750
8687		41.015625
8688		48.828125
8689		46.875000
8690		52.734375
8691		50.781250
8692		56.640625
8693		54.687500
8694		60.546875
8695		58.593750
8696		64.453125
8697		62.500000
8698		68.359375
8699		68.359375
8700		72.265625
8701		72.265625
8702		76.171875
8703		74.218750
8704		80.078125
8705		78.125000
8706		83.984375
8707		82.031250
8708		87.890625
8709		85.937500
8710		89.843750
8711		89.843750
8712		93.750000
8713		91.796875
8714		95.703125
8715		93.750000
8716		99.609375
8717		97.656250
8718		101.562500
8719		99.609375
8720		103.515625
8721		101.562500
8722		107.421875
8723		103.515625
8724		109.375000
8725		105.468750
8726		109.375000
8727		107.421875
8728		113.281250
8729		109.375000
8730		113.281250
8731		111.328125
8732		115.234375
8733		113.281250
8734		115.234375
8735		113.281250
8736		117.187500
8737		115.234375
8738		117.187500
8739		115.234375
8740		119.140625
8741		117.187500
8742		119.140625
8743		117.187500
8744		119.140625
8745		117.187500
8746		121.093750
8747		117.187500
8748		121.093750
8749		117.187500
8750		119.140625
8751		115.234375
8752		119.140625
8753		115.234375
8754		119.140625
8755		115.234375
8756		119.140625
8757		115.234375
8758		117.187500
8759		113.281250
8760		117.187500
8761		111.328125
8762		115.234375
8763		111.328125
8764		115.234375
8765		109.375000
8766		113.281250
8767		107.421875
8768		111.328125
8769		105.468750
8770		109.375000
8771		103.515625
8772		107.421875
8773		101.562500
8774		105.468750
8775		97.656250
8776		103.515625
8777		95.703125
8778		99.609375
8779		91.796875
8780		97.656250
8781		89.843750
8782		95.703125
8783		85.937500
8784		91.796875
8785		83.984375
8786		87.890625
8787		80.078125
8788		85.937500
8789		76.171875
8790		82.031250
8791		72.265625
8792		78.125000
8793		68.359375
8794		74.218750
8795		64.453125
8796		70.312500
8797		60.546875
8798		66.406250
8799		56.640625
8800		62.500000
8801		52.734375
8802		58.593750
8803		46.875000
8804		52.734375
8805		42.968750
8806		48.828125
8807		39.062500
8808		44.921875
8809		33.203125
8810		39.062500
8811		27.343750
8812		35.156250
8813		23.437500
8814		29.296875
8815		19.531250
8816		25.390625
8817		13.671875
8818		19.531250
8819		7.812500
8820		15.625000
8821		3.906250
8822		9.765625
8823		-1.953125
8824		5.859375
8825		-5.859375
8826		1.953125
8827		-11.718750
8828		-3.906250
8829		-15.625000
8830		-9.765625
8831		-21.484375
8832		-13.671875
8833		-25.390625
8834		-19.531250
8835		-31.250000
8836		-23.437500
8837		-35.156250
8838		-27.343750
8839		-39.062500
8840		-33.203125
8841		-42.968750
8842		-39.062500
8843		-48.828125
8844		-42.968750
8845		-52.734375
8846		-46.875000
8847		-56.640625
8848		-50.781250
8849		-60.546875
8850		-54.687500
8851		-64.453125
8852		-60.546875
8853		-68.359375
8854		-62.500000
8855		-72.265625
8856		-66.406250
8857		-76.171875
8858		-70.312500
8859		-78.125000
8860		-74.218750
8861		-82.031250
8862		-78.125000
8863		-85.937500
8864		-80.078125
8865		-87.890625
8866		-82.031250
8867		-89.843750
8868		-85.937500
8869		-91.796875
8870		-87.890625
8871		-93.750000
8872		-89.843750
8873		-95.703125
8874		-91.796875
8875		-97.656250
8876		-93.750000
8877		-99.609375
8878		-95.703125
8879		-99.609375
8880		-95.703125
8881		-101.562500
8882		-97.656250
8883		-101.562500
8884		-97.656250
8885		-101.562500
8886		-97.656250
8887		-101.562500
8888		-99.609375
8889		-101.562500
8890		-99.609375
8891		-101.562500
8892		-97.656250
8893		-101.562500
8894		-97.656250
8895		-99.609375
8896		-95.703125
8897		-99.609375
8898		-93.750000
8899		-97.656250
8900		-93.750000
8901		-95.703125
8902		-91.796875
8903		-95.703125
8904		-91.796875
8905		-93.750000
8906		-87.890625
8907		-89.843750
8908		-85.937500
8909		-87.890625
8910		-83.984375
8911		-85.937500
8912		-80.078125
8913		-82.031250
8914		-78.125000
8915		-80.078125
8916		-76.171875
8917		-76.171875
8918		-72.265625
8919		-72.265625
8920		-68.359375
8921		-70.312500
8922		-64.453125
8923		-66.406250
8924		-60.546875
8925		-62.500000
8926		-56.640625
8927		-58.593750
8928		-50.781250
8929		-54.687500
8930		-48.828125
8931		-48.828125
8932		-44.921875
8933		-44.921875
8934		-39.062500
8935		-41.015625
8936		-35.156250
8937		-35.156250
8938		-29.296875
8939		-31.250000
8940		-23.437500
8941		-27.343750
8942		-19.531250
8943		-21.484375
8944		-15.625000
8945		-17.578125
8946		-11.718750
8947		-13.671875
8948		-5.859375
8949		-7.812500
8950		-1.953125
8951		-1.953125
8952		3.906250
8953		1.953125
8954		9.765625
8955		7.812500
8956		13.671875
8957		11.718750
8958		19.531250
8959		17.578125
8960		23.437500
8961		23.437500
8962		29.296875
8963		27.343750
8964		33.203125
8965		31.250000
8966		39.062500
8967		37.109375
8968		42.968750
8969		41.015625
8970		46.875000
8971		44.921875
8972		52.734375
8973		50.781250
8974		56.640625
8975		54.687500
8976		60.546875
8977		58.593750
8978		64.453125
8979		62.500000
8980		68.359375
8981		66.406250
8982		74.218750
8983		72.265625
8984		76.171875
8985		74.218750
8986		80.078125
8987		78.125000
8988		83.984375
8989		82.031250
8990		87.890625
8991		85.937500
8992		89.843750
8993		87.890625
8994		93.750000
8995		91.796875
8996		95.703125
8997		93.750000
8998		99.609375
8999		97.656250
9000		101.562500
9001		99.609375
9002		103.515625
9003		101.562500
9004		105.468750
9005		103.515625
9006		109.375000
9007		107.421875
9008		111.328125
9009		107.421875
9010		111.328125
9011		109.375000
9012		113.281250
9013		111.328125
9014		115.234375
9015		113.281250
9016		117.187500
9017		115.234375
9018		117.187500
9019		115.234375
9020		117.187500
9021		115.234375
9022		119.140625
9023		117.187500
9024		119.140625
9025		117.187500
9026		121.093750
9027		117.187500
9028		121.093750
9029		117.187500
9030		121.093750
9031		117.187500
9032		121.093750
9033		117.187500
9034		121.093750
9035		117.187500
9036		119.140625
9037		115.234375
9038		119.140625
9039		115.234375
9040		119.140625
9041		113.281250
9042		117.187500
9043		113.281250
9044		117.187500
9045		111.328125
9046		115.234375
9047		109.375000
9048		113.281250
9049		107.421875
9050		111.328125
9051		105.468750
9052		109.375000
9053		103.515625
9054		107.421875
9055		101.562500
9056		107.421875
9057		99.609375
9058		103.515625
9059		95.703125
9060		101.562500
9061		93.750000
9062		97.656250
9063		89.843750
9064		95.703125
9065		85.937500
9066		91.796875
9067		83.984375
9068		89.843750
9069		82.031250
9070		85.937500
9071		78.125000
9072		82.031250
9073		74.218750
9074		80.078125
9075		70.312500
9076		76.171875
9077		66.406250
9078		72.265625
9079		60.546875
9080		66.406250
9081		56.640625
9082		62.500000
9083		52.734375
9084		58.593750
9085		48.828125
9086		54.687500
9087		44.921875
9088		50.781250
9089		39.062500
9090		44.921875
9091		35.156250
9092		41.015625
9093		29.296875
9094		37.109375
9095		25.390625
9096		31.250000
9097		19.531250
9098		27.343750
9099		15.625000
9100		21.484375
9101		9.765625
9102		15.625000
9103		5.859375
9104		11.718750
9105		0.000000
9106		5.859375
9107		-3.906250
9108		1.953125
9109		-9.765625
9110		-1.953125
9111		-15.625000
9112		-7.812500
9113		-19.531250
9114		-13.671875
9115		-25.390625
9116		-15.625000
9117		-29.296875
9118		-23.437500
9119		-35.156250
9120		-27.343750
9121		-39.062500
9122		-33.203125
9123		-42.968750
9124		-37.109375
9125		-46.875000
9126		-41.015625
9127		-50.781250
9128		-44.921875
9129		-56.640625
9130		-48.828125
9131		-60.546875
9132		-54.687500
9133		-64.453125
9134		-58.593750
9135		-68.359375
9136		-62.500000
9137		-72.265625
9138		-66.406250
9139		-76.171875
9140		-68.359375
9141		-80.078125
9142		-70.312500
9143		-80.078125
9144		-74.218750
9145		-85.937500
9146		-80.078125
9147		-87.890625
9148		-82.031250
9149		-89.843750
9150		-82.031250
9151		-91.796875
9152		-85.937500
9153		-93.750000
9154		-89.843750
9155		-95.703125
9156		-91.796875
9157		-97.656250
9158		-91.796875
9159		-99.609375
9160		-91.796875
9161		-99.609375
9162		-95.703125
9163		-101.562500
9164		-95.703125
9165		-101.562500
9166		-95.703125
9167		-103.515625
9168		-97.656250
9169		-101.562500
9170		-97.656250
9171		-101.562500
9172		-97.656250
9173		-103.515625
9174		-95.703125
9175		-101.562500
9176		-95.703125
9177		-101.562500
9178		-95.703125
9179		-101.562500
9180		-93.750000
9181		-99.609375
9182		-91.796875
9183		-97.656250
9184		-91.796875
9185		-93.750000
9186		-89.843750
9187		-91.796875
9188		-87.890625
9189		-91.796875
9190		-83.984375
9191		-89.843750
9192		-82.031250
9193		-87.890625
9194		-80.078125
9195		-83.984375
9196		-76.171875
9197		-80.078125
9198		-74.218750
9199		-78.125000
9200		-70.312500
9201		-74.218750
9202		-68.359375
9203		-70.312500
9204		-64.453125
9205		-66.406250
9206		-58.593750
9207		-64.453125
9208		-54.687500
9209		-60.546875
9210		-50.781250
9211		-54.687500
9212		-46.875000
9213		-50.781250
9214		-42.968750
9215		-46.875000
9216		-37.109375
9217		-42.968750
9218		-35.156250
9219		-35.156250
9220		-29.296875
9221		-31.250000
9222		-25.390625
9223		-27.343750
9224		-19.531250
9225		-23.437500
9226		-13.671875
9227		-19.531250
9228		-9.765625
9229		-13.671875
9230		-3.906250
9231		-9.765625
9232		0.000000
9233		-5.859375
9234		5.859375
9235		1.953125
9236		7.812500
9237		7.812500
9238		13.671875
9239		11.718750
9240		21.484375
9241		15.625000
9242		25.390625
9243		21.484375
9244		31.250000
9245		25.390625
9246		35.156250
9247		29.296875
9248		39.062500
9249		35.156250
9250		44.921875
9251		39.062500
9252		46.875000
9253		44.921875
9254		50.781250
9255		50.781250
9256		56.640625
9257		52.734375
9258		62.500000
9259		56.640625
9260		66.406250
9261		60.546875
9262		70.312500
9263		64.453125
9264		74.218750
9265		70.312500
9266		78.125000
9267		72.265625
9268		82.031250
9269		78.125000
9270		83.984375
9271		82.031250
9272		87.890625
9273		83.984375
9274		91.796875
9275		85.937500
9276		95.703125
9277		89.843750
9278		97.656250
9279		91.796875
9280		99.609375
9281		93.750000
9282		103.515625
9283		97.656250
9284		107.421875
9285		101.562500
9286		107.421875
9287		105.468750
9288		107.421875
9289		107.421875
9290		113.281250
9291		107.421875
9292		113.281250
9293		109.375000
9294		115.234375
9295		109.375000
9296		117.187500
9297		111.328125
9298		119.140625
9299		111.328125
9300		119.140625
9301		113.281250
9302		121.093750
9303		117.187500
9304		119.140625
9305		117.187500
9306		119.140625
9307		115.234375
9308		123.046875
9309		115.234375
9310		123.046875
9311		115.234375
9312		123.046875
9313		115.234375
9314		123.046875
9315		115.234375
9316		121.093750
9317		115.234375
9318		121.093750
9319		115.234375
9320		121.093750
9321		115.234375
9322		119.140625
9323		113.281250
9324		119.140625
9325		111.328125
9326		119.140625
9327		109.375000
9328		117.187500
9329		107.421875
9330		117.187500
9331		107.421875
9332		115.234375
9333		105.468750
9334		111.328125
9335		103.515625
9336		109.375000
9337		103.515625
9338		105.468750
9339		99.609375
9340		103.515625
9341		93.750000
9342		103.515625
9343		91.796875
9344		99.609375
9345		89.843750
9346		97.656250
9347		85.937500
9348		95.703125
9349		82.031250
9350		91.796875
9351		80.078125
9352		87.890625
9353		78.125000
9354		83.984375
9355		74.218750
9356		80.078125
9357		68.359375
9358		76.171875
9359		66.406250
9360		74.218750
9361		60.546875
9362		70.312500
9363		54.687500
9364		64.453125
9365		50.781250
9366		62.500000
9367		46.875000
9368		56.640625
9369		44.921875
9370		52.734375
9371		39.062500
9372		46.875000
9373		33.203125
9374		41.015625
9375		27.343750
9376		39.062500
9377		23.437500
9378		33.203125
9379		19.531250
9380		27.343750
9381		13.671875
9382		25.390625
9383		7.812500
9384		19.531250
9385		5.859375
9386		13.671875
9387		1.953125
9388		7.812500
9389		-3.906250
9390		1.953125
9391		-11.718750
9392		-1.953125
9393		-17.578125
9394		-5.859375
9395		-21.484375
9396		-9.765625
9397		-25.390625
9398		-15.625000
9399		-31.250000
9400		-19.531250
9401		-35.156250
9402		-25.390625
9403		-37.109375
9404		-29.296875
9405		-42.968750
9406		-35.156250
9407		-48.828125
9408		-41.015625
9409		-52.734375
9410		-42.968750
9411		-56.640625
9412		-48.828125
9413		-60.546875
9414		-52.734375
9415		-64.453125
9416		-56.640625
9417		-68.359375
9418		-60.546875
9419		-70.312500
9420		-62.500000
9421		-74.218750
9422		-68.359375
9423		-78.125000
9424		-72.265625
9425		-82.031250
9426		-74.218750
9427		-85.937500
9428		-76.171875
9429		-87.890625
9430		-80.078125
9431		-89.843750
9432		-82.031250
9433		-93.750000
9434		-83.984375
9435		-93.750000
9436		-87.890625
9437		-93.750000
9438		-91.796875
9439		-95.703125
9440		-93.750000
9441		-99.609375
9442		-93.750000
9443		-101.562500
9444		-93.750000
9445		-101.562500
9446		-95.703125
9447		-101.562500
9448		-95.703125
9449		-103.515625
9450		-95.703125
9451		-103.515625
9452		-95.703125
9453		-103.515625
9454		-95.703125
9455		-99.609375
9456		-97.656250
9457		-101.562500
9458		-95.703125
9459		-101.562500
9460		-93.750000
9461		-99.609375
9462		-93.750000
9463		-99.609375
9464		-91.796875
9465		-97.656250
9466		-89.843750
9467		-95.703125
9468		-87.890625
9469		-93.750000
9470		-87.890625
9471		-89.843750
9472		-85.937500
9473		-87.890625
9474		-83.984375
9475		-87.890625
9476		-80.078125
9477		-83.984375
9478		-76.171875
9479		-82.031250
9480		-72.265625
9481		-78.125000
9482		-70.312500
9483		-76.171875
9484		-66.406250
9485		-72.265625
9486		-64.453125
9487		-68.359375
9488		-60.546875
9489		-62.500000
9490		-56.640625
9491		-58.593750
9492		-50.781250
9493		-56.640625
9494		-46.875000
9495		-52.734375
9496		-42.968750
9497		-46.875000
9498		-37.109375
9499		-42.968750
9500		-33.203125
9501		-37.109375
9502		-29.296875
9503		-33.203125
9504		-25.390625
9505		-27.343750
9506		-21.484375
9507		-21.484375
9508		-15.625000
9509		-19.531250
9510		-9.765625
9511		-15.625000
9512		-3.906250
9513		-9.765625
9514		0.000000
9515		-3.906250
9516		5.859375
9517		0.000000
9518		9.765625
9519		5.859375
9520		15.625000
9521		11.718750
9522		17.578125
9523		17.578125
9524		23.437500
9525		21.484375
9526		29.296875
9527		25.390625
9528		35.156250
9529		29.296875
9530		39.062500
9531		35.156250
9532		44.921875
9533		39.062500
9534		48.828125
9535		42.968750
9536		52.734375
9537		46.875000
9538		56.640625
9539		54.687500
9540		60.546875
9541		58.593750
9542		66.406250
9543		62.500000
9544		70.312500
9545		66.406250
9546		72.265625
9547		70.312500
9548		78.125000
9549		72.265625
9550		82.031250
9551		76.171875
9552		83.984375
9553		80.078125
9554		85.937500
9555		85.937500
9556		89.843750
9557		87.890625
9558		93.750000
9559		89.843750
9560		97.656250
9561		91.796875
9562		99.609375
9563		95.703125
9564		103.515625
9565		97.656250
9566		105.468750
9567		99.609375
9568		107.421875
9569		101.562500
9570		109.375000
9571		103.515625
9572		111.328125
9573		107.421875
9574		111.328125
9575		109.375000
9576		115.234375
9577		109.375000
9578		117.187500
9579		111.328125
9580		119.140625
9581		111.328125
9582		119.140625
9583		113.281250
9584		121.093750
9585		115.234375
9586		121.093750
9587		115.234375
9588		121.093750
9589		117.187500
9590		121.093750
9591		117.187500
9592		121.093750
9593		115.234375
9594		123.046875
9595		115.234375
9596		123.046875
9597		115.234375
9598		123.046875
9599		115.234375
9600		121.093750
9601		115.234375
9602		121.093750
9603		113.281250
9604		121.093750
9605		115.234375
9606		117.187500
9607		113.281250
9608		117.187500
9609		109.375000
9610		117.187500
9611		107.421875
9612		115.234375
9613		107.421875
9614		113.281250
9615		105.468750
9616		113.281250
9617		101.562500
9618		111.328125
9619		101.562500
9620		109.375000
9621		99.609375
9622		105.468750
9623		97.656250
9624		101.562500
9625		91.796875
9626		99.609375
9627		89.843750
9628		97.656250
9629		85.937500
9630		95.703125
9631		83.984375
9632		91.796875
9633		80.078125
9634		89.843750
9635		76.171875
9636		85.937500
9637		74.218750
9638		82.031250
9639		70.312500
9640		76.171875
9641		66.406250
9642		72.265625
9643		60.546875
9644		70.312500
9645		56.640625
9646		66.406250
9647		52.734375
9648		62.500000
9649		46.875000
9650		58.593750
9651		42.968750
9652		52.734375
9653		39.062500
9654		48.828125
9655		35.156250
9656		42.968750
9657		31.250000
9658		37.109375
9659		25.390625
9660		33.203125
9661		19.531250
9662		29.296875
9663		13.671875
9664		25.390625
9665		9.765625
9666		19.531250
9667		3.906250
9668		13.671875
9669		0.000000
9670		9.765625
9671		-3.906250
9672		5.859375
9673		-7.812500
9674		-1.953125
9675		-13.671875
9676		-7.812500
9677		-19.531250
9678		-11.718750
9679		-25.390625
9680		-15.625000
9681		-29.296875
9682		-19.531250
9683		-35.156250
9684		-25.390625
9685		-39.062500
9686		-29.296875
9687		-42.968750
9688		-33.203125
9689		-46.875000
9690		-39.062500
9691		-50.781250
9692		-44.921875
9693		-56.640625
9694		-48.828125
9695		-60.546875
9696		-50.781250
9697		-64.453125
9698		-54.687500
9699		-68.359375
9700		-58.593750
9701		-72.265625
9702		-64.453125
9703		-76.171875
9704		-66.406250
9705		-78.125000
9706		-70.312500
9707		-80.078125
9708		-76.171875
9709		-83.984375
9710		-78.125000
9711		-87.890625
9712		-80.078125
9713		-89.843750
9714		-82.031250
9715		-91.796875
9716		-83.984375
9717		-93.750000
9718		-85.937500
9719		-95.703125
9720		-87.890625
9721		-97.656250
9722		-89.843750
9723		-97.656250
9724		-93.750000
9725		-97.656250
9726		-95.703125
9727		-101.562500
9728		-93.750000
9729		-101.562500
9730		-95.703125
9731		-101.562500
9732		-95.703125
9733		-103.515625
9734		-95.703125
9735		-103.515625
9736		-95.703125
9737		-103.515625
9738		-95.703125
9739		-101.562500
9740		-95.703125
9741		-99.609375
9742		-97.656250
9743		-99.609375
9744		-93.750000
9745		-99.609375
9746		-91.796875
9747		-99.609375
9748		-89.843750
9749		-95.703125
9750		-87.890625
9751		-93.750000
9752		-85.937500
9753		-91.796875
9754		-83.984375
9755		-89.843750
9756		-83.984375
9757		-85.937500
9758		-82.031250
9759		-83.984375
9760		-78.125000
9761		-82.031250
9762		-74.218750
9763		-78.125000
9764		-70.312500
9765		-76.171875
9766		-66.406250
9767		-72.265625
9768		-62.500000
9769		-68.359375
9770		-60.546875
9771		-66.406250
9772		-54.687500
9773		-60.546875
9774		-52.734375
9775		-54.687500
9776		-48.828125
9777		-50.781250
9778		-42.968750
9779		-48.828125
9780		-37.109375
9781		-42.968750
9782		-35.156250
9783		-39.062500
9784		-29.296875
9785		-35.156250
9786		-23.437500
9787		-29.296875
9788		-19.531250
9789		-23.437500
9790		-17.578125
9791		-17.578125
9792		-11.718750
9793		-13.671875
9794		-5.859375
9795		-9.765625
9796		0.000000
9797		-5.859375
9798		5.859375
9799		0.000000
9800		9.765625
9801		3.906250
9802		15.625000
9803		9.765625
9804		19.531250
9805		15.625000
9806		25.390625
9807		21.484375
9808		27.343750
9809		25.390625
9810		31.250000
9811		29.296875
9812		39.062500
9813		33.203125
9814		44.921875
9815		37.109375
9816		46.875000
9817		42.968750
9818		52.734375
9819		46.875000
9820		56.640625
9821		52.734375
9822		60.546875
9823		54.687500
9824		64.453125
9825		62.500000
9826		68.359375
9827		66.406250
9828		74.218750
9829		68.359375
9830		78.125000
9831		72.265625
9832		82.031250
9833		76.171875
9834		83.984375
9835		78.125000
9836		87.890625
9837		82.031250
9838		91.796875
9839		85.937500
9840		93.750000
9841		91.796875
9842		95.703125
9843		93.750000
9844		97.656250
9845		95.703125
9846		103.515625
9847		97.656250
9848		105.468750
9849		99.609375
9850		109.375000
9851		101.562500
9852		109.375000
9853		103.515625
9854		111.328125
9855		105.468750
9856		113.281250
9857		107.421875
9858		113.281250
9859		111.328125
9860		115.234375
9861		111.328125
9862		117.187500
9863		111.328125
9864		119.140625
9865		113.281250
9866		119.140625
9867		113.281250
9868		121.093750
9869		115.234375
9870		121.093750
9871		115.234375
9872		123.046875
9873		115.234375
9874		121.093750
9875		117.187500
9876		121.093750
9877		117.187500
9878		121.093750
9879		115.234375
9880		121.093750
9881		115.234375
9882		121.093750
9883		115.234375
9884		121.093750
9885		113.281250
9886		121.093750
9887		113.281250
9888		119.140625
9889		111.328125
9890		117.187500
9891		111.328125
9892		115.234375
9893		109.375000
9894		113.281250
9895		105.468750
9896		113.281250
9897		105.468750
9898		113.281250
9899		103.515625
9900		111.328125
9901		101.562500
9902		107.421875
9903		97.656250
9904		105.468750
9905		95.703125
9906		103.515625
9907		93.750000
9908		101.562500
9909		91.796875
9910		95.703125
9911		85.937500
9912		93.750000
9913		83.984375
9914		91.796875
9915		80.078125
9916		87.890625
9917		76.171875
9918		85.937500
9919		72.265625
9920		82.031250
9921		68.359375
9922		78.125000
9923		66.406250
9924		74.218750
9925		62.500000
9926		68.359375
9927		58.593750
9928		64.453125
9929		52.734375
9930		62.500000
9931		48.828125
9932		56.640625
9933		42.968750
9934		52.734375
9935		39.062500
9936		48.828125
9937		33.203125
9938		44.921875
9939		29.296875
9940		39.062500
9941		27.343750
9942		35.156250
9943		21.484375
9944		27.343750
9945		13.671875
9946		23.437500
9947		9.765625
9948		19.531250
9949		3.906250
9950		15.625000
9951		0.000000
9952		9.765625
9953		-5.859375
9954		5.859375
9955		-9.765625
9956		0.000000
9957		-13.671875
9958		-3.906250
9959		-17.578125
9960		-11.718750
9961		-23.437500
9962		-15.625000
9963		-29.296875
9964		-19.531250
9965		-33.203125
9966		-25.390625
9967		-39.062500
9968		-29.296875
9969		-42.968750
9970		-33.203125
9971		-48.828125
9972		-39.062500
9973		-52.734375
9974		-42.968750
9975		-54.687500
9976		-48.828125
9977		-58.593750
9978		-52.734375
9979		-64.453125
9980		-56.640625
9981		-70.312500
9982		-60.546875
9983		-72.265625
9984		-62.500000
9985		-76.171875
9986		-66.406250
9987		-78.125000
9988		-70.312500
9989		-82.031250
9990		-74.218750
9991		-83.984375
9992		-76.171875
9993		-85.937500
9994		-82.031250
9995		-89.843750
9996		-83.984375
9997		-93.750000
9998		-83.984375
9999		-93.750000
10000		-85.937500
