Channel              :		CH1
Frequency            :		1.975kHz
Period               :		0.506ms
PK-PK                :		189.5mV
Probe attenuation    :		1X
Voltage per ADC value:		0.122070mV
Time interval        :		2.00000us

index		CH1_Voltage(mV)
1		91.796875
2		91.796875
3		97.656250
4		89.843750
5		97.656250
6		89.843750
7		95.703125
8		89.843750
9		95.703125
10		87.890625
11		95.703125
12		85.937500
13		93.750000
14		85.937500
15		91.796875
16		85.937500
17		89.843750
18		83.984375
19		85.937500
20		78.125000
21		87.890625
22		76.171875
23		83.984375
24		74.218750
25		82.031250
26		70.312500
27		80.078125
28		68.359375
29		78.125000
30		66.406250
31		76.171875
32		64.453125
33		70.312500
34		62.500000
35		66.406250
36		56.640625
37		62.500000
38		52.734375
39		60.546875
40		48.828125
41		58.593750
42		44.921875
43		54.687500
44		41.015625
45		50.781250
46		37.109375
47		46.875000
48		35.156250
49		42.968750
50		31.250000
51		37.109375
52		23.437500
53		33.203125
54		19.531250
55		29.296875
56		15.625000
57		25.390625
58		11.718750
59		21.484375
60		7.812500
61		17.578125
62		1.953125
63		11.718750
64		-1.953125
65		7.812500
66		-3.906250
67		1.953125
68		-9.765625
69		-3.906250
70		-15.625000
71		-7.812500
72		-19.531250
73		-9.765625
74		-23.437500
75		-13.671875
76		-29.296875
77		-17.578125
78		-33.203125
79		-23.437500
80		-37.109375
81		-27.343750
82		-39.062500
83		-31.250000
84		-42.968750
85		-37.109375
86		-48.828125
87		-41.015625
88		-52.734375
89		-42.968750
90		-56.640625
91		-46.875000
92		-58.593750
93		-50.781250
94		-62.500000
95		-52.734375
96		-66.406250
97		-58.593750
98		-66.406250
99		-60.546875
100		-70.312500
101		-64.453125
102		-72.265625
103		-68.359375
104		-76.171875
105		-68.359375
106		-78.125000
107		-70.312500
108		-80.078125
109		-72.265625
110		-82.031250
111		-74.218750
112		-83.984375
113		-76.171875
114		-83.984375
115		-76.171875
116		-83.984375
117		-78.125000
118		-83.984375
119		-80.078125
120		-85.937500
121		-80.078125
122		-85.937500
123		-80.078125
124		-87.890625
125		-80.078125
126		-85.937500
127		-80.078125
128		-85.937500
129		-80.078125
130		-85.937500
131		-78.125000
132		-85.937500
133		-78.125000
134		-82.031250
135		-78.125000
136		-82.031250
137		-74.218750
138		-82.031250
139		-74.218750
140		-80.078125
141		-72.265625
142		-78.125000
143		-70.312500
144		-76.171875
145		-66.406250
146		-74.218750
147		-64.453125
148		-70.312500
149		-62.500000
150		-66.406250
151		-60.546875
152		-62.500000
153		-58.593750
154		-60.546875
155		-52.734375
156		-58.593750
157		-48.828125
158		-54.687500
159		-46.875000
160		-52.734375
161		-42.968750
162		-48.828125
163		-39.062500
164		-44.921875
165		-33.203125
166		-39.062500
167		-31.250000
168		-33.203125
169		-27.343750
170		-29.296875
171		-21.484375
172		-27.343750
173		-17.578125
174		-21.484375
175		-13.671875
176		-17.578125
177		-9.765625
178		-13.671875
179		-3.906250
180		-7.812500
181		0.000000
182		-3.906250
183		1.953125
184		1.953125
185		7.812500
186		5.859375
187		11.718750
188		7.812500
189		17.578125
190		13.671875
191		23.437500
192		17.578125
193		27.343750
194		21.484375
195		31.250000
196		25.390625
197		35.156250
198		29.296875
199		39.062500
200		33.203125
201		41.015625
202		41.015625
203		44.921875
204		44.921875
205		50.781250
206		44.921875
207		54.687500
208		50.781250
209		58.593750
210		54.687500
211		62.500000
212		56.640625
213		66.406250
214		60.546875
215		70.312500
216		62.500000
217		70.312500
218		68.359375
219		72.265625
220		72.265625
221		76.171875
222		72.265625
223		80.078125
224		74.218750
225		82.031250
226		76.171875
227		83.984375
228		78.125000
229		87.890625
230		82.031250
231		89.843750
232		83.984375
233		91.796875
234		87.890625
235		89.843750
236		89.843750
237		91.796875
238		87.890625
239		95.703125
240		89.843750
241		95.703125
242		89.843750
243		97.656250
244		91.796875
245		97.656250
246		91.796875
247		97.656250
248		91.796875
249		99.609375
250		91.796875
251		99.609375
252		93.750000
253		95.703125
254		91.796875
255		97.656250
256		91.796875
257		99.609375
258		91.796875
259		97.656250
260		89.843750
261		97.656250
262		87.890625
263		95.703125
264		87.890625
265		95.703125
266		85.937500
267		93.750000
268		85.937500
269		89.843750
270		85.937500
271		87.890625
272		82.031250
273		87.890625
274		78.125000
275		87.890625
276		76.171875
277		83.984375
278		74.218750
279		83.984375
280		72.265625
281		80.078125
282		68.359375
283		78.125000
284		68.359375
285		74.218750
286		64.453125
287		70.312500
288		60.546875
289		66.406250
290		56.640625
291		64.453125
292		52.734375
293		60.546875
294		48.828125
295		58.593750
296		44.921875
297		54.687500
298		41.015625
299		50.781250
300		39.062500
301		46.875000
302		35.156250
303		41.015625
304		29.296875
305		37.109375
306		23.437500
307		33.203125
308		19.531250
309		29.296875
310		15.625000
311		25.390625
312		9.765625
313		21.484375
314		5.859375
315		15.625000
316		1.953125
317		11.718750
318		0.000000
319		5.859375
320		-5.859375
321		0.000000
322		-11.718750
323		-3.906250
324		-15.625000
325		-5.859375
326		-19.531250
327		-11.718750
328		-25.390625
329		-15.625000
330		-29.296875
331		-19.531250
332		-33.203125
333		-23.437500
334		-35.156250
335		-27.343750
336		-39.062500
337		-33.203125
338		-44.921875
339		-37.109375
340		-48.828125
341		-39.062500
342		-52.734375
343		-42.968750
344		-56.640625
345		-46.875000
346		-58.593750
347		-50.781250
348		-62.500000
349		-52.734375
350		-66.406250
351		-56.640625
352		-66.406250
353		-62.500000
354		-68.359375
355		-64.453125
356		-74.218750
357		-66.406250
358		-76.171875
359		-68.359375
360		-78.125000
361		-70.312500
362		-80.078125
363		-70.312500
364		-82.031250
365		-74.218750
366		-83.984375
367		-76.171875
368		-82.031250
369		-78.125000
370		-82.031250
371		-80.078125
372		-85.937500
373		-78.125000
374		-85.937500
375		-78.125000
376		-85.937500
377		-80.078125
378		-85.937500
379		-80.078125
380		-85.937500
381		-80.078125
382		-85.937500
383		-78.125000
384		-85.937500
385		-78.125000
386		-82.031250
387		-80.078125
388		-80.078125
389		-78.125000
390		-82.031250
391		-74.218750
392		-80.078125
393		-72.265625
394		-78.125000
395		-70.312500
396		-76.171875
397		-68.359375
398		-74.218750
399		-66.406250
400		-72.265625
401		-62.500000
402		-66.406250
403		-62.500000
404		-64.453125
405		-60.546875
406		-62.500000
407		-54.687500
408		-60.546875
409		-50.781250
410		-56.640625
411		-48.828125
412		-52.734375
413		-42.968750
414		-50.781250
415		-41.015625
416		-44.921875
417		-37.109375
418		-41.015625
419		-35.156250
420		-35.156250
421		-29.296875
422		-31.250000
423		-23.437500
424		-29.296875
425		-19.531250
426		-25.390625
427		-15.625000
428		-21.484375
429		-11.718750
430		-15.625000
431		-5.859375
432		-11.718750
433		-1.953125
434		-7.812500
435		1.953125
436		-1.953125
437		3.906250
438		3.906250
439		9.765625
440		5.859375
441		15.625000
442		9.765625
443		19.531250
444		15.625000
445		25.390625
446		19.531250
447		29.296875
448		23.437500
449		33.203125
450		29.296875
451		37.109375
452		33.203125
453		41.015625
454		39.062500
455		42.968750
456		42.968750
457		48.828125
458		44.921875
459		54.687500
460		48.828125
461		56.640625
462		50.781250
463		60.546875
464		56.640625
465		64.453125
466		58.593750
467		68.359375
468		62.500000
469		68.359375
470		66.406250
471		72.265625
472		70.312500
473		74.218750
474		70.312500
475		78.125000
476		74.218750
477		82.031250
478		76.171875
479		83.984375
480		78.125000
481		85.937500
482		80.078125
483		89.843750
484		82.031250
485		91.796875
486		85.937500
487		89.843750
488		87.890625
489		91.796875
490		87.890625
491		95.703125
492		87.890625
493		95.703125
494		89.843750
495		97.656250
496		91.796875
497		97.656250
498		91.796875
499		99.609375
500		91.796875
501		99.609375
502		91.796875
503		99.609375
504		95.703125
505		97.656250
506		93.750000
507		99.609375
508		93.750000
509		99.609375
510		91.796875
511		99.609375
512		91.796875
513		97.656250
514		89.843750
515		97.656250
516		89.843750
517		95.703125
518		87.890625
519		95.703125
520		87.890625
521		91.796875
522		85.937500
523		91.796875
524		83.984375
525		89.843750
526		82.031250
527		89.843750
528		80.078125
529		87.890625
530		76.171875
531		83.984375
532		74.218750
533		82.031250
534		72.265625
535		80.078125
536		70.312500
537		76.171875
538		68.359375
539		72.265625
540		62.500000
541		68.359375
542		58.593750
543		66.406250
544		54.687500
545		64.453125
546		50.781250
547		60.546875
548		46.875000
549		56.640625
550		44.921875
551		52.734375
552		41.015625
553		48.828125
554		39.062500
555		44.921875
556		33.203125
557		39.062500
558		29.296875
559		37.109375
560		23.437500
561		33.203125
562		19.531250
563		29.296875
564		15.625000
565		25.390625
566		11.718750
567		19.531250
568		5.859375
569		15.625000
570		3.906250
571		9.765625
572		-1.953125
573		5.859375
574		-7.812500
575		0.000000
576		-11.718750
577		-1.953125
578		-17.578125
579		-5.859375
580		-21.484375
581		-11.718750
582		-25.390625
583		-15.625000
584		-29.296875
585		-19.531250
586		-31.250000
587		-23.437500
588		-35.156250
589		-29.296875
590		-41.015625
591		-33.203125
592		-44.921875
593		-37.109375
594		-48.828125
595		-41.015625
596		-52.734375
597		-42.968750
598		-56.640625
599		-46.875000
600		-58.593750
601		-50.781250
602		-62.500000
603		-54.687500
604		-64.453125
605		-58.593750
606		-66.406250
607		-62.500000
608		-72.265625
609		-62.500000
610		-74.218750
611		-66.406250
612		-76.171875
613		-68.359375
614		-80.078125
615		-70.312500
616		-80.078125
617		-72.265625
618		-80.078125
619		-74.218750
620		-82.031250
621		-76.171875
622		-82.031250
623		-78.125000
624		-83.984375
625		-78.125000
626		-85.937500
627		-78.125000
628		-85.937500
629		-78.125000
630		-85.937500
631		-78.125000
632		-85.937500
633		-78.125000
634		-85.937500
635		-78.125000
636		-83.984375
637		-78.125000
638		-82.031250
639		-80.078125
640		-80.078125
641		-78.125000
642		-82.031250
643		-74.218750
644		-80.078125
645		-74.218750
646		-80.078125
647		-72.265625
648		-78.125000
649		-70.312500
650		-76.171875
651		-66.406250
652		-72.265625
653		-64.453125
654		-68.359375
655		-64.453125
656		-66.406250
657		-60.546875
658		-62.500000
659		-56.640625
660		-62.500000
661		-52.734375
662		-58.593750
663		-48.828125
664		-56.640625
665		-46.875000
666		-52.734375
667		-42.968750
668		-48.828125
669		-39.062500
670		-44.921875
671		-37.109375
672		-39.062500
673		-33.203125
674		-33.203125
675		-27.343750
676		-33.203125
677		-23.437500
678		-27.343750
679		-17.578125
680		-23.437500
681		-13.671875
682		-19.531250
683		-9.765625
684		-15.625000
685		-3.906250
686		-9.765625
687		-1.953125
688		-3.906250
689		1.953125
690		0.000000
691		5.859375
692		3.906250
693		13.671875
694		7.812500
695		17.578125
696		11.718750
697		21.484375
698		15.625000
699		25.390625
700		21.484375
701		31.250000
702		25.390625
703		35.156250
704		29.296875
705		37.109375
706		35.156250
707		41.015625
708		39.062500
709		46.875000
710		41.015625
711		50.781250
712		44.921875
713		54.687500
714		48.828125
715		58.593750
716		52.734375
717		62.500000
718		56.640625
719		66.406250
720		60.546875
721		68.359375
722		64.453125
723		70.312500
724		68.359375
725		72.265625
726		70.312500
727		78.125000
728		72.265625
729		80.078125
730		74.218750
731		82.031250
732		76.171875
733		85.937500
734		80.078125
735		87.890625
736		82.031250
737		89.843750
738		83.984375
739		89.843750
740		87.890625
741		89.843750
742		87.890625
743		93.750000
744		87.890625
745		95.703125
746		89.843750
747		97.656250
748		89.843750
749		97.656250
750		91.796875
751		99.609375
752		91.796875
753		99.609375
754		91.796875
755		99.609375
756		95.703125
757		97.656250
758		93.750000
759		97.656250
760		93.750000
761		99.609375
762		91.796875
763		99.609375
764		91.796875
765		99.609375
766		91.796875
767		97.656250
768		89.843750
769		97.656250
770		89.843750
771		97.656250
772		89.843750
773		93.750000
774		87.890625
775		91.796875
776		83.984375
777		91.796875
778		82.031250
779		89.843750
780		80.078125
781		87.890625
782		78.125000
783		87.890625
784		76.171875
785		83.984375
786		72.265625
787		82.031250
788		72.265625
789		80.078125
790		70.312500
791		74.218750
792		64.453125
793		72.265625
794		60.546875
795		70.312500
796		58.593750
797		66.406250
798		54.687500
799		64.453125
800		50.781250
801		60.546875
802		46.875000
803		56.640625
804		44.921875
805		52.734375
806		41.015625
807		46.875000
808		37.109375
809		42.968750
810		31.250000
811		39.062500
812		27.343750
813		35.156250
814		21.484375
815		33.203125
816		17.578125
817		27.343750
818		13.671875
819		23.437500
820		7.812500
821		19.531250
822		5.859375
823		13.671875
824		1.953125
825		7.812500
826		-3.906250
827		3.906250
828		-7.812500
829		1.953125
830		-11.718750
831		-1.953125
832		-17.578125
833		-7.812500
834		-21.484375
835		-11.718750
836		-27.343750
837		-17.578125
838		-29.296875
839		-21.484375
840		-33.203125
841		-27.343750
842		-37.109375
843		-31.250000
844		-42.968750
845		-33.203125
846		-46.875000
847		-37.109375
848		-50.781250
849		-41.015625
850		-54.687500
851		-44.921875
852		-58.593750
853		-48.828125
854		-60.546875
855		-50.781250
856		-62.500000
857		-56.640625
858		-64.453125
859		-60.546875
860		-70.312500
861		-62.500000
862		-72.265625
863		-64.453125
864		-74.218750
865		-66.406250
866		-76.171875
867		-68.359375
868		-80.078125
869		-70.312500
870		-80.078125
871		-72.265625
872		-80.078125
873		-74.218750
874		-80.078125
875		-78.125000
876		-83.984375
877		-78.125000
878		-83.984375
879		-78.125000
880		-85.937500
881		-78.125000
882		-85.937500
883		-78.125000
884		-85.937500
885		-80.078125
886		-85.937500
887		-80.078125
888		-85.937500
889		-78.125000
890		-82.031250
891		-80.078125
892		-82.031250
893		-80.078125
894		-83.984375
895		-76.171875
896		-82.031250
897		-74.218750
898		-80.078125
899		-72.265625
900		-80.078125
901		-70.312500
902		-76.171875
903		-68.359375
904		-74.218750
905		-66.406250
906		-72.265625
907		-66.406250
908		-68.359375
909		-64.453125
910		-64.453125
911		-58.593750
912		-64.453125
913		-56.640625
914		-60.546875
915		-52.734375
916		-58.593750
917		-48.828125
918		-54.687500
919		-44.921875
920		-50.781250
921		-42.968750
922		-46.875000
923		-39.062500
924		-41.015625
925		-35.156250
926		-37.109375
927		-31.250000
928		-35.156250
929		-25.390625
930		-31.250000
931		-21.484375
932		-27.343750
933		-17.578125
934		-23.437500
935		-13.671875
936		-19.531250
937		-7.812500
938		-13.671875
939		-3.906250
940		-7.812500
941		-1.953125
942		-1.953125
943		1.953125
944		1.953125
945		9.765625
946		3.906250
947		13.671875
948		9.765625
949		17.578125
950		11.718750
951		23.437500
952		17.578125
953		27.343750
954		21.484375
955		31.250000
956		27.343750
957		33.203125
958		33.203125
959		37.109375
960		37.109375
961		42.968750
962		39.062500
963		48.828125
964		42.968750
965		50.781250
966		46.875000
967		54.687500
968		48.828125
969		58.593750
970		52.734375
971		62.500000
972		56.640625
973		64.453125
974		62.500000
975		66.406250
976		66.406250
977		70.312500
978		68.359375
979		76.171875
980		68.359375
981		78.125000
982		72.265625
983		80.078125
984		74.218750
985		83.984375
986		78.125000
987		85.937500
988		80.078125
989		87.890625
990		82.031250
991		87.890625
992		85.937500
993		89.843750
994		85.937500
995		93.750000
996		87.890625
997		93.750000
998		87.890625
999		95.703125
1000		89.843750
1001		97.656250
1002		89.843750
1003		97.656250
1004		91.796875
1005		97.656250
1006		91.796875
1007		99.609375
1008		95.703125
1009		97.656250
1010		95.703125
1011		97.656250
1012		91.796875
1013		99.609375
1014		91.796875
1015		99.609375
1016		91.796875
1017		99.609375
1018		91.796875
1019		99.609375
1020		89.843750
1021		97.656250
1022		89.843750
1023		97.656250
1024		91.796875
1025		95.703125
1026		89.843750
1027		91.796875
1028		85.937500
1029		91.796875
1030		83.984375
1031		91.796875
1032		82.031250
1033		89.843750
1034		80.078125
1035		87.890625
1036		78.125000
1037		85.937500
1038		76.171875
1039		83.984375
1040		74.218750
1041		82.031250
1042		72.265625
1043		76.171875
1044		66.406250
1045		74.218750
1046		62.500000
1047		72.265625
1048		60.546875
1049		68.359375
1050		56.640625
1051		66.406250
1052		52.734375
1053		62.500000
1054		50.781250
1055		58.593750
1056		46.875000
1057		56.640625
1058		44.921875
1059		50.781250
1060		41.015625
1061		44.921875
1062		35.156250
1063		42.968750
1064		31.250000
1065		39.062500
1066		25.390625
1067		35.156250
1068		21.484375
1069		31.250000
1070		17.578125
1071		27.343750
1072		13.671875
1073		21.484375
1074		9.765625
1075		19.531250
1076		5.859375
1077		11.718750
1078		-1.953125
1079		5.859375
1080		-5.859375
1081		3.906250
1082		-9.765625
1083		0.000000
1084		-13.671875
1085		-3.906250
1086		-19.531250
1087		-9.765625
1088		-23.437500
1089		-13.671875
1090		-25.390625
1091		-17.578125
1092		-29.296875
1093		-23.437500
1094		-33.203125
1095		-27.343750
1096		-41.015625
1097		-31.250000
1098		-42.968750
1099		-35.156250
1100		-48.828125
1101		-39.062500
1102		-50.781250
1103		-42.968750
1104		-54.687500
1105		-44.921875
1106		-58.593750
1107		-48.828125
1108		-58.593750
1109		-52.734375
1110		-62.500000
1111		-58.593750
1112		-68.359375
1113		-60.546875
1114		-70.312500
1115		-62.500000
1116		-72.265625
1117		-64.453125
1118		-76.171875
1119		-66.406250
1120		-76.171875
1121		-68.359375
1122		-78.125000
1123		-72.265625
1124		-80.078125
1125		-72.265625
1126		-80.078125
1127		-76.171875
1128		-82.031250
1129		-78.125000
1130		-83.984375
1131		-78.125000
1132		-85.937500
1133		-78.125000
1134		-85.937500
1135		-78.125000
1136		-85.937500
1137		-78.125000
1138		-85.937500
1139		-80.078125
1140		-85.937500
1141		-78.125000
1142		-83.984375
1143		-80.078125
1144		-82.031250
1145		-80.078125
1146		-83.984375
1147		-76.171875
1148		-83.984375
1149		-76.171875
1150		-82.031250
1151		-74.218750
1152		-80.078125
1153		-72.265625
1154		-78.125000
1155		-70.312500
1156		-76.171875
1157		-68.359375
1158		-74.218750
1159		-68.359375
1160		-70.312500
1161		-66.406250
1162		-68.359375
1163		-60.546875
1164		-66.406250
1165		-58.593750
1166		-62.500000
1167		-54.687500
1168		-60.546875
1169		-50.781250
1170		-58.593750
1171		-46.875000
1172		-52.734375
1173		-44.921875
1174		-50.781250
1175		-42.968750
1176		-44.921875
1177		-39.062500
1178		-41.015625
1179		-35.156250
1180		-37.109375
1181		-29.296875
1182		-35.156250
1183		-25.390625
1184		-29.296875
1185		-21.484375
1186		-25.390625
1187		-15.625000
1188		-21.484375
1189		-11.718750
1190		-17.578125
1191		-7.812500
1192		-11.718750
1193		-3.906250
1194		-5.859375
1195		0.000000
1196		-1.953125
1197		5.859375
1198		0.000000
1199		9.765625
1200		5.859375
1201		15.625000
1202		9.765625
1203		19.531250
1204		13.671875
1205		23.437500
1206		19.531250
1207		27.343750
1208		23.437500
1209		31.250000
1210		29.296875
1211		35.156250
1212		33.203125
1213		39.062500
1214		35.156250
1215		44.921875
1216		39.062500
1217		48.828125
1218		42.968750
1219		52.734375
1220		46.875000
1221		56.640625
1222		50.781250
1223		60.546875
1224		54.687500
1225		62.500000
1226		60.546875
1227		64.453125
1228		64.453125
1229		68.359375
1230		66.406250
1231		74.218750
1232		66.406250
1233		76.171875
1234		70.312500
1235		78.125000
1236		72.265625
1237		82.031250
1238		76.171875
1239		83.984375
1240		78.125000
1241		85.937500
1242		80.078125
1243		85.937500
1244		83.984375
1245		87.890625
1246		85.937500
1247		91.796875
1248		85.937500
1249		93.750000
1250		87.890625
1251		95.703125
1252		89.843750
1253		95.703125
1254		89.843750
1255		97.656250
1256		91.796875
1257		97.656250
1258		91.796875
1259		97.656250
1260		93.750000
1261		97.656250
1262		95.703125
1263		97.656250
1264		93.750000
1265		99.609375
1266		91.796875
1267		99.609375
1268		91.796875
1269		99.609375
1270		91.796875
1271		99.609375
1272		91.796875
1273		97.656250
1274		89.843750
1275		97.656250
1276		91.796875
1277		95.703125
1278		89.843750
1279		93.750000
1280		85.937500
1281		93.750000
1282		85.937500
1283		93.750000
1284		83.984375
1285		91.796875
1286		82.031250
1287		89.843750
1288		80.078125
1289		87.890625
1290		76.171875
1291		83.984375
1292		74.218750
1293		82.031250
1294		74.218750
1295		78.125000
1296		70.312500
1297		76.171875
1298		66.406250
1299		74.218750
1300		62.500000
1301		72.265625
1302		58.593750
1303		68.359375
1304		56.640625
1305		64.453125
1306		52.734375
1307		60.546875
1308		48.828125
1309		58.593750
1310		46.875000
1311		52.734375
1312		42.968750
1313		48.828125
1314		37.109375
1315		44.921875
1316		33.203125
1317		42.968750
1318		29.296875
1319		39.062500
1320		23.437500
1321		33.203125
1322		19.531250
1323		29.296875
1324		15.625000
1325		25.390625
1326		13.671875
1327		21.484375
1328		7.812500
1329		13.671875
1330		1.953125
1331		9.765625
1332		-1.953125
1333		7.812500
1334		-7.812500
1335		1.953125
1336		-11.718750
1337		-1.953125
1338		-15.625000
1339		-5.859375
1340		-21.484375
1341		-9.765625
1342		-23.437500
1343		-15.625000
1344		-27.343750
1345		-21.484375
1346		-31.250000
1347		-25.390625
1348		-37.109375
1349		-29.296875
1350		-41.015625
1351		-31.250000
1352		-44.921875
1353		-35.156250
1354		-48.828125
1355		-39.062500
1356		-50.781250
1357		-42.968750
1358		-54.687500
1359		-46.875000
1360		-56.640625
1361		-50.781250
1362		-60.546875
1363		-56.640625
1364		-64.453125
1365		-58.593750
1366		-68.359375
1367		-60.546875
1368		-70.312500
1369		-62.500000
1370		-74.218750
1371		-64.453125
1372		-76.171875
1373		-68.359375
1374		-78.125000
1375		-70.312500
1376		-78.125000
1377		-72.265625
1378		-78.125000
1379		-76.171875
1380		-82.031250
1381		-78.125000
1382		-83.984375
1383		-76.171875
1384		-83.984375
1385		-78.125000
1386		-85.937500
1387		-78.125000
1388		-85.937500
1389		-78.125000
1390		-85.937500
1391		-78.125000
1392		-85.937500
1393		-78.125000
1394		-83.984375
1395		-80.078125
1396		-82.031250
1397		-80.078125
1398		-83.984375
1399		-76.171875
1400		-83.984375
1401		-76.171875
1402		-82.031250
1403		-74.218750
1404		-80.078125
1405		-74.218750
1406		-80.078125
1407		-72.265625
1408		-76.171875
1409		-70.312500
1410		-76.171875
1411		-68.359375
1412		-70.312500
1413		-66.406250
1414		-68.359375
1415		-62.500000
1416		-68.359375
1417		-60.546875
1418		-66.406250
1419		-56.640625
1420		-62.500000
1421		-52.734375
1422		-58.593750
1423		-48.828125
1424		-54.687500
1425		-46.875000
1426		-52.734375
1427		-44.921875
1428		-46.875000
1429		-41.015625
1430		-42.968750
1431		-37.109375
1432		-39.062500
1433		-31.250000
1434		-35.156250
1435		-27.343750
1436		-31.250000
1437		-23.437500
1438		-27.343750
1439		-17.578125
1440		-23.437500
1441		-13.671875
1442		-19.531250
1443		-9.765625
1444		-15.625000
1445		-7.812500
1446		-9.765625
1447		-3.906250
1448		-3.906250
1449		3.906250
1450		-1.953125
1451		7.812500
1452		1.953125
1453		11.718750
1454		5.859375
1455		17.578125
1456		11.718750
1457		21.484375
1458		15.625000
1459		25.390625
1460		21.484375
1461		29.296875
1462		27.343750
1463		31.250000
1464		31.250000
1465		37.109375
1466		33.203125
1467		42.968750
1468		37.109375
1469		46.875000
1470		41.015625
1471		50.781250
1472		44.921875
1473		54.687500
1474		48.828125
1475		58.593750
1476		52.734375
1477		60.546875
1478		58.593750
1479		62.500000
1480		62.500000
1481		66.406250
1482		64.453125
1483		72.265625
1484		66.406250
1485		74.218750
1486		68.359375
1487		76.171875
1488		72.265625
1489		80.078125
1490		74.218750
1491		82.031250
1492		78.125000
1493		85.937500
1494		80.078125
1495		85.937500
1496		83.984375
1497		87.890625
1498		85.937500
1499		91.796875
1500		85.937500
1501		91.796875
1502		85.937500
1503		93.750000
1504		87.890625
1505		95.703125
1506		89.843750
1507		97.656250
1508		89.843750
1509		97.656250
1510		89.843750
1511		97.656250
1512		93.750000
1513		97.656250
1514		95.703125
1515		97.656250
1516		93.750000
1517		99.609375
1518		93.750000
1519		99.609375
1520		91.796875
1521		99.609375
1522		93.750000
1523		99.609375
1524		91.796875
1525		99.609375
1526		91.796875
1527		97.656250
1528		91.796875
1529		97.656250
1530		91.796875
1531		93.750000
1532		87.890625
1533		95.703125
1534		85.937500
1535		93.750000
1536		83.984375
1537		93.750000
1538		83.984375
1539		91.796875
1540		82.031250
1541		87.890625
1542		80.078125
1543		85.937500
1544		78.125000
1545		83.984375
1546		76.171875
1547		80.078125
1548		72.265625
1549		78.125000
1550		68.359375
1551		76.171875
1552		64.453125
1553		74.218750
1554		62.500000
1555		70.312500
1556		58.593750
1557		68.359375
1558		54.687500
1559		64.453125
1560		50.781250
1561		60.546875
1562		50.781250
1563		54.687500
1564		44.921875
1565		50.781250
1566		39.062500
1567		48.828125
1568		35.156250
1569		44.921875
1570		31.250000
1571		41.015625
1572		27.343750
1573		37.109375
1574		23.437500
1575		33.203125
1576		19.531250
1577		29.296875
1578		17.578125
1579		23.437500
1580		11.718750
1581		17.578125
1582		5.859375
1583		13.671875
1584		0.000000
1585		11.718750
1586		-3.906250
1587		5.859375
1588		-7.812500
1589		1.953125
1590		-11.718750
1591		-1.953125
1592		-17.578125
1593		-7.812500
1594		-21.484375
1595		-11.718750
1596		-23.437500
1597		-17.578125
1598		-27.343750
1599		-21.484375
1600		-33.203125
1601		-25.390625
1602		-37.109375
1603		-27.343750
1604		-41.015625
1605		-33.203125
1606		-44.921875
1607		-37.109375
1608		-50.781250
1609		-41.015625
1610		-54.687500
1611		-44.921875
1612		-54.687500
1613		-48.828125
1614		-58.593750
1615		-52.734375
1616		-64.453125
1617		-56.640625
1618		-66.406250
1619		-58.593750
1620		-68.359375
1621		-60.546875
1622		-72.265625
1623		-64.453125
1624		-74.218750
1625		-66.406250
1626		-76.171875
1627		-68.359375
1628		-78.125000
1629		-70.312500
1630		-78.125000
1631		-74.218750
1632		-80.078125
1633		-76.171875
1634		-82.031250
1635		-76.171875
1636		-83.984375
1637		-76.171875
1638		-83.984375
1639		-78.125000
1640		-85.937500
1641		-78.125000
1642		-85.937500
1643		-78.125000
1644		-85.937500
1645		-80.078125
1646		-83.984375
1647		-80.078125
1648		-83.984375
1649		-80.078125
1650		-83.984375
1651		-78.125000
1652		-83.984375
1653		-78.125000
1654		-83.984375
1655		-76.171875
1656		-82.031250
1657		-74.218750
1658		-80.078125
1659		-72.265625
1660		-80.078125
1661		-70.312500
1662		-78.125000
1663		-70.312500
1664		-72.265625
1665		-68.359375
1666		-70.312500
1667		-64.453125
1668		-70.312500
1669		-62.500000
1670		-68.359375
1671		-58.593750
1672		-64.453125
1673		-54.687500
1674		-62.500000
1675		-52.734375
1676		-58.593750
1677		-48.828125
1678		-54.687500
1679		-46.875000
1680		-48.828125
1681		-44.921875
1682		-44.921875
1683		-41.015625
1684		-42.968750
1685		-33.203125
1686		-39.062500
1687		-29.296875
1688		-35.156250
1689		-25.390625
1690		-31.250000
1691		-21.484375
1692		-27.343750
1693		-17.578125
1694		-23.437500
1695		-13.671875
1696		-19.531250
1697		-11.718750
1698		-11.718750
1699		-5.859375
1700		-7.812500
1701		0.000000
1702		-5.859375
1703		3.906250
1704		-1.953125
1705		9.765625
1706		3.906250
1707		13.671875
1708		7.812500
1709		17.578125
1710		11.718750
1711		21.484375
1712		17.578125
1713		25.390625
1714		23.437500
1715		29.296875
1716		27.343750
1717		33.203125
1718		31.250000
1719		39.062500
1720		35.156250
1721		42.968750
1722		37.109375
1723		46.875000
1724		42.968750
1725		50.781250
1726		46.875000
1727		54.687500
1728		48.828125
1729		58.593750
1730		52.734375
1731		60.546875
1732		58.593750
1733		64.453125
1734		62.500000
1735		68.359375
1736		62.500000
1737		72.265625
1738		66.406250
1739		74.218750
1740		70.312500
1741		78.125000
1742		72.265625
1743		80.078125
1744		74.218750
1745		83.984375
1746		76.171875
1747		83.984375
1748		82.031250
1749		85.937500
1750		83.984375
1751		87.890625
1752		83.984375
1753		91.796875
1754		85.937500
1755		91.796875
1756		87.890625
1757		93.750000
1758		87.890625
1759		95.703125
1760		89.843750
1761		97.656250
1762		89.843750
1763		97.656250
1764		93.750000
1765		95.703125
1766		93.750000
1767		97.656250
1768		91.796875
1769		99.609375
1770		91.796875
1771		99.609375
1772		93.750000
1773		99.609375
1774		91.796875
1775		99.609375
1776		91.796875
1777		99.609375
1778		91.796875
1779		97.656250
1780		89.843750
1781		97.656250
1782		91.796875
1783		95.703125
1784		87.890625
1785		95.703125
1786		87.890625
1787		93.750000
1788		85.937500
1789		93.750000
1790		83.984375
1791		91.796875
1792		82.031250
1793		89.843750
1794		80.078125
1795		87.890625
1796		78.125000
1797		85.937500
1798		78.125000
1799		82.031250
1800		76.171875
1801		80.078125
1802		70.312500
1803		78.125000
1804		66.406250
1805		76.171875
1806		64.453125
1807		72.265625
1808		60.546875
1809		70.312500
1810		56.640625
1811		66.406250
1812		54.687500
1813		62.500000
1814		52.734375
1815		60.546875
1816		48.828125
1817		52.734375
1818		42.968750
1819		50.781250
1820		39.062500
1821		48.828125
1822		35.156250
1823		44.921875
1824		31.250000
1825		39.062500
1826		25.390625
1827		35.156250
1828		21.484375
1829		31.250000
1830		19.531250
1831		27.343750
1832		15.625000
1833		21.484375
1834		9.765625
1835		15.625000
1836		3.906250
1837		13.671875
1838		0.000000
1839		9.765625
1840		-5.859375
1841		5.859375
1842		-9.765625
1843		0.000000
1844		-13.671875
1845		-3.906250
1846		-19.531250
1847		-9.765625
1848		-21.484375
1849		-15.625000
1850		-25.390625
1851		-19.531250
1852		-31.250000
1853		-23.437500
1854		-35.156250
1855		-25.390625
1856		-39.062500
1857		-31.250000
1858		-42.968750
1859		-35.156250
1860		-44.921875
1861		-39.062500
1862		-50.781250
1863		-42.968750
1864		-52.734375
1865		-46.875000
1866		-56.640625
1867		-50.781250
1868		-62.500000
1869		-54.687500
1870		-64.453125
1871		-56.640625
1872		-68.359375
1873		-58.593750
1874		-70.312500
1875		-62.500000
1876		-72.265625
1877		-64.453125
1878		-74.218750
1879		-66.406250
1880		-76.171875
1881		-68.359375
1882		-78.125000
1883		-74.218750
1884		-78.125000
1885		-76.171875
1886		-82.031250
1887		-74.218750
1888		-83.984375
1889		-76.171875
1890		-83.984375
1891		-76.171875
1892		-85.937500
1893		-78.125000
1894		-85.937500
1895		-78.125000
1896		-85.937500
1897		-78.125000
1898		-85.937500
1899		-80.078125
1900		-83.984375
1901		-80.078125
1902		-85.937500
1903		-78.125000
1904		-83.984375
1905		-78.125000
1906		-83.984375
1907		-78.125000
1908		-82.031250
1909		-76.171875
1910		-82.031250
1911		-74.218750
1912		-80.078125
1913		-72.265625
1914		-78.125000
1915		-72.265625
1916		-74.218750
1917		-70.312500
1918		-72.265625
1919		-68.359375
1920		-72.265625
1921		-64.453125
1922		-70.312500
1923		-60.546875
1924		-66.406250
1925		-58.593750
1926		-64.453125
1927		-54.687500
1928		-60.546875
1929		-52.734375
1930		-58.593750
1931		-48.828125
1932		-52.734375
1933		-46.875000
1934		-48.828125
1935		-42.968750
1936		-44.921875
1937		-37.109375
1938		-42.968750
1939		-33.203125
1940		-39.062500
1941		-29.296875
1942		-35.156250
1943		-25.390625
1944		-31.250000
1945		-21.484375
1946		-27.343750
1947		-17.578125
1948		-21.484375
1949		-13.671875
1950		-15.625000
1951		-9.765625
1952		-11.718750
1953		-3.906250
1954		-7.812500
1955		0.000000
1956		-3.906250
1957		5.859375
1958		0.000000
1959		9.765625
1960		3.906250
1961		15.625000
1962		7.812500
1963		19.531250
1964		13.671875
1965		21.484375
1966		19.531250
1967		25.390625
1968		25.390625
1969		29.296875
1970		27.343750
1971		37.109375
1972		31.250000
1973		41.015625
1974		35.156250
1975		44.921875
1976		39.062500
1977		48.828125
1978		42.968750
1979		52.734375
1980		46.875000
1981		54.687500
1982		50.781250
1983		56.640625
1984		56.640625
1985		60.546875
1986		60.546875
1987		66.406250
1988		60.546875
1989		70.312500
1990		64.453125
1991		72.265625
1992		66.406250
1993		76.171875
1994		70.312500
1995		78.125000
1996		72.265625
1997		82.031250
1998		76.171875
1999		82.031250
2000		80.078125
2001		83.984375
2002		82.031250
2003		87.890625
2004		82.031250
2005		89.843750
2006		83.984375
2007		91.796875
2008		85.937500
2009		93.750000
2010		87.890625
2011		95.703125
2012		89.843750
2013		95.703125
2014		89.843750
2015		97.656250
2016		93.750000
2017		95.703125
2018		93.750000
2019		95.703125
2020		91.796875
2021		99.609375
2022		91.796875
2023		99.609375
2024		93.750000
2025		99.609375
2026		91.796875
2027		99.609375
2028		91.796875
2029		99.609375
2030		91.796875
2031		99.609375
2032		91.796875
2033		99.609375
2034		91.796875
2035		95.703125
2036		89.843750
2037		95.703125
2038		87.890625
2039		95.703125
2040		87.890625
2041		93.750000
2042		85.937500
2043		93.750000
2044		83.984375
2045		91.796875
2046		82.031250
2047		89.843750
2048		80.078125
2049		87.890625
2050		80.078125
2051		82.031250
2052		76.171875
2053		80.078125
2054		72.265625
2055		80.078125
2056		68.359375
2057		78.125000
2058		66.406250
2059		74.218750
2060		62.500000
2061		72.265625
2062		60.546875
2063		68.359375
2064		56.640625
2065		64.453125
2066		54.687500
2067		62.500000
2068		50.781250
2069		56.640625
2070		44.921875
2071		52.734375
2072		41.015625
2073		50.781250
2074		37.109375
2075		46.875000
2076		33.203125
2077		42.968750
2078		29.296875
2079		39.062500
2080		23.437500
2081		35.156250
2082		21.484375
2083		29.296875
2084		17.578125
2085		23.437500
2086		13.671875
2087		19.531250
2088		5.859375
2089		15.625000
2090		1.953125
2091		11.718750
2092		-1.953125
2093		7.812500
2094		-5.859375
2095		3.906250
2096		-11.718750
2097		-1.953125
2098		-15.625000
2099		-5.859375
2100		-17.578125
2101		-11.718750
2102		-21.484375
2103		-17.578125
2104		-29.296875
2105		-19.531250
2106		-33.203125
2107		-23.437500
2108		-37.109375
2109		-27.343750
2110		-41.015625
2111		-31.250000
2112		-44.921875
2113		-35.156250
2114		-48.828125
2115		-39.062500
2116		-50.781250
2117		-42.968750
2118		-52.734375
2119		-48.828125
2120		-58.593750
2121		-52.734375
2122		-62.500000
2123		-52.734375
2124		-64.453125
2125		-56.640625
2126		-68.359375
2127		-60.546875
2128		-70.312500
2129		-62.500000
2130		-74.218750
2131		-64.453125
2132		-76.171875
2133		-68.359375
2134		-76.171875
2135		-72.265625
2136		-78.125000
2137		-74.218750
2138		-82.031250
2139		-74.218750
2140		-83.984375
2141		-74.218750
2142		-83.984375
2143		-76.171875
2144		-83.984375
2145		-78.125000
2146		-85.937500
2147		-78.125000
2148		-85.937500
2149		-78.125000
2150		-85.937500
2151		-80.078125
2152		-83.984375
2153		-82.031250
2154		-85.937500
2155		-80.078125
2156		-85.937500
2157		-78.125000
2158		-83.984375
2159		-78.125000
2160		-83.984375
2161		-76.171875
2162		-82.031250
2163		-76.171875
2164		-82.031250
2165		-74.218750
2166		-80.078125
2167		-72.265625
2168		-76.171875
2169		-72.265625
2170		-74.218750
2171		-70.312500
2172		-74.218750
2173		-66.406250
2174		-72.265625
2175		-62.500000
2176		-70.312500
2177		-60.546875
2178		-66.406250
2179		-56.640625
2180		-62.500000
2181		-54.687500
2182		-60.546875
2183		-50.781250
2184		-54.687500
2185		-48.828125
2186		-50.781250
2187		-44.921875
2188		-48.828125
2189		-41.015625
2190		-44.921875
2191		-37.109375
2192		-41.015625
2193		-31.250000
2194		-39.062500
2195		-29.296875
2196		-33.203125
2197		-23.437500
2198		-29.296875
2199		-19.531250
2200		-25.390625
2201		-17.578125
2202		-19.531250
2203		-13.671875
2204		-15.625000
2205		-5.859375
2206		-11.718750
2207		-1.953125
2208		-7.812500
2209		1.953125
2210		-1.953125
2211		5.859375
2212		1.953125
2213		11.718750
2214		5.859375
2215		15.625000
2216		9.765625
2217		19.531250
2218		17.578125
2219		23.437500
2220		21.484375
2221		27.343750
2222		25.390625
2223		33.203125
2224		27.343750
2225		37.109375
2226		31.250000
2227		41.015625
2228		35.156250
2229		44.921875
2230		41.015625
2231		48.828125
2232		44.921875
2233		52.734375
2234		46.875000
2235		54.687500
2236		52.734375
2237		58.593750
2238		56.640625
2239		64.453125
2240		58.593750
2241		68.359375
2242		62.500000
2243		70.312500
2244		64.453125
2245		74.218750
2246		68.359375
2247		78.125000
2248		70.312500
2249		80.078125
2250		74.218750
2251		80.078125
2252		78.125000
2253		82.031250
2254		80.078125
2255		83.984375
2256		80.078125
2257		87.890625
2258		82.031250
2259		89.843750
2260		83.984375
2261		91.796875
2262		85.937500
2263		93.750000
2264		87.890625
2265		95.703125
2266		89.843750
2267		95.703125
2268		89.843750
2269		95.703125
2270		93.750000
2271		95.703125
2272		91.796875
2273		99.609375
2274		91.796875
2275		99.609375
2276		91.796875
2277		99.609375
2278		91.796875
2279		99.609375
2280		91.796875
2281		99.609375
2282		91.796875
2283		99.609375
2284		91.796875
2285		99.609375
2286		93.750000
2287		95.703125
2288		91.796875
2289		95.703125
2290		89.843750
2291		95.703125
2292		87.890625
2293		95.703125
2294		85.937500
2295		93.750000
2296		85.937500
2297		93.750000
2298		83.984375
2299		91.796875
2300		82.031250
2301		87.890625
2302		80.078125
2303		83.984375
2304		78.125000
2305		82.031250
2306		72.265625
2307		80.078125
2308		70.312500
2309		80.078125
2310		68.359375
2311		76.171875
2312		64.453125
2313		74.218750
2314		60.546875
2315		70.312500
2316		58.593750
2317		66.406250
2318		56.640625
2319		64.453125
2320		52.734375
2321		58.593750
2322		48.828125
2323		54.687500
2324		44.921875
2325		52.734375
2326		41.015625
2327		48.828125
2328		35.156250
2329		44.921875
2330		31.250000
2331		41.015625
2332		27.343750
2333		39.062500
2334		25.390625
2335		33.203125
2336		21.484375
2337		27.343750
2338		15.625000
2339		21.484375
2340		11.718750
2341		19.531250
2342		5.859375
2343		15.625000
2344		0.000000
2345		11.718750
2346		-3.906250
2347		5.859375
2348		-7.812500
2349		1.953125
2350		-11.718750
2351		-3.906250
2352		-15.625000
2353		-7.812500
2354		-19.531250
2355		-13.671875
2356		-25.390625
2357		-17.578125
2358		-29.296875
2359		-19.531250
2360		-35.156250
2361		-23.437500
2362		-39.062500
2363		-29.296875
2364		-42.968750
2365		-33.203125
2366		-46.875000
2367		-37.109375
2368		-48.828125
2369		-41.015625
2370		-50.781250
2371		-46.875000
2372		-56.640625
2373		-48.828125
2374		-60.546875
2375		-50.781250
2376		-62.500000
2377		-54.687500
2378		-66.406250
2379		-58.593750
2380		-68.359375
2381		-60.546875
2382		-72.265625
2383		-64.453125
2384		-74.218750
2385		-66.406250
2386		-74.218750
2387		-70.312500
2388		-76.171875
2389		-72.265625
2390		-80.078125
2391		-74.218750
2392		-82.031250
2393		-74.218750
2394		-83.984375
2395		-76.171875
2396		-83.984375
2397		-76.171875
2398		-85.937500
2399		-78.125000
2400		-85.937500
2401		-78.125000
2402		-85.937500
2403		-80.078125
2404		-83.984375
2405		-82.031250
2406		-83.984375
2407		-80.078125
2408		-85.937500
2409		-78.125000
2410		-85.937500
2411		-78.125000
2412		-83.984375
2413		-78.125000
2414		-83.984375
2415		-76.171875
2416		-82.031250
2417		-76.171875
2418		-80.078125
2419		-74.218750
2420		-78.125000
2421		-74.218750
2422		-76.171875
2423		-72.265625
2424		-76.171875
2425		-68.359375
2426		-72.265625
2427		-64.453125
2428		-72.265625
2429		-62.500000
2430		-68.359375
2431		-60.546875
2432		-66.406250
2433		-58.593750
2434		-62.500000
2435		-54.687500
2436		-56.640625
2437		-52.734375
2438		-52.734375
2439		-48.828125
2440		-50.781250
2441		-42.968750
2442		-46.875000
2443		-39.062500
2444		-42.968750
2445		-35.156250
2446		-39.062500
2447		-31.250000
2448		-35.156250
2449		-27.343750
2450		-31.250000
2451		-23.437500
2452		-27.343750
2453		-21.484375
2454		-21.484375
2455		-15.625000
2456		-17.578125
2457		-9.765625
2458		-13.671875
2459		-5.859375
2460		-9.765625
2461		-1.953125
2462		-5.859375
2463		3.906250
2464		-1.953125
2465		5.859375
2466		3.906250
2467		11.718750
2468		7.812500
2469		15.625000
2470		13.671875
2471		19.531250
2472		17.578125
2473		23.437500
2474		21.484375
2475		31.250000
2476		25.390625
2477		33.203125
2478		29.296875
2479		39.062500
2480		33.203125
2481		41.015625
2482		39.062500
2483		44.921875
2484		42.968750
2485		48.828125
2486		46.875000
2487		52.734375
2488		50.781250
2489		56.640625
2490		54.687500
2491		60.546875
2492		58.593750
2493		62.500000
2494		60.546875
2495		68.359375
2496		64.453125
2497		70.312500
2498		68.359375
2499		74.218750
2500		70.312500
2501		74.218750
2502		72.265625
2503		78.125000
2504		76.171875
2505		80.078125
2506		80.078125
2507		82.031250
2508		80.078125
2509		85.937500
2510		83.984375
2511		87.890625
2512		83.984375
2513		89.843750
2514		87.890625
2515		89.843750
2516		87.890625
2517		93.750000
2518		89.843750
2519		93.750000
2520		89.843750
2521		93.750000
2522		91.796875
2523		95.703125
2524		93.750000
2525		97.656250
2526		93.750000
2527		97.656250
2528		93.750000
2529		97.656250
2530		93.750000
2531		97.656250
2532		95.703125
2533		97.656250
2534		93.750000
2535		97.656250
2536		93.750000
2537		97.656250
2538		93.750000
2539		95.703125
2540		91.796875
2541		95.703125
2542		91.796875
2543		95.703125
2544		91.796875
2545		93.750000
2546		89.843750
2547		93.750000
2548		87.890625
2549		91.796875
2550		85.937500
2551		89.843750
2552		83.984375
2553		87.890625
2554		82.031250
2555		85.937500
2556		80.078125
2557		83.984375
2558		78.125000
2559		82.031250
2560		76.171875
2561		80.078125
2562		72.265625
2563		78.125000
2564		70.312500
2565		74.218750
2566		66.406250
2567		72.265625
2568		62.500000
2569		68.359375
2570		60.546875
2571		64.453125
2572		56.640625
2573		60.546875
2574		52.734375
2575		58.593750
2576		48.828125
2577		54.687500
2578		44.921875
2579		50.781250
2580		41.015625
2581		46.875000
2582		37.109375
2583		42.968750
2584		33.203125
2585		39.062500
2586		27.343750
2587		35.156250
2588		23.437500
2589		29.296875
2590		19.531250
2591		25.390625
2592		15.625000
2593		21.484375
2594		9.765625
2595		17.578125
2596		5.859375
2597		11.718750
2598		1.953125
2599		7.812500
2600		-1.953125
2601		3.906250
2602		-7.812500
2603		-1.953125
2604		-11.718750
2605		-5.859375
2606		-15.625000
2607		-9.765625
2608		-19.531250
2609		-13.671875
2610		-25.390625
2611		-19.531250
2612		-29.296875
2613		-21.484375
2614		-33.203125
2615		-27.343750
2616		-37.109375
2617		-31.250000
2618		-41.015625
2619		-35.156250
2620		-44.921875
2621		-39.062500
2622		-48.828125
2623		-42.968750
2624		-54.687500
2625		-46.875000
2626		-54.687500
2627		-50.781250
2628		-58.593750
2629		-52.734375
2630		-62.500000
2631		-56.640625
2632		-64.453125
2633		-60.546875
2634		-68.359375
2635		-62.500000
2636		-70.312500
2637		-66.406250
2638		-72.265625
2639		-68.359375
2640		-74.218750
2641		-72.265625
2642		-78.125000
2643		-72.265625
2644		-80.078125
2645		-74.218750
2646		-80.078125
2647		-76.171875
2648		-82.031250
2649		-78.125000
2650		-82.031250
2651		-78.125000
2652		-83.984375
2653		-80.078125
2654		-83.984375
2655		-80.078125
2656		-83.984375
2657		-82.031250
2658		-83.984375
2659		-80.078125
2660		-83.984375
2661		-82.031250
2662		-83.984375
2663		-80.078125
2664		-83.984375
2665		-80.078125
2666		-82.031250
2667		-78.125000
2668		-82.031250
2669		-78.125000
2670		-80.078125
2671		-76.171875
2672		-78.125000
2673		-76.171875
2674		-76.171875
2675		-74.218750
2676		-76.171875
2677		-70.312500
2678		-74.218750
2679		-68.359375
2680		-70.312500
2681		-66.406250
2682		-68.359375
2683		-64.453125
2684		-64.453125
2685		-60.546875
2686		-62.500000
2687		-58.593750
2688		-60.546875
2689		-54.687500
2690		-56.640625
2691		-50.781250
2692		-52.734375
2693		-46.875000
2694		-48.828125
2695		-44.921875
2696		-44.921875
2697		-41.015625
2698		-41.015625
2699		-37.109375
2700		-37.109375
2701		-33.203125
2702		-33.203125
2703		-27.343750
2704		-29.296875
2705		-23.437500
2706		-25.390625
2707		-19.531250
2708		-21.484375
2709		-15.625000
2710		-17.578125
2711		-9.765625
2712		-11.718750
2713		-5.859375
2714		-7.812500
2715		-1.953125
2716		-3.906250
2717		1.953125
2718		1.953125
2719		7.812500
2720		5.859375
2721		11.718750
2722		9.765625
2723		15.625000
2724		15.625000
2725		21.484375
2726		19.531250
2727		25.390625
2728		23.437500
2729		29.296875
2730		27.343750
2731		33.203125
2732		31.250000
2733		37.109375
2734		37.109375
2735		42.968750
2736		41.015625
2737		44.921875
2738		42.968750
2739		50.781250
2740		48.828125
2741		52.734375
2742		52.734375
2743		56.640625
2744		54.687500
2745		60.546875
2746		58.593750
2747		64.453125
2748		60.546875
2749		66.406250
2750		64.453125
2751		70.312500
2752		68.359375
2753		72.265625
2754		72.265625
2755		76.171875
2756		74.218750
2757		78.125000
2758		76.171875
2759		82.031250
2760		78.125000
2761		83.984375
2762		82.031250
2763		85.937500
2764		83.984375
2765		87.890625
2766		85.937500
2767		89.843750
2768		87.890625
2769		91.796875
2770		87.890625
2771		91.796875
2772		89.843750
2773		93.750000
2774		91.796875
2775		93.750000
2776		91.796875
2777		95.703125
2778		91.796875
2779		95.703125
2780		93.750000
2781		97.656250
2782		93.750000
2783		97.656250
2784		93.750000
2785		97.656250
2786		93.750000
2787		97.656250
2788		93.750000
2789		97.656250
2790		93.750000
2791		95.703125
2792		93.750000
2793		95.703125
2794		91.796875
2795		97.656250
2796		91.796875
2797		95.703125
2798		89.843750
2799		93.750000
2800		89.843750
2801		91.796875
2802		87.890625
2803		91.796875
2804		83.984375
2805		89.843750
2806		83.984375
2807		87.890625
2808		82.031250
2809		85.937500
2810		80.078125
2811		83.984375
2812		76.171875
2813		82.031250
2814		74.218750
2815		78.125000
2816		70.312500
2817		76.171875
2818		68.359375
2819		72.265625
2820		66.406250
2821		70.312500
2822		62.500000
2823		66.406250
2824		58.593750
2825		64.453125
2826		54.687500
2827		60.546875
2828		50.781250
2829		56.640625
2830		46.875000
2831		52.734375
2832		42.968750
2833		48.828125
2834		39.062500
2835		44.921875
2836		35.156250
2837		41.015625
2838		31.250000
2839		37.109375
2840		27.343750
2841		33.203125
2842		23.437500
2843		29.296875
2844		17.578125
2845		23.437500
2846		13.671875
2847		19.531250
2848		9.765625
2849		15.625000
2850		5.859375
2851		11.718750
2852		0.000000
2853		7.812500
2854		-5.859375
2855		1.953125
2856		-7.812500
2857		-1.953125
2858		-13.671875
2859		-7.812500
2860		-17.578125
2861		-11.718750
2862		-21.484375
2863		-15.625000
2864		-25.390625
2865		-19.531250
2866		-31.250000
2867		-25.390625
2868		-35.156250
2869		-29.296875
2870		-39.062500
2871		-33.203125
2872		-42.968750
2873		-37.109375
2874		-46.875000
2875		-41.015625
2876		-50.781250
2877		-44.921875
2878		-52.734375
2879		-48.828125
2880		-56.640625
2881		-50.781250
2882		-60.546875
2883		-54.687500
2884		-64.453125
2885		-58.593750
2886		-66.406250
2887		-60.546875
2888		-68.359375
2889		-64.453125
2890		-70.312500
2891		-66.406250
2892		-74.218750
2893		-70.312500
2894		-76.171875
2895		-72.265625
2896		-78.125000
2897		-74.218750
2898		-80.078125
2899		-76.171875
2900		-82.031250
2901		-76.171875
2902		-82.031250
2903		-78.125000
2904		-82.031250
2905		-80.078125
2906		-83.984375
2907		-80.078125
2908		-83.984375
2909		-82.031250
2910		-85.937500
2911		-82.031250
2912		-85.937500
2913		-82.031250
2914		-83.984375
2915		-80.078125
2916		-83.984375
2917		-80.078125
2918		-83.984375
2919		-80.078125
2920		-82.031250
2921		-78.125000
2922		-82.031250
2923		-78.125000
2924		-80.078125
2925		-76.171875
2926		-78.125000
2927		-76.171875
2928		-78.125000
2929		-72.265625
2930		-74.218750
2931		-70.312500
2932		-74.218750
2933		-68.359375
2934		-70.312500
2935		-66.406250
2936		-68.359375
2937		-62.500000
2938		-64.453125
2939		-60.546875
2940		-62.500000
2941		-56.640625
2942		-58.593750
2943		-54.687500
2944		-54.687500
2945		-50.781250
2946		-52.734375
2947		-46.875000
2948		-48.828125
2949		-42.968750
2950		-44.921875
2951		-39.062500
2952		-41.015625
2953		-35.156250
2954		-37.109375
2955		-31.250000
2956		-33.203125
2957		-27.343750
2958		-29.296875
2959		-23.437500
2960		-25.390625
2961		-19.531250
2962		-21.484375
2963		-13.671875
2964		-15.625000
2965		-9.765625
2966		-11.718750
2967		-5.859375
2968		-7.812500
2969		0.000000
2970		-1.953125
2971		3.906250
2972		1.953125
2973		7.812500
2974		5.859375
2975		11.718750
2976		11.718750
2977		17.578125
2978		15.625000
2979		21.484375
2980		19.531250
2981		25.390625
2982		25.390625
2983		29.296875
2984		27.343750
2985		35.156250
2986		33.203125
2987		39.062500
2988		37.109375
2989		42.968750
2990		41.015625
2991		46.875000
2992		44.921875
2993		50.781250
2994		48.828125
2995		54.687500
2996		52.734375
2997		58.593750
2998		56.640625
2999		60.546875
3000		58.593750
3001		64.453125
3002		62.500000
3003		68.359375
3004		64.453125
3005		70.312500
3006		68.359375
3007		74.218750
3008		72.265625
3009		76.171875
3010		74.218750
3011		78.125000
3012		78.125000
3013		82.031250
3014		80.078125
3015		83.984375
3016		82.031250
3017		85.937500
3018		83.984375
3019		87.890625
3020		85.937500
3021		89.843750
3022		87.890625
3023		91.796875
3024		87.890625
3025		91.796875
3026		89.843750
3027		93.750000
3028		91.796875
3029		95.703125
3030		91.796875
3031		95.703125
3032		93.750000
3033		95.703125
3034		93.750000
3035		97.656250
3036		93.750000
3037		97.656250
3038		93.750000
3039		97.656250
3040		93.750000
3041		97.656250
3042		93.750000
3043		95.703125
3044		93.750000
3045		95.703125
3046		91.796875
3047		95.703125
3048		91.796875
3049		95.703125
3050		89.843750
3051		93.750000
3052		89.843750
3053		91.796875
3054		87.890625
3055		91.796875
3056		85.937500
3057		89.843750
3058		83.984375
3059		89.843750
3060		82.031250
3061		85.937500
3062		80.078125
3063		83.984375
3064		78.125000
3065		82.031250
3066		76.171875
3067		80.078125
3068		72.265625
3069		78.125000
3070		70.312500
3071		74.218750
3072		66.406250
3073		72.265625
3074		64.453125
3075		68.359375
3076		60.546875
3077		66.406250
3078		56.640625
3079		62.500000
3080		52.734375
3081		58.593750
3082		48.828125
3083		54.687500
3084		46.875000
3085		50.781250
3086		42.968750
3087		46.875000
3088		37.109375
3089		42.968750
3090		33.203125
3091		39.062500
3092		29.296875
3093		35.156250
3094		25.390625
3095		31.250000
3096		19.531250
3097		27.343750
3098		15.625000
3099		21.484375
3100		11.718750
3101		17.578125
3102		7.812500
3103		13.671875
3104		1.953125
3105		9.765625
3106		-1.953125
3107		3.906250
3108		-5.859375
3109		0.000000
3110		-9.765625
3111		-3.906250
3112		-15.625000
3113		-9.765625
3114		-19.531250
3115		-13.671875
3116		-23.437500
3117		-17.578125
3118		-27.343750
3119		-23.437500
3120		-33.203125
3121		-27.343750
3122		-37.109375
3123		-31.250000
3124		-41.015625
3125		-33.203125
3126		-44.921875
3127		-39.062500
3128		-48.828125
3129		-42.968750
3130		-52.734375
3131		-44.921875
3132		-56.640625
3133		-50.781250
3134		-58.593750
3135		-52.734375
3136		-62.500000
3137		-56.640625
3138		-64.453125
3139		-60.546875
3140		-68.359375
3141		-62.500000
3142		-70.312500
3143		-66.406250
3144		-72.265625
3145		-68.359375
3146		-74.218750
3147		-70.312500
3148		-76.171875
3149		-72.265625
3150		-78.125000
3151		-74.218750
3152		-82.031250
3153		-76.171875
3154		-82.031250
3155		-78.125000
3156		-83.984375
3157		-78.125000
3158		-83.984375
3159		-80.078125
3160		-83.984375
3161		-82.031250
3162		-83.984375
3163		-82.031250
3164		-85.937500
3165		-82.031250
3166		-85.937500
3167		-82.031250
3168		-85.937500
3169		-82.031250
3170		-83.984375
3171		-80.078125
3172		-83.984375
3173		-80.078125
3174		-82.031250
3175		-78.125000
3176		-82.031250
3177		-78.125000
3178		-80.078125
3179		-76.171875
3180		-80.078125
3181		-74.218750
3182		-76.171875
3183		-72.265625
3184		-74.218750
3185		-70.312500
3186		-72.265625
3187		-68.359375
3188		-70.312500
3189		-66.406250
3190		-68.359375
3191		-62.500000
3192		-64.453125
3193		-60.546875
3194		-62.500000
3195		-56.640625
3196		-58.593750
3197		-52.734375
3198		-56.640625
3199		-50.781250
3200		-50.781250
3201		-46.875000
3202		-48.828125
3203		-42.968750
3204		-44.921875
3205		-39.062500
3206		-41.015625
3207		-35.156250
3208		-37.109375
3209		-31.250000
3210		-31.250000
3211		-25.390625
3212		-27.343750
3213		-21.484375
3214		-23.437500
3215		-17.578125
3216		-19.531250
3217		-13.671875
3218		-15.625000
3219		-9.765625
3220		-9.765625
3221		-3.906250
3222		-5.859375
3223		0.000000
3224		-1.953125
3225		5.859375
3226		1.953125
3227		9.765625
3228		7.812500
3229		13.671875
3230		11.718750
3231		17.578125
3232		15.625000
3233		21.484375
3234		19.531250
3235		27.343750
3236		25.390625
3237		31.250000
3238		29.296875
3239		35.156250
3240		33.203125
3241		39.062500
3242		37.109375
3243		42.968750
3244		41.015625
3245		46.875000
3246		44.921875
3247		52.734375
3248		48.828125
3249		54.687500
3250		52.734375
3251		58.593750
3252		56.640625
3253		60.546875
3254		60.546875
3255		64.453125
3256		62.500000
3257		68.359375
3258		66.406250
3259		72.265625
3260		68.359375
3261		74.218750
3262		72.265625
3263		76.171875
3264		74.218750
3265		80.078125
3266		78.125000
3267		82.031250
3268		80.078125
3269		85.937500
3270		82.031250
3271		85.937500
3272		83.984375
3273		87.890625
3274		85.937500
3275		89.843750
3276		87.890625
3277		89.843750
3278		89.843750
3279		91.796875
3280		89.843750
3281		93.750000
3282		91.796875
3283		93.750000
3284		91.796875
3285		95.703125
3286		93.750000
3287		95.703125
3288		93.750000
3289		95.703125
3290		93.750000
3291		97.656250
3292		93.750000
3293		97.656250
3294		93.750000
3295		95.703125
3296		93.750000
3297		95.703125
3298		93.750000
3299		95.703125
3300		91.796875
3301		95.703125
3302		89.843750
3303		93.750000
3304		89.843750
3305		93.750000
3306		89.843750
3307		91.796875
3308		87.890625
3309		91.796875
3310		85.937500
3311		91.796875
3312		83.984375
3313		87.890625
3314		82.031250
3315		85.937500
3316		80.078125
3317		83.984375
3318		78.125000
3319		82.031250
3320		74.218750
3321		80.078125
3322		72.265625
3323		76.171875
3324		68.359375
3325		74.218750
3326		66.406250
3327		70.312500
3328		62.500000
3329		68.359375
3330		58.593750
3331		64.453125
3332		56.640625
3333		62.500000
3334		52.734375
3335		58.593750
3336		48.828125
3337		54.687500
3338		44.921875
3339		50.781250
3340		41.015625
3341		46.875000
3342		35.156250
3343		42.968750
3344		33.203125
3345		39.062500
3346		27.343750
3347		33.203125
3348		23.437500
3349		29.296875
3350		19.531250
3351		25.390625
3352		15.625000
3353		21.484375
3354		9.765625
3355		17.578125
3356		5.859375
3357		11.718750
3358		1.953125
3359		7.812500
3360		-3.906250
3361		1.953125
3362		-7.812500
3363		-1.953125
3364		-13.671875
3365		-5.859375
3366		-17.578125
3367		-9.765625
3368		-21.484375
3369		-15.625000
3370		-25.390625
3371		-19.531250
3372		-29.296875
3373		-23.437500
3374		-33.203125
3375		-27.343750
3376		-37.109375
3377		-33.203125
3378		-41.015625
3379		-37.109375
3380		-44.921875
3381		-41.015625
3382		-48.828125
3383		-44.921875
3384		-52.734375
3385		-46.875000
3386		-56.640625
3387		-50.781250
3388		-60.546875
3389		-54.687500
3390		-62.500000
3391		-58.593750
3392		-66.406250
3393		-60.546875
3394		-68.359375
3395		-64.453125
3396		-72.265625
3397		-66.406250
3398		-74.218750
3399		-70.312500
3400		-76.171875
3401		-72.265625
3402		-78.125000
3403		-74.218750
3404		-80.078125
3405		-74.218750
3406		-82.031250
3407		-76.171875
3408		-82.031250
3409		-80.078125
3410		-83.984375
3411		-80.078125
3412		-83.984375
3413		-82.031250
3414		-83.984375
3415		-82.031250
3416		-85.937500
3417		-82.031250
3418		-85.937500
3419		-82.031250
3420		-85.937500
3421		-82.031250
3422		-85.937500
3423		-82.031250
3424		-83.984375
3425		-82.031250
3426		-83.984375
3427		-80.078125
3428		-83.984375
3429		-80.078125
3430		-82.031250
3431		-78.125000
3432		-80.078125
3433		-76.171875
3434		-78.125000
3435		-74.218750
3436		-76.171875
3437		-72.265625
3438		-74.218750
3439		-70.312500
3440		-72.265625
3441		-68.359375
3442		-70.312500
3443		-64.453125
3444		-66.406250
3445		-62.500000
3446		-64.453125
3447		-58.593750
3448		-60.546875
3449		-56.640625
3450		-58.593750
3451		-52.734375
3452		-54.687500
3453		-48.828125
3454		-50.781250
3455		-44.921875
3456		-46.875000
3457		-41.015625
3458		-44.921875
3459		-37.109375
3460		-39.062500
3461		-33.203125
3462		-35.156250
3463		-29.296875
3464		-31.250000
3465		-25.390625
3466		-27.343750
3467		-21.484375
3468		-23.437500
3469		-17.578125
3470		-19.531250
3471		-11.718750
3472		-13.671875
3473		-7.812500
3474		-9.765625
3475		-3.906250
3476		-3.906250
3477		1.953125
3478		-1.953125
3479		5.859375
3480		3.906250
3481		9.765625
3482		7.812500
3483		15.625000
3484		13.671875
3485		19.531250
3486		17.578125
3487		23.437500
3488		21.484375
3489		27.343750
3490		25.390625
3491		33.203125
3492		31.250000
3493		37.109375
3494		35.156250
3495		41.015625
3496		39.062500
3497		44.921875
3498		42.968750
3499		48.828125
3500		46.875000
3501		52.734375
3502		50.781250
3503		56.640625
3504		54.687500
3505		58.593750
3506		56.640625
3507		62.500000
3508		60.546875
3509		66.406250
3510		64.453125
3511		68.359375
3512		66.406250
3513		72.265625
3514		70.312500
3515		74.218750
3516		72.265625
3517		76.171875
3518		76.171875
3519		80.078125
3520		78.125000
3521		82.031250
3522		80.078125
3523		83.984375
3524		82.031250
3525		85.937500
3526		83.984375
3527		87.890625
3528		85.937500
3529		89.843750
3530		87.890625
3531		91.796875
3532		89.843750
3533		93.750000
3534		89.843750
3535		93.750000
3536		91.796875
3537		93.750000
3538		91.796875
3539		95.703125
3540		93.750000
3541		95.703125
3542		93.750000
3543		95.703125
3544		93.750000
3545		97.656250
3546		93.750000
3547		95.703125
3548		93.750000
3549		95.703125
3550		91.796875
3551		95.703125
3552		91.796875
3553		95.703125
3554		91.796875
3555		95.703125
3556		89.843750
3557		93.750000
3558		87.890625
3559		93.750000
3560		87.890625
3561		91.796875
3562		85.937500
3563		89.843750
3564		83.984375
3565		87.890625
3566		82.031250
3567		85.937500
3568		80.078125
3569		83.984375
3570		78.125000
3571		82.031250
3572		76.171875
3573		80.078125
3574		74.218750
3575		80.078125
3576		70.312500
3577		76.171875
3578		68.359375
3579		72.265625
3580		64.453125
3581		68.359375
3582		60.546875
3583		66.406250
3584		58.593750
3585		64.453125
3586		54.687500
3587		60.546875
3588		50.781250
3589		56.640625
3590		46.875000
3591		52.734375
3592		42.968750
3593		48.828125
3594		39.062500
3595		44.921875
3596		35.156250
3597		41.015625
3598		31.250000
3599		37.109375
3600		27.343750
3601		33.203125
3602		21.484375
3603		27.343750
3604		17.578125
3605		23.437500
3606		13.671875
3607		19.531250
3608		7.812500
3609		15.625000
3610		3.906250
3611		9.765625
3612		0.000000
3613		5.859375
3614		-5.859375
3615		1.953125
3616		-9.765625
3617		-3.906250
3618		-13.671875
3619		-7.812500
3620		-17.578125
3621		-11.718750
3622		-21.484375
3623		-15.625000
3624		-27.343750
3625		-21.484375
3626		-31.250000
3627		-25.390625
3628		-35.156250
3629		-29.296875
3630		-39.062500
3631		-33.203125
3632		-42.968750
3633		-37.109375
3634		-48.828125
3635		-41.015625
3636		-50.781250
3637		-44.921875
3638		-54.687500
3639		-48.828125
3640		-58.593750
3641		-52.734375
3642		-60.546875
3643		-56.640625
3644		-64.453125
3645		-58.593750
3646		-66.406250
3647		-62.500000
3648		-70.312500
3649		-66.406250
3650		-72.265625
3651		-68.359375
3652		-74.218750
3653		-70.312500
3654		-78.125000
3655		-72.265625
3656		-78.125000
3657		-74.218750
3658		-80.078125
3659		-76.171875
3660		-82.031250
3661		-78.125000
3662		-83.984375
3663		-78.125000
3664		-83.984375
3665		-82.031250
3666		-83.984375
3667		-82.031250
3668		-85.937500
3669		-82.031250
3670		-85.937500
3671		-83.984375
3672		-85.937500
3673		-82.031250
3674		-85.937500
3675		-82.031250
3676		-85.937500
3677		-82.031250
3678		-85.937500
3679		-82.031250
3680		-83.984375
3681		-80.078125
3682		-83.984375
3683		-80.078125
3684		-82.031250
3685		-78.125000
3686		-80.078125
3687		-76.171875
3688		-78.125000
3689		-74.218750
3690		-76.171875
3691		-72.265625
3692		-74.218750
3693		-70.312500
3694		-72.265625
3695		-68.359375
3696		-70.312500
3697		-64.453125
3698		-66.406250
3699		-62.500000
3700		-64.453125
3701		-58.593750
3702		-60.546875
3703		-54.687500
3704		-58.593750
3705		-52.734375
3706		-54.687500
3707		-48.828125
3708		-50.781250
3709		-44.921875
3710		-46.875000
3711		-41.015625
3712		-42.968750
3713		-37.109375
3714		-39.062500
3715		-33.203125
3716		-35.156250
3717		-29.296875
3718		-31.250000
3719		-23.437500
3720		-25.390625
3721		-19.531250
3722		-21.484375
3723		-15.625000
3724		-17.578125
3725		-11.718750
3726		-13.671875
3727		-7.812500
3728		-7.812500
3729		-1.953125
3730		-3.906250
3731		1.953125
3732		0.000000
3733		5.859375
3734		3.906250
3735		11.718750
3736		9.765625
3737		15.625000
3738		13.671875
3739		19.531250
3740		17.578125
3741		23.437500
3742		21.484375
3743		29.296875
3744		27.343750
3745		33.203125
3746		31.250000
3747		37.109375
3748		35.156250
3749		41.015625
3750		39.062500
3751		44.921875
3752		42.968750
3753		48.828125
3754		46.875000
3755		52.734375
3756		50.781250
3757		56.640625
3758		54.687500
3759		60.546875
3760		58.593750
3761		62.500000
3762		60.546875
3763		66.406250
3764		62.500000
3765		68.359375
3766		68.359375
3767		72.265625
3768		70.312500
3769		74.218750
3770		74.218750
3771		78.125000
3772		76.171875
3773		80.078125
3774		78.125000
3775		82.031250
3776		80.078125
3777		83.984375
3778		82.031250
3779		87.890625
3780		83.984375
3781		87.890625
3782		85.937500
3783		89.843750
3784		87.890625
3785		91.796875
3786		89.843750
3787		91.796875
3788		89.843750
3789		93.750000
3790		89.843750
3791		93.750000
3792		91.796875
3793		95.703125
3794		91.796875
3795		95.703125
3796		91.796875
3797		95.703125
3798		93.750000
3799		95.703125
3800		93.750000
3801		95.703125
3802		91.796875
3803		95.703125
3804		91.796875
3805		95.703125
3806		91.796875
3807		95.703125
3808		91.796875
3809		93.750000
3810		89.843750
3811		93.750000
3812		87.890625
3813		91.796875
3814		87.890625
3815		91.796875
3816		85.937500
3817		89.843750
3818		83.984375
3819		87.890625
3820		82.031250
3821		85.937500
3822		80.078125
3823		83.984375
3824		78.125000
3825		82.031250
3826		74.218750
3827		80.078125
3828		72.265625
3829		76.171875
3830		68.359375
3831		74.218750
3832		66.406250
3833		72.265625
3834		62.500000
3835		68.359375
3836		60.546875
3837		64.453125
3838		56.640625
3839		62.500000
3840		52.734375
3841		58.593750
3842		48.828125
3843		54.687500
3844		44.921875
3845		50.781250
3846		41.015625
3847		46.875000
3848		37.109375
3849		42.968750
3850		33.203125
3851		39.062500
3852		29.296875
3853		35.156250
3854		25.390625
3855		31.250000
3856		21.484375
3857		27.343750
3858		15.625000
3859		21.484375
3860		11.718750
3861		17.578125
3862		5.859375
3863		13.671875
3864		1.953125
3865		7.812500
3866		-1.953125
3867		3.906250
3868		-7.812500
3869		0.000000
3870		-11.718750
3871		-3.906250
3872		-15.625000
3873		-7.812500
3874		-19.531250
3875		-13.671875
3876		-23.437500
3877		-17.578125
3878		-29.296875
3879		-23.437500
3880		-33.203125
3881		-27.343750
3882		-37.109375
3883		-31.250000
3884		-41.015625
3885		-35.156250
3886		-44.921875
3887		-39.062500
3888		-48.828125
3889		-42.968750
3890		-52.734375
3891		-46.875000
3892		-56.640625
3893		-50.781250
3894		-58.593750
3895		-54.687500
3896		-62.500000
3897		-56.640625
3898		-66.406250
3899		-60.546875
3900		-68.359375
3901		-64.453125
3902		-70.312500
3903		-66.406250
3904		-74.218750
3905		-68.359375
3906		-76.171875
3907		-72.265625
3908		-78.125000
3909		-74.218750
3910		-80.078125
3911		-76.171875
3912		-82.031250
3913		-78.125000
3914		-83.984375
3915		-80.078125
3916		-83.984375
3917		-80.078125
3918		-83.984375
3919		-82.031250
3920		-85.937500
3921		-82.031250
3922		-85.937500
3923		-82.031250
3924		-85.937500
3925		-83.984375
3926		-85.937500
3927		-83.984375
3928		-85.937500
3929		-83.984375
3930		-85.937500
3931		-82.031250
3932		-85.937500
3933		-82.031250
3934		-83.984375
3935		-82.031250
3936		-83.984375
3937		-80.078125
3938		-82.031250
3939		-78.125000
3940		-80.078125
3941		-76.171875
3942		-78.125000
3943		-74.218750
3944		-76.171875
3945		-72.265625
3946		-74.218750
3947		-70.312500
3948		-72.265625
3949		-68.359375
3950		-70.312500
3951		-64.453125
3952		-66.406250
3953		-62.500000
3954		-64.453125
3955		-58.593750
3956		-60.546875
3957		-54.687500
3958		-56.640625
3959		-52.734375
3960		-52.734375
3961		-48.828125
3962		-48.828125
3963		-44.921875
3964		-46.875000
3965		-39.062500
3966		-42.968750
3967		-35.156250
3968		-37.109375
3969		-33.203125
3970		-33.203125
3971		-29.296875
3972		-31.250000
3973		-23.437500
3974		-25.390625
3975		-19.531250
3976		-21.484375
3977		-13.671875
3978		-17.578125
3979		-9.765625
3980		-11.718750
3981		-5.859375
3982		-7.812500
3983		-1.953125
3984		-3.906250
3985		1.953125
3986		1.953125
3987		7.812500
3988		5.859375
3989		11.718750
3990		9.765625
3991		15.625000
3992		13.671875
3993		21.484375
3994		19.531250
3995		25.390625
3996		23.437500
3997		29.296875
3998		27.343750
3999		33.203125
4000		31.250000
4001		37.109375
4002		35.156250
4003		41.015625
4004		39.062500
4005		44.921875
4006		44.921875
4007		48.828125
4008		48.828125
4009		52.734375
4010		50.781250
4011		56.640625
4012		54.687500
4013		60.546875
4014		58.593750
4015		64.453125
4016		62.500000
4017		66.406250
4018		64.453125
4019		70.312500
4020		68.359375
4021		72.265625
4022		70.312500
4023		76.171875
4024		72.265625
4025		78.125000
4026		76.171875
4027		80.078125
4028		78.125000
4029		83.984375
4030		80.078125
4031		85.937500
4032		83.984375
4033		85.937500
4034		83.984375
4035		87.890625
4036		85.937500
4037		89.843750
4038		87.890625
4039		91.796875
4040		89.843750
4041		93.750000
4042		89.843750
4043		93.750000
4044		89.843750
4045		93.750000
4046		91.796875
4047		95.703125
4048		91.796875
4049		95.703125
4050		91.796875
4051		95.703125
4052		91.796875
4053		95.703125
4054		91.796875
4055		95.703125
4056		91.796875
4057		95.703125
4058		91.796875
4059		95.703125
4060		91.796875
4061		93.750000
4062		91.796875
4063		93.750000
4064		89.843750
4065		93.750000
4066		87.890625
4067		91.796875
4068		87.890625
4069		89.843750
4070		83.984375
4071		87.890625
4072		83.984375
4073		87.890625
4074		82.031250
4075		85.937500
4076		80.078125
4077		83.984375
4078		76.171875
4079		80.078125
4080		74.218750
4081		80.078125
4082		72.265625
4083		76.171875
4084		68.359375
4085		74.218750
4086		64.453125
4087		70.312500
4088		62.500000
4089		68.359375
4090		58.593750
4091		64.453125
4092		54.687500
4093		60.546875
4094		52.734375
4095		56.640625
4096		48.828125
4097		54.687500
4098		42.968750
4099		50.781250
4100		41.015625
4101		46.875000
4102		37.109375
4103		42.968750
4104		31.250000
4105		37.109375
4106		27.343750
4107		33.203125
4108		23.437500
4109		29.296875
4110		19.531250
4111		25.390625
4112		13.671875
4113		21.484375
4114		9.765625
4115		15.625000
4116		5.859375
4117		11.718750
4118		1.953125
4119		7.812500
4120		-3.906250
4121		1.953125
4122		-7.812500
4123		-1.953125
4124		-11.718750
4125		-5.859375
4126		-15.625000
4127		-11.718750
4128		-21.484375
4129		-15.625000
4130		-25.390625
4131		-19.531250
4132		-29.296875
4133		-23.437500
4134		-35.156250
4135		-27.343750
4136		-39.062500
4137		-31.250000
4138		-42.968750
4139		-37.109375
4140		-46.875000
4141		-41.015625
4142		-48.828125
4143		-44.921875
4144		-54.687500
4145		-46.875000
4146		-56.640625
4147		-52.734375
4148		-60.546875
4149		-54.687500
4150		-62.500000
4151		-58.593750
4152		-66.406250
4153		-62.500000
4154		-70.312500
4155		-64.453125
4156		-72.265625
4157		-68.359375
4158		-74.218750
4159		-70.312500
4160		-76.171875
4161		-72.265625
4162		-78.125000
4163		-74.218750
4164		-80.078125
4165		-76.171875
4166		-82.031250
4167		-78.125000
4168		-83.984375
4169		-80.078125
4170		-83.984375
4171		-82.031250
4172		-85.937500
4173		-82.031250
4174		-85.937500
4175		-82.031250
4176		-85.937500
4177		-82.031250
4178		-85.937500
4179		-83.984375
4180		-85.937500
4181		-83.984375
4182		-85.937500
4183		-83.984375
4184		-85.937500
4185		-82.031250
4186		-83.984375
4187		-82.031250
4188		-83.984375
4189		-80.078125
4190		-83.984375
4191		-78.125000
4192		-82.031250
4193		-78.125000
4194		-80.078125
4195		-76.171875
4196		-78.125000
4197		-74.218750
4198		-76.171875
4199		-72.265625
4200		-74.218750
4201		-68.359375
4202		-70.312500
4203		-66.406250
4204		-68.359375
4205		-64.453125
4206		-66.406250
4207		-60.546875
4208		-62.500000
4209		-56.640625
4210		-58.593750
4211		-54.687500
4212		-56.640625
4213		-50.781250
4214		-52.734375
4215		-46.875000
4216		-48.828125
4217		-42.968750
4218		-46.875000
4219		-39.062500
4220		-41.015625
4221		-35.156250
4222		-37.109375
4223		-31.250000
4224		-33.203125
4225		-27.343750
4226		-29.296875
4227		-23.437500
4228		-25.390625
4229		-17.578125
4230		-19.531250
4231		-13.671875
4232		-15.625000
4233		-9.765625
4234		-11.718750
4235		-5.859375
4236		-5.859375
4237		0.000000
4238		-1.953125
4239		3.906250
4240		1.953125
4241		7.812500
4242		7.812500
4243		11.718750
4244		11.718750
4245		17.578125
4246		15.625000
4247		21.484375
4248		19.531250
4249		25.390625
4250		23.437500
4251		31.250000
4252		29.296875
4253		35.156250
4254		33.203125
4255		39.062500
4256		37.109375
4257		42.968750
4258		41.015625
4259		46.875000
4260		44.921875
4261		50.781250
4262		48.828125
4263		54.687500
4264		52.734375
4265		58.593750
4266		54.687500
4267		60.546875
4268		58.593750
4269		64.453125
4270		62.500000
4271		68.359375
4272		66.406250
4273		70.312500
4274		68.359375
4275		74.218750
4276		70.312500
4277		76.171875
4278		74.218750
4279		78.125000
4280		76.171875
4281		80.078125
4282		78.125000
4283		83.984375
4284		80.078125
4285		85.937500
4286		83.984375
4287		87.890625
4288		85.937500
4289		87.890625
4290		85.937500
4291		89.843750
4292		87.890625
4293		91.796875
4294		89.843750
4295		93.750000
4296		89.843750
4297		95.703125
4298		89.843750
4299		95.703125
4300		91.796875
4301		95.703125
4302		91.796875
4303		95.703125
4304		93.750000
4305		95.703125
4306		91.796875
4307		97.656250
4308		91.796875
4309		95.703125
4310		91.796875
4311		95.703125
4312		91.796875
4313		95.703125
4314		89.843750
4315		95.703125
4316		89.843750
4317		93.750000
4318		87.890625
4319		93.750000
4320		87.890625
4321		91.796875
4322		85.937500
4323		89.843750
4324		83.984375
4325		87.890625
4326		82.031250
4327		87.890625
4328		80.078125
4329		85.937500
4330		78.125000
4331		83.984375
4332		74.218750
4333		82.031250
4334		72.265625
4335		78.125000
4336		70.312500
4337		74.218750
4338		68.359375
4339		72.265625
4340		64.453125
4341		70.312500
4342		60.546875
4343		66.406250
4344		56.640625
4345		64.453125
4346		52.734375
4347		60.546875
4348		48.828125
4349		56.640625
4350		46.875000
4351		52.734375
4352		42.968750
4353		48.828125
4354		39.062500
4355		44.921875
4356		33.203125
4357		41.015625
4358		29.296875
4359		37.109375
4360		25.390625
4361		33.203125
4362		21.484375
4363		29.296875
4364		17.578125
4365		23.437500
4366		11.718750
4367		19.531250
4368		7.812500
4369		15.625000
4370		3.906250
4371		9.765625
4372		0.000000
4373		5.859375
4374		-5.859375
4375		1.953125
4376		-9.765625
4377		-3.906250
4378		-13.671875
4379		-7.812500
4380		-17.578125
4381		-11.718750
4382		-23.437500
4383		-17.578125
4384		-27.343750
4385		-21.484375
4386		-31.250000
4387		-25.390625
4388		-35.156250
4389		-29.296875
4390		-39.062500
4391		-33.203125
4392		-42.968750
4393		-39.062500
4394		-46.875000
4395		-42.968750
4396		-50.781250
4397		-44.921875
4398		-54.687500
4399		-48.828125
4400		-58.593750
4401		-52.734375
4402		-62.500000
4403		-56.640625
4404		-64.453125
4405		-60.546875
4406		-68.359375
4407		-62.500000
4408		-70.312500
4409		-66.406250
4410		-72.265625
4411		-68.359375
4412		-74.218750
4413		-70.312500
4414		-78.125000
4415		-74.218750
4416		-80.078125
4417		-76.171875
4418		-80.078125
4419		-76.171875
4420		-82.031250
4421		-78.125000
4422		-83.984375
4423		-80.078125
4424		-83.984375
4425		-82.031250
4426		-85.937500
4427		-82.031250
4428		-85.937500
4429		-83.984375
4430		-85.937500
4431		-83.984375
4432		-85.937500
4433		-83.984375
4434		-85.937500
4435		-83.984375
4436		-85.937500
4437		-83.984375
4438		-85.937500
4439		-82.031250
4440		-83.984375
4441		-82.031250
4442		-83.984375
4443		-80.078125
4444		-82.031250
4445		-80.078125
4446		-82.031250
4447		-78.125000
4448		-78.125000
4449		-76.171875
4450		-78.125000
4451		-74.218750
4452		-76.171875
4453		-72.265625
4454		-72.265625
4455		-68.359375
4456		-70.312500
4457		-66.406250
4458		-68.359375
4459		-64.453125
4460		-64.453125
4461		-60.546875
4462		-62.500000
4463		-56.640625
4464		-58.593750
4465		-52.734375
4466		-54.687500
4467		-50.781250
4468		-50.781250
4469		-46.875000
4470		-46.875000
4471		-42.968750
4472		-44.921875
4473		-39.062500
4474		-41.015625
4475		-31.250000
4476		-37.109375
4477		-27.343750
4478		-35.156250
4479		-23.437500
4480		-27.343750
4481		-21.484375
4482		-23.437500
4483		-17.578125
4484		-19.531250
4485		-13.671875
4486		-13.671875
4487		-9.765625
4488		-9.765625
4489		-3.906250
4490		-5.859375
4491		0.000000
4492		-3.906250
4493		7.812500
4494		1.953125
4495		11.718750
4496		5.859375
4497		13.671875
4498		11.718750
4499		17.578125
4500		17.578125
4501		23.437500
4502		21.484375
4503		27.343750
4504		25.390625
4505		31.250000
4506		29.296875
4507		35.156250
4508		31.250000
4509		41.015625
4510		37.109375
4511		46.875000
4512		41.015625
4513		50.781250
4514		46.875000
4515		50.781250
4516		48.828125
4517		54.687500
4518		52.734375
4519		58.593750
4520		56.640625
4521		62.500000
4522		60.546875
4523		64.453125
4524		62.500000
4525		72.265625
4526		62.500000
4527		74.218750
4528		66.406250
4529		76.171875
4530		70.312500
4531		78.125000
4532		74.218750
4533		80.078125
4534		78.125000
4535		82.031250
4536		80.078125
4537		83.984375
4538		82.031250
4539		85.937500
4540		83.984375
4541		87.890625
4542		83.984375
4543		91.796875
4544		83.984375
4545		93.750000
4546		83.984375
4547		95.703125
4548		89.843750
4549		91.796875
4550		91.796875
4551		93.750000
4552		91.796875
4553		93.750000
4554		91.796875
4555		95.703125
4556		93.750000
4557		95.703125
4558		89.843750
4559		99.609375
4560		89.843750
4561		99.609375
4562		89.843750
4563		99.609375
4564		89.843750
4565		97.656250
4566		91.796875
4567		93.750000
4568		89.843750
4569		93.750000
4570		89.843750
4571		93.750000
4572		87.890625
4573		91.796875
4574		87.890625
4575		89.843750
4576		82.031250
4577		91.796875
4578		82.031250
4579		89.843750
4580		80.078125
4581		89.843750
4582		80.078125
4583		83.984375
4584		78.125000
4585		82.031250
4586		74.218750
4587		78.125000
4588		72.265625
4589		76.171875
4590		70.312500
4591		74.218750
4592		62.500000
4593		74.218750
4594		60.546875
4595		70.312500
4596		56.640625
4597		66.406250
4598		56.640625
4599		60.546875
4600		52.734375
4601		58.593750
4602		48.828125
4603		54.687500
4604		44.921875
4605		50.781250
4606		41.015625
4607		46.875000
4608		33.203125
4609		42.968750
4610		29.296875
4611		42.968750
4612		25.390625
4613		37.109375
4614		23.437500
4615		33.203125
4616		21.484375
4617		27.343750
4618		15.625000
4619		21.484375
4620		11.718750
4621		17.578125
4622		5.859375
4623		13.671875
4624		1.953125
4625		7.812500
4626		-3.906250
4627		5.859375
4628		-9.765625
4629		1.953125
4630		-11.718750
4631		-1.953125
4632		-15.625000
4633		-9.765625
4634		-19.531250
4635		-13.671875
4636		-25.390625
4637		-17.578125
4638		-29.296875
4639		-23.437500
4640		-33.203125
4641		-27.343750
4642		-41.015625
4643		-31.250000
4644		-44.921875
4645		-33.203125
4646		-46.875000
4647		-37.109375
4648		-48.828125
4649		-39.062500
4650		-52.734375
4651		-46.875000
4652		-56.640625
4653		-50.781250
4654		-60.546875
4655		-54.687500
4656		-62.500000
4657		-58.593750
4658		-66.406250
4659		-60.546875
4660		-70.312500
4661		-64.453125
4662		-72.265625
4663		-64.453125
4664		-74.218750
4665		-66.406250
4666		-76.171875
4667		-72.265625
4668		-78.125000
4669		-74.218750
4670		-80.078125
4671		-76.171875
4672		-82.031250
4673		-78.125000
4674		-83.984375
4675		-80.078125
4676		-83.984375
4677		-82.031250
4678		-87.890625
4679		-80.078125
4680		-87.890625
4681		-80.078125
4682		-85.937500
4683		-83.984375
4684		-85.937500
4685		-83.984375
4686		-87.890625
4687		-83.984375
4688		-87.890625
4689		-83.984375
4690		-85.937500
4691		-83.984375
4692		-85.937500
4693		-82.031250
4694		-85.937500
4695		-80.078125
4696		-83.984375
4697		-78.125000
4698		-82.031250
4699		-80.078125
4700		-82.031250
4701		-78.125000
4702		-80.078125
4703		-76.171875
4704		-78.125000
4705		-74.218750
4706		-76.171875
4707		-72.265625
4708		-72.265625
4709		-68.359375
4710		-70.312500
4711		-66.406250
4712		-68.359375
4713		-62.500000
4714		-64.453125
4715		-60.546875
4716		-62.500000
4717		-56.640625
4718		-58.593750
4719		-52.734375
4720		-54.687500
4721		-48.828125
4722		-50.781250
4723		-44.921875
4724		-46.875000
4725		-42.968750
4726		-42.968750
4727		-37.109375
4728		-39.062500
4729		-33.203125
4730		-35.156250
4731		-29.296875
4732		-31.250000
4733		-25.390625
4734		-27.343750
4735		-21.484375
4736		-21.484375
4737		-17.578125
4738		-17.578125
4739		-11.718750
4740		-13.671875
4741		-7.812500
4742		-9.765625
4743		-3.906250
4744		-3.906250
4745		1.953125
4746		0.000000
4747		5.859375
4748		3.906250
4749		9.765625
4750		9.765625
4751		15.625000
4752		13.671875
4753		19.531250
4754		17.578125
4755		23.437500
4756		21.484375
4757		27.343750
4758		27.343750
4759		31.250000
4760		31.250000
4761		37.109375
4762		35.156250
4763		41.015625
4764		39.062500
4765		44.921875
4766		42.968750
4767		48.828125
4768		44.921875
4769		52.734375
4770		50.781250
4771		54.687500
4772		52.734375
4773		58.593750
4774		56.640625
4775		62.500000
4776		60.546875
4777		66.406250
4778		62.500000
4779		70.312500
4780		66.406250
4781		72.265625
4782		70.312500
4783		74.218750
4784		72.265625
4785		78.125000
4786		74.218750
4787		80.078125
4788		78.125000
4789		82.031250
4790		80.078125
4791		83.984375
4792		82.031250
4793		85.937500
4794		82.031250
4795		87.890625
4796		85.937500
4797		87.890625
4798		87.890625
4799		89.843750
4800		87.890625
4801		91.796875
4802		89.843750
4803		91.796875
4804		89.843750
4805		93.750000
4806		91.796875
4807		93.750000
4808		91.796875
4809		93.750000
4810		89.843750
4811		95.703125
4812		91.796875
4813		95.703125
4814		91.796875
4815		95.703125
4816		91.796875
4817		93.750000
4818		91.796875
4819		95.703125
4820		89.843750
4821		93.750000
4822		89.843750
4823		91.796875
4824		89.843750
4825		91.796875
4826		85.937500
4827		91.796875
4828		85.937500
4829		91.796875
4830		83.984375
4831		87.890625
4832		82.031250
4833		85.937500
4834		80.078125
4835		83.984375
4836		78.125000
4837		83.984375
4838		76.171875
4839		80.078125
4840		74.218750
4841		78.125000
4842		70.312500
4843		74.218750
4844		68.359375
4845		74.218750
4846		66.406250
4847		70.312500
4848		62.500000
4849		66.406250
4850		58.593750
4851		62.500000
4852		54.687500
4853		60.546875
4854		50.781250
4855		56.640625
4856		48.828125
4857		52.734375
4858		42.968750
4859		48.828125
4860		39.062500
4861		44.921875
4862		35.156250
4863		41.015625
4864		31.250000
4865		37.109375
4866		27.343750
4867		33.203125
4868		21.484375
4869		29.296875
4870		19.531250
4871		25.390625
4872		13.671875
4873		19.531250
4874		9.765625
4875		15.625000
4876		5.859375
4877		11.718750
4878		1.953125
4879		7.812500
4880		-3.906250
4881		1.953125
4882		-7.812500
4883		-1.953125
4884		-13.671875
4885		-5.859375
4886		-17.578125
4887		-9.765625
4888		-21.484375
4889		-15.625000
4890		-25.390625
4891		-19.531250
4892		-29.296875
4893		-25.390625
4894		-35.156250
4895		-29.296875
4896		-39.062500
4897		-31.250000
4898		-42.968750
4899		-37.109375
4900		-46.875000
4901		-41.015625
4902		-50.781250
4903		-44.921875
4904		-54.687500
4905		-48.828125
4906		-56.640625
4907		-52.734375
4908		-60.546875
4909		-56.640625
4910		-64.453125
4911		-58.593750
4912		-68.359375
4913		-60.546875
4914		-70.312500
4915		-64.453125
4916		-72.265625
4917		-68.359375
4918		-76.171875
4919		-70.312500
4920		-76.171875
4921		-72.265625
4922		-80.078125
4923		-76.171875
4924		-80.078125
4925		-78.125000
4926		-82.031250
4927		-80.078125
4928		-83.984375
4929		-80.078125
4930		-85.937500
4931		-82.031250
4932		-85.937500
4933		-83.984375
4934		-87.890625
4935		-83.984375
4936		-87.890625
4937		-83.984375
4938		-87.890625
4939		-83.984375
4940		-87.890625
4941		-85.937500
4942		-85.937500
4943		-83.984375
4944		-85.937500
4945		-83.984375
4946		-85.937500
4947		-83.984375
4948		-83.984375
4949		-82.031250
4950		-83.984375
4951		-80.078125
4952		-82.031250
4953		-80.078125
4954		-80.078125
4955		-78.125000
4956		-80.078125
4957		-76.171875
4958		-76.171875
4959		-72.265625
4960		-76.171875
4961		-70.312500
4962		-72.265625
4963		-68.359375
4964		-70.312500
4965		-66.406250
4966		-66.406250
4967		-62.500000
4968		-64.453125
4969		-58.593750
4970		-60.546875
4971		-56.640625
4972		-56.640625
4973		-52.734375
4974		-52.734375
4975		-48.828125
4976		-50.781250
4977		-44.921875
4978		-46.875000
4979		-41.015625
4980		-42.968750
4981		-37.109375
4982		-39.062500
4983		-33.203125
4984		-33.203125
4985		-29.296875
4986		-29.296875
4987		-23.437500
4988		-25.390625
4989		-19.531250
4990		-21.484375
4991		-15.625000
4992		-17.578125
4993		-11.718750
4994		-11.718750
4995		-5.859375
4996		-7.812500
4997		-1.953125
4998		-3.906250
4999		1.953125
5000		1.953125
5001		7.812500
5002		5.859375
5003		11.718750
5004		9.765625
5005		15.625000
5006		13.671875
5007		19.531250
5008		17.578125
5009		25.390625
5010		23.437500
5011		29.296875
5012		27.343750
5013		33.203125
5014		31.250000
5015		37.109375
5016		35.156250
5017		41.015625
5018		39.062500
5019		44.921875
5020		44.921875
5021		48.828125
5022		46.875000
5023		52.734375
5024		50.781250
5025		56.640625
5026		54.687500
5027		60.546875
5028		58.593750
5029		62.500000
5030		62.500000
5031		66.406250
5032		64.453125
5033		70.312500
5034		66.406250
5035		72.265625
5036		70.312500
5037		74.218750
5038		74.218750
5039		78.125000
5040		76.171875
5041		80.078125
5042		78.125000
5043		82.031250
5044		80.078125
5045		83.984375
5046		82.031250
5047		85.937500
5048		83.984375
5049		87.890625
5050		85.937500
5051		89.843750
5052		87.890625
5053		89.843750
5054		87.890625
5055		91.796875
5056		89.843750
5057		91.796875
5058		91.796875
5059		93.750000
5060		91.796875
5061		93.750000
5062		91.796875
5063		95.703125
5064		91.796875
5065		95.703125
5066		91.796875
5067		95.703125
5068		91.796875
5069		93.750000
5070		91.796875
5071		93.750000
5072		91.796875
5073		93.750000
5074		89.843750
5075		93.750000
5076		89.843750
5077		91.796875
5078		87.890625
5079		91.796875
5080		87.890625
5081		91.796875
5082		85.937500
5083		89.843750
5084		83.984375
5085		87.890625
5086		82.031250
5087		85.937500
5088		80.078125
5089		83.984375
5090		78.125000
5091		82.031250
5092		76.171875
5093		80.078125
5094		72.265625
5095		76.171875
5096		68.359375
5097		74.218750
5098		66.406250
5099		72.265625
5100		64.453125
5101		68.359375
5102		60.546875
5103		66.406250
5104		56.640625
5105		62.500000
5106		54.687500
5107		58.593750
5108		50.781250
5109		54.687500
5110		46.875000
5111		50.781250
5112		41.015625
5113		46.875000
5114		37.109375
5115		44.921875
5116		35.156250
5117		41.015625
5118		31.250000
5119		35.156250
5120		25.390625
5121		31.250000
5122		21.484375
5123		27.343750
5124		17.578125
5125		23.437500
5126		13.671875
5127		19.531250
5128		7.812500
5129		13.671875
5130		3.906250
5131		9.765625
5132		0.000000
5133		5.859375
5134		-5.859375
5135		0.000000
5136		-9.765625
5137		-3.906250
5138		-13.671875
5139		-7.812500
5140		-19.531250
5141		-11.718750
5142		-23.437500
5143		-17.578125
5144		-27.343750
5145		-21.484375
5146		-33.203125
5147		-25.390625
5148		-37.109375
5149		-29.296875
5150		-39.062500
5151		-35.156250
5152		-44.921875
5153		-39.062500
5154		-48.828125
5155		-42.968750
5156		-52.734375
5157		-46.875000
5158		-54.687500
5159		-50.781250
5160		-58.593750
5161		-54.687500
5162		-62.500000
5163		-56.640625
5164		-66.406250
5165		-58.593750
5166		-68.359375
5167		-62.500000
5168		-70.312500
5169		-66.406250
5170		-74.218750
5171		-70.312500
5172		-76.171875
5173		-72.265625
5174		-78.125000
5175		-74.218750
5176		-80.078125
5177		-76.171875
5178		-82.031250
5179		-78.125000
5180		-85.937500
5181		-80.078125
5182		-85.937500
5183		-80.078125
5184		-85.937500
5185		-82.031250
5186		-85.937500
5187		-83.984375
5188		-87.890625
5189		-83.984375
5190		-87.890625
5191		-85.937500
5192		-87.890625
5193		-85.937500
5194		-87.890625
5195		-85.937500
5196		-89.843750
5197		-83.984375
5198		-87.890625
5199		-83.984375
5200		-87.890625
5201		-83.984375
5202		-85.937500
5203		-82.031250
5204		-83.984375
5205		-80.078125
5206		-82.031250
5207		-80.078125
5208		-80.078125
5209		-78.125000
5210		-80.078125
5211		-76.171875
5212		-76.171875
5213		-74.218750
5214		-76.171875
5215		-70.312500
5216		-74.218750
5217		-68.359375
5218		-70.312500
5219		-64.453125
5220		-66.406250
5221		-62.500000
5222		-64.453125
5223		-58.593750
5224		-60.546875
5225		-54.687500
5226		-56.640625
5227		-52.734375
5228		-52.734375
5229		-48.828125
5230		-48.828125
5231		-42.968750
5232		-46.875000
5233		-39.062500
5234		-42.968750
5235		-37.109375
5236		-39.062500
5237		-33.203125
5238		-33.203125
5239		-27.343750
5240		-29.296875
5241		-23.437500
5242		-25.390625
5243		-19.531250
5244		-21.484375
5245		-15.625000
5246		-15.625000
5247		-9.765625
5248		-13.671875
5249		-5.859375
5250		-7.812500
5251		-1.953125
5252		-1.953125
5253		1.953125
5254		1.953125
5255		7.812500
5256		5.859375
5257		11.718750
5258		11.718750
5259		15.625000
5260		15.625000
5261		21.484375
5262		19.531250
5263		25.390625
5264		23.437500
5265		31.250000
5266		27.343750
5267		35.156250
5268		33.203125
5269		37.109375
5270		37.109375
5271		42.968750
5272		41.015625
5273		44.921875
5274		44.921875
5275		48.828125
5276		48.828125
5277		52.734375
5278		52.734375
5279		56.640625
5280		54.687500
5281		60.546875
5282		56.640625
5283		62.500000
5284		62.500000
5285		66.406250
5286		64.453125
5287		70.312500
5288		68.359375
5289		72.265625
5290		70.312500
5291		74.218750
5292		74.218750
5293		78.125000
5294		76.171875
5295		80.078125
5296		78.125000
5297		82.031250
5298		80.078125
5299		83.984375
5300		82.031250
5301		85.937500
5302		83.984375
5303		87.890625
5304		85.937500
5305		89.843750
5306		87.890625
5307		89.843750
5308		87.890625
5309		91.796875
5310		89.843750
5311		91.796875
5312		89.843750
5313		93.750000
5314		89.843750
5315		95.703125
5316		91.796875
5317		93.750000
5318		91.796875
5319		93.750000
5320		91.796875
5321		93.750000
5322		91.796875
5323		93.750000
5324		91.796875
5325		93.750000
5326		89.843750
5327		93.750000
5328		89.843750
5329		93.750000
5330		89.843750
5331		91.796875
5332		87.890625
5333		91.796875
5334		85.937500
5335		89.843750
5336		83.984375
5337		87.890625
5338		82.031250
5339		85.937500
5340		82.031250
5341		83.984375
5342		78.125000
5343		82.031250
5344		76.171875
5345		80.078125
5346		74.218750
5347		78.125000
5348		72.265625
5349		76.171875
5350		68.359375
5351		74.218750
5352		66.406250
5353		70.312500
5354		60.546875
5355		68.359375
5356		60.546875
5357		64.453125
5358		56.640625
5359		60.546875
5360		52.734375
5361		56.640625
5362		48.828125
5363		54.687500
5364		44.921875
5365		50.781250
5366		41.015625
5367		46.875000
5368		37.109375
5369		42.968750
5370		33.203125
5371		39.062500
5372		29.296875
5373		35.156250
5374		23.437500
5375		29.296875
5376		19.531250
5377		25.390625
5378		15.625000
5379		21.484375
5380		11.718750
5381		17.578125
5382		7.812500
5383		13.671875
5384		1.953125
5385		7.812500
5386		-1.953125
5387		3.906250
5388		-5.859375
5389		-1.953125
5390		-11.718750
5391		-5.859375
5392		-15.625000
5393		-9.765625
5394		-19.531250
5395		-15.625000
5396		-25.390625
5397		-19.531250
5398		-29.296875
5399		-23.437500
5400		-33.203125
5401		-27.343750
5402		-37.109375
5403		-31.250000
5404		-41.015625
5405		-37.109375
5406		-44.921875
5407		-41.015625
5408		-48.828125
5409		-44.921875
5410		-52.734375
5411		-48.828125
5412		-56.640625
5413		-50.781250
5414		-60.546875
5415		-54.687500
5416		-62.500000
5417		-58.593750
5418		-66.406250
5419		-62.500000
5420		-70.312500
5421		-64.453125
5422		-72.265625
5423		-68.359375
5424		-74.218750
5425		-70.312500
5426		-78.125000
5427		-74.218750
5428		-80.078125
5429		-76.171875
5430		-80.078125
5431		-78.125000
5432		-82.031250
5433		-80.078125
5434		-83.984375
5435		-80.078125
5436		-85.937500
5437		-82.031250
5438		-85.937500
5439		-83.984375
5440		-87.890625
5441		-83.984375
5442		-87.890625
5443		-85.937500
5444		-87.890625
5445		-85.937500
5446		-87.890625
5447		-85.937500
5448		-87.890625
5449		-85.937500
5450		-87.890625
5451		-83.984375
5452		-85.937500
5453		-83.984375
5454		-85.937500
5455		-83.984375
5456		-85.937500
5457		-82.031250
5458		-83.984375
5459		-80.078125
5460		-82.031250
5461		-78.125000
5462		-80.078125
5463		-76.171875
5464		-78.125000
5465		-76.171875
5466		-76.171875
5467		-72.265625
5468		-74.218750
5469		-70.312500
5470		-72.265625
5471		-68.359375
5472		-68.359375
5473		-64.453125
5474		-66.406250
5475		-60.546875
5476		-62.500000
5477		-58.593750
5478		-60.546875
5479		-54.687500
5480		-56.640625
5481		-50.781250
5482		-52.734375
5483		-46.875000
5484		-48.828125
5485		-42.968750
5486		-44.921875
5487		-39.062500
5488		-41.015625
5489		-35.156250
5490		-37.109375
5491		-31.250000
5492		-33.203125
5493		-27.343750
5494		-27.343750
5495		-21.484375
5496		-23.437500
5497		-17.578125
5498		-19.531250
5499		-13.671875
5500		-15.625000
5501		-9.765625
5502		-9.765625
5503		-5.859375
5504		-5.859375
5505		0.000000
5506		-1.953125
5507		3.906250
5508		1.953125
5509		7.812500
5510		7.812500
5511		13.671875
5512		11.718750
5513		17.578125
5514		15.625000
5515		21.484375
5516		21.484375
5517		25.390625
5518		25.390625
5519		31.250000
5520		29.296875
5521		35.156250
5522		33.203125
5523		39.062500
5524		37.109375
5525		42.968750
5526		41.015625
5527		46.875000
5528		44.921875
5529		50.781250
5530		48.828125
5531		54.687500
5532		52.734375
5533		56.640625
5534		56.640625
5535		60.546875
5536		58.593750
5537		64.453125
5538		62.500000
5539		66.406250
5540		66.406250
5541		70.312500
5542		68.359375
5543		72.265625
5544		72.265625
5545		76.171875
5546		74.218750
5547		78.125000
5548		76.171875
5549		80.078125
5550		78.125000
5551		82.031250
5552		80.078125
5553		83.984375
5554		82.031250
5555		85.937500
5556		83.984375
5557		87.890625
5558		85.937500
5559		89.843750
5560		87.890625
5561		89.843750
5562		87.890625
5563		91.796875
5564		89.843750
5565		91.796875
5566		89.843750
5567		93.750000
5568		91.796875
5569		93.750000
5570		89.843750
5571		93.750000
5572		91.796875
5573		93.750000
5574		91.796875
5575		93.750000
5576		91.796875
5577		93.750000
5578		91.796875
5579		93.750000
5580		89.843750
5581		93.750000
5582		89.843750
5583		91.796875
5584		87.890625
5585		91.796875
5586		87.890625
5587		89.843750
5588		85.937500
5589		89.843750
5590		83.984375
5591		87.890625
5592		82.031250
5593		85.937500
5594		80.078125
5595		83.984375
5596		78.125000
5597		82.031250
5598		76.171875
5599		80.078125
5600		72.265625
5601		78.125000
5602		70.312500
5603		74.218750
5604		68.359375
5605		72.265625
5606		64.453125
5607		68.359375
5608		60.546875
5609		66.406250
5610		58.593750
5611		62.500000
5612		54.687500
5613		60.546875
5614		50.781250
5615		56.640625
5616		46.875000
5617		52.734375
5618		42.968750
5619		48.828125
5620		39.062500
5621		44.921875
5622		35.156250
5623		41.015625
5624		31.250000
5625		37.109375
5626		27.343750
5627		33.203125
5628		23.437500
5629		29.296875
5630		17.578125
5631		23.437500
5632		13.671875
5633		19.531250
5634		9.765625
5635		15.625000
5636		5.859375
5637		9.765625
5638		0.000000
5639		5.859375
5640		-3.906250
5641		1.953125
5642		-9.765625
5643		-1.953125
5644		-13.671875
5645		-7.812500
5646		-17.578125
5647		-11.718750
5648		-21.484375
5649		-15.625000
5650		-27.343750
5651		-21.484375
5652		-31.250000
5653		-25.390625
5654		-35.156250
5655		-29.296875
5656		-39.062500
5657		-33.203125
5658		-42.968750
5659		-39.062500
5660		-46.875000
5661		-41.015625
5662		-50.781250
5663		-46.875000
5664		-54.687500
5665		-50.781250
5666		-58.593750
5667		-52.734375
5668		-62.500000
5669		-56.640625
5670		-64.453125
5671		-60.546875
5672		-68.359375
5673		-62.500000
5674		-70.312500
5675		-66.406250
5676		-74.218750
5677		-68.359375
5678		-76.171875
5679		-72.265625
5680		-78.125000
5681		-74.218750
5682		-80.078125
5683		-76.171875
5684		-82.031250
5685		-78.125000
5686		-83.984375
5687		-80.078125
5688		-83.984375
5689		-82.031250
5690		-85.937500
5691		-83.984375
5692		-87.890625
5693		-83.984375
5694		-87.890625
5695		-85.937500
5696		-87.890625
5697		-85.937500
5698		-87.890625
5699		-85.937500
5700		-87.890625
5701		-85.937500
5702		-87.890625
5703		-85.937500
5704		-87.890625
5705		-85.937500
5706		-87.890625
5707		-83.984375
5708		-85.937500
5709		-83.984375
5710		-83.984375
5711		-82.031250
5712		-83.984375
5713		-80.078125
5714		-82.031250
5715		-78.125000
5716		-80.078125
5717		-76.171875
5718		-78.125000
5719		-74.218750
5720		-76.171875
5721		-72.265625
5722		-74.218750
5723		-70.312500
5724		-72.265625
5725		-66.406250
5726		-68.359375
5727		-64.453125
5728		-64.453125
5729		-60.546875
5730		-62.500000
5731		-56.640625
5732		-58.593750
5733		-54.687500
5734		-54.687500
5735		-50.781250
5736		-50.781250
5737		-46.875000
5738		-46.875000
5739		-42.968750
5740		-42.968750
5741		-39.062500
5742		-39.062500
5743		-35.156250
5744		-35.156250
5745		-29.296875
5746		-31.250000
5747		-25.390625
5748		-27.343750
5749		-21.484375
5750		-23.437500
5751		-17.578125
5752		-17.578125
5753		-11.718750
5754		-13.671875
5755		-7.812500
5756		-9.765625
5757		-3.906250
5758		-5.859375
5759		0.000000
5760		0.000000
5761		5.859375
5762		3.906250
5763		9.765625
5764		7.812500
5765		13.671875
5766		13.671875
5767		19.531250
5768		17.578125
5769		23.437500
5770		21.484375
5771		27.343750
5772		25.390625
5773		31.250000
5774		31.250000
5775		35.156250
5776		35.156250
5777		39.062500
5778		39.062500
5779		44.921875
5780		42.968750
5781		46.875000
5782		46.875000
5783		50.781250
5784		50.781250
5785		54.687500
5786		54.687500
5787		58.593750
5788		56.640625
5789		62.500000
5790		60.546875
5791		64.453125
5792		64.453125
5793		68.359375
5794		66.406250
5795		70.312500
5796		70.312500
5797		74.218750
5798		72.265625
5799		76.171875
5800		74.218750
5801		78.125000
5802		78.125000
5803		82.031250
5804		80.078125
5805		83.984375
5806		82.031250
5807		83.984375
5808		83.984375
5809		85.937500
5810		85.937500
5811		87.890625
5812		85.937500
5813		89.843750
5814		87.890625
5815		91.796875
5816		89.843750
5817		91.796875
5818		89.843750
5819		91.796875
5820		91.796875
5821		93.750000
5822		91.796875
5823		93.750000
5824		91.796875
5825		93.750000
5826		91.796875
5827		95.703125
5828		91.796875
5829		93.750000
5830		91.796875
5831		93.750000
5832		89.843750
5833		93.750000
5834		89.843750
5835		93.750000
5836		89.843750
5837		91.796875
5838		87.890625
5839		91.796875
5840		87.890625
5841		89.843750
5842		85.937500
5843		87.890625
5844		83.984375
5845		87.890625
5846		82.031250
5847		85.937500
5848		80.078125
5849		83.984375
5850		78.125000
5851		82.031250
5852		74.218750
5853		80.078125
5854		72.265625
5855		76.171875
5856		70.312500
5857		74.218750
5858		66.406250
5859		72.265625
5860		64.453125
5861		68.359375
5862		60.546875
5863		66.406250
5864		56.640625
5865		62.500000
5866		54.687500
5867		58.593750
5868		50.781250
5869		54.687500
5870		46.875000
5871		52.734375
5872		42.968750
5873		48.828125
5874		39.062500
5875		44.921875
5876		35.156250
5877		41.015625
5878		31.250000
5879		35.156250
5880		25.390625
5881		31.250000
5882		21.484375
5883		27.343750
5884		17.578125
5885		23.437500
5886		13.671875
5887		19.531250
5888		7.812500
5889		13.671875
5890		3.906250
5891		9.765625
5892		0.000000
5893		5.859375
5894		-3.906250
5895		0.000000
5896		-9.765625
5897		-3.906250
5898		-13.671875
5899		-7.812500
5900		-17.578125
5901		-13.671875
5902		-23.437500
5903		-17.578125
5904		-27.343750
5905		-21.484375
5906		-31.250000
5907		-25.390625
5908		-35.156250
5909		-29.296875
5910		-39.062500
5911		-35.156250
5912		-44.921875
5913		-39.062500
5914		-48.828125
5915		-42.968750
5916		-52.734375
5917		-46.875000
5918		-54.687500
5919		-50.781250
5920		-58.593750
5921		-52.734375
5922		-62.500000
5923		-56.640625
5924		-64.453125
5925		-60.546875
5926		-68.359375
5927		-64.453125
5928		-70.312500
5929		-66.406250
5930		-74.218750
5931		-70.312500
5932		-76.171875
5933		-72.265625
5934		-78.125000
5935		-74.218750
5936		-80.078125
5937		-76.171875
5938		-82.031250
5939		-78.125000
5940		-83.984375
5941		-80.078125
5942		-85.937500
5943		-82.031250
5944		-85.937500
5945		-82.031250
5946		-85.937500
5947		-83.984375
5948		-87.890625
5949		-83.984375
5950		-87.890625
5951		-85.937500
5952		-87.890625
5953		-85.937500
5954		-87.890625
5955		-85.937500
5956		-87.890625
5957		-83.984375
5958		-85.937500
5959		-83.984375
5960		-85.937500
5961		-83.984375
5962		-85.937500
5963		-82.031250
5964		-83.984375
5965		-82.031250
5966		-82.031250
5967		-80.078125
5968		-80.078125
5969		-78.125000
5970		-80.078125
5971		-76.171875
5972		-78.125000
5973		-74.218750
5974		-74.218750
5975		-70.312500
5976		-72.265625
5977		-68.359375
5978		-70.312500
5979		-64.453125
5980		-66.406250
5981		-62.500000
5982		-64.453125
5983		-58.593750
5984		-60.546875
5985		-56.640625
5986		-56.640625
5987		-52.734375
5988		-54.687500
5989		-48.828125
5990		-48.828125
5991		-44.921875
5992		-44.921875
5993		-41.015625
5994		-41.015625
5995		-37.109375
5996		-37.109375
5997		-33.203125
5998		-33.203125
5999		-27.343750
6000		-29.296875
6001		-23.437500
6002		-25.390625
6003		-19.531250
6004		-21.484375
6005		-15.625000
6006		-17.578125
6007		-11.718750
6008		-11.718750
6009		-5.859375
6010		-7.812500
6011		-1.953125
6012		-3.906250
6013		1.953125
6014		1.953125
6015		7.812500
6016		5.859375
6017		11.718750
6018		9.765625
6019		15.625000
6020		15.625000
6021		19.531250
6022		19.531250
6023		25.390625
6024		23.437500
6025		29.296875
6026		27.343750
6027		33.203125
6028		31.250000
6029		37.109375
6030		35.156250
6031		41.015625
6032		41.015625
6033		44.921875
6034		42.968750
6035		48.828125
6036		48.828125
6037		52.734375
6038		50.781250
6039		56.640625
6040		52.734375
6041		60.546875
6042		58.593750
6043		62.500000
6044		62.500000
6045		66.406250
6046		64.453125
6047		68.359375
6048		68.359375
6049		72.265625
6050		70.312500
6051		74.218750
6052		72.265625
6053		78.125000
6054		76.171875
6055		80.078125
6056		78.125000
6057		82.031250
6058		80.078125
6059		83.984375
6060		82.031250
6061		85.937500
6062		83.984375
6063		87.890625
6064		85.937500
6065		89.843750
6066		87.890625
6067		89.843750
6068		87.890625
6069		91.796875
6070		89.843750
6071		91.796875
6072		89.843750
6073		93.750000
6074		91.796875
6075		93.750000
6076		91.796875
6077		93.750000
6078		91.796875
6079		93.750000
6080		91.796875
6081		93.750000
6082		91.796875
6083		93.750000
6084		91.796875
6085		93.750000
6086		91.796875
6087		93.750000
6088		89.843750
6089		93.750000
6090		89.843750
6091		91.796875
6092		87.890625
6093		91.796875
6094		85.937500
6095		89.843750
6096		85.937500
6097		87.890625
6098		83.984375
6099		85.937500
6100		82.031250
6101		85.937500
6102		80.078125
6103		83.984375
6104		78.125000
6105		82.031250
6106		74.218750
6107		78.125000
6108		72.265625
6109		76.171875
6110		68.359375
6111		74.218750
6112		66.406250
6113		70.312500
6114		64.453125
6115		68.359375
6116		60.546875
6117		66.406250
6118		56.640625
6119		60.546875
6120		52.734375
6121		58.593750
6122		48.828125
6123		54.687500
6124		44.921875
6125		50.781250
6126		41.015625
6127		48.828125
6128		37.109375
6129		42.968750
6130		33.203125
6131		39.062500
6132		29.296875
6133		35.156250
6134		25.390625
6135		31.250000
6136		21.484375
6137		27.343750
6138		15.625000
6139		21.484375
6140		11.718750
6141		17.578125
6142		5.859375
6143		13.671875
6144		3.906250
6145		7.812500
6146		-1.953125
6147		3.906250
6148		-5.859375
6149		0.000000
6150		-9.765625
6151		-3.906250
6152		-15.625000
6153		-9.765625
6154		-19.531250
6155		-11.718750
6156		-23.437500
6157		-17.578125
6158		-29.296875
6159		-23.437500
6160		-31.250000
6161		-27.343750
6162		-39.062500
6163		-29.296875
6164		-41.015625
6165		-35.156250
6166		-46.875000
6167		-39.062500
6168		-48.828125
6169		-42.968750
6170		-52.734375
6171		-46.875000
6172		-56.640625
6173		-50.781250
6174		-58.593750
6175		-52.734375
6176		-62.500000
6177		-56.640625
6178		-66.406250
6179		-60.546875
6180		-70.312500
6181		-64.453125
6182		-70.312500
6183		-66.406250
6184		-76.171875
6185		-68.359375
6186		-76.171875
6187		-72.265625
6188		-78.125000
6189		-74.218750
6190		-82.031250
6191		-76.171875
6192		-83.984375
6193		-76.171875
6194		-83.984375
6195		-80.078125
6196		-85.937500
6197		-82.031250
6198		-87.890625
6199		-80.078125
6200		-89.843750
6201		-82.031250
6202		-87.890625
6203		-83.984375
6204		-87.890625
6205		-85.937500
6206		-89.843750
6207		-83.984375
6208		-89.843750
6209		-82.031250
6210		-87.890625
6211		-82.031250
6212		-85.937500
6213		-83.984375
6214		-87.890625
6215		-80.078125
6216		-83.984375
6217		-82.031250
6218		-85.937500
6219		-78.125000
6220		-82.031250
6221		-78.125000
6222		-80.078125
6223		-76.171875
6224		-80.078125
6225		-72.265625
6226		-76.171875
6227		-72.265625
6228		-74.218750
6229		-70.312500
6230		-72.265625
6231		-66.406250
6232		-72.265625
6233		-62.500000
6234		-68.359375
6235		-60.546875
6236		-62.500000
6237		-58.593750
6238		-58.593750
6239		-54.687500
6240		-56.640625
6241		-50.781250
6242		-56.640625
6243		-44.921875
6244		-48.828125
6245		-42.968750
6246		-44.921875
6247		-39.062500
6248		-42.968750
6249		-33.203125
6250		-37.109375
6251		-27.343750
6252		-35.156250
6253		-27.343750
6254		-27.343750
6255		-23.437500
6256		-23.437500
6257		-17.578125
6258		-21.484375
6259		-11.718750
6260		-15.625000
6261		-9.765625
6262		-11.718750
6263		-3.906250
6264		-5.859375
6265		3.906250
6266		-5.859375
6267		3.906250
6268		0.000000
6269		9.765625
6270		7.812500
6271		13.671875
6272		11.718750
6273		17.578125
6274		15.625000
6275		25.390625
6276		17.578125
6277		27.343750
6278		25.390625
6279		31.250000
6280		29.296875
6281		35.156250
6282		31.250000
6283		41.015625
6284		37.109375
6285		44.921875
6286		41.015625
6287		46.875000
6288		44.921875
6289		50.781250
6290		48.828125
6291		54.687500
6292		50.781250
6293		60.546875
6294		56.640625
6295		60.546875
6296		60.546875
6297		64.453125
6298		62.500000
6299		70.312500
6300		62.500000
6301		72.265625
6302		66.406250
6303		74.218750
6304		72.265625
6305		76.171875
6306		74.218750
6307		80.078125
6308		76.171875
6309		83.984375
6310		78.125000
6311		83.984375
6312		82.031250
6313		83.984375
6314		82.031250
6315		87.890625
6316		82.031250
6317		89.843750
6318		83.984375
6319		91.796875
6320		87.890625
6321		91.796875
6322		89.843750
6323		91.796875
6324		89.843750
6325		93.750000
6326		87.890625
6327		95.703125
6328		89.843750
6329		95.703125
6330		91.796875
6331		93.750000
6332		87.890625
6333		97.656250
6334		89.843750
6335		97.656250
6336		89.843750
6337		95.703125
6338		91.796875
6339		93.750000
6340		89.843750
6341		93.750000
6342		87.890625
6343		95.703125
6344		87.890625
6345		93.750000
6346		87.890625
6347		91.796875
6348		83.984375
6349		91.796875
6350		82.031250
6351		91.796875
6352		82.031250
6353		89.843750
6354		82.031250
6355		83.984375
6356		80.078125
6357		82.031250
6358		76.171875
6359		82.031250
6360		74.218750
6361		82.031250
6362		72.265625
6363		76.171875
6364		68.359375
6365		74.218750
6366		62.500000
6367		72.265625
6368		62.500000
6369		68.359375
6370		58.593750
6371		64.453125
6372		56.640625
6373		60.546875
6374		52.734375
6375		56.640625
6376		46.875000
6377		54.687500
6378		44.921875
6379		50.781250
6380		41.015625
6381		46.875000
6382		35.156250
6383		42.968750
6384		31.250000
6385		41.015625
6386		29.296875
6387		37.109375
6388		23.437500
6389		29.296875
6390		19.531250
6391		25.390625
6392		13.671875
6393		21.484375
6394		9.765625
6395		19.531250
6396		5.859375
6397		11.718750
6398		0.000000
6399		7.812500
6400		-1.953125
6401		3.906250
6402		-7.812500
6403		0.000000
6404		-11.718750
6405		-5.859375
6406		-15.625000
6407		-9.765625
6408		-19.531250
6409		-13.671875
6410		-25.390625
6411		-17.578125
6412		-29.296875
6413		-21.484375
6414		-33.203125
6415		-27.343750
6416		-37.109375
6417		-31.250000
6418		-41.015625
6419		-37.109375
6420		-44.921875
6421		-39.062500
6422		-48.828125
6423		-44.921875
6424		-52.734375
6425		-48.828125
6426		-56.640625
6427		-50.781250
6428		-60.546875
6429		-54.687500
6430		-64.453125
6431		-58.593750
6432		-68.359375
6433		-60.546875
6434		-68.359375
6435		-64.453125
6436		-72.265625
6437		-68.359375
6438		-74.218750
6439		-70.312500
6440		-76.171875
6441		-72.265625
6442		-78.125000
6443		-74.218750
6444		-80.078125
6445		-78.125000
6446		-82.031250
6447		-78.125000
6448		-83.984375
6449		-80.078125
6450		-83.984375
6451		-82.031250
6452		-87.890625
6453		-82.031250
6454		-87.890625
6455		-83.984375
6456		-85.937500
6457		-83.984375
6458		-87.890625
6459		-83.984375
6460		-87.890625
6461		-85.937500
6462		-87.890625
6463		-83.984375
6464		-87.890625
6465		-82.031250
6466		-85.937500
6467		-83.984375
6468		-85.937500
6469		-82.031250
6470		-83.984375
6471		-82.031250
6472		-82.031250
6473		-80.078125
6474		-82.031250
6475		-76.171875
6476		-80.078125
6477		-74.218750
6478		-78.125000
6479		-72.265625
6480		-76.171875
6481		-70.312500
6482		-74.218750
6483		-68.359375
6484		-72.265625
6485		-64.453125
6486		-68.359375
6487		-62.500000
6488		-64.453125
6489		-60.546875
6490		-62.500000
6491		-56.640625
6492		-58.593750
6493		-52.734375
6494		-56.640625
6495		-48.828125
6496		-52.734375
6497		-44.921875
6498		-48.828125
6499		-41.015625
6500		-44.921875
6501		-37.109375
6502		-41.015625
6503		-33.203125
6504		-37.109375
6505		-29.296875
6506		-31.250000
6507		-25.390625
6508		-27.343750
6509		-19.531250
6510		-23.437500
6511		-15.625000
6512		-19.531250
6513		-11.718750
6514		-15.625000
6515		-7.812500
6516		-9.765625
6517		-1.953125
6518		-5.859375
6519		1.953125
6520		-1.953125
6521		5.859375
6522		3.906250
6523		9.765625
6524		7.812500
6525		13.671875
6526		11.718750
6527		19.531250
6528		17.578125
6529		23.437500
6530		21.484375
6531		29.296875
6532		25.390625
6533		33.203125
6534		29.296875
6535		37.109375
6536		33.203125
6537		41.015625
6538		37.109375
6539		44.921875
6540		42.968750
6541		48.828125
6542		46.875000
6543		50.781250
6544		48.828125
6545		56.640625
6546		54.687500
6547		58.593750
6548		56.640625
6549		62.500000
6550		60.546875
6551		66.406250
6552		62.500000
6553		68.359375
6554		66.406250
6555		72.265625
6556		70.312500
6557		74.218750
6558		72.265625
6559		78.125000
6560		74.218750
6561		80.078125
6562		76.171875
6563		82.031250
6564		78.125000
6565		85.937500
6566		82.031250
6567		85.937500
6568		83.984375
6569		87.890625
6570		83.984375
6571		89.843750
6572		87.890625
6573		89.843750
6574		87.890625
6575		91.796875
6576		87.890625
6577		93.750000
6578		89.843750
6579		93.750000
6580		91.796875
6581		95.703125
6582		89.843750
6583		95.703125
6584		91.796875
6585		95.703125
6586		91.796875
6587		95.703125
6588		91.796875
6589		95.703125
6590		91.796875
6591		95.703125
6592		89.843750
6593		95.703125
6594		91.796875
6595		93.750000
6596		89.843750
6597		93.750000
6598		87.890625
6599		93.750000
6600		87.890625
6601		91.796875
6602		85.937500
6603		89.843750
6604		83.984375
6605		87.890625
6606		82.031250
6607		85.937500
6608		80.078125
6609		83.984375
6610		78.125000
6611		83.984375
6612		76.171875
6613		80.078125
6614		74.218750
6615		78.125000
6616		70.312500
6617		78.125000
6618		68.359375
6619		72.265625
6620		64.453125
6621		70.312500
6622		62.500000
6623		68.359375
6624		58.593750
6625		62.500000
6626		54.687500
6627		60.546875
6628		50.781250
6629		56.640625
6630		46.875000
6631		52.734375
6632		42.968750
6633		48.828125
6634		41.015625
6635		44.921875
6636		35.156250
6637		42.968750
6638		31.250000
6639		37.109375
6640		27.343750
6641		33.203125
6642		21.484375
6643		29.296875
6644		17.578125
6645		25.390625
6646		13.671875
6647		19.531250
6648		7.812500
6649		15.625000
6650		5.859375
6651		11.718750
6652		0.000000
6653		7.812500
6654		-3.906250
6655		1.953125
6656		-7.812500
6657		-1.953125
6658		-13.671875
6659		-7.812500
6660		-17.578125
6661		-11.718750
6662		-21.484375
6663		-15.625000
6664		-27.343750
6665		-19.531250
6666		-31.250000
6667		-25.390625
6668		-35.156250
6669		-29.296875
6670		-39.062500
6671		-33.203125
6672		-42.968750
6673		-37.109375
6674		-46.875000
6675		-41.015625
6676		-50.781250
6677		-44.921875
6678		-54.687500
6679		-48.828125
6680		-58.593750
6681		-52.734375
6682		-62.500000
6683		-56.640625
6684		-64.453125
6685		-58.593750
6686		-66.406250
6687		-62.500000
6688		-70.312500
6689		-66.406250
6690		-72.265625
6691		-68.359375
6692		-74.218750
6693		-70.312500
6694		-78.125000
6695		-72.265625
6696		-80.078125
6697		-74.218750
6698		-82.031250
6699		-78.125000
6700		-82.031250
6701		-78.125000
6702		-85.937500
6703		-80.078125
6704		-85.937500
6705		-82.031250
6706		-85.937500
6707		-82.031250
6708		-87.890625
6709		-83.984375
6710		-87.890625
6711		-83.984375
6712		-87.890625
6713		-83.984375
6714		-87.890625
6715		-83.984375
6716		-87.890625
6717		-83.984375
6718		-87.890625
6719		-83.984375
6720		-85.937500
6721		-82.031250
6722		-85.937500
6723		-82.031250
6724		-83.984375
6725		-80.078125
6726		-82.031250
6727		-78.125000
6728		-82.031250
6729		-78.125000
6730		-78.125000
6731		-76.171875
6732		-78.125000
6733		-74.218750
6734		-74.218750
6735		-70.312500
6736		-74.218750
6737		-68.359375
6738		-70.312500
6739		-64.453125
6740		-66.406250
6741		-62.500000
6742		-64.453125
6743		-58.593750
6744		-60.546875
6745		-54.687500
6746		-56.640625
6747		-52.734375
6748		-54.687500
6749		-48.828125
6750		-50.781250
6751		-44.921875
6752		-46.875000
6753		-41.015625
6754		-42.968750
6755		-37.109375
6756		-39.062500
6757		-33.203125
6758		-33.203125
6759		-27.343750
6760		-29.296875
6761		-23.437500
6762		-25.390625
6763		-19.531250
6764		-21.484375
6765		-13.671875
6766		-15.625000
6767		-11.718750
6768		-13.671875
6769		-5.859375
6770		-7.812500
6771		-1.953125
6772		-3.906250
6773		1.953125
6774		1.953125
6775		7.812500
6776		5.859375
6777		11.718750
6778		9.765625
6779		15.625000
6780		15.625000
6781		21.484375
6782		19.531250
6783		25.390625
6784		23.437500
6785		29.296875
6786		27.343750
6787		33.203125
6788		31.250000
6789		37.109375
6790		37.109375
6791		41.015625
6792		41.015625
6793		44.921875
6794		44.921875
6795		48.828125
6796		46.875000
6797		54.687500
6798		50.781250
6799		56.640625
6800		54.687500
6801		60.546875
6802		58.593750
6803		62.500000
6804		60.546875
6805		66.406250
6806		64.453125
6807		70.312500
6808		68.359375
6809		72.265625
6810		70.312500
6811		76.171875
6812		72.265625
6813		78.125000
6814		76.171875
6815		80.078125
6816		78.125000
6817		83.984375
6818		80.078125
6819		83.984375
6820		82.031250
6821		85.937500
6822		83.984375
6823		87.890625
6824		85.937500
6825		89.843750
6826		87.890625
6827		91.796875
6828		89.843750
6829		93.750000
6830		89.843750
6831		93.750000
6832		89.843750
6833		93.750000
6834		91.796875
6835		93.750000
6836		91.796875
6837		95.703125
6838		91.796875
6839		95.703125
6840		91.796875
6841		95.703125
6842		91.796875
6843		95.703125
6844		91.796875
6845		93.750000
6846		91.796875
6847		93.750000
6848		89.843750
6849		93.750000
6850		89.843750
6851		93.750000
6852		87.890625
6853		91.796875
6854		87.890625
6855		89.843750
6856		85.937500
6857		89.843750
6858		83.984375
6859		87.890625
6860		82.031250
6861		85.937500
6862		80.078125
6863		83.984375
6864		78.125000
6865		82.031250
6866		76.171875
6867		80.078125
6868		72.265625
6869		76.171875
6870		70.312500
6871		74.218750
6872		66.406250
6873		72.265625
6874		64.453125
6875		68.359375
6876		60.546875
6877		66.406250
6878		58.593750
6879		62.500000
6880		54.687500
6881		58.593750
6882		50.781250
6883		56.640625
6884		46.875000
6885		52.734375
6886		42.968750
6887		48.828125
6888		39.062500
6889		44.921875
6890		35.156250
6891		41.015625
6892		31.250000
6893		35.156250
6894		25.390625
6895		31.250000
6896		21.484375
6897		27.343750
6898		17.578125
6899		23.437500
6900		13.671875
6901		19.531250
6902		7.812500
6903		13.671875
6904		3.906250
6905		9.765625
6906		-1.953125
6907		5.859375
6908		-3.906250
6909		0.000000
6910		-9.765625
6911		-3.906250
6912		-13.671875
6913		-7.812500
6914		-17.578125
6915		-11.718750
6916		-23.437500
6917		-17.578125
6918		-27.343750
6919		-21.484375
6920		-31.250000
6921		-25.390625
6922		-35.156250
6923		-29.296875
6924		-39.062500
6925		-33.203125
6926		-42.968750
6927		-39.062500
6928		-48.828125
6929		-42.968750
6930		-50.781250
6931		-44.921875
6932		-54.687500
6933		-48.828125
6934		-58.593750
6935		-52.734375
6936		-62.500000
6937		-56.640625
6938		-64.453125
6939		-60.546875
6940		-68.359375
6941		-62.500000
6942		-70.312500
6943		-66.406250
6944		-72.265625
6945		-68.359375
6946		-76.171875
6947		-70.312500
6948		-78.125000
6949		-74.218750
6950		-80.078125
6951		-76.171875
6952		-82.031250
6953		-78.125000
6954		-83.984375
6955		-80.078125
6956		-85.937500
6957		-80.078125
6958		-85.937500
6959		-82.031250
6960		-85.937500
6961		-83.984375
6962		-85.937500
6963		-83.984375
6964		-87.890625
6965		-83.984375
6966		-87.890625
6967		-83.984375
6968		-87.890625
6969		-83.984375
6970		-87.890625
6971		-83.984375
6972		-85.937500
6973		-83.984375
6974		-85.937500
6975		-82.031250
6976		-83.984375
6977		-82.031250
6978		-83.984375
6979		-80.078125
6980		-83.984375
6981		-78.125000
6982		-80.078125
6983		-76.171875
6984		-78.125000
6985		-74.218750
6986		-78.125000
6987		-72.265625
6988		-74.218750
6989		-70.312500
6990		-72.265625
6991		-66.406250
6992		-70.312500
6993		-64.453125
6994		-66.406250
6995		-60.546875
6996		-62.500000
6997		-58.593750
6998		-60.546875
6999		-54.687500
7000		-56.640625
7001		-50.781250
7002		-54.687500
7003		-46.875000
7004		-48.828125
7005		-42.968750
7006		-44.921875
7007		-39.062500
7008		-41.015625
7009		-35.156250
7010		-37.109375
7011		-31.250000
7012		-33.203125
7013		-27.343750
7014		-29.296875
7015		-23.437500
7016		-25.390625
7017		-19.531250
7018		-21.484375
7019		-13.671875
7020		-15.625000
7021		-7.812500
7022		-11.718750
7023		-5.859375
7024		-7.812500
7025		0.000000
7026		-1.953125
7027		3.906250
7028		1.953125
7029		7.812500
7030		5.859375
7031		13.671875
7032		11.718750
7033		17.578125
7034		15.625000
7035		21.484375
7036		19.531250
7037		27.343750
7038		23.437500
7039		29.296875
7040		29.296875
7041		35.156250
7042		31.250000
7043		39.062500
7044		37.109375
7045		42.968750
7046		41.015625
7047		46.875000
7048		44.921875
7049		50.781250
7050		48.828125
7051		52.734375
7052		52.734375
7053		56.640625
7054		54.687500
7055		60.546875
7056		58.593750
7057		64.453125
7058		62.500000
7059		68.359375
7060		66.406250
7061		70.312500
7062		68.359375
7063		72.265625
7064		70.312500
7065		76.171875
7066		74.218750
7067		78.125000
7068		76.171875
7069		80.078125
7070		78.125000
7071		82.031250
7072		80.078125
7073		85.937500
7074		82.031250
7075		85.937500
7076		83.984375
7077		87.890625
7078		85.937500
7079		89.843750
7080		87.890625
7081		91.796875
7082		87.890625
7083		91.796875
7084		89.843750
7085		93.750000
7086		89.843750
7087		93.750000
7088		91.796875
7089		95.703125
7090		91.796875
7091		95.703125
7092		91.796875
7093		95.703125
7094		91.796875
7095		93.750000
7096		91.796875
7097		95.703125
7098		91.796875
7099		95.703125
7100		89.843750
7101		93.750000
7102		89.843750
7103		93.750000
7104		89.843750
7105		93.750000
7106		87.890625
7107		91.796875
7108		85.937500
7109		89.843750
7110		85.937500
7111		87.890625
7112		83.984375
7113		85.937500
7114		82.031250
7115		85.937500
7116		80.078125
7117		83.984375
7118		76.171875
7119		82.031250
7120		74.218750
7121		78.125000
7122		72.265625
7123		76.171875
7124		68.359375
7125		74.218750
7126		66.406250
7127		72.265625
7128		62.500000
7129		68.359375
7130		58.593750
7131		64.453125
7132		56.640625
7133		60.546875
7134		52.734375
7135		58.593750
7136		48.828125
7137		54.687500
7138		44.921875
7139		50.781250
7140		41.015625
7141		46.875000
7142		37.109375
7143		42.968750
7144		33.203125
7145		39.062500
7146		29.296875
7147		35.156250
7148		25.390625
7149		31.250000
7150		19.531250
7151		25.390625
7152		15.625000
7153		21.484375
7154		11.718750
7155		17.578125
7156		5.859375
7157		13.671875
7158		1.953125
7159		9.765625
7160		-1.953125
7161		5.859375
7162		-5.859375
7163		0.000000
7164		-11.718750
7165		-5.859375
7166		-15.625000
7167		-9.765625
7168		-19.531250
7169		-13.671875
7170		-25.390625
7171		-17.578125
7172		-29.296875
7173		-23.437500
7174		-33.203125
7175		-27.343750
7176		-37.109375
7177		-31.250000
7178		-41.015625
7179		-35.156250
7180		-46.875000
7181		-39.062500
7182		-48.828125
7183		-42.968750
7184		-52.734375
7185		-46.875000
7186		-56.640625
7187		-50.781250
7188		-60.546875
7189		-54.687500
7190		-62.500000
7191		-58.593750
7192		-66.406250
7193		-60.546875
7194		-68.359375
7195		-64.453125
7196		-72.265625
7197		-68.359375
7198		-74.218750
7199		-70.312500
7200		-76.171875
7201		-72.265625
7202		-78.125000
7203		-74.218750
7204		-80.078125
7205		-78.125000
7206		-82.031250
7207		-78.125000
7208		-83.984375
7209		-80.078125
7210		-83.984375
7211		-82.031250
7212		-85.937500
7213		-82.031250
7214		-87.890625
7215		-83.984375
7216		-87.890625
7217		-83.984375
7218		-87.890625
7219		-83.984375
7220		-87.890625
7221		-83.984375
7222		-87.890625
7223		-83.984375
7224		-87.890625
7225		-83.984375
7226		-87.890625
7227		-83.984375
7228		-85.937500
7229		-82.031250
7230		-83.984375
7231		-82.031250
7232		-83.984375
7233		-80.078125
7234		-82.031250
7235		-78.125000
7236		-80.078125
7237		-76.171875
7238		-78.125000
7239		-74.218750
7240		-76.171875
7241		-72.265625
7242		-74.218750
7243		-68.359375
7244		-72.265625
7245		-66.406250
7246		-68.359375
7247		-64.453125
7248		-64.453125
7249		-60.546875
7250		-62.500000
7251		-56.640625
7252		-58.593750
7253		-54.687500
7254		-54.687500
7255		-50.781250
7256		-52.734375
7257		-46.875000
7258		-48.828125
7259		-42.968750
7260		-44.921875
7261		-39.062500
7262		-41.015625
7263		-35.156250
7264		-35.156250
7265		-29.296875
7266		-31.250000
7267		-25.390625
7268		-27.343750
7269		-21.484375
7270		-23.437500
7271		-17.578125
7272		-19.531250
7273		-13.671875
7274		-15.625000
7275		-7.812500
7276		-9.765625
7277		-3.906250
7278		-5.859375
7279		0.000000
7280		-1.953125
7281		5.859375
7282		3.906250
7283		9.765625
7284		7.812500
7285		13.671875
7286		11.718750
7287		19.531250
7288		17.578125
7289		23.437500
7290		21.484375
7291		27.343750
7292		25.390625
7293		31.250000
7294		29.296875
7295		35.156250
7296		35.156250
7297		39.062500
7298		39.062500
7299		42.968750
7300		42.968750
7301		46.875000
7302		46.875000
7303		52.734375
7304		50.781250
7305		54.687500
7306		52.734375
7307		58.593750
7308		56.640625
7309		62.500000
7310		60.546875
7311		64.453125
7312		64.453125
7313		68.359375
7314		66.406250
7315		70.312500
7316		70.312500
7317		74.218750
7318		72.265625
7319		76.171875
7320		74.218750
7321		78.125000
7322		78.125000
7323		80.078125
7324		80.078125
7325		83.984375
7326		82.031250
7327		85.937500
7328		82.031250
7329		87.890625
7330		85.937500
7331		87.890625
7332		85.937500
7333		89.843750
7334		87.890625
7335		91.796875
7336		89.843750
7337		93.750000
7338		89.843750
7339		93.750000
7340		89.843750
7341		93.750000
7342		91.796875
7343		95.703125
7344		91.796875
7345		95.703125
7346		91.796875
7347		95.703125
7348		91.796875
7349		95.703125
7350		91.796875
7351		95.703125
7352		91.796875
7353		93.750000
7354		91.796875
7355		93.750000
7356		89.843750
7357		93.750000
7358		89.843750
7359		91.796875
7360		85.937500
7361		91.796875
7362		85.937500
7363		89.843750
7364		85.937500
7365		87.890625
7366		82.031250
7367		85.937500
7368		82.031250
7369		83.984375
7370		78.125000
7371		83.984375
7372		76.171875
7373		80.078125
7374		74.218750
7375		78.125000
7376		72.265625
7377		76.171875
7378		68.359375
7379		74.218750
7380		66.406250
7381		70.312500
7382		62.500000
7383		66.406250
7384		58.593750
7385		64.453125
7386		54.687500
7387		60.546875
7388		52.734375
7389		56.640625
7390		48.828125
7391		52.734375
7392		44.921875
7393		50.781250
7394		41.015625
7395		46.875000
7396		37.109375
7397		42.968750
7398		33.203125
7399		37.109375
7400		27.343750
7401		35.156250
7402		23.437500
7403		29.296875
7404		19.531250
7405		25.390625
7406		15.625000
7407		21.484375
7408		9.765625
7409		15.625000
7410		5.859375
7411		11.718750
7412		1.953125
7413		7.812500
7414		-1.953125
7415		3.906250
7416		-7.812500
7417		-1.953125
7418		-13.671875
7419		-5.859375
7420		-15.625000
7421		-9.765625
7422		-21.484375
7423		-13.671875
7424		-25.390625
7425		-19.531250
7426		-29.296875
7427		-23.437500
7428		-33.203125
7429		-27.343750
7430		-37.109375
7431		-33.203125
7432		-42.968750
7433		-37.109375
7434		-46.875000
7435		-41.015625
7436		-50.781250
7437		-44.921875
7438		-52.734375
7439		-48.828125
7440		-56.640625
7441		-52.734375
7442		-60.546875
7443		-54.687500
7444		-64.453125
7445		-58.593750
7446		-66.406250
7447		-62.500000
7448		-68.359375
7449		-64.453125
7450		-72.265625
7451		-68.359375
7452		-74.218750
7453		-70.312500
7454		-78.125000
7455		-72.265625
7456		-78.125000
7457		-76.171875
7458		-80.078125
7459		-76.171875
7460		-82.031250
7461		-78.125000
7462		-83.984375
7463		-80.078125
7464		-83.984375
7465		-82.031250
7466		-85.937500
7467		-82.031250
7468		-85.937500
7469		-83.984375
7470		-87.890625
7471		-83.984375
7472		-87.890625
7473		-83.984375
7474		-87.890625
7475		-83.984375
7476		-87.890625
7477		-83.984375
7478		-87.890625
7479		-83.984375
7480		-85.937500
7481		-83.984375
7482		-83.984375
7483		-82.031250
7484		-83.984375
7485		-80.078125
7486		-82.031250
7487		-78.125000
7488		-82.031250
7489		-76.171875
7490		-80.078125
7491		-76.171875
7492		-78.125000
7493		-72.265625
7494		-76.171875
7495		-70.312500
7496		-74.218750
7497		-68.359375
7498		-70.312500
7499		-66.406250
7500		-66.406250
7501		-62.500000
7502		-64.453125
7503		-58.593750
7504		-62.500000
7505		-56.640625
7506		-58.593750
7507		-52.734375
7508		-54.687500
7509		-48.828125
7510		-50.781250
7511		-44.921875
7512		-46.875000
7513		-41.015625
7514		-42.968750
7515		-37.109375
7516		-39.062500
7517		-31.250000
7518		-35.156250
7519		-29.296875
7520		-31.250000
7521		-23.437500
7522		-25.390625
7523		-21.484375
7524		-21.484375
7525		-15.625000
7526		-17.578125
7527		-9.765625
7528		-11.718750
7529		-5.859375
7530		-7.812500
7531		-1.953125
7532		-3.906250
7533		1.953125
7534		0.000000
7535		7.812500
7536		5.859375
7537		11.718750
7538		9.765625
7539		15.625000
7540		13.671875
7541		19.531250
7542		17.578125
7543		25.390625
7544		23.437500
7545		29.296875
7546		27.343750
7547		33.203125
7548		31.250000
7549		37.109375
7550		35.156250
7551		41.015625
7552		39.062500
7553		44.921875
7554		42.968750
7555		48.828125
7556		46.875000
7557		52.734375
7558		50.781250
7559		56.640625
7560		54.687500
7561		58.593750
7562		58.593750
7563		62.500000
7564		62.500000
7565		66.406250
7566		64.453125
7567		68.359375
7568		66.406250
7569		72.265625
7570		70.312500
7571		74.218750
7572		72.265625
7573		78.125000
7574		76.171875
7575		80.078125
7576		78.125000
7577		82.031250
7578		80.078125
7579		83.984375
7580		82.031250
7581		85.937500
7582		83.984375
7583		87.890625
7584		85.937500
7585		89.843750
7586		87.890625
7587		91.796875
7588		87.890625
7589		91.796875
7590		89.843750
7591		93.750000
7592		89.843750
7593		93.750000
7594		89.843750
7595		93.750000
7596		91.796875
7597		95.703125
7598		91.796875
7599		93.750000
7600		91.796875
7601		95.703125
7602		91.796875
7603		95.703125
7604		91.796875
7605		95.703125
7606		91.796875
7607		93.750000
7608		89.843750
7609		93.750000
7610		89.843750
7611		93.750000
7612		87.890625
7613		91.796875
7614		87.890625
7615		89.843750
7616		85.937500
7617		89.843750
7618		83.984375
7619		87.890625
7620		82.031250
7621		85.937500
7622		80.078125
7623		83.984375
7624		78.125000
7625		82.031250
7626		76.171875
7627		80.078125
7628		74.218750
7629		78.125000
7630		70.312500
7631		76.171875
7632		66.406250
7633		72.265625
7634		62.500000
7635		68.359375
7636		62.500000
7637		66.406250
7638		58.593750
7639		62.500000
7640		54.687500
7641		60.546875
7642		50.781250
7643		56.640625
7644		46.875000
7645		52.734375
7646		42.968750
7647		48.828125
7648		39.062500
7649		44.921875
7650		35.156250
7651		41.015625
7652		31.250000
7653		37.109375
7654		27.343750
7655		33.203125
7656		21.484375
7657		29.296875
7658		15.625000
7659		23.437500
7660		13.671875
7661		19.531250
7662		7.812500
7663		15.625000
7664		3.906250
7665		9.765625
7666		0.000000
7667		5.859375
7668		-3.906250
7669		1.953125
7670		-9.765625
7671		-3.906250
7672		-13.671875
7673		-7.812500
7674		-17.578125
7675		-11.718750
7676		-21.484375
7677		-15.625000
7678		-27.343750
7679		-21.484375
7680		-31.250000
7681		-25.390625
7682		-35.156250
7683		-29.296875
7684		-39.062500
7685		-33.203125
7686		-42.968750
7687		-37.109375
7688		-46.875000
7689		-41.015625
7690		-50.781250
7691		-44.921875
7692		-54.687500
7693		-48.828125
7694		-58.593750
7695		-52.734375
7696		-60.546875
7697		-56.640625
7698		-64.453125
7699		-58.593750
7700		-68.359375
7701		-62.500000
7702		-70.312500
7703		-66.406250
7704		-74.218750
7705		-68.359375
7706		-76.171875
7707		-70.312500
7708		-78.125000
7709		-72.265625
7710		-80.078125
7711		-76.171875
7712		-82.031250
7713		-78.125000
7714		-83.984375
7715		-78.125000
7716		-83.984375
7717		-80.078125
7718		-85.937500
7719		-82.031250
7720		-85.937500
7721		-82.031250
7722		-87.890625
7723		-83.984375
7724		-87.890625
7725		-83.984375
7726		-87.890625
7727		-83.984375
7728		-87.890625
7729		-83.984375
7730		-87.890625
7731		-83.984375
7732		-85.937500
7733		-83.984375
7734		-85.937500
7735		-83.984375
7736		-85.937500
7737		-82.031250
7738		-83.984375
7739		-80.078125
7740		-82.031250
7741		-78.125000
7742		-80.078125
7743		-76.171875
7744		-80.078125
7745		-76.171875
7746		-76.171875
7747		-72.265625
7748		-74.218750
7749		-70.312500
7750		-72.265625
7751		-68.359375
7752		-68.359375
7753		-64.453125
7754		-66.406250
7755		-62.500000
7756		-64.453125
7757		-58.593750
7758		-60.546875
7759		-54.687500
7760		-56.640625
7761		-50.781250
7762		-52.734375
7763		-46.875000
7764		-48.828125
7765		-44.921875
7766		-44.921875
7767		-39.062500
7768		-41.015625
7769		-35.156250
7770		-39.062500
7771		-31.250000
7772		-33.203125
7773		-27.343750
7774		-29.296875
7775		-23.437500
7776		-25.390625
7777		-19.531250
7778		-19.531250
7779		-13.671875
7780		-15.625000
7781		-9.765625
7782		-13.671875
7783		-5.859375
7784		-5.859375
7785		-1.953125
7786		-1.953125
7787		3.906250
7788		1.953125
7789		7.812500
7790		5.859375
7791		11.718750
7792		11.718750
7793		17.578125
7794		15.625000
7795		21.484375
7796		19.531250
7797		25.390625
7798		23.437500
7799		29.296875
7800		29.296875
7801		35.156250
7802		33.203125
7803		39.062500
7804		37.109375
7805		42.968750
7806		41.015625
7807		46.875000
7808		44.921875
7809		50.781250
7810		48.828125
7811		52.734375
7812		50.781250
7813		58.593750
7814		56.640625
7815		60.546875
7816		58.593750
7817		64.453125
7818		62.500000
7819		66.406250
7820		64.453125
7821		70.312500
7822		68.359375
7823		72.265625
7824		70.312500
7825		76.171875
7826		74.218750
7827		78.125000
7828		76.171875
7829		80.078125
7830		78.125000
7831		82.031250
7832		80.078125
7833		83.984375
7834		83.984375
7835		85.937500
7836		85.937500
7837		89.843750
7838		85.937500
7839		89.843750
7840		87.890625
7841		91.796875
7842		89.843750
7843		91.796875
7844		89.843750
7845		93.750000
7846		91.796875
7847		93.750000
7848		91.796875
7849		93.750000
7850		91.796875
7851		93.750000
7852		93.750000
7853		95.703125
7854		91.796875
7855		95.703125
7856		91.796875
7857		95.703125
7858		91.796875
7859		95.703125
7860		91.796875
7861		95.703125
7862		89.843750
7863		93.750000
7864		89.843750
7865		93.750000
7866		87.890625
7867		91.796875
7868		87.890625
7869		89.843750
7870		85.937500
7871		89.843750
7872		83.984375
7873		87.890625
7874		82.031250
7875		85.937500
7876		80.078125
7877		83.984375
7878		78.125000
7879		82.031250
7880		76.171875
7881		80.078125
7882		72.265625
7883		78.125000
7884		70.312500
7885		74.218750
7886		66.406250
7887		72.265625
7888		62.500000
7889		68.359375
7890		60.546875
7891		66.406250
7892		56.640625
7893		62.500000
7894		54.687500
7895		58.593750
7896		50.781250
7897		56.640625
7898		46.875000
7899		52.734375
7900		42.968750
7901		48.828125
7902		39.062500
7903		44.921875
7904		35.156250
7905		41.015625
7906		31.250000
7907		35.156250
7908		25.390625
7909		31.250000
7910		21.484375
7911		27.343750
7912		17.578125
7913		23.437500
7914		11.718750
7915		19.531250
7916		7.812500
7917		15.625000
7918		3.906250
7919		9.765625
7920		-1.953125
7921		5.859375
7922		-5.859375
7923		0.000000
7924		-9.765625
7925		-3.906250
7926		-13.671875
7927		-7.812500
7928		-19.531250
7929		-11.718750
7930		-23.437500
7931		-17.578125
7932		-27.343750
7933		-21.484375
7934		-31.250000
7935		-25.390625
7936		-35.156250
7937		-29.296875
7938		-41.015625
7939		-35.156250
7940		-44.921875
7941		-39.062500
7942		-48.828125
7943		-42.968750
7944		-52.734375
7945		-46.875000
7946		-54.687500
7947		-50.781250
7948		-58.593750
7949		-52.734375
7950		-62.500000
7951		-56.640625
7952		-64.453125
7953		-60.546875
7954		-68.359375
7955		-64.453125
7956		-70.312500
7957		-66.406250
7958		-72.265625
7959		-68.359375
7960		-76.171875
7961		-70.312500
7962		-78.125000
7963		-74.218750
7964		-80.078125
7965		-76.171875
7966		-82.031250
7967		-78.125000
7968		-82.031250
7969		-80.078125
7970		-85.937500
7971		-80.078125
7972		-85.937500
7973		-82.031250
7974		-85.937500
7975		-82.031250
7976		-85.937500
7977		-83.984375
7978		-85.937500
7979		-83.984375
7980		-87.890625
7981		-83.984375
7982		-87.890625
7983		-83.984375
7984		-85.937500
7985		-83.984375
7986		-85.937500
7987		-83.984375
7988		-85.937500
7989		-82.031250
7990		-83.984375
7991		-80.078125
7992		-83.984375
7993		-80.078125
7994		-82.031250
7995		-78.125000
7996		-80.078125
7997		-76.171875
7998		-78.125000
7999		-74.218750
8000		-76.171875
8001		-72.265625
8002		-74.218750
8003		-70.312500
8004		-70.312500
8005		-66.406250
8006		-68.359375
8007		-64.453125
8008		-64.453125
8009		-60.546875
8010		-62.500000
8011		-56.640625
8012		-58.593750
8013		-52.734375
8014		-54.687500
8015		-50.781250
8016		-52.734375
8017		-44.921875
8018		-46.875000
8019		-42.968750
8020		-42.968750
8021		-39.062500
8022		-41.015625
8023		-35.156250
8024		-37.109375
8025		-31.250000
8026		-33.203125
8027		-25.390625
8028		-27.343750
8029		-21.484375
8030		-23.437500
8031		-17.578125
8032		-19.531250
8033		-13.671875
8034		-13.671875
8035		-7.812500
8036		-9.765625
8037		-3.906250
8038		-5.859375
8039		0.000000
8040		-1.953125
8041		5.859375
8042		3.906250
8043		9.765625
8044		7.812500
8045		13.671875
8046		11.718750
8047		19.531250
8048		17.578125
8049		23.437500
8050		21.484375
8051		27.343750
8052		25.390625
8053		31.250000
8054		29.296875
8055		37.109375
8056		33.203125
8057		41.015625
8058		37.109375
8059		42.968750
8060		41.015625
8061		46.875000
8062		46.875000
8063		50.781250
8064		48.828125
8065		54.687500
8066		52.734375
8067		60.546875
8068		56.640625
8069		60.546875
8070		60.546875
8071		64.453125
8072		62.500000
8073		68.359375
8074		66.406250
8075		70.312500
8076		70.312500
8077		74.218750
8078		72.265625
8079		76.171875
8080		74.218750
8081		80.078125
8082		78.125000
8083		82.031250
8084		80.078125
8085		83.984375
8086		82.031250
8087		85.937500
8088		83.984375
8089		87.890625
8090		83.984375
8091		89.843750
8092		85.937500
8093		91.796875
8094		87.890625
8095		91.796875
8096		89.843750
8097		93.750000
8098		89.843750
8099		93.750000
8100		91.796875
8101		95.703125
8102		91.796875
8103		95.703125
8104		91.796875
8105		95.703125
8106		91.796875
8107		95.703125
8108		91.796875
8109		95.703125
8110		91.796875
8111		95.703125
8112		91.796875
8113		93.750000
8114		91.796875
8115		95.703125
8116		89.843750
8117		93.750000
8118		89.843750
8119		93.750000
8120		87.890625
8121		91.796875
8122		85.937500
8123		91.796875
8124		85.937500
8125		89.843750
8126		83.984375
8127		87.890625
8128		80.078125
8129		85.937500
8130		80.078125
8131		83.984375
8132		76.171875
8133		82.031250
8134		74.218750
8135		78.125000
8136		72.265625
8137		76.171875
8138		68.359375
8139		74.218750
8140		66.406250
8141		72.265625
8142		62.500000
8143		68.359375
8144		60.546875
8145		64.453125
8146		56.640625
8147		60.546875
8148		52.734375
8149		58.593750
8150		48.828125
8151		54.687500
8152		44.921875
8153		50.781250
8154		41.015625
8155		46.875000
8156		37.109375
8157		42.968750
8158		33.203125
8159		39.062500
8160		29.296875
8161		35.156250
8162		25.390625
8163		31.250000
8164		19.531250
8165		27.343750
8166		15.625000
8167		21.484375
8168		11.718750
8169		17.578125
8170		5.859375
8171		11.718750
8172		1.953125
8173		7.812500
8174		-1.953125
8175		5.859375
8176		-5.859375
8177		0.000000
8178		-11.718750
8179		-3.906250
8180		-15.625000
8181		-9.765625
8182		-21.484375
8183		-13.671875
8184		-25.390625
8185		-17.578125
8186		-29.296875
8187		-23.437500
8188		-33.203125
8189		-27.343750
8190		-39.062500
8191		-31.250000
8192		-42.968750
8193		-33.203125
8194		-44.921875
8195		-37.109375
8196		-50.781250
8197		-42.968750
8198		-54.687500
8199		-44.921875
8200		-56.640625
8201		-48.828125
8202		-58.593750
8203		-52.734375
8204		-62.500000
8205		-58.593750
8206		-66.406250
8207		-60.546875
8208		-70.312500
8209		-62.500000
8210		-72.265625
8211		-64.453125
8212		-74.218750
8213		-70.312500
8214		-78.125000
8215		-70.312500
8216		-80.078125
8217		-72.265625
8218		-82.031250
8219		-74.218750
8220		-82.031250
8221		-78.125000
8222		-82.031250
8223		-80.078125
8224		-85.937500
8225		-78.125000
8226		-87.890625
8227		-80.078125
8228		-87.890625
8229		-80.078125
8230		-87.890625
8231		-82.031250
8232		-89.843750
8233		-82.031250
8234		-87.890625
8235		-82.031250
8236		-85.937500
8237		-83.984375
8238		-85.937500
8239		-83.984375
8240		-85.937500
8241		-80.078125
8242		-85.937500
8243		-80.078125
8244		-85.937500
8245		-78.125000
8246		-83.984375
8247		-78.125000
8248		-82.031250
8249		-76.171875
8250		-80.078125
8251		-72.265625
8252		-80.078125
8253		-72.265625
8254		-74.218750
8255		-70.312500
8256		-72.265625
8257		-66.406250
8258		-72.265625
8259		-64.453125
8260		-68.359375
8261		-60.546875
8262		-66.406250
8263		-56.640625
8264		-62.500000
8265		-54.687500
8266		-60.546875
8267		-50.781250
8268		-56.640625
8269		-48.828125
8270		-50.781250
8271		-44.921875
8272		-46.875000
8273		-41.015625
8274		-44.921875
8275		-35.156250
8276		-41.015625
8277		-31.250000
8278		-35.156250
8279		-27.343750
8280		-31.250000
8281		-23.437500
8282		-27.343750
8283		-19.531250
8284		-23.437500
8285		-15.625000
8286		-19.531250
8287		-11.718750
8288		-13.671875
8289		-5.859375
8290		-7.812500
8291		0.000000
8292		-5.859375
8293		3.906250
8294		-1.953125
8295		7.812500
8296		1.953125
8297		11.718750
8298		7.812500
8299		17.578125
8300		11.718750
8301		21.484375
8302		15.625000
8303		23.437500
8304		21.484375
8305		29.296875
8306		27.343750
8307		33.203125
8308		29.296875
8309		39.062500
8310		33.203125
8311		42.968750
8312		37.109375
8313		46.875000
8314		41.015625
8315		50.781250
8316		44.921875
8317		54.687500
8318		48.828125
8319		58.593750
8320		52.734375
8321		60.546875
8322		58.593750
8323		62.500000
8324		60.546875
8325		68.359375
8326		62.500000
8327		70.312500
8328		66.406250
8329		74.218750
8330		68.359375
8331		76.171875
8332		70.312500
8333		80.078125
8334		74.218750
8335		82.031250
8336		76.171875
8337		83.984375
8338		80.078125
8339		83.984375
8340		82.031250
8341		87.890625
8342		82.031250
8343		89.843750
8344		83.984375
8345		91.796875
8346		85.937500
8347		93.750000
8348		85.937500
8349		95.703125
8350		87.890625
8351		95.703125
8352		89.843750
8353		95.703125
8354		91.796875
8355		93.750000
8356		91.796875
8357		95.703125
8358		91.796875
8359		97.656250
8360		89.843750
8361		97.656250
8362		89.843750
8363		97.656250
8364		89.843750
8365		97.656250
8366		89.843750
8367		97.656250
8368		89.843750
8369		95.703125
8370		89.843750
8371		95.703125
8372		89.843750
8373		91.796875
8374		85.937500
8375		91.796875
8376		83.984375
8377		91.796875
8378		82.031250
8379		89.843750
8380		82.031250
8381		89.843750
8382		80.078125
8383		87.890625
8384		78.125000
8385		85.937500
8386		76.171875
8387		83.984375
8388		74.218750
8389		78.125000
8390		72.265625
8391		76.171875
8392		66.406250
8393		76.171875
8394		64.453125
8395		72.265625
8396		60.546875
8397		70.312500
8398		56.640625
8399		66.406250
8400		52.734375
8401		62.500000
8402		50.781250
8403		58.593750
8404		48.828125
8405		54.687500
8406		44.921875
8407		50.781250
8408		39.062500
8409		46.875000
8410		33.203125
8411		44.921875
8412		31.250000
8413		41.015625
8414		27.343750
8415		35.156250
8416		21.484375
8417		31.250000
8418		17.578125
8419		27.343750
8420		15.625000
8421		23.437500
8422		11.718750
8423		17.578125
8424		3.906250
8425		11.718750
8426		0.000000
8427		9.765625
8428		-5.859375
8429		5.859375
8430		-9.765625
8431		0.000000
8432		-13.671875
8433		-3.906250
8434		-17.578125
8435		-7.812500
8436		-21.484375
8437		-11.718750
8438		-25.390625
8439		-19.531250
8440		-29.296875
8441		-23.437500
8442		-35.156250
8443		-27.343750
8444		-39.062500
8445		-29.296875
8446		-42.968750
8447		-33.203125
8448		-46.875000
8449		-39.062500
8450		-50.781250
8451		-41.015625
8452		-54.687500
8453		-44.921875
8454		-56.640625
8455		-48.828125
8456		-60.546875
8457		-54.687500
8458		-64.453125
8459		-58.593750
8460		-68.359375
8461		-60.546875
8462		-72.265625
8463		-62.500000
8464		-74.218750
8465		-66.406250
8466		-76.171875
8467		-68.359375
8468		-78.125000
8469		-70.312500
8470		-80.078125
8471		-72.265625
8472		-80.078125
8473		-76.171875
8474		-82.031250
8475		-78.125000
8476		-83.984375
8477		-78.125000
8478		-85.937500
8479		-78.125000
8480		-87.890625
8481		-80.078125
8482		-87.890625
8483		-80.078125
8484		-87.890625
8485		-82.031250
8486		-87.890625
8487		-82.031250
8488		-87.890625
8489		-83.984375
8490		-85.937500
8491		-83.984375
8492		-87.890625
8493		-80.078125
8494		-87.890625
8495		-80.078125
8496		-85.937500
8497		-78.125000
8498		-83.984375
8499		-78.125000
8500		-83.984375
8501		-76.171875
8502		-82.031250
8503		-74.218750
8504		-80.078125
8505		-72.265625
8506		-76.171875
8507		-72.265625
8508		-74.218750
8509		-68.359375
8510		-72.265625
8511		-64.453125
8512		-70.312500
8513		-62.500000
8514		-68.359375
8515		-58.593750
8516		-64.453125
8517		-56.640625
8518		-60.546875
8519		-52.734375
8520		-58.593750
8521		-48.828125
8522		-52.734375
8523		-46.875000
8524		-48.828125
8525		-42.968750
8526		-46.875000
8527		-37.109375
8528		-44.921875
8529		-33.203125
8530		-39.062500
8531		-29.296875
8532		-35.156250
8533		-25.390625
8534		-29.296875
8535		-21.484375
8536		-27.343750
8537		-17.578125
8538		-21.484375
8539		-13.671875
8540		-15.625000
8541		-9.765625
8542		-11.718750
8543		-3.906250
8544		-7.812500
8545		1.953125
8546		-3.906250
8547		5.859375
8548		0.000000
8549		11.718750
8550		5.859375
8551		15.625000
8552		9.765625
8553		19.531250
8554		13.671875
8555		21.484375
8556		19.531250
8557		25.390625
8558		23.437500
8559		29.296875
8560		27.343750
8561		37.109375
8562		31.250000
8563		39.062500
8564		33.203125
8565		44.921875
8566		39.062500
8567		48.828125
8568		42.968750
8569		52.734375
8570		46.875000
8571		56.640625
8572		50.781250
8573		56.640625
8574		56.640625
8575		60.546875
8576		58.593750
8577		66.406250
8578		60.546875
8579		70.312500
8580		64.453125
8581		72.265625
8582		66.406250
8583		76.171875
8584		70.312500
8585		78.125000
8586		72.265625
8587		80.078125
8588		74.218750
8589		82.031250
8590		80.078125
8591		83.984375
8592		82.031250
8593		87.890625
8594		80.078125
8595		89.843750
8596		83.984375
8597		89.843750
8598		83.984375
8599		91.796875
8600		85.937500
8601		93.750000
8602		87.890625
8603		95.703125
8604		87.890625
8605		95.703125
8606		91.796875
8607		93.750000
8608		91.796875
8609		95.703125
8610		91.796875
8611		97.656250
8612		91.796875
8613		97.656250
8614		91.796875
8615		97.656250
8616		91.796875
8617		97.656250
8618		89.843750
8619		97.656250
8620		89.843750
8621		97.656250
8622		89.843750
8623		95.703125
8624		91.796875
8625		93.750000
8626		87.890625
8627		93.750000
8628		85.937500
8629		93.750000
8630		83.984375
8631		91.796875
8632		83.984375
8633		91.796875
8634		82.031250
8635		89.843750
8636		78.125000
8637		87.890625
8638		78.125000
8639		85.937500
8640		76.171875
8641		80.078125
8642		74.218750
8643		78.125000
8644		70.312500
8645		78.125000
8646		66.406250
8647		76.171875
8648		62.500000
8649		72.265625
8650		60.546875
8651		70.312500
8652		56.640625
8653		66.406250
8654		52.734375
8655		62.500000
8656		52.734375
8657		58.593750
8658		48.828125
8659		52.734375
8660		42.968750
8661		48.828125
8662		37.109375
8663		46.875000
8664		33.203125
8665		44.921875
8666		29.296875
8667		39.062500
8668		25.390625
8669		35.156250
8670		21.484375
8671		31.250000
8672		19.531250
8673		27.343750
8674		13.671875
8675		19.531250
8676		7.812500
8677		15.625000
8678		3.906250
8679		13.671875
8680		0.000000
8681		9.765625
8682		-5.859375
8683		3.906250
8684		-9.765625
8685		0.000000
8686		-15.625000
8687		-3.906250
8688		-17.578125
8689		-9.765625
8690		-21.484375
8691		-15.625000
8692		-25.390625
8693		-19.531250
8694		-31.250000
8695		-23.437500
8696		-37.109375
8697		-27.343750
8698		-41.015625
8699		-31.250000
8700		-42.968750
8701		-33.203125
8702		-46.875000
8703		-39.062500
8704		-50.781250
8705		-42.968750
8706		-52.734375
8707		-46.875000
8708		-56.640625
8709		-52.734375
8710		-62.500000
8711		-54.687500
8712		-64.453125
8713		-56.640625
8714		-68.359375
8715		-58.593750
8716		-72.265625
8717		-60.546875
8718		-74.218750
8719		-64.453125
8720		-76.171875
8721		-68.359375
8722		-78.125000
8723		-70.312500
8724		-78.125000
8725		-74.218750
8726		-80.078125
8727		-76.171875
8728		-83.984375
8729		-76.171875
8730		-83.984375
8731		-76.171875
8732		-85.937500
8733		-78.125000
8734		-85.937500
8735		-80.078125
8736		-85.937500
8737		-80.078125
8738		-87.890625
8739		-80.078125
8740		-85.937500
8741		-80.078125
8742		-85.937500
8743		-82.031250
8744		-85.937500
8745		-80.078125
8746		-85.937500
8747		-80.078125
8748		-85.937500
8749		-78.125000
8750		-83.984375
8751		-78.125000
8752		-83.984375
8753		-76.171875
8754		-82.031250
8755		-74.218750
8756		-80.078125
8757		-74.218750
8758		-76.171875
8759		-72.265625
8760		-74.218750
8761		-70.312500
8762		-74.218750
8763		-66.406250
8764		-72.265625
8765		-62.500000
8766		-68.359375
8767		-60.546875
8768		-66.406250
8769		-58.593750
8770		-62.500000
8771		-54.687500
8772		-60.546875
8773		-50.781250
8774		-54.687500
8775		-48.828125
8776		-50.781250
8777		-44.921875
8778		-46.875000
8779		-39.062500
8780		-44.921875
8781		-35.156250
8782		-41.015625
8783		-33.203125
8784		-37.109375
8785		-27.343750
8786		-33.203125
8787		-23.437500
8788		-29.296875
8789		-19.531250
8790		-23.437500
8791		-17.578125
8792		-17.578125
8793		-11.718750
8794		-13.671875
8795		-5.859375
8796		-11.718750
8797		-1.953125
8798		-5.859375
8799		1.953125
8800		-1.953125
8801		9.765625
8802		1.953125
8803		11.718750
8804		5.859375
8805		15.625000
8806		11.718750
8807		19.531250
8808		17.578125
8809		23.437500
8810		21.484375
8811		27.343750
8812		25.390625
8813		33.203125
8814		27.343750
8815		39.062500
8816		33.203125
8817		42.968750
8818		37.109375
8819		44.921875
8820		41.015625
8821		50.781250
8822		44.921875
8823		54.687500
8824		48.828125
8825		54.687500
8826		54.687500
8827		58.593750
8828		58.593750
8829		64.453125
8830		58.593750
8831		68.359375
8832		62.500000
8833		70.312500
8834		66.406250
8835		74.218750
8836		68.359375
8837		78.125000
8838		70.312500
8839		80.078125
8840		74.218750
8841		80.078125
8842		78.125000
8843		82.031250
8844		80.078125
8845		83.984375
8846		80.078125
8847		87.890625
8848		83.984375
8849		89.843750
8850		83.984375
8851		91.796875
8852		85.937500
8853		93.750000
8854		87.890625
8855		95.703125
8856		89.843750
8857		95.703125
8858		91.796875
8859		95.703125
8860		93.750000
8861		95.703125
8862		89.843750
8863		97.656250
8864		91.796875
8865		99.609375
8866		91.796875
8867		99.609375
8868		91.796875
8869		99.609375
8870		91.796875
8871		97.656250
8872		91.796875
8873		97.656250
8874		91.796875
8875		97.656250
8876		91.796875
8877		95.703125
8878		87.890625
8879		95.703125
8880		87.890625
8881		95.703125
8882		85.937500
8883		93.750000
8884		83.984375
8885		91.796875
8886		83.984375
8887		91.796875
8888		82.031250
8889		89.843750
8890		80.078125
8891		87.890625
8892		80.078125
8893		83.984375
8894		76.171875
8895		80.078125
8896		72.265625
8897		80.078125
8898		68.359375
8899		78.125000
8900		66.406250
8901		74.218750
8902		62.500000
8903		72.265625
8904		60.546875
8905		68.359375
8906		54.687500
8907		64.453125
8908		54.687500
8909		62.500000
8910		50.781250
8911		56.640625
8912		44.921875
8913		52.734375
8914		41.015625
8915		50.781250
8916		37.109375
8917		46.875000
8918		33.203125
8919		42.968750
8920		29.296875
8921		39.062500
8922		25.390625
8923		35.156250
8924		21.484375
8925		31.250000
8926		19.531250
8927		23.437500
8928		13.671875
8929		19.531250
8930		5.859375
8931		17.578125
8932		3.906250
8933		11.718750
8934		0.000000
8935		7.812500
8936		-5.859375
8937		3.906250
8938		-9.765625
8939		-1.953125
8940		-15.625000
8941		-5.859375
8942		-17.578125
8943		-11.718750
8944		-21.484375
8945		-15.625000
8946		-29.296875
8947		-19.531250
8948		-33.203125
8949		-23.437500
8950		-37.109375
8951		-27.343750
8952		-41.015625
8953		-31.250000
8954		-44.921875
8955		-35.156250
8956		-48.828125
8957		-39.062500
8958		-50.781250
8959		-42.968750
8960		-54.687500
8961		-48.828125
8962		-58.593750
8963		-52.734375
8964		-62.500000
8965		-52.734375
8966		-66.406250
8967		-56.640625
8968		-68.359375
8969		-60.546875
8970		-72.265625
8971		-62.500000
8972		-74.218750
8973		-66.406250
8974		-76.171875
8975		-68.359375
8976		-76.171875
8977		-72.265625
8978		-78.125000
8979		-74.218750
8980		-82.031250
8981		-74.218750
8982		-83.984375
8983		-76.171875
8984		-83.984375
8985		-76.171875
8986		-85.937500
8987		-78.125000
8988		-85.937500
8989		-80.078125
8990		-87.890625
8991		-80.078125
8992		-85.937500
8993		-80.078125
8994		-83.984375
8995		-82.031250
8996		-85.937500
8997		-82.031250
8998		-85.937500
8999		-80.078125
9000		-85.937500
9001		-80.078125
9002		-85.937500
9003		-78.125000
9004		-83.984375
9005		-78.125000
9006		-82.031250
9007		-76.171875
9008		-80.078125
9009		-76.171875
9010		-78.125000
9011		-74.218750
9012		-76.171875
9013		-72.265625
9014		-74.218750
9015		-68.359375
9016		-74.218750
9017		-64.453125
9018		-70.312500
9019		-62.500000
9020		-68.359375
9021		-58.593750
9022		-66.406250
9023		-56.640625
9024		-62.500000
9025		-52.734375
9026		-58.593750
9027		-50.781250
9028		-52.734375
9029		-48.828125
9030		-50.781250
9031		-42.968750
9032		-48.828125
9033		-39.062500
9034		-44.921875
9035		-33.203125
9036		-39.062500
9037		-29.296875
9038		-35.156250
9039		-25.390625
9040		-31.250000
9041		-21.484375
9042		-27.343750
9043		-19.531250
9044		-21.484375
9045		-15.625000
9046		-15.625000
9047		-7.812500
9048		-13.671875
9049		-5.859375
9050		-9.765625
9051		0.000000
9052		-5.859375
9053		3.906250
9054		-1.953125
9055		9.765625
9056		3.906250
9057		13.671875
9058		7.812500
9059		17.578125
9060		13.671875
9061		19.531250
9062		19.531250
9063		25.390625
9064		21.484375
9065		31.250000
9066		25.390625
9067		35.156250
9068		31.250000
9069		39.062500
9070		35.156250
9071		42.968750
9072		37.109375
9073		48.828125
9074		41.015625
9075		50.781250
9076		46.875000
9077		52.734375
9078		52.734375
9079		56.640625
9080		54.687500
9081		62.500000
9082		56.640625
9083		66.406250
9084		60.546875
9085		68.359375
9086		62.500000
9087		72.265625
9088		66.406250
9089		74.218750
9090		68.359375
9091		78.125000
9092		72.265625
9093		78.125000
9094		76.171875
9095		80.078125
9096		80.078125
9097		82.031250
9098		80.078125
9099		87.890625
9100		82.031250
9101		89.843750
9102		83.984375
9103		91.796875
9104		83.984375
9105		91.796875
9106		85.937500
9107		93.750000
9108		87.890625
9109		95.703125
9110		89.843750
9111		93.750000
9112		91.796875
9113		95.703125
9114		91.796875
9115		97.656250
9116		91.796875
9117		97.656250
9118		91.796875
9119		99.609375
9120		91.796875
9121		99.609375
9122		91.796875
9123		99.609375
9124		91.796875
9125		99.609375
9126		91.796875
9127		97.656250
9128		93.750000
9129		95.703125
9130		89.843750
9131		95.703125
9132		87.890625
9133		95.703125
9134		85.937500
9135		95.703125
9136		85.937500
9137		93.750000
9138		85.937500
9139		91.796875
9140		83.984375
9141		89.843750
9142		80.078125
9143		87.890625
9144		80.078125
9145		83.984375
9146		78.125000
9147		82.031250
9148		74.218750
9149		82.031250
9150		70.312500
9151		80.078125
9152		68.359375
9153		76.171875
9154		64.453125
9155		74.218750
9156		62.500000
9157		70.312500
9158		58.593750
9159		68.359375
9160		58.593750
9161		64.453125
9162		54.687500
9163		58.593750
9164		46.875000
9165		54.687500
9166		44.921875
9167		54.687500
9168		39.062500
9169		50.781250
9170		35.156250
9171		44.921875
9172		33.203125
9173		41.015625
9174		29.296875
9175		37.109375
9176		25.390625
9177		33.203125
9178		21.484375
9179		27.343750
9180		17.578125
9181		23.437500
9182		9.765625
9183		19.531250
9184		5.859375
9185		15.625000
9186		1.953125
9187		11.718750
9188		-3.906250
9189		7.812500
9190		-7.812500
9191		1.953125
9192		-11.718750
9193		-1.953125
9194		-13.671875
9195		-7.812500
9196		-19.531250
9197		-13.671875
9198		-25.390625
9199		-17.578125
9200		-29.296875
9201		-19.531250
9202		-33.203125
9203		-23.437500
9204		-39.062500
9205		-29.296875
9206		-41.015625
9207		-33.203125
9208		-46.875000
9209		-37.109375
9210		-48.828125
9211		-41.015625
9212		-50.781250
9213		-46.875000
9214		-56.640625
9215		-50.781250
9216		-60.546875
9217		-50.781250
9218		-64.453125
9219		-54.687500
9220		-66.406250
9221		-56.640625
9222		-70.312500
9223		-60.546875
9224		-72.265625
9225		-62.500000
9226		-74.218750
9227		-66.406250
9228		-74.218750
9229		-70.312500
9230		-76.171875
9231		-72.265625
9232		-80.078125
9233		-74.218750
9234		-82.031250
9235		-74.218750
9236		-83.984375
9237		-76.171875
9238		-83.984375
9239		-78.125000
9240		-85.937500
9241		-78.125000
9242		-85.937500
9243		-80.078125
9244		-85.937500
9245		-80.078125
9246		-83.984375
9247		-82.031250
9248		-87.890625
9249		-80.078125
9250		-87.890625
9251		-80.078125
9252		-85.937500
9253		-80.078125
9254		-85.937500
9255		-78.125000
9256		-83.984375
9257		-78.125000
9258		-83.984375
9259		-76.171875
9260		-82.031250
9261		-76.171875
9262		-78.125000
9263		-76.171875
9264		-76.171875
9265		-74.218750
9266		-76.171875
9267		-68.359375
9268		-74.218750
9269		-66.406250
9270		-72.265625
9271		-64.453125
9272		-70.312500
9273		-60.546875
9274		-68.359375
9275		-58.593750
9276		-64.453125
9277		-54.687500
9278		-60.546875
9279		-54.687500
9280		-54.687500
9281		-50.781250
9282		-52.734375
9283		-44.921875
9284		-52.734375
9285		-41.015625
9286		-46.875000
9287		-37.109375
9288		-42.968750
9289		-33.203125
9290		-37.109375
9291		-29.296875
9292		-35.156250
9293		-25.390625
9294		-29.296875
9295		-23.437500
9296		-23.437500
9297		-17.578125
9298		-19.531250
9299		-11.718750
9300		-17.578125
9301		-7.812500
9302		-11.718750
9303		-1.953125
9304		-7.812500
9305		1.953125
9306		-3.906250
9307		5.859375
9308		0.000000
9309		9.765625
9310		3.906250
9311		13.671875
9312		11.718750
9313		17.578125
9314		15.625000
9315		21.484375
9316		21.484375
9317		27.343750
9318		21.484375
9319		33.203125
9320		27.343750
9321		37.109375
9322		31.250000
9323		41.015625
9324		35.156250
9325		44.921875
9326		39.062500
9327		48.828125
9328		42.968750
9329		50.781250
9330		48.828125
9331		54.687500
9332		52.734375
9333		60.546875
9334		54.687500
9335		62.500000
9336		58.593750
9337		66.406250
9338		60.546875
9339		70.312500
9340		64.453125
9341		72.265625
9342		68.359375
9343		76.171875
9344		70.312500
9345		78.125000
9346		74.218750
9347		78.125000
9348		78.125000
9349		82.031250
9350		78.125000
9351		85.937500
9352		80.078125
9353		87.890625
9354		80.078125
9355		89.843750
9356		83.984375
9357		91.796875
9358		85.937500
9359		93.750000
9360		87.890625
9361		93.750000
9362		87.890625
9363		93.750000
9364		91.796875
9365		95.703125
9366		91.796875
9367		97.656250
9368		91.796875
9369		97.656250
9370		91.796875
9371		99.609375
9372		91.796875
9373		99.609375
9374		91.796875
9375		99.609375
9376		91.796875
9377		99.609375
9378		91.796875
9379		97.656250
9380		93.750000
9381		95.703125
9382		91.796875
9383		95.703125
9384		89.843750
9385		97.656250
9386		87.890625
9387		95.703125
9388		87.890625
9389		93.750000
9390		85.937500
9391		93.750000
9392		83.984375
9393		91.796875
9394		82.031250
9395		89.843750
9396		82.031250
9397		87.890625
9398		80.078125
9399		83.984375
9400		76.171875
9401		82.031250
9402		74.218750
9403		82.031250
9404		70.312500
9405		80.078125
9406		68.359375
9407		76.171875
9408		64.453125
9409		72.265625
9410		60.546875
9411		70.312500
9412		60.546875
9413		66.406250
9414		56.640625
9415		62.500000
9416		50.781250
9417		58.593750
9418		46.875000
9419		56.640625
9420		42.968750
9421		52.734375
9422		39.062500
9423		48.828125
9424		35.156250
9425		44.921875
9426		31.250000
9427		41.015625
9428		27.343750
9429		37.109375
9430		25.390625
9431		31.250000
9432		19.531250
9433		25.390625
9434		13.671875
9435		21.484375
9436		9.765625
9437		19.531250
9438		5.859375
9439		13.671875
9440		0.000000
9441		9.765625
9442		-3.906250
9443		5.859375
9444		-7.812500
9445		0.000000
9446		-11.718750
9447		-3.906250
9448		-15.625000
9449		-9.765625
9450		-21.484375
9451		-13.671875
9452		-25.390625
9453		-15.625000
9454		-31.250000
9455		-19.531250
9456		-35.156250
9457		-25.390625
9458		-39.062500
9459		-29.296875
9460		-42.968750
9461		-33.203125
9462		-44.921875
9463		-37.109375
9464		-48.828125
9465		-42.968750
9466		-52.734375
9467		-46.875000
9468		-56.640625
9469		-48.828125
9470		-60.546875
9471		-52.734375
9472		-64.453125
9473		-54.687500
9474		-66.406250
9475		-58.593750
9476		-70.312500
9477		-62.500000
9478		-72.265625
9479		-64.453125
9480		-72.265625
9481		-68.359375
9482		-74.218750
9483		-72.265625
9484		-80.078125
9485		-72.265625
9486		-82.031250
9487		-72.265625
9488		-82.031250
9489		-74.218750
9490		-83.984375
9491		-76.171875
9492		-85.937500
9493		-78.125000
9494		-85.937500
9495		-78.125000
9496		-85.937500
9497		-80.078125
9498		-83.984375
9499		-82.031250
9500		-85.937500
9501		-80.078125
9502		-87.890625
9503		-80.078125
9504		-85.937500
9505		-80.078125
9506		-85.937500
9507		-78.125000
9508		-85.937500
9509		-78.125000
9510		-83.984375
9511		-78.125000
9512		-83.984375
9513		-76.171875
9514		-80.078125
9515		-76.171875
9516		-78.125000
9517		-74.218750
9518		-78.125000
9519		-70.312500
9520		-76.171875
9521		-68.359375
9522		-74.218750
9523		-66.406250
9524		-72.265625
9525		-62.500000
9526		-68.359375
9527		-60.546875
9528		-66.406250
9529		-56.640625
9530		-62.500000
9531		-56.640625
9532		-58.593750
9533		-52.734375
9534		-54.687500
9535		-46.875000
9536		-52.734375
9537		-42.968750
9538		-48.828125
9539		-39.062500
9540		-44.921875
9541		-35.156250
9542		-41.015625
9543		-31.250000
9544		-37.109375
9545		-27.343750
9546		-33.203125
9547		-25.390625
9548		-27.343750
9549		-21.484375
9550		-21.484375
9551		-15.625000
9552		-19.531250
9553		-9.765625
9554		-15.625000
9555		-5.859375
9556		-11.718750
9557		-1.953125
9558		-7.812500
9559		3.906250
9560		-1.953125
9561		7.812500
9562		1.953125
9563		11.718750
9564		7.812500
9565		13.671875
9566		13.671875
9567		19.531250
9568		17.578125
9569		25.390625
9570		19.531250
9571		29.296875
9572		23.437500
9573		33.203125
9574		27.343750
9575		37.109375
9576		31.250000
9577		42.968750
9578		35.156250
9579		46.875000
9580		39.062500
9581		48.828125
9582		46.875000
9583		52.734375
9584		50.781250
9585		58.593750
9586		50.781250
9587		60.546875
9588		54.687500
9589		64.453125
9590		58.593750
9591		68.359375
9592		62.500000
9593		70.312500
9594		66.406250
9595		74.218750
9596		68.359375
9597		76.171875
9598		72.265625
9599		78.125000
9600		76.171875
9601		80.078125
9602		76.171875
9603		83.984375
9604		78.125000
9605		85.937500
9606		80.078125
9607		87.890625
9608		82.031250
9609		89.843750
9610		83.984375
9611		91.796875
9612		85.937500
9613		93.750000
9614		87.890625
9615		93.750000
9616		91.796875
9617		93.750000
9618		89.843750
9619		97.656250
9620		89.843750
9621		97.656250
9622		91.796875
9623		97.656250
9624		91.796875
9625		97.656250
9626		91.796875
9627		99.609375
9628		91.796875
9629		99.609375
9630		91.796875
9631		99.609375
9632		93.750000
9633		97.656250
9634		93.750000
9635		95.703125
9636		89.843750
9637		97.656250
9638		89.843750
9639		95.703125
9640		87.890625
9641		95.703125
9642		87.890625
9643		93.750000
9644		85.937500
9645		93.750000
9646		83.984375
9647		91.796875
9648		83.984375
9649		87.890625
9650		82.031250
9651		85.937500
9652		76.171875
9653		83.984375
9654		76.171875
9655		83.984375
9656		72.265625
9657		80.078125
9658		70.312500
9659		78.125000
9660		66.406250
9661		76.171875
9662		64.453125
9663		72.265625
9664		62.500000
9665		68.359375
9666		58.593750
9667		64.453125
9668		52.734375
9669		60.546875
9670		50.781250
9671		58.593750
9672		46.875000
9673		54.687500
9674		42.968750
9675		50.781250
9676		39.062500
9677		46.875000
9678		35.156250
9679		42.968750
9680		31.250000
9681		39.062500
9682		27.343750
9683		33.203125
9684		23.437500
9685		29.296875
9686		17.578125
9687		25.390625
9688		11.718750
9689		21.484375
9690		7.812500
9691		17.578125
9692		3.906250
9693		13.671875
9694		-1.953125
9695		7.812500
9696		-5.859375
9697		5.859375
9698		-7.812500
9699		0.000000
9700		-13.671875
9701		-5.859375
9702		-17.578125
9703		-11.718750
9704		-23.437500
9705		-13.671875
9706		-27.343750
9707		-17.578125
9708		-31.250000
9709		-21.484375
9710		-35.156250
9711		-27.343750
9712		-39.062500
9713		-31.250000
9714		-42.968750
9715		-35.156250
9716		-46.875000
9717		-41.015625
9718		-48.828125
9719		-44.921875
9720		-54.687500
9721		-46.875000
9722		-58.593750
9723		-48.828125
9724		-62.500000
9725		-52.734375
9726		-66.406250
9727		-56.640625
9728		-68.359375
9729		-58.593750
9730		-70.312500
9731		-62.500000
9732		-70.312500
9733		-66.406250
9734		-74.218750
9735		-70.312500
9736		-78.125000
9737		-70.312500
9738		-80.078125
9739		-72.265625
9740		-82.031250
9741		-74.218750
9742		-82.031250
9743		-76.171875
9744		-83.984375
9745		-76.171875
9746		-83.984375
9747		-78.125000
9748		-85.937500
9749		-78.125000
9750		-83.984375
9751		-82.031250
9752		-83.984375
9753		-82.031250
9754		-85.937500
9755		-80.078125
9756		-85.937500
9757		-80.078125
9758		-85.937500
9759		-80.078125
9760		-85.937500
9761		-78.125000
9762		-83.984375
9763		-78.125000
9764		-83.984375
9765		-76.171875
9766		-80.078125
9767		-76.171875
9768		-78.125000
9769		-76.171875
9770		-78.125000
9771		-70.312500
9772		-76.171875
9773		-68.359375
9774		-74.218750
9775		-68.359375
9776		-72.265625
9777		-64.453125
9778		-70.312500
9779		-62.500000
9780		-66.406250
9781		-58.593750
9782		-64.453125
9783		-58.593750
9784		-58.593750
9785		-54.687500
9786		-56.640625
9787		-48.828125
9788		-54.687500
9789		-44.921875
9790		-52.734375
9791		-42.968750
9792		-46.875000
9793		-39.062500
9794		-42.968750
9795		-35.156250
9796		-39.062500
9797		-29.296875
9798		-35.156250
9799		-27.343750
9800		-29.296875
9801		-23.437500
9802		-25.390625
9803		-19.531250
9804		-21.484375
9805		-13.671875
9806		-19.531250
9807		-9.765625
9808		-13.671875
9809		-3.906250
9810		-9.765625
9811		0.000000
9812		-5.859375
9813		5.859375
9814		-1.953125
9815		9.765625
9816		3.906250
9817		11.718750
9818		9.765625
9819		15.625000
9820		15.625000
9821		23.437500
9822		17.578125
9823		27.343750
9824		21.484375
9825		31.250000
9826		25.390625
9827		35.156250
9828		29.296875
9829		39.062500
9830		35.156250
9831		42.968750
9832		39.062500
9833		46.875000
9834		44.921875
9835		48.828125
9836		48.828125
9837		54.687500
9838		48.828125
9839		58.593750
9840		52.734375
9841		62.500000
9842		56.640625
9843		64.453125
9844		58.593750
9845		68.359375
9846		64.453125
9847		72.265625
9848		66.406250
9849		74.218750
9850		72.265625
9851		76.171875
9852		74.218750
9853		78.125000
9854		76.171875
9855		83.984375
9856		78.125000
9857		85.937500
9858		80.078125
9859		87.890625
9860		82.031250
9861		89.843750
9862		83.984375
9863		91.796875
9864		85.937500
9865		93.750000
9866		85.937500
9867		93.750000
9868		89.843750
9869		93.750000
9870		89.843750
9871		97.656250
9872		91.796875
9873		97.656250
9874		91.796875
9875		97.656250
9876		91.796875
9877		99.609375
9878		91.796875
9879		99.609375
9880		91.796875
9881		99.609375
9882		91.796875
9883		99.609375
9884		95.703125
9885		97.656250
9886		93.750000
9887		97.656250
9888		91.796875
9889		97.656250
9890		89.843750
9891		97.656250
9892		89.843750
9893		97.656250
9894		87.890625
9895		95.703125
9896		85.937500
9897		93.750000
9898		85.937500
9899		93.750000
9900		85.937500
9901		91.796875
9902		83.984375
9903		87.890625
9904		80.078125
9905		85.937500
9906		78.125000
9907		85.937500
9908		76.171875
9909		83.984375
9910		72.265625
9911		80.078125
9912		70.312500
9913		78.125000
9914		66.406250
9915		76.171875
9916		64.453125
9917		72.265625
9918		62.500000
9919		66.406250
9920		58.593750
9921		64.453125
9922		52.734375
9923		62.500000
9924		48.828125
9925		58.593750
9926		44.921875
9927		54.687500
9928		41.015625
9929		50.781250
9930		37.109375
9931		46.875000
9932		33.203125
9933		42.968750
9934		31.250000
9935		37.109375
9936		27.343750
9937		33.203125
9938		21.484375
9939		29.296875
9940		17.578125
9941		25.390625
9942		11.718750
9943		21.484375
9944		7.812500
9945		17.578125
9946		3.906250
9947		13.671875
9948		-1.953125
9949		7.812500
9950		-3.906250
9951		3.906250
9952		-7.812500
9953		-1.953125
9954		-15.625000
9955		-7.812500
9956		-19.531250
9957		-9.765625
9958		-23.437500
9959		-13.671875
9960		-29.296875
9961		-19.531250
9962		-31.250000
9963		-23.437500
9964		-37.109375
9965		-27.343750
9966		-39.062500
9967		-31.250000
9968		-42.968750
9969		-37.109375
9970		-46.875000
9971		-41.015625
9972		-52.734375
9973		-42.968750
9974		-54.687500
9975		-46.875000
9976		-58.593750
9977		-50.781250
9978		-62.500000
9979		-52.734375
9980		-66.406250
9981		-56.640625
9982		-68.359375
9983		-60.546875
9984		-68.359375
9985		-62.500000
9986		-70.312500
9987		-66.406250
9988		-76.171875
9989		-68.359375
9990		-78.125000
9991		-70.312500
9992		-80.078125
9993		-72.265625
9994		-82.031250
9995		-74.218750
9996		-82.031250
9997		-76.171875
9998		-83.984375
9999		-76.171875
10000		-83.984375
