Channel              :		CH1
Frequency            :		  ?
Period               :		  ?
PK-PK                :		19.53mV
Probe attenuation    :		1X
Voltage per ADC value:		0.122070mV
Time interval        :		2.00000us

index		CH1_Voltage(mV)
1		7.812500
2		7.812500
3		5.859375
4		7.812500
5		5.859375
6		7.812500
7		5.859375
8		7.812500
9		5.859375
10		7.812500
11		5.859375
12		7.812500
13		5.859375
14		7.812500
15		5.859375
16		7.812500
17		5.859375
18		7.812500
19		5.859375
20		7.812500
21		5.859375
22		7.812500
23		5.859375
24		7.812500
25		5.859375
26		7.812500
27		5.859375
28		7.812500
29		5.859375
30		7.812500
31		5.859375
32		7.812500
33		5.859375
34		7.812500
35		5.859375
36		7.812500
37		5.859375
38		7.812500
39		5.859375
40		7.812500
41		5.859375
42		7.812500
43		5.859375
44		7.812500
45		5.859375
46		7.812500
47		5.859375
48		7.812500
49		5.859375
50		7.812500
51		5.859375
52		7.812500
53		5.859375
54		7.812500
55		5.859375
56		7.812500
57		5.859375
58		7.812500
59		5.859375
60		9.765625
61		5.859375
62		9.765625
63		5.859375
64		9.765625
65		7.812500
66		9.765625
67		7.812500
68		9.765625
69		7.812500
70		9.765625
71		7.812500
72		9.765625
73		7.812500
74		9.765625
75		7.812500
76		9.765625
77		7.812500
78		9.765625
79		7.812500
80		9.765625
81		7.812500
82		9.765625
83		7.812500
84		9.765625
85		7.812500
86		11.718750
87		9.765625
88		11.718750
89		9.765625
90		11.718750
91		9.765625
92		11.718750
93		9.765625
94		11.718750
95		9.765625
96		11.718750
97		9.765625
98		11.718750
99		9.765625
100		11.718750
101		9.765625
102		11.718750
103		9.765625
104		13.671875
105		9.765625
106		13.671875
107		11.718750
108		13.671875
109		11.718750
110		13.671875
111		11.718750
112		13.671875
113		11.718750
114		13.671875
115		11.718750
116		13.671875
117		11.718750
118		13.671875
119		11.718750
120		13.671875
121		11.718750
122		13.671875
123		11.718750
124		15.625000
125		11.718750
126		13.671875
127		11.718750
128		15.625000
129		13.671875
130		15.625000
131		13.671875
132		15.625000
133		13.671875
134		15.625000
135		13.671875
136		15.625000
137		13.671875
138		15.625000
139		13.671875
140		15.625000
141		13.671875
142		15.625000
143		13.671875
144		15.625000
145		13.671875
146		15.625000
147		13.671875
148		15.625000
149		13.671875
150		15.625000
151		13.671875
152		15.625000
153		13.671875
154		15.625000
155		13.671875
156		15.625000
157		13.671875
158		15.625000
159		13.671875
160		15.625000
161		13.671875
162		15.625000
163		13.671875
164		15.625000
165		13.671875
166		15.625000
167		13.671875
168		15.625000
169		13.671875
170		15.625000
171		11.718750
172		15.625000
173		13.671875
174		15.625000
175		13.671875
176		15.625000
177		13.671875
178		15.625000
179		13.671875
180		15.625000
181		11.718750
182		15.625000
183		13.671875
184		15.625000
185		11.718750
186		15.625000
187		11.718750
188		13.671875
189		11.718750
190		13.671875
191		11.718750
192		13.671875
193		11.718750
194		15.625000
195		11.718750
196		13.671875
197		11.718750
198		13.671875
199		11.718750
200		13.671875
201		11.718750
202		13.671875
203		9.765625
204		13.671875
205		9.765625
206		13.671875
207		9.765625
208		11.718750
209		9.765625
210		11.718750
211		9.765625
212		11.718750
213		9.765625
214		11.718750
215		9.765625
216		11.718750
217		9.765625
218		11.718750
219		9.765625
220		11.718750
221		9.765625
222		11.718750
223		9.765625
224		11.718750
225		7.812500
226		11.718750
227		7.812500
228		11.718750
229		7.812500
230		9.765625
231		7.812500
232		9.765625
233		7.812500
234		9.765625
235		7.812500
236		9.765625
237		7.812500
238		9.765625
239		7.812500
240		9.765625
241		7.812500
242		9.765625
243		5.859375
244		9.765625
245		7.812500
246		9.765625
247		7.812500
248		9.765625
249		5.859375
250		9.765625
251		5.859375
252		9.765625
253		5.859375
254		7.812500
255		5.859375
256		7.812500
257		5.859375
258		7.812500
259		5.859375
260		7.812500
261		5.859375
262		7.812500
263		5.859375
264		7.812500
265		5.859375
266		7.812500
267		5.859375
268		7.812500
269		5.859375
270		7.812500
271		5.859375
272		7.812500
273		5.859375
274		7.812500
275		5.859375
276		7.812500
277		5.859375
278		7.812500
279		5.859375
280		7.812500
281		5.859375
282		7.812500
283		5.859375
284		7.812500
285		5.859375
286		7.812500
287		5.859375
288		7.812500
289		5.859375
290		7.812500
291		5.859375
292		7.812500
293		5.859375
294		7.812500
295		5.859375
296		7.812500
297		5.859375
298		7.812500
299		5.859375
300		7.812500
301		5.859375
302		7.812500
303		5.859375
304		7.812500
305		5.859375
306		9.765625
307		5.859375
308		7.812500
309		5.859375
310		7.812500
311		5.859375
312		7.812500
313		5.859375
314		9.765625
315		5.859375
316		9.765625
317		7.812500
318		9.765625
319		7.812500
320		9.765625
321		7.812500
322		9.765625
323		7.812500
324		9.765625
325		7.812500
326		9.765625
327		7.812500
328		9.765625
329		7.812500
330		9.765625
331		7.812500
332		9.765625
333		7.812500
334		9.765625
335		7.812500
336		9.765625
337		7.812500
338		9.765625
339		7.812500
340		11.718750
341		9.765625
342		11.718750
343		9.765625
344		11.718750
345		9.765625
346		11.718750
347		9.765625
348		11.718750
349		9.765625
350		11.718750
351		9.765625
352		11.718750
353		9.765625
354		11.718750
355		9.765625
356		11.718750
357		9.765625
358		13.671875
359		11.718750
360		13.671875
361		9.765625
362		13.671875
363		11.718750
364		13.671875
365		11.718750
366		13.671875
367		11.718750
368		13.671875
369		11.718750
370		13.671875
371		11.718750
372		13.671875
373		11.718750
374		13.671875
375		11.718750
376		13.671875
377		11.718750
378		15.625000
379		11.718750
380		15.625000
381		11.718750
382		15.625000
383		11.718750
384		15.625000
385		13.671875
386		15.625000
387		13.671875
388		15.625000
389		13.671875
390		15.625000
391		13.671875
392		15.625000
393		13.671875
394		15.625000
395		13.671875
396		15.625000
397		13.671875
398		15.625000
399		13.671875
400		15.625000
401		13.671875
402		15.625000
403		13.671875
404		15.625000
405		13.671875
406		15.625000
407		13.671875
408		15.625000
409		13.671875
410		15.625000
411		13.671875
412		15.625000
413		13.671875
414		15.625000
415		13.671875
416		15.625000
417		13.671875
418		15.625000
419		13.671875
420		15.625000
421		13.671875
422		15.625000
423		13.671875
424		15.625000
425		13.671875
426		15.625000
427		13.671875
428		15.625000
429		13.671875
430		15.625000
431		13.671875
432		15.625000
433		13.671875
434		15.625000
435		13.671875
436		15.625000
437		13.671875
438		15.625000
439		11.718750
440		15.625000
441		11.718750
442		15.625000
443		11.718750
444		13.671875
445		11.718750
446		13.671875
447		11.718750
448		13.671875
449		11.718750
450		13.671875
451		11.718750
452		13.671875
453		11.718750
454		13.671875
455		11.718750
456		13.671875
457		11.718750
458		13.671875
459		9.765625
460		13.671875
461		9.765625
462		13.671875
463		9.765625
464		13.671875
465		9.765625
466		11.718750
467		9.765625
468		11.718750
469		9.765625
470		11.718750
471		9.765625
472		11.718750
473		9.765625
474		11.718750
475		9.765625
476		11.718750
477		9.765625
478		11.718750
479		7.812500
480		11.718750
481		7.812500
482		11.718750
483		7.812500
484		9.765625
485		7.812500
486		9.765625
487		7.812500
488		9.765625
489		7.812500
490		9.765625
491		7.812500
492		9.765625
493		7.812500
494		9.765625
495		7.812500
496		9.765625
497		5.859375
498		9.765625
499		7.812500
500		9.765625
501		7.812500
502		9.765625
503		5.859375
504		9.765625
505		7.812500
506		9.765625
507		5.859375
508		9.765625
509		5.859375
510		7.812500
511		5.859375
512		7.812500
513		5.859375
514		7.812500
515		5.859375
516		7.812500
517		5.859375
518		7.812500
519		5.859375
520		7.812500
521		5.859375
522		7.812500
523		5.859375
524		7.812500
525		5.859375
526		7.812500
527		5.859375
528		7.812500
529		5.859375
530		7.812500
531		5.859375
532		7.812500
533		5.859375
534		7.812500
535		5.859375
536		7.812500
537		5.859375
538		7.812500
539		5.859375
540		7.812500
541		5.859375
542		7.812500
543		5.859375
544		7.812500
545		5.859375
546		7.812500
547		5.859375
548		7.812500
549		5.859375
550		7.812500
551		5.859375
552		7.812500
553		5.859375
554		9.765625
555		5.859375
556		7.812500
557		5.859375
558		7.812500
559		5.859375
560		7.812500
561		5.859375
562		7.812500
563		5.859375
564		7.812500
565		5.859375
566		9.765625
567		5.859375
568		9.765625
569		7.812500
570		9.765625
571		7.812500
572		9.765625
573		7.812500
574		9.765625
575		7.812500
576		9.765625
577		7.812500
578		9.765625
579		7.812500
580		9.765625
581		7.812500
582		9.765625
583		7.812500
584		9.765625
585		7.812500
586		9.765625
587		7.812500
588		11.718750
589		7.812500
590		9.765625
591		9.765625
592		9.765625
593		7.812500
594		11.718750
595		9.765625
596		11.718750
597		9.765625
598		11.718750
599		9.765625
600		11.718750
601		9.765625
602		11.718750
603		9.765625
604		11.718750
605		9.765625
606		11.718750
607		9.765625
608		11.718750
609		9.765625
610		13.671875
611		9.765625
612		13.671875
613		11.718750
614		13.671875
615		11.718750
616		13.671875
617		11.718750
618		13.671875
619		11.718750
620		13.671875
621		11.718750
622		13.671875
623		11.718750
624		13.671875
625		11.718750
626		13.671875
627		11.718750
628		13.671875
629		11.718750
630		15.625000
631		11.718750
632		15.625000
633		11.718750
634		15.625000
635		11.718750
636		15.625000
637		13.671875
638		15.625000
639		13.671875
640		15.625000
641		13.671875
642		15.625000
643		13.671875
644		15.625000
645		13.671875
646		15.625000
647		13.671875
648		15.625000
649		13.671875
650		15.625000
651		13.671875
652		15.625000
653		13.671875
654		15.625000
655		13.671875
656		15.625000
657		13.671875
658		15.625000
659		13.671875
660		15.625000
661		13.671875
662		15.625000
663		13.671875
664		15.625000
665		13.671875
666		15.625000
667		13.671875
668		15.625000
669		13.671875
670		15.625000
671		13.671875
672		15.625000
673		13.671875
674		15.625000
675		13.671875
676		15.625000
677		13.671875
678		15.625000
679		13.671875
680		15.625000
681		11.718750
682		17.578125
683		13.671875
684		15.625000
685		11.718750
686		17.578125
687		13.671875
688		15.625000
689		13.671875
690		15.625000
691		11.718750
692		15.625000
693		13.671875
694		15.625000
695		11.718750
696		13.671875
697		11.718750
698		15.625000
699		9.765625
700		15.625000
701		11.718750
702		15.625000
703		9.765625
704		15.625000
705		9.765625
706		15.625000
707		11.718750
708		13.671875
709		11.718750
710		13.671875
711		9.765625
712		13.671875
713		9.765625
714		13.671875
715		7.812500
716		13.671875
717		9.765625
718		13.671875
719		7.812500
720		13.671875
721		9.765625
722		11.718750
723		7.812500
724		13.671875
725		9.765625
726		11.718750
727		7.812500
728		11.718750
729		7.812500
730		11.718750
731		5.859375
732		11.718750
733		7.812500
734		11.718750
735		7.812500
736		11.718750
737		7.812500
738		11.718750
739		5.859375
740		13.671875
741		7.812500
742		9.765625
743		7.812500
744		9.765625
745		5.859375
746		11.718750
747		5.859375
748		11.718750
749		5.859375
750		11.718750
751		5.859375
752		9.765625
753		5.859375
754		9.765625
755		7.812500
756		9.765625
757		5.859375
758		11.718750
759		5.859375
760		7.812500
761		3.906250
762		9.765625
763		3.906250
764		11.718750
765		5.859375
766		9.765625
767		5.859375
768		9.765625
769		3.906250
770		9.765625
771		1.953125
772		11.718750
773		1.953125
774		9.765625
775		5.859375
776		7.812500
777		5.859375
778		7.812500
779		5.859375
780		9.765625
781		1.953125
782		11.718750
783		3.906250
784		9.765625
785		5.859375
786		9.765625
787		1.953125
788		11.718750
789		3.906250
790		11.718750
791		1.953125
792		11.718750
793		5.859375
794		7.812500
795		3.906250
796		9.765625
797		1.953125
798		11.718750
799		3.906250
800		9.765625
801		5.859375
802		7.812500
803		3.906250
804		11.718750
805		1.953125
806		11.718750
807		1.953125
808		11.718750
809		5.859375
810		7.812500
811		5.859375
812		7.812500
813		3.906250
814		11.718750
815		3.906250
816		11.718750
817		5.859375
818		9.765625
819		5.859375
820		9.765625
821		1.953125
822		13.671875
823		3.906250
824		11.718750
825		7.812500
826		9.765625
827		7.812500
828		9.765625
829		5.859375
830		11.718750
831		3.906250
832		13.671875
833		5.859375
834		11.718750
835		7.812500
836		9.765625
837		5.859375
838		13.671875
839		5.859375
840		13.671875
841		5.859375
842		13.671875
843		7.812500
844		11.718750
845		7.812500
846		11.718750
847		5.859375
848		15.625000
849		5.859375
850		13.671875
851		9.765625
852		11.718750
853		7.812500
854		13.671875
855		5.859375
856		15.625000
857		5.859375
858		15.625000
859		9.765625
860		11.718750
861		9.765625
862		11.718750
863		9.765625
864		13.671875
865		7.812500
866		17.578125
867		9.765625
868		15.625000
869		11.718750
870		13.671875
871		7.812500
872		17.578125
873		11.718750
874		13.671875
875		7.812500
876		15.625000
877		11.718750
878		13.671875
879		11.718750
880		15.625000
881		9.765625
882		17.578125
883		11.718750
884		15.625000
885		13.671875
886		15.625000
887		9.765625
888		17.578125
889		9.765625
890		17.578125
891		11.718750
892		17.578125
893		13.671875
894		15.625000
895		13.671875
896		15.625000
897		11.718750
898		19.531250
899		9.765625
900		19.531250
901		13.671875
902		15.625000
903		11.718750
904		17.578125
905		11.718750
906		19.531250
907		11.718750
908		17.578125
909		13.671875
910		15.625000
911		13.671875
912		15.625000
913		13.671875
914		17.578125
915		11.718750
916		19.531250
917		11.718750
918		17.578125
919		13.671875
920		15.625000
921		11.718750
922		19.531250
923		11.718750
924		19.531250
925		11.718750
926		17.578125
927		13.671875
928		15.625000
929		13.671875
930		15.625000
931		13.671875
932		17.578125
933		11.718750
934		17.578125
935		13.671875
936		15.625000
937		11.718750
938		17.578125
939		9.765625
940		19.531250
941		9.765625
942		17.578125
943		13.671875
944		15.625000
945		13.671875
946		15.625000
947		11.718750
948		15.625000
949		11.718750
950		15.625000
951		11.718750
952		17.578125
953		11.718750
954		13.671875
955		11.718750
956		17.578125
957		11.718750
958		13.671875
959		9.765625
960		17.578125
961		11.718750
962		13.671875
963		11.718750
964		13.671875
965		9.765625
966		13.671875
967		7.812500
968		15.625000
969		9.765625
970		13.671875
971		9.765625
972		13.671875
973		9.765625
974		11.718750
975		9.765625
976		11.718750
977		9.765625
978		11.718750
979		9.765625
980		11.718750
981		9.765625
982		11.718750
983		7.812500
984		11.718750
985		7.812500
986		11.718750
987		7.812500
988		11.718750
989		7.812500
990		11.718750
991		7.812500
992		9.765625
993		7.812500
994		9.765625
995		7.812500
996		9.765625
997		7.812500
998		11.718750
999		7.812500
1000		9.765625
1001		7.812500
1002		9.765625
1003		7.812500
1004		9.765625
1005		7.812500
1006		9.765625
1007		7.812500
1008		9.765625
1009		5.859375
1010		9.765625
1011		5.859375
1012		9.765625
1013		5.859375
1014		9.765625
1015		5.859375
1016		7.812500
1017		5.859375
1018		7.812500
1019		5.859375
1020		9.765625
1021		5.859375
1022		9.765625
1023		5.859375
1024		7.812500
1025		5.859375
1026		9.765625
1027		5.859375
1028		7.812500
1029		5.859375
1030		7.812500
1031		3.906250
1032		9.765625
1033		3.906250
1034		9.765625
1035		5.859375
1036		9.765625
1037		3.906250
1038		9.765625
1039		3.906250
1040		9.765625
1041		3.906250
1042		9.765625
1043		5.859375
1044		9.765625
1045		5.859375
1046		9.765625
1047		3.906250
1048		9.765625
1049		5.859375
1050		9.765625
1051		5.859375
1052		9.765625
1053		5.859375
1054		9.765625
1055		5.859375
1056		9.765625
1057		5.859375
1058		9.765625
1059		5.859375
1060		9.765625
1061		5.859375
1062		7.812500
1063		5.859375
1064		7.812500
1065		5.859375
1066		9.765625
1067		5.859375
1068		9.765625
1069		5.859375
1070		9.765625
1071		5.859375
1072		9.765625
1073		5.859375
1074		9.765625
1075		5.859375
1076		11.718750
1077		5.859375
1078		9.765625
1079		7.812500
1080		9.765625
1081		5.859375
1082		11.718750
1083		5.859375
1084		11.718750
1085		5.859375
1086		11.718750
1087		5.859375
1088		11.718750
1089		7.812500
1090		11.718750
1091		7.812500
1092		11.718750
1093		7.812500
1094		11.718750
1095		9.765625
1096		11.718750
1097		7.812500
1098		11.718750
1099		7.812500
1100		13.671875
1101		7.812500
1102		11.718750
1103		7.812500
1104		13.671875
1105		7.812500
1106		13.671875
1107		7.812500
1108		13.671875
1109		9.765625
1110		13.671875
1111		9.765625
1112		13.671875
1113		9.765625
1114		11.718750
1115		9.765625
1116		13.671875
1117		9.765625
1118		13.671875
1119		9.765625
1120		13.671875
1121		7.812500
1122		15.625000
1123		9.765625
1124		13.671875
1125		9.765625
1126		15.625000
1127		11.718750
1128		15.625000
1129		11.718750
1130		13.671875
1131		11.718750
1132		15.625000
1133		11.718750
1134		15.625000
1135		11.718750
1136		15.625000
1137		9.765625
1138		17.578125
1139		11.718750
1140		15.625000
1141		11.718750
1142		15.625000
1143		11.718750
1144		15.625000
1145		13.671875
1146		15.625000
1147		13.671875
1148		15.625000
1149		13.671875
1150		15.625000
1151		13.671875
1152		15.625000
1153		13.671875
1154		15.625000
1155		11.718750
1156		17.578125
1157		13.671875
1158		17.578125
1159		13.671875
1160		17.578125
1161		13.671875
1162		17.578125
1163		13.671875
1164		17.578125
1165		13.671875
1166		17.578125
1167		13.671875
1168		17.578125
1169		13.671875
1170		17.578125
1171		11.718750
1172		17.578125
1173		13.671875
1174		17.578125
1175		13.671875
1176		17.578125
1177		13.671875
1178		17.578125
1179		13.671875
1180		15.625000
1181		11.718750
1182		17.578125
1183		13.671875
1184		17.578125
1185		13.671875
1186		17.578125
1187		11.718750
1188		17.578125
1189		13.671875
1190		15.625000
1191		13.671875
1192		15.625000
1193		13.671875
1194		17.578125
1195		13.671875
1196		15.625000
1197		13.671875
1198		15.625000
1199		11.718750
1200		15.625000
1201		11.718750
1202		15.625000
1203		11.718750
1204		15.625000
1205		11.718750
1206		15.625000
1207		11.718750
1208		15.625000
1209		11.718750
1210		15.625000
1211		11.718750
1212		15.625000
1213		11.718750
1214		13.671875
1215		11.718750
1216		13.671875
1217		11.718750
1218		13.671875
1219		9.765625
1220		13.671875
1221		9.765625
1222		13.671875
1223		9.765625
1224		13.671875
1225		9.765625
1226		13.671875
1227		9.765625
1228		13.671875
1229		9.765625
1230		11.718750
1231		9.765625
1232		11.718750
1233		9.765625
1234		11.718750
1235		9.765625
1236		11.718750
1237		7.812500
1238		11.718750
1239		7.812500
1240		13.671875
1241		7.812500
1242		11.718750
1243		7.812500
1244		11.718750
1245		7.812500
1246		11.718750
1247		7.812500
1248		9.765625
1249		7.812500
1250		11.718750
1251		7.812500
1252		11.718750
1253		7.812500
1254		9.765625
1255		7.812500
1256		9.765625
1257		7.812500
1258		9.765625
1259		7.812500
1260		9.765625
1261		7.812500
1262		9.765625
1263		5.859375
1264		9.765625
1265		5.859375
1266		9.765625
1267		5.859375
1268		11.718750
1269		5.859375
1270		9.765625
1271		5.859375
1272		9.765625
1273		5.859375
1274		9.765625
1275		5.859375
1276		9.765625
1277		5.859375
1278		9.765625
1279		5.859375
1280		9.765625
1281		5.859375
1282		7.812500
1283		5.859375
1284		9.765625
1285		5.859375
1286		9.765625
1287		5.859375
1288		9.765625
1289		5.859375
1290		7.812500
1291		5.859375
1292		9.765625
1293		5.859375
1294		9.765625
1295		5.859375
1296		9.765625
1297		5.859375
1298		7.812500
1299		5.859375
1300		9.765625
1301		5.859375
1302		9.765625
1303		5.859375
1304		9.765625
1305		5.859375
1306		9.765625
1307		5.859375
1308		9.765625
1309		5.859375
1310		9.765625
1311		5.859375
1312		9.765625
1313		5.859375
1314		7.812500
1315		5.859375
1316		9.765625
1317		5.859375
1318		9.765625
1319		7.812500
1320		9.765625
1321		5.859375
1322		9.765625
1323		5.859375
1324		9.765625
1325		5.859375
1326		9.765625
1327		5.859375
1328		9.765625
1329		7.812500
1330		9.765625
1331		7.812500
1332		9.765625
1333		5.859375
1334		11.718750
1335		7.812500
1336		9.765625
1337		7.812500
1338		11.718750
1339		7.812500
1340		11.718750
1341		7.812500
1342		11.718750
1343		7.812500
1344		11.718750
1345		7.812500
1346		11.718750
1347		9.765625
1348		11.718750
1349		7.812500
1350		11.718750
1351		9.765625
1352		11.718750
1353		9.765625
1354		11.718750
1355		9.765625
1356		11.718750
1357		9.765625
1358		13.671875
1359		9.765625
1360		13.671875
1361		9.765625
1362		13.671875
1363		9.765625
1364		13.671875
1365		9.765625
1366		13.671875
1367		9.765625
1368		13.671875
1369		9.765625
1370		13.671875
1371		11.718750
1372		13.671875
1373		11.718750
1374		13.671875
1375		11.718750
1376		15.625000
1377		11.718750
1378		13.671875
1379		11.718750
1380		13.671875
1381		11.718750
1382		13.671875
1383		11.718750
1384		15.625000
1385		11.718750
1386		15.625000
1387		11.718750
1388		15.625000
1389		11.718750
1390		15.625000
1391		11.718750
1392		15.625000
1393		13.671875
1394		17.578125
1395		13.671875
1396		15.625000
1397		13.671875
1398		15.625000
1399		13.671875
1400		15.625000
1401		13.671875
1402		17.578125
1403		13.671875
1404		15.625000
1405		13.671875
1406		17.578125
1407		13.671875
1408		17.578125
1409		13.671875
1410		17.578125
1411		13.671875
1412		17.578125
1413		13.671875
1414		17.578125
1415		15.625000
1416		15.625000
1417		13.671875
1418		17.578125
1419		13.671875
1420		17.578125
1421		13.671875
1422		17.578125
1423		13.671875
1424		17.578125
1425		13.671875
1426		17.578125
1427		13.671875
1428		17.578125
1429		13.671875
1430		17.578125
1431		13.671875
1432		17.578125
1433		13.671875
1434		17.578125
1435		13.671875
1436		17.578125
1437		13.671875
1438		17.578125
1439		13.671875
1440		17.578125
1441		13.671875
1442		17.578125
1443		13.671875
1444		17.578125
1445		13.671875
1446		17.578125
1447		13.671875
1448		15.625000
1449		13.671875
1450		15.625000
1451		11.718750
1452		17.578125
1453		13.671875
1454		15.625000
1455		13.671875
1456		15.625000
1457		11.718750
1458		15.625000
1459		11.718750
1460		15.625000
1461		11.718750
1462		15.625000
1463		11.718750
1464		15.625000
1465		11.718750
1466		13.671875
1467		11.718750
1468		15.625000
1469		11.718750
1470		13.671875
1471		11.718750
1472		13.671875
1473		11.718750
1474		13.671875
1475		9.765625
1476		13.671875
1477		11.718750
1478		13.671875
1479		9.765625
1480		13.671875
1481		9.765625
1482		13.671875
1483		9.765625
1484		11.718750
1485		9.765625
1486		13.671875
1487		9.765625
1488		11.718750
1489		9.765625
1490		11.718750
1491		9.765625
1492		11.718750
1493		9.765625
1494		11.718750
1495		7.812500
1496		11.718750
1497		7.812500
1498		11.718750
1499		9.765625
1500		11.718750
1501		7.812500
1502		11.718750
1503		7.812500
1504		11.718750
1505		7.812500
1506		11.718750
1507		7.812500
1508		9.765625
1509		7.812500
1510		9.765625
1511		7.812500
1512		9.765625
1513		5.859375
1514		9.765625
1515		7.812500
1516		9.765625
1517		5.859375
1518		9.765625
1519		5.859375
1520		9.765625
1521		5.859375
1522		9.765625
1523		5.859375
1524		9.765625
1525		7.812500
1526		9.765625
1527		5.859375
1528		9.765625
1529		5.859375
1530		9.765625
1531		5.859375
1532		9.765625
1533		5.859375
1534		9.765625
1535		5.859375
1536		9.765625
1537		5.859375
1538		9.765625
1539		5.859375
1540		9.765625
1541		5.859375
1542		9.765625
1543		5.859375
1544		9.765625
1545		5.859375
1546		9.765625
1547		5.859375
1548		9.765625
1549		5.859375
1550		7.812500
1551		5.859375
1552		9.765625
1553		5.859375
1554		9.765625
1555		5.859375
1556		9.765625
1557		5.859375
1558		9.765625
1559		5.859375
1560		9.765625
1561		5.859375
1562		9.765625
1563		5.859375
1564		9.765625
1565		5.859375
1566		9.765625
1567		7.812500
1568		9.765625
1569		5.859375
1570		9.765625
1571		5.859375
1572		9.765625
1573		5.859375
1574		9.765625
1575		5.859375
1576		9.765625
1577		5.859375
1578		9.765625
1579		7.812500
1580		9.765625
1581		5.859375
1582		11.718750
1583		7.812500
1584		9.765625
1585		7.812500
1586		11.718750
1587		7.812500
1588		9.765625
1589		7.812500
1590		11.718750
1591		7.812500
1592		11.718750
1593		7.812500
1594		11.718750
1595		7.812500
1596		11.718750
1597		7.812500
1598		11.718750
1599		9.765625
1600		11.718750
1601		9.765625
1602		11.718750
1603		7.812500
1604		11.718750
1605		9.765625
1606		11.718750
1607		9.765625
1608		11.718750
1609		9.765625
1610		13.671875
1611		9.765625
1612		11.718750
1613		9.765625
1614		13.671875
1615		9.765625
1616		13.671875
1617		9.765625
1618		13.671875
1619		9.765625
1620		13.671875
1621		9.765625
1622		13.671875
1623		9.765625
1624		13.671875
1625		11.718750
1626		13.671875
1627		11.718750
1628		13.671875
1629		11.718750
1630		13.671875
1631		11.718750
1632		15.625000
1633		11.718750
1634		13.671875
1635		11.718750
1636		15.625000
1637		11.718750
1638		15.625000
1639		11.718750
1640		15.625000
1641		11.718750
1642		15.625000
1643		11.718750
1644		15.625000
1645		13.671875
1646		15.625000
1647		11.718750
1648		15.625000
1649		13.671875
1650		15.625000
1651		13.671875
1652		15.625000
1653		11.718750
1654		17.578125
1655		13.671875
1656		15.625000
1657		13.671875
1658		15.625000
1659		13.671875
1660		17.578125
1661		13.671875
1662		17.578125
1663		13.671875
1664		17.578125
1665		13.671875
1666		17.578125
1667		13.671875
1668		15.625000
1669		13.671875
1670		17.578125
1671		13.671875
1672		17.578125
1673		13.671875
1674		17.578125
1675		13.671875
1676		17.578125
1677		13.671875
1678		17.578125
1679		13.671875
1680		17.578125
1681		13.671875
1682		17.578125
1683		15.625000
1684		17.578125
1685		13.671875
1686		17.578125
1687		13.671875
1688		17.578125
1689		13.671875
1690		17.578125
1691		13.671875
1692		17.578125
1693		13.671875
1694		17.578125
1695		13.671875
1696		17.578125
1697		13.671875
1698		17.578125
1699		13.671875
1700		17.578125
1701		13.671875
1702		15.625000
1703		13.671875
1704		15.625000
1705		13.671875
1706		15.625000
1707		13.671875
1708		15.625000
1709		13.671875
1710		17.578125
1711		11.718750
1712		15.625000
1713		11.718750
1714		15.625000
1715		11.718750
1716		15.625000
1717		11.718750
1718		13.671875
1719		11.718750
1720		13.671875
1721		11.718750
1722		13.671875
1723		11.718750
1724		13.671875
1725		11.718750
1726		13.671875
1727		11.718750
1728		13.671875
1729		9.765625
1730		13.671875
1731		9.765625
1732		13.671875
1733		9.765625
1734		13.671875
1735		9.765625
1736		11.718750
1737		9.765625
1738		13.671875
1739		9.765625
1740		13.671875
1741		9.765625
1742		11.718750
1743		9.765625
1744		11.718750
1745		9.765625
1746		11.718750
1747		9.765625
1748		11.718750
1749		7.812500
1750		11.718750
1751		9.765625
1752		11.718750
1753		7.812500
1754		11.718750
1755		7.812500
1756		11.718750
1757		7.812500
1758		11.718750
1759		7.812500
1760		11.718750
1761		7.812500
1762		11.718750
1763		7.812500
1764		9.765625
1765		7.812500
1766		11.718750
1767		7.812500
1768		9.765625
1769		7.812500
1770		9.765625
1771		5.859375
1772		9.765625
1773		7.812500
1774		9.765625
1775		5.859375
1776		9.765625
1777		5.859375
1778		9.765625
1779		7.812500
1780		9.765625
1781		5.859375
1782		9.765625
1783		5.859375
1784		9.765625
1785		5.859375
1786		9.765625
1787		5.859375
1788		9.765625
1789		5.859375
1790		9.765625
1791		5.859375
1792		9.765625
1793		5.859375
1794		9.765625
1795		5.859375
1796		9.765625
1797		5.859375
1798		9.765625
1799		5.859375
1800		9.765625
1801		5.859375
1802		7.812500
1803		5.859375
1804		9.765625
1805		5.859375
1806		9.765625
1807		5.859375
1808		9.765625
1809		5.859375
1810		9.765625
1811		5.859375
1812		9.765625
1813		5.859375
1814		9.765625
1815		5.859375
1816		9.765625
1817		7.812500
1818		9.765625
1819		7.812500
1820		9.765625
1821		5.859375
1822		9.765625
1823		5.859375
1824		9.765625
1825		5.859375
1826		9.765625
1827		5.859375
1828		9.765625
1829		7.812500
1830		9.765625
1831		7.812500
1832		9.765625
1833		7.812500
1834		11.718750
1835		7.812500
1836		9.765625
1837		7.812500
1838		9.765625
1839		7.812500
1840		9.765625
1841		7.812500
1842		9.765625
1843		7.812500
1844		11.718750
1845		7.812500
1846		11.718750
1847		7.812500
1848		11.718750
1849		7.812500
1850		11.718750
1851		9.765625
1852		11.718750
1853		9.765625
1854		11.718750
1855		7.812500
1856		11.718750
1857		9.765625
1858		11.718750
1859		9.765625
1860		11.718750
1861		9.765625
1862		13.671875
1863		9.765625
1864		13.671875
1865		9.765625
1866		13.671875
1867		9.765625
1868		13.671875
1869		9.765625
1870		11.718750
1871		9.765625
1872		13.671875
1873		11.718750
1874		13.671875
1875		11.718750
1876		13.671875
1877		11.718750
1878		13.671875
1879		11.718750
1880		13.671875
1881		11.718750
1882		13.671875
1883		11.718750
1884		13.671875
1885		11.718750
1886		13.671875
1887		11.718750
1888		15.625000
1889		11.718750
1890		15.625000
1891		11.718750
1892		15.625000
1893		13.671875
1894		15.625000
1895		11.718750
1896		15.625000
1897		11.718750
1898		15.625000
1899		11.718750
1900		15.625000
1901		13.671875
1902		15.625000
1903		13.671875
1904		15.625000
1905		13.671875
1906		17.578125
1907		13.671875
1908		15.625000
1909		13.671875
1910		17.578125
1911		13.671875
1912		15.625000
1913		13.671875
1914		17.578125
1915		13.671875
1916		17.578125
1917		13.671875
1918		17.578125
1919		13.671875
1920		17.578125
1921		13.671875
1922		17.578125
1923		13.671875
1924		17.578125
1925		13.671875
1926		17.578125
1927		13.671875
1928		17.578125
1929		13.671875
1930		17.578125
1931		13.671875
1932		17.578125
1933		13.671875
1934		17.578125
1935		15.625000
1936		17.578125
1937		13.671875
1938		15.625000
1939		13.671875
1940		17.578125
1941		13.671875
1942		17.578125
1943		13.671875
1944		17.578125
1945		13.671875
1946		17.578125
1947		13.671875
1948		17.578125
1949		13.671875
1950		17.578125
1951		13.671875
1952		15.625000
1953		13.671875
1954		15.625000
1955		13.671875
1956		17.578125
1957		13.671875
1958		15.625000
1959		13.671875
1960		15.625000
1961		13.671875
1962		15.625000
1963		13.671875
1964		15.625000
1965		11.718750
1966		15.625000
1967		11.718750
1968		15.625000
1969		11.718750
1970		15.625000
1971		11.718750
1972		15.625000
1973		11.718750
1974		15.625000
1975		11.718750
1976		13.671875
1977		11.718750
1978		13.671875
1979		11.718750
1980		13.671875
1981		11.718750
1982		13.671875
1983		9.765625
1984		13.671875
1985		11.718750
1986		13.671875
1987		11.718750
1988		13.671875
1989		9.765625
1990		13.671875
1991		9.765625
1992		13.671875
1993		9.765625
1994		13.671875
1995		9.765625
1996		11.718750
1997		9.765625
1998		11.718750
1999		9.765625
2000		11.718750
2001		7.812500
2002		11.718750
2003		9.765625
2004		11.718750
2005		7.812500
2006		11.718750
2007		7.812500
2008		11.718750
2009		7.812500
2010		11.718750
2011		7.812500
2012		11.718750
2013		7.812500
2014		11.718750
2015		7.812500
2016		9.765625
2017		7.812500
2018		11.718750
2019		7.812500
2020		9.765625
2021		7.812500
2022		9.765625
2023		5.859375
2024		9.765625
2025		7.812500
2026		9.765625
2027		7.812500
2028		9.765625
2029		7.812500
2030		9.765625
2031		7.812500
2032		9.765625
2033		5.859375
2034		9.765625
2035		5.859375
2036		9.765625
2037		7.812500
2038		9.765625
2039		5.859375
2040		9.765625
2041		5.859375
2042		9.765625
2043		5.859375
2044		9.765625
2045		5.859375
2046		9.765625
2047		5.859375
2048		9.765625
2049		5.859375
2050		9.765625
2051		5.859375
2052		9.765625
2053		5.859375
2054		9.765625
2055		5.859375
2056		7.812500
2057		5.859375
2058		9.765625
2059		5.859375
2060		9.765625
2061		5.859375
2062		9.765625
2063		5.859375
2064		9.765625
2065		5.859375
2066		9.765625
2067		5.859375
2068		9.765625
2069		7.812500
2070		9.765625
2071		5.859375
2072		9.765625
2073		5.859375
2074		9.765625
2075		5.859375
2076		9.765625
2077		7.812500
2078		9.765625
2079		5.859375
2080		9.765625
2081		5.859375
2082		9.765625
2083		7.812500
2084		9.765625
2085		7.812500
2086		9.765625
2087		7.812500
2088		9.765625
2089		5.859375
2090		9.765625
2091		7.812500
2092		11.718750
2093		7.812500
2094		11.718750
2095		7.812500
2096		9.765625
2097		7.812500
2098		11.718750
2099		7.812500
2100		11.718750
2101		7.812500
2102		11.718750
2103		7.812500
2104		11.718750
2105		9.765625
2106		11.718750
2107		7.812500
2108		11.718750
2109		9.765625
2110		11.718750
2111		7.812500
2112		11.718750
2113		9.765625
2114		11.718750
2115		9.765625
2116		13.671875
2117		9.765625
2118		11.718750
2119		7.812500
2120		13.671875
2121		9.765625
2122		11.718750
2123		9.765625
2124		13.671875
2125		9.765625
2126		13.671875
2127		9.765625
2128		13.671875
2129		11.718750
2130		13.671875
2131		11.718750
2132		13.671875
2133		11.718750
2134		13.671875
2135		11.718750
2136		15.625000
2137		11.718750
2138		13.671875
2139		11.718750
2140		13.671875
2141		11.718750
2142		15.625000
2143		11.718750
2144		15.625000
2145		11.718750
2146		15.625000
2147		11.718750
2148		15.625000
2149		11.718750
2150		15.625000
2151		13.671875
2152		15.625000
2153		13.671875
2154		15.625000
2155		13.671875
2156		15.625000
2157		11.718750
2158		15.625000
2159		13.671875
2160		17.578125
2161		13.671875
2162		17.578125
2163		13.671875
2164		15.625000
2165		13.671875
2166		17.578125
2167		13.671875
2168		17.578125
2169		13.671875
2170		17.578125
2171		13.671875
2172		17.578125
2173		13.671875
2174		17.578125
2175		13.671875
2176		17.578125
2177		13.671875
2178		17.578125
2179		13.671875
2180		17.578125
2181		15.625000
2182		17.578125
2183		13.671875
2184		17.578125
2185		13.671875
2186		17.578125
2187		13.671875
2188		17.578125
2189		13.671875
2190		17.578125
2191		13.671875
2192		17.578125
2193		13.671875
2194		17.578125
2195		13.671875
2196		17.578125
2197		13.671875
2198		17.578125
2199		13.671875
2200		17.578125
2201		13.671875
2202		17.578125
2203		13.671875
2204		17.578125
2205		13.671875
2206		15.625000
2207		13.671875
2208		15.625000
2209		13.671875
2210		15.625000
2211		13.671875
2212		15.625000
2213		13.671875
2214		15.625000
2215		13.671875
2216		15.625000
2217		11.718750
2218		15.625000
2219		11.718750
2220		15.625000
2221		13.671875
2222		15.625000
2223		11.718750
2224		15.625000
2225		11.718750
2226		15.625000
2227		11.718750
2228		15.625000
2229		11.718750
2230		15.625000
2231		11.718750
2232		15.625000
2233		11.718750
2234		13.671875
2235		11.718750
2236		13.671875
2237		9.765625
2238		13.671875
2239		11.718750
2240		13.671875
2241		9.765625
2242		13.671875
2243		9.765625
2244		13.671875
2245		9.765625
2246		13.671875
2247		9.765625
2248		11.718750
2249		9.765625
2250		11.718750
2251		9.765625
2252		11.718750
2253		7.812500
2254		11.718750
2255		9.765625
2256		11.718750
2257		9.765625
2258		11.718750
2259		7.812500
2260		11.718750
2261		7.812500
2262		11.718750
2263		7.812500
2264		11.718750
2265		7.812500
2266		11.718750
2267		7.812500
2268		9.765625
2269		7.812500
2270		11.718750
2271		7.812500
2272		9.765625
2273		7.812500
2274		9.765625
2275		5.859375
2276		9.765625
2277		5.859375
2278		9.765625
2279		7.812500
2280		9.765625
2281		7.812500
2282		9.765625
2283		5.859375
2284		9.765625
2285		7.812500
2286		9.765625
2287		5.859375
2288		9.765625
2289		7.812500
2290		9.765625
2291		5.859375
2292		9.765625
2293		5.859375
2294		9.765625
2295		5.859375
2296		9.765625
2297		5.859375
2298		9.765625
2299		5.859375
2300		9.765625
2301		5.859375
2302		9.765625
2303		5.859375
2304		9.765625
2305		5.859375
2306		9.765625
2307		5.859375
2308		9.765625
2309		5.859375
2310		9.765625
2311		5.859375
2312		9.765625
2313		5.859375
2314		9.765625
2315		5.859375
2316		9.765625
2317		5.859375
2318		9.765625
2319		5.859375
2320		9.765625
2321		5.859375
2322		9.765625
2323		7.812500
2324		9.765625
2325		7.812500
2326		9.765625
2327		5.859375
2328		9.765625
2329		5.859375
2330		9.765625
2331		7.812500
2332		9.765625
2333		7.812500
2334		9.765625
2335		7.812500
2336		9.765625
2337		5.859375
2338		9.765625
2339		7.812500
2340		9.765625
2341		7.812500
2342		9.765625
2343		7.812500
2344		11.718750
2345		7.812500
2346		9.765625
2347		7.812500
2348		9.765625
2349		7.812500
2350		11.718750
2351		7.812500
2352		11.718750
2353		7.812500
2354		11.718750
2355		9.765625
2356		11.718750
2357		9.765625
2358		11.718750
2359		7.812500
2360		11.718750
2361		9.765625
2362		11.718750
2363		7.812500
2364		11.718750
2365		9.765625
2366		11.718750
2367		9.765625
2368		11.718750
2369		9.765625
2370		13.671875
2371		9.765625
2372		13.671875
2373		9.765625
2374		11.718750
2375		9.765625
2376		13.671875
2377		9.765625
2378		13.671875
2379		9.765625
2380		13.671875
2381		9.765625
2382		13.671875
2383		11.718750
2384		13.671875
2385		11.718750
2386		13.671875
2387		11.718750
2388		13.671875
2389		11.718750
2390		13.671875
2391		11.718750
2392		13.671875
2393		11.718750
2394		15.625000
2395		11.718750
2396		15.625000
2397		11.718750
2398		15.625000
2399		11.718750
2400		15.625000
2401		11.718750
2402		15.625000
2403		13.671875
2404		15.625000
2405		11.718750
2406		15.625000
2407		13.671875
2408		15.625000
2409		11.718750
2410		15.625000
2411		13.671875
2412		15.625000
2413		13.671875
2414		15.625000
2415		13.671875
2416		17.578125
2417		13.671875
2418		17.578125
2419		13.671875
2420		17.578125
2421		13.671875
2422		17.578125
2423		13.671875
2424		17.578125
2425		13.671875
2426		17.578125
2427		13.671875
2428		17.578125
2429		13.671875
2430		17.578125
2431		13.671875
2432		17.578125
2433		13.671875
2434		17.578125
2435		13.671875
2436		17.578125
2437		13.671875
2438		17.578125
2439		13.671875
2440		17.578125
2441		13.671875
2442		17.578125
2443		13.671875
2444		17.578125
2445		13.671875
2446		17.578125
2447		13.671875
2448		17.578125
2449		13.671875
2450		17.578125
2451		13.671875
2452		17.578125
2453		13.671875
2454		17.578125
2455		13.671875
2456		17.578125
2457		13.671875
2458		15.625000
2459		13.671875
2460		17.578125
2461		13.671875
2462		15.625000
2463		13.671875
2464		17.578125
2465		13.671875
2466		15.625000
2467		13.671875
2468		15.625000
2469		13.671875
2470		15.625000
2471		11.718750
2472		15.625000
2473		13.671875
2474		15.625000
2475		13.671875
2476		15.625000
2477		11.718750
2478		15.625000
2479		11.718750
2480		15.625000
2481		11.718750
2482		15.625000
2483		11.718750
2484		13.671875
2485		11.718750
2486		13.671875
2487		11.718750
2488		13.671875
2489		11.718750
2490		15.625000
2491		11.718750
2492		13.671875
2493		9.765625
2494		13.671875
2495		9.765625
2496		13.671875
2497		9.765625
2498		13.671875
2499		9.765625
2500		13.671875
2501		9.765625
2502		11.718750
2503		9.765625
2504		11.718750
2505		9.765625
2506		13.671875
2507		9.765625
2508		11.718750
2509		7.812500
2510		11.718750
2511		7.812500
2512		11.718750
2513		7.812500
2514		11.718750
2515		7.812500
2516		11.718750
2517		7.812500
2518		11.718750
2519		7.812500
2520		11.718750
2521		5.859375
2522		11.718750
2523		7.812500
2524		9.765625
2525		7.812500
2526		9.765625
2527		7.812500
2528		11.718750
2529		7.812500
2530		9.765625
2531		5.859375
2532		9.765625
2533		5.859375
2534		9.765625
2535		5.859375
2536		9.765625
2537		5.859375
2538		9.765625
2539		5.859375
2540		9.765625
2541		7.812500
2542		9.765625
2543		5.859375
2544		9.765625
2545		5.859375
2546		9.765625
2547		5.859375
2548		9.765625
2549		5.859375
2550		9.765625
2551		5.859375
2552		9.765625
2553		5.859375
2554		9.765625
2555		5.859375
2556		9.765625
2557		5.859375
2558		9.765625
2559		5.859375
2560		7.812500
2561		5.859375
2562		9.765625
2563		5.859375
2564		9.765625
2565		5.859375
2566		9.765625
2567		5.859375
2568		9.765625
2569		5.859375
2570		9.765625
2571		5.859375
2572		9.765625
2573		5.859375
2574		9.765625
2575		7.812500
2576		9.765625
2577		5.859375
2578		9.765625
2579		5.859375
2580		9.765625
2581		7.812500
2582		9.765625
2583		5.859375
2584		9.765625
2585		7.812500
2586		9.765625
2587		7.812500
2588		9.765625
2589		5.859375
2590		9.765625
2591		7.812500
2592		9.765625
2593		7.812500
2594		9.765625
2595		5.859375
2596		9.765625
2597		7.812500
2598		9.765625
2599		7.812500
2600		9.765625
2601		7.812500
2602		9.765625
2603		7.812500
2604		11.718750
2605		7.812500
2606		11.718750
2607		7.812500
2608		11.718750
2609		7.812500
2610		11.718750
2611		7.812500
2612		11.718750
2613		7.812500
2614		11.718750
2615		9.765625
2616		11.718750
2617		9.765625
2618		11.718750
2619		9.765625
2620		11.718750
2621		9.765625
2622		11.718750
2623		9.765625
2624		13.671875
2625		9.765625
2626		11.718750
2627		9.765625
2628		13.671875
2629		9.765625
2630		13.671875
2631		9.765625
2632		13.671875
2633		9.765625
2634		13.671875
2635		9.765625
2636		13.671875
2637		11.718750
2638		13.671875
2639		11.718750
2640		13.671875
2641		11.718750
2642		13.671875
2643		11.718750
2644		13.671875
2645		11.718750
2646		15.625000
2647		11.718750
2648		15.625000
2649		11.718750
2650		15.625000
2651		13.671875
2652		15.625000
2653		11.718750
2654		15.625000
2655		11.718750
2656		15.625000
2657		11.718750
2658		15.625000
2659		13.671875
2660		15.625000
2661		13.671875
2662		17.578125
2663		13.671875
2664		15.625000
2665		13.671875
2666		15.625000
2667		13.671875
2668		15.625000
2669		13.671875
2670		17.578125
2671		13.671875
2672		17.578125
2673		13.671875
2674		17.578125
2675		13.671875
2676		15.625000
2677		15.625000
2678		17.578125
2679		13.671875
2680		17.578125
2681		13.671875
2682		17.578125
2683		13.671875
2684		17.578125
2685		13.671875
2686		17.578125
2687		13.671875
2688		17.578125
2689		13.671875
2690		17.578125
2691		15.625000
2692		17.578125
2693		15.625000
2694		17.578125
2695		13.671875
2696		17.578125
2697		13.671875
2698		17.578125
2699		13.671875
2700		17.578125
2701		13.671875
2702		17.578125
2703		13.671875
2704		17.578125
2705		13.671875
2706		17.578125
2707		13.671875
2708		17.578125
2709		13.671875
2710		15.625000
2711		13.671875
2712		17.578125
2713		13.671875
2714		15.625000
2715		13.671875
2716		15.625000
2717		13.671875
2718		15.625000
2719		13.671875
2720		15.625000
2721		13.671875
2722		15.625000
2723		11.718750
2724		15.625000
2725		13.671875
2726		15.625000
2727		13.671875
2728		15.625000
2729		11.718750
2730		15.625000
2731		11.718750
2732		15.625000
2733		11.718750
2734		15.625000
2735		11.718750
2736		15.625000
2737		11.718750
2738		15.625000
2739		11.718750
2740		13.671875
2741		9.765625
2742		15.625000
2743		11.718750
2744		13.671875
2745		9.765625
2746		13.671875
2747		9.765625
2748		13.671875
2749		9.765625
2750		13.671875
2751		9.765625
2752		11.718750
2753		9.765625
2754		13.671875
2755		9.765625
2756		13.671875
2757		7.812500
2758		13.671875
2759		9.765625
2760		11.718750
2761		9.765625
2762		11.718750
2763		7.812500
2764		11.718750
2765		7.812500
2766		11.718750
2767		7.812500
2768		11.718750
2769		7.812500
2770		11.718750
2771		7.812500
2772		11.718750
2773		7.812500
2774		11.718750
2775		7.812500
2776		9.765625
2777		7.812500
2778		9.765625
2779		5.859375
2780		11.718750
2781		7.812500
2782		11.718750
2783		7.812500
2784		9.765625
2785		7.812500
2786		9.765625
2787		7.812500
2788		9.765625
2789		5.859375
2790		9.765625
2791		5.859375
2792		9.765625
2793		7.812500
2794		9.765625
2795		5.859375
2796		9.765625
2797		5.859375
2798		9.765625
2799		5.859375
2800		9.765625
2801		5.859375
2802		9.765625
2803		5.859375
2804		9.765625
2805		5.859375
2806		9.765625
2807		5.859375
2808		9.765625
2809		5.859375
2810		9.765625
2811		5.859375
2812		7.812500
2813		5.859375
2814		9.765625
2815		5.859375
2816		9.765625
2817		5.859375
2818		9.765625
2819		5.859375
2820		9.765625
2821		5.859375
2822		9.765625
2823		5.859375
2824		9.765625
2825		5.859375
2826		9.765625
2827		7.812500
2828		9.765625
2829		5.859375
2830		9.765625
2831		5.859375
2832		9.765625
2833		7.812500
2834		9.765625
2835		5.859375
2836		9.765625
2837		7.812500
2838		9.765625
2839		5.859375
2840		9.765625
2841		7.812500
2842		9.765625
2843		7.812500
2844		9.765625
2845		7.812500
2846		9.765625
2847		5.859375
2848		11.718750
2849		7.812500
2850		9.765625
2851		7.812500
2852		9.765625
2853		7.812500
2854		11.718750
2855		7.812500
2856		11.718750
2857		7.812500
2858		11.718750
2859		7.812500
2860		11.718750
2861		9.765625
2862		9.765625
2863		7.812500
2864		11.718750
2865		7.812500
2866		11.718750
2867		9.765625
2868		11.718750
2869		9.765625
2870		11.718750
2871		9.765625
2872		11.718750
2873		9.765625
2874		13.671875
2875		9.765625
2876		13.671875
2877		9.765625
2878		11.718750
2879		7.812500
2880		13.671875
2881		9.765625
2882		13.671875
2883		9.765625
2884		13.671875
2885		9.765625
2886		15.625000
2887		9.765625
2888		13.671875
2889		11.718750
2890		13.671875
2891		9.765625
2892		15.625000
2893		11.718750
2894		13.671875
2895		11.718750
2896		13.671875
2897		11.718750
2898		15.625000
2899		11.718750
2900		15.625000
2901		11.718750
2902		15.625000
2903		11.718750
2904		15.625000
2905		11.718750
2906		15.625000
2907		11.718750
2908		15.625000
2909		11.718750
2910		17.578125
2911		13.671875
2912		15.625000
2913		11.718750
2914		15.625000
2915		13.671875
2916		17.578125
2917		13.671875
2918		15.625000
2919		13.671875
2920		15.625000
2921		13.671875
2922		17.578125
2923		13.671875
2924		17.578125
2925		13.671875
2926		17.578125
2927		13.671875
2928		17.578125
2929		13.671875
2930		17.578125
2931		13.671875
2932		17.578125
2933		13.671875
2934		17.578125
2935		13.671875
2936		17.578125
2937		13.671875
2938		17.578125
2939		13.671875
2940		17.578125
2941		13.671875
2942		17.578125
2943		13.671875
2944		17.578125
2945		15.625000
2946		17.578125
2947		13.671875
2948		17.578125
2949		13.671875
2950		17.578125
2951		13.671875
2952		17.578125
2953		15.625000
2954		17.578125
2955		13.671875
2956		17.578125
2957		13.671875
2958		17.578125
2959		13.671875
2960		17.578125
2961		13.671875
2962		15.625000
2963		13.671875
2964		17.578125
2965		13.671875
2966		17.578125
2967		13.671875
2968		15.625000
2969		13.671875
2970		15.625000
2971		13.671875
2972		15.625000
2973		13.671875
2974		15.625000
2975		13.671875
2976		15.625000
2977		13.671875
2978		15.625000
2979		13.671875
2980		15.625000
2981		11.718750
2982		15.625000
2983		11.718750
2984		15.625000
2985		11.718750
2986		15.625000
2987		11.718750
2988		13.671875
2989		11.718750
2990		15.625000
2991		11.718750
2992		13.671875
2993		11.718750
2994		15.625000
2995		11.718750
2996		13.671875
2997		9.765625
2998		13.671875
2999		9.765625
3000		13.671875
3001		9.765625
3002		13.671875
3003		9.765625
3004		13.671875
3005		9.765625
3006		13.671875
3007		9.765625
3008		11.718750
3009		9.765625
3010		13.671875
3011		9.765625
3012		11.718750
3013		9.765625
3014		11.718750
3015		9.765625
3016		11.718750
3017		7.812500
3018		11.718750
3019		7.812500
3020		11.718750
3021		7.812500
3022		11.718750
3023		7.812500
3024		11.718750
3025		7.812500
3026		11.718750
3027		7.812500
3028		11.718750
3029		7.812500
3030		9.765625
3031		7.812500
3032		11.718750
3033		7.812500
3034		9.765625
3035		7.812500
3036		9.765625
3037		7.812500
3038		9.765625
3039		7.812500
3040		9.765625
3041		5.859375
3042		9.765625
3043		5.859375
3044		9.765625
3045		7.812500
3046		9.765625
3047		5.859375
3048		9.765625
3049		7.812500
3050		9.765625
3051		5.859375
3052		9.765625
3053		5.859375
3054		9.765625
3055		5.859375
3056		9.765625
3057		5.859375
3058		9.765625
3059		5.859375
3060		9.765625
3061		5.859375
3062		7.812500
3063		5.859375
3064		9.765625
3065		5.859375
3066		9.765625
3067		5.859375
3068		9.765625
3069		5.859375
3070		9.765625
3071		5.859375
3072		9.765625
3073		5.859375
3074		9.765625
3075		5.859375
3076		9.765625
3077		5.859375
3078		9.765625
3079		5.859375
3080		9.765625
3081		5.859375
3082		9.765625
3083		5.859375
3084		9.765625
3085		5.859375
3086		9.765625
3087		7.812500
3088		9.765625
3089		5.859375
3090		9.765625
3091		7.812500
3092		9.765625
3093		5.859375
3094		9.765625
3095		7.812500
3096		9.765625
3097		7.812500
3098		9.765625
3099		5.859375
3100		11.718750
3101		7.812500
3102		9.765625
3103		7.812500
3104		9.765625
3105		7.812500
3106		11.718750
3107		7.812500
3108		9.765625
3109		7.812500
3110		11.718750
3111		7.812500
3112		11.718750
3113		7.812500
3114		9.765625
3115		7.812500
3116		11.718750
3117		7.812500
3118		11.718750
3119		9.765625
3120		11.718750
3121		7.812500
3122		11.718750
3123		7.812500
3124		11.718750
3125		9.765625
3126		11.718750
3127		9.765625
3128		11.718750
3129		9.765625
3130		11.718750
3131		9.765625
3132		13.671875
3133		9.765625
3134		13.671875
3135		9.765625
3136		13.671875
3137		9.765625
3138		13.671875
3139		9.765625
3140		13.671875
3141		9.765625
3142		13.671875
3143		9.765625
3144		13.671875
3145		11.718750
3146		13.671875
3147		11.718750
3148		13.671875
3149		11.718750
3150		15.625000
3151		11.718750
3152		15.625000
3153		11.718750
3154		15.625000
3155		11.718750
3156		15.625000
3157		11.718750
3158		15.625000
3159		11.718750
3160		15.625000
3161		11.718750
3162		15.625000
3163		11.718750
3164		15.625000
3165		13.671875
3166		15.625000
3167		13.671875
3168		15.625000
3169		13.671875
3170		15.625000
3171		13.671875
3172		15.625000
3173		13.671875
3174		17.578125
3175		13.671875
3176		15.625000
3177		13.671875
3178		17.578125
3179		13.671875
3180		15.625000
3181		13.671875
3182		15.625000
3183		13.671875
3184		17.578125
3185		13.671875
3186		17.578125
3187		13.671875
3188		17.578125
3189		13.671875
3190		17.578125
3191		13.671875
3192		17.578125
3193		13.671875
3194		17.578125
3195		15.625000
3196		17.578125
3197		15.625000
3198		17.578125
3199		13.671875
3200		17.578125
3201		13.671875
3202		17.578125
3203		13.671875
3204		17.578125
3205		13.671875
3206		17.578125
3207		13.671875
3208		17.578125
3209		13.671875
3210		17.578125
3211		13.671875
3212		17.578125
3213		13.671875
3214		17.578125
3215		13.671875
3216		17.578125
3217		13.671875
3218		17.578125
3219		13.671875
3220		17.578125
3221		13.671875
3222		17.578125
3223		13.671875
3224		15.625000
3225		13.671875
3226		15.625000
3227		11.718750
3228		15.625000
3229		13.671875
3230		15.625000
3231		13.671875
3232		15.625000
3233		13.671875
3234		15.625000
3235		11.718750
3236		15.625000
3237		11.718750
3238		15.625000
3239		11.718750
3240		15.625000
3241		11.718750
3242		13.671875
3243		11.718750
3244		15.625000
3245		9.765625
3246		15.625000
3247		11.718750
3248		13.671875
3249		9.765625
3250		13.671875
3251		9.765625
3252		13.671875
3253		9.765625
3254		13.671875
3255		9.765625
3256		13.671875
3257		9.765625
3258		13.671875
3259		9.765625
3260		13.671875
3261		9.765625
3262		13.671875
3263		9.765625
3264		11.718750
3265		9.765625
3266		11.718750
3267		7.812500
3268		13.671875
3269		7.812500
3270		11.718750
3271		7.812500
3272		11.718750
3273		7.812500
3274		11.718750
3275		7.812500
3276		11.718750
3277		7.812500
3278		11.718750
3279		7.812500
3280		11.718750
3281		7.812500
3282		9.765625
3283		7.812500
3284		11.718750
3285		7.812500
3286		9.765625
3287		7.812500
3288		9.765625
3289		7.812500
3290		9.765625
3291		5.859375
3292		9.765625
3293		5.859375
3294		9.765625
3295		5.859375
3296		9.765625
3297		7.812500
3298		9.765625
3299		7.812500
3300		9.765625
3301		5.859375
3302		9.765625
3303		5.859375
3304		9.765625
3305		5.859375
3306		9.765625
3307		5.859375
3308		9.765625
3309		5.859375
3310		9.765625
3311		5.859375
3312		9.765625
3313		5.859375
3314		9.765625
3315		5.859375
3316		7.812500
3317		5.859375
3318		9.765625
3319		5.859375
3320		9.765625
3321		5.859375
3322		9.765625
3323		5.859375
3324		9.765625
3325		5.859375
3326		9.765625
3327		5.859375
3328		9.765625
3329		5.859375
3330		9.765625
3331		7.812500
3332		9.765625
3333		5.859375
3334		9.765625
3335		5.859375
3336		9.765625
3337		5.859375
3338		9.765625
3339		5.859375
3340		9.765625
3341		5.859375
3342		9.765625
3343		7.812500
3344		9.765625
3345		5.859375
3346		9.765625
3347		7.812500
3348		9.765625
3349		7.812500
3350		9.765625
3351		7.812500
3352		11.718750
3353		7.812500
3354		9.765625
3355		7.812500
3356		9.765625
3357		7.812500
3358		9.765625
3359		7.812500
3360		11.718750
3361		7.812500
3362		9.765625
3363		7.812500
3364		11.718750
3365		7.812500
3366		9.765625
3367		7.812500
3368		11.718750
3369		7.812500
3370		11.718750
3371		7.812500
3372		11.718750
3373		7.812500
3374		11.718750
3375		7.812500
3376		11.718750
3377		7.812500
3378		11.718750
3379		7.812500
3380		11.718750
3381		9.765625
3382		11.718750
3383		9.765625
3384		11.718750
3385		9.765625
3386		13.671875
3387		9.765625
3388		13.671875
3389		9.765625
3390		13.671875
3391		9.765625
3392		13.671875
3393		9.765625
3394		13.671875
3395		9.765625
3396		13.671875
3397		11.718750
3398		13.671875
3399		11.718750
3400		13.671875
3401		11.718750
3402		15.625000
3403		11.718750
3404		15.625000
3405		11.718750
3406		13.671875
3407		11.718750
3408		15.625000
3409		11.718750
3410		15.625000
3411		11.718750
3412		15.625000
3413		11.718750
3414		15.625000
3415		13.671875
3416		15.625000
3417		11.718750
3418		15.625000
3419		13.671875
3420		15.625000
3421		13.671875
3422		15.625000
3423		13.671875
3424		15.625000
3425		13.671875
3426		15.625000
3427		13.671875
3428		17.578125
3429		13.671875
3430		17.578125
3431		13.671875
3432		15.625000
3433		13.671875
3434		15.625000
3435		13.671875
3436		17.578125
3437		13.671875
3438		17.578125
3439		13.671875
3440		17.578125
3441		13.671875
3442		17.578125
3443		13.671875
3444		17.578125
3445		13.671875
3446		17.578125
3447		13.671875
3448		17.578125
3449		15.625000
3450		17.578125
3451		13.671875
3452		17.578125
3453		13.671875
3454		17.578125
3455		13.671875
3456		17.578125
3457		13.671875
3458		17.578125
3459		13.671875
3460		17.578125
3461		13.671875
3462		17.578125
3463		13.671875
3464		17.578125
3465		13.671875
3466		15.625000
3467		13.671875
3468		15.625000
3469		13.671875
3470		17.578125
3471		13.671875
3472		17.578125
3473		13.671875
3474		15.625000
3475		13.671875
3476		15.625000
3477		13.671875
3478		15.625000
3479		11.718750
3480		17.578125
3481		13.671875
3482		15.625000
3483		13.671875
3484		15.625000
3485		11.718750
3486		15.625000
3487		11.718750
3488		15.625000
3489		11.718750
3490		15.625000
3491		11.718750
3492		15.625000
3493		11.718750
3494		15.625000
3495		11.718750
3496		15.625000
3497		11.718750
3498		15.625000
3499		11.718750
3500		13.671875
3501		11.718750
3502		13.671875
3503		11.718750
3504		13.671875
3505		9.765625
3506		13.671875
3507		9.765625
3508		13.671875
3509		9.765625
3510		13.671875
3511		9.765625
3512		13.671875
3513		9.765625
3514		13.671875
3515		9.765625
3516		11.718750
3517		9.765625
3518		11.718750
3519		9.765625
3520		11.718750
3521		7.812500
3522		11.718750
3523		7.812500
3524		11.718750
3525		7.812500
3526		11.718750
3527		7.812500
3528		11.718750
3529		7.812500
3530		11.718750
3531		7.812500
3532		11.718750
3533		7.812500
3534		9.765625
3535		5.859375
3536		11.718750
3537		7.812500
3538		9.765625
3539		7.812500
3540		9.765625
3541		7.812500
3542		9.765625
3543		5.859375
3544		9.765625
3545		7.812500
3546		9.765625
3547		5.859375
3548		9.765625
3549		7.812500
3550		9.765625
3551		7.812500
3552		9.765625
3553		5.859375
3554		9.765625
3555		5.859375
3556		9.765625
3557		5.859375
3558		9.765625
3559		5.859375
3560		7.812500
3561		5.859375
3562		7.812500
3563		5.859375
3564		7.812500
3565		5.859375
3566		9.765625
3567		5.859375
3568		7.812500
3569		5.859375
3570		9.765625
3571		5.859375
3572		9.765625
3573		5.859375
3574		9.765625
3575		5.859375
3576		9.765625
3577		5.859375
3578		9.765625
3579		5.859375
3580		9.765625
3581		5.859375
3582		9.765625
3583		5.859375
3584		7.812500
3585		5.859375
3586		9.765625
3587		5.859375
3588		9.765625
3589		5.859375
3590		9.765625
3591		5.859375
3592		9.765625
3593		5.859375
3594		9.765625
3595		5.859375
3596		9.765625
3597		5.859375
3598		9.765625
3599		7.812500
3600		9.765625
3601		7.812500
3602		9.765625
3603		5.859375
3604		9.765625
3605		5.859375
3606		9.765625
3607		7.812500
3608		9.765625
3609		7.812500
3610		9.765625
3611		7.812500
3612		9.765625
3613		7.812500
3614		9.765625
3615		7.812500
3616		9.765625
3617		7.812500
3618		9.765625
3619		7.812500
3620		11.718750
3621		7.812500
3622		11.718750
3623		7.812500
3624		11.718750
3625		7.812500
3626		11.718750
3627		7.812500
3628		11.718750
3629		9.765625
3630		11.718750
3631		7.812500
3632		11.718750
3633		9.765625
3634		11.718750
3635		9.765625
3636		11.718750
3637		9.765625
3638		13.671875
3639		9.765625
3640		11.718750
3641		9.765625
3642		13.671875
3643		9.765625
3644		13.671875
3645		9.765625
3646		13.671875
3647		9.765625
3648		13.671875
3649		9.765625
3650		13.671875
3651		11.718750
3652		13.671875
3653		11.718750
3654		13.671875
3655		11.718750
3656		13.671875
3657		11.718750
3658		13.671875
3659		11.718750
3660		15.625000
3661		11.718750
3662		15.625000
3663		11.718750
3664		15.625000
3665		11.718750
3666		15.625000
3667		13.671875
3668		15.625000
3669		11.718750
3670		15.625000
3671		13.671875
3672		15.625000
3673		11.718750
3674		15.625000
3675		13.671875
3676		15.625000
3677		13.671875
3678		15.625000
3679		13.671875
3680		15.625000
3681		13.671875
3682		17.578125
3683		13.671875
3684		15.625000
3685		13.671875
3686		15.625000
3687		13.671875
3688		17.578125
3689		13.671875
3690		17.578125
3691		13.671875
3692		17.578125
3693		13.671875
3694		17.578125
3695		13.671875
3696		17.578125
3697		13.671875
3698		17.578125
3699		13.671875
3700		17.578125
3701		13.671875
3702		15.625000
3703		13.671875
3704		17.578125
3705		13.671875
3706		17.578125
3707		13.671875
3708		17.578125
3709		13.671875
3710		15.625000
3711		13.671875
3712		17.578125
3713		13.671875
3714		17.578125
3715		13.671875
3716		17.578125
3717		13.671875
3718		15.625000
3719		13.671875
3720		15.625000
3721		11.718750
3722		17.578125
3723		13.671875
3724		17.578125
3725		13.671875
3726		15.625000
3727		11.718750
3728		17.578125
3729		13.671875
3730		15.625000
3731		13.671875
3732		17.578125
3733		11.718750
3734		15.625000
3735		13.671875
3736		15.625000
3737		11.718750
3738		15.625000
3739		11.718750
3740		15.625000
3741		11.718750
3742		15.625000
3743		11.718750
3744		15.625000
3745		11.718750
3746		13.671875
3747		11.718750
3748		15.625000
3749		11.718750
3750		15.625000
3751		11.718750
3752		13.671875
3753		9.765625
3754		13.671875
3755		9.765625
3756		13.671875
3757		9.765625
3758		13.671875
3759		9.765625
3760		13.671875
3761		9.765625
3762		13.671875
3763		9.765625
3764		13.671875
3765		7.812500
3766		11.718750
3767		9.765625
3768		11.718750
3769		9.765625
3770		11.718750
3771		7.812500
3772		13.671875
3773		7.812500
3774		11.718750
3775		7.812500
3776		11.718750
3777		7.812500
3778		11.718750
3779		7.812500
3780		11.718750
3781		7.812500
3782		11.718750
3783		7.812500
3784		11.718750
3785		7.812500
3786		9.765625
3787		7.812500
3788		9.765625
3789		7.812500
3790		9.765625
3791		7.812500
3792		11.718750
3793		7.812500
3794		9.765625
3795		7.812500
3796		9.765625
3797		5.859375
3798		9.765625
3799		5.859375
3800		9.765625
3801		5.859375
3802		9.765625
3803		5.859375
3804		9.765625
3805		5.859375
3806		9.765625
3807		5.859375
3808		9.765625
3809		5.859375
3810		9.765625
3811		5.859375
3812		9.765625
3813		5.859375
3814		9.765625
3815		5.859375
3816		9.765625
3817		5.859375
3818		9.765625
3819		5.859375
3820		7.812500
3821		5.859375
3822		9.765625
3823		5.859375
3824		9.765625
3825		5.859375
3826		9.765625
3827		5.859375
3828		9.765625
3829		5.859375
3830		9.765625
3831		5.859375
3832		9.765625
3833		5.859375
3834		9.765625
3835		5.859375
3836		7.812500
3837		5.859375
3838		9.765625
3839		5.859375
3840		9.765625
3841		5.859375
3842		9.765625
3843		5.859375
3844		9.765625
3845		5.859375
3846		9.765625
3847		5.859375
3848		9.765625
3849		5.859375
3850		9.765625
3851		7.812500
3852		9.765625
3853		5.859375
3854		9.765625
3855		7.812500
3856		9.765625
3857		5.859375
3858		9.765625
3859		5.859375
3860		9.765625
3861		7.812500
3862		9.765625
3863		7.812500
3864		9.765625
3865		7.812500
3866		9.765625
3867		7.812500
3868		9.765625
3869		7.812500
3870		9.765625
3871		7.812500
3872		9.765625
3873		7.812500
3874		9.765625
3875		7.812500
3876		11.718750
3877		7.812500
3878		11.718750
3879		7.812500
3880		11.718750
3881		9.765625
3882		11.718750
3883		7.812500
3884		11.718750
3885		7.812500
3886		11.718750
3887		9.765625
3888		11.718750
3889		7.812500
3890		13.671875
3891		9.765625
3892		11.718750
3893		9.765625
3894		11.718750
3895		9.765625
3896		13.671875
3897		9.765625
3898		13.671875
3899		9.765625
3900		13.671875
3901		9.765625
3902		13.671875
3903		9.765625
3904		13.671875
3905		9.765625
3906		15.625000
3907		11.718750
3908		13.671875
3909		9.765625
3910		13.671875
3911		11.718750
3912		15.625000
3913		11.718750
3914		13.671875
3915		11.718750
3916		13.671875
3917		11.718750
3918		15.625000
3919		11.718750
3920		15.625000
3921		11.718750
3922		15.625000
3923		11.718750
3924		15.625000
3925		11.718750
3926		15.625000
3927		11.718750
3928		15.625000
3929		11.718750
3930		15.625000
3931		13.671875
3932		15.625000
3933		11.718750
3934		15.625000
3935		13.671875
3936		15.625000
3937		13.671875
3938		15.625000
3939		11.718750
3940		15.625000
3941		13.671875
3942		17.578125
3943		13.671875
3944		15.625000
3945		13.671875
3946		17.578125
3947		13.671875
3948		17.578125
3949		13.671875
3950		17.578125
3951		13.671875
3952		17.578125
3953		13.671875
3954		15.625000
3955		13.671875
3956		17.578125
3957		13.671875
3958		15.625000
3959		13.671875
3960		15.625000
3961		13.671875
3962		17.578125
3963		13.671875
3964		17.578125
3965		13.671875
3966		17.578125
3967		13.671875
3968		17.578125
3969		13.671875
3970		15.625000
3971		13.671875
3972		15.625000
3973		13.671875
3974		17.578125
3975		13.671875
3976		15.625000
3977		13.671875
3978		15.625000
3979		11.718750
3980		15.625000
3981		13.671875
3982		15.625000
3983		13.671875
3984		15.625000
3985		11.718750
3986		15.625000
3987		13.671875
3988		15.625000
3989		13.671875
3990		15.625000
3991		11.718750
3992		15.625000
3993		11.718750
3994		15.625000
3995		11.718750
3996		13.671875
3997		11.718750
3998		13.671875
3999		11.718750
4000		13.671875
4001		9.765625
4002		15.625000
4003		11.718750
4004		13.671875
4005		11.718750
4006		13.671875
4007		9.765625
4008		13.671875
4009		9.765625
4010		13.671875
4011		9.765625
4012		13.671875
4013		9.765625
4014		13.671875
4015		9.765625
4016		13.671875
4017		9.765625
4018		11.718750
4019		7.812500
4020		13.671875
4021		9.765625
4022		11.718750
4023		7.812500
4024		11.718750
4025		7.812500
4026		11.718750
4027		7.812500
4028		11.718750
4029		7.812500
4030		11.718750
4031		7.812500
4032		11.718750
4033		7.812500
4034		11.718750
4035		7.812500
4036		11.718750
4037		7.812500
4038		9.765625
4039		7.812500
4040		9.765625
4041		7.812500
4042		9.765625
4043		7.812500
4044		9.765625
4045		7.812500
4046		9.765625
4047		7.812500
4048		9.765625
4049		5.859375
4050		9.765625
4051		5.859375
4052		9.765625
4053		7.812500
4054		9.765625
4055		5.859375
4056		7.812500
4057		5.859375
4058		9.765625
4059		3.906250
4060		11.718750
4061		3.906250
4062		9.765625
4063		5.859375
4064		9.765625
4065		5.859375
4066		9.765625
4067		5.859375
4068		9.765625
4069		5.859375
4070		7.812500
4071		5.859375
4072		7.812500
4073		3.906250
4074		9.765625
4075		3.906250
4076		9.765625
4077		1.953125
4078		9.765625
4079		3.906250
4080		9.765625
4081		5.859375
4082		7.812500
4083		5.859375
4084		9.765625
4085		5.859375
4086		9.765625
4087		5.859375
4088		7.812500
4089		5.859375
4090		9.765625
4091		3.906250
4092		9.765625
4093		3.906250
4094		9.765625
4095		3.906250
4096		9.765625
4097		3.906250
4098		9.765625
4099		5.859375
4100		9.765625
4101		3.906250
4102		9.765625
4103		5.859375
4104		9.765625
4105		5.859375
4106		9.765625
4107		3.906250
4108		11.718750
4109		3.906250
4110		11.718750
4111		3.906250
4112		11.718750
4113		5.859375
4114		11.718750
4115		5.859375
4116		9.765625
4117		5.859375
4118		11.718750
4119		5.859375
4120		9.765625
4121		7.812500
4122		9.765625
4123		5.859375
4124		11.718750
4125		5.859375
4126		11.718750
4127		5.859375
4128		11.718750
4129		5.859375
4130		11.718750
4131		5.859375
4132		11.718750
4133		5.859375
4134		13.671875
4135		5.859375
4136		13.671875
4137		9.765625
4138		11.718750
4139		9.765625
4140		11.718750
4141		5.859375
4142		13.671875
4143		7.812500
4144		13.671875
4145		5.859375
4146		13.671875
4147		7.812500
4148		13.671875
4149		7.812500
4150		13.671875
4151		7.812500
4152		13.671875
4153		7.812500
4154		15.625000
4155		9.765625
4156		11.718750
4157		9.765625
4158		15.625000
4159		7.812500
4160		15.625000
4161		7.812500
4162		15.625000
4163		9.765625
4164		15.625000
4165		9.765625
4166		15.625000
4167		9.765625
4168		15.625000
4169		9.765625
4170		15.625000
4171		11.718750
4172		13.671875
4173		11.718750
4174		13.671875
4175		9.765625
4176		17.578125
4177		9.765625
4178		17.578125
4179		9.765625
4180		17.578125
4181		9.765625
4182		17.578125
4183		11.718750
4184		17.578125
4185		9.765625
4186		17.578125
4187		11.718750
4188		17.578125
4189		13.671875
4190		15.625000
4191		11.718750
4192		17.578125
4193		11.718750
4194		17.578125
4195		11.718750
4196		17.578125
4197		11.718750
4198		17.578125
4199		11.718750
4200		19.531250
4201		11.718750
4202		17.578125
4203		11.718750
4204		17.578125
4205		13.671875
4206		15.625000
4207		11.718750
4208		17.578125
4209		11.718750
4210		19.531250
4211		11.718750
4212		17.578125
4213		11.718750
4214		17.578125
4215		11.718750
4216		17.578125
4217		11.718750
4218		19.531250
4219		11.718750
4220		17.578125
4221		13.671875
4222		15.625000
4223		13.671875
4224		15.625000
4225		11.718750
4226		17.578125
4227		11.718750
4228		17.578125
4229		11.718750
4230		17.578125
4231		11.718750
4232		17.578125
4233		11.718750
4234		17.578125
4235		9.765625
4236		17.578125
4237		11.718750
4238		17.578125
4239		13.671875
4240		15.625000
4241		11.718750
4242		17.578125
4243		9.765625
4244		17.578125
4245		9.765625
4246		17.578125
4247		9.765625
4248		17.578125
4249		9.765625
4250		17.578125
4251		9.765625
4252		15.625000
4253		9.765625
4254		15.625000
4255		11.718750
4256		13.671875
4257		9.765625
4258		13.671875
4259		7.812500
4260		15.625000
4261		7.812500
4262		15.625000
4263		7.812500
4264		15.625000
4265		7.812500
4266		15.625000
4267		7.812500
4268		15.625000
4269		7.812500
4270		13.671875
4271		9.765625
4272		13.671875
4273		9.765625
4274		11.718750
4275		7.812500
4276		13.671875
4277		7.812500
4278		13.671875
4279		5.859375
4280		13.671875
4281		5.859375
4282		13.671875
4283		5.859375
4284		13.671875
4285		5.859375
4286		11.718750
4287		5.859375
4288		11.718750
4289		7.812500
4290		9.765625
4291		5.859375
4292		9.765625
4293		5.859375
4294		11.718750
4295		3.906250
4296		11.718750
4297		5.859375
4298		11.718750
4299		3.906250
4300		11.718750
4301		5.859375
4302		11.718750
4303		3.906250
4304		11.718750
4305		5.859375
4306		7.812500
4307		5.859375
4308		7.812500
4309		5.859375
4310		9.765625
4311		3.906250
4312		9.765625
4313		5.859375
4314		9.765625
4315		3.906250
4316		9.765625
4317		3.906250
4318		9.765625
4319		3.906250
4320		9.765625
4321		3.906250
4322		9.765625
4323		5.859375
4324		7.812500
4325		5.859375
4326		9.765625
4327		3.906250
4328		9.765625
4329		3.906250
4330		9.765625
4331		3.906250
4332		11.718750
4333		3.906250
4334		9.765625
4335		3.906250
4336		9.765625
4337		3.906250
4338		9.765625
4339		5.859375
4340		7.812500
4341		5.859375
4342		7.812500
4343		5.859375
4344		7.812500
4345		5.859375
4346		9.765625
4347		3.906250
4348		9.765625
4349		5.859375
4350		7.812500
4351		3.906250
4352		9.765625
4353		3.906250
4354		9.765625
4355		5.859375
4356		9.765625
4357		5.859375
4358		7.812500
4359		5.859375
4360		9.765625
4361		3.906250
4362		9.765625
4363		5.859375
4364		9.765625
4365		5.859375
4366		11.718750
4367		3.906250
4368		11.718750
4369		3.906250
4370		11.718750
4371		5.859375
4372		9.765625
4373		7.812500
4374		9.765625
4375		5.859375
4376		9.765625
4377		5.859375
4378		11.718750
4379		5.859375
4380		11.718750
4381		5.859375
4382		11.718750
4383		7.812500
4384		11.718750
4385		7.812500
4386		11.718750
4387		7.812500
4388		11.718750
4389		7.812500
4390		9.765625
4391		7.812500
4392		11.718750
4393		7.812500
4394		13.671875
4395		7.812500
4396		11.718750
4397		7.812500
4398		13.671875
4399		7.812500
4400		13.671875
4401		7.812500
4402		13.671875
4403		7.812500
4404		13.671875
4405		9.765625
4406		13.671875
4407		9.765625
4408		11.718750
4409		9.765625
4410		13.671875
4411		9.765625
4412		13.671875
4413		9.765625
4414		13.671875
4415		9.765625
4416		13.671875
4417		9.765625
4418		13.671875
4419		9.765625
4420		15.625000
4421		9.765625
4422		15.625000
4423		11.718750
4424		13.671875
4425		11.718750
4426		13.671875
4427		11.718750
4428		15.625000
4429		11.718750
4430		15.625000
4431		11.718750
4432		15.625000
4433		11.718750
4434		15.625000
4435		11.718750
4436		15.625000
4437		11.718750
4438		15.625000
4439		13.671875
4440		15.625000
4441		13.671875
4442		15.625000
4443		11.718750
4444		15.625000
4445		13.671875
4446		15.625000
4447		11.718750
4448		15.625000
4449		13.671875
4450		15.625000
4451		13.671875
4452		15.625000
4453		13.671875
4454		15.625000
4455		13.671875
4456		17.578125
4457		13.671875
4458		15.625000
4459		13.671875
4460		17.578125
4461		13.671875
4462		15.625000
4463		13.671875
4464		17.578125
4465		13.671875
4466		15.625000
4467		13.671875
4468		17.578125
4469		13.671875
4470		15.625000
4471		11.718750
4472		17.578125
4473		13.671875
4474		15.625000
4475		13.671875
4476		15.625000
4477		13.671875
4478		17.578125
4479		13.671875
4480		17.578125
4481		13.671875
4482		15.625000
4483		11.718750
4484		15.625000
4485		11.718750
4486		15.625000
4487		11.718750
4488		15.625000
4489		11.718750
4490		15.625000
4491		11.718750
4492		15.625000
4493		11.718750
4494		15.625000
4495		11.718750
4496		15.625000
4497		11.718750
4498		13.671875
4499		11.718750
4500		15.625000
4501		11.718750
4502		13.671875
4503		11.718750
4504		13.671875
4505		11.718750
4506		13.671875
4507		9.765625
4508		13.671875
4509		11.718750
4510		13.671875
4511		9.765625
4512		13.671875
4513		9.765625
4514		13.671875
4515		9.765625
4516		13.671875
4517		9.765625
4518		13.671875
4519		9.765625
4520		13.671875
4521		7.812500
4522		11.718750
4523		7.812500
4524		11.718750
4525		9.765625
4526		11.718750
4527		7.812500
4528		11.718750
4529		7.812500
4530		11.718750
4531		7.812500
4532		11.718750
4533		7.812500
4534		11.718750
4535		7.812500
4536		11.718750
4537		7.812500
4538		9.765625
4539		5.859375
4540		11.718750
4541		7.812500
4542		9.765625
4543		7.812500
4544		9.765625
4545		7.812500
4546		9.765625
4547		5.859375
4548		9.765625
4549		5.859375
4550		9.765625
4551		5.859375
4552		9.765625
4553		5.859375
4554		9.765625
4555		5.859375
4556		9.765625
4557		5.859375
4558		9.765625
4559		5.859375
4560		7.812500
4561		5.859375
4562		7.812500
4563		5.859375
4564		7.812500
4565		5.859375
4566		7.812500
4567		5.859375
4568		9.765625
4569		5.859375
4570		7.812500
4571		5.859375
4572		7.812500
4573		3.906250
4574		7.812500
4575		5.859375
4576		7.812500
4577		3.906250
4578		9.765625
4579		5.859375
4580		7.812500
4581		5.859375
4582		7.812500
4583		5.859375
4584		7.812500
4585		5.859375
4586		7.812500
4587		3.906250
4588		7.812500
4589		3.906250
4590		7.812500
4591		5.859375
4592		7.812500
4593		5.859375
4594		7.812500
4595		3.906250
4596		7.812500
4597		5.859375
4598		7.812500
4599		3.906250
4600		7.812500
4601		5.859375
4602		7.812500
4603		5.859375
4604		7.812500
4605		5.859375
4606		9.765625
4607		3.906250
4608		7.812500
4609		5.859375
4610		7.812500
4611		5.859375
4612		9.765625
4613		5.859375
4614		7.812500
4615		5.859375
4616		9.765625
4617		5.859375
4618		7.812500
4619		5.859375
4620		9.765625
4621		5.859375
4622		9.765625
4623		5.859375
4624		9.765625
4625		5.859375
4626		7.812500
4627		7.812500
4628		9.765625
4629		7.812500
4630		9.765625
4631		7.812500
4632		9.765625
4633		5.859375
4634		9.765625
4635		7.812500
4636		9.765625
4637		7.812500
4638		9.765625
4639		7.812500
4640		9.765625
4641		7.812500
4642		11.718750
4643		7.812500
4644		11.718750
4645		7.812500
4646		11.718750
4647		7.812500
4648		11.718750
4649		7.812500
4650		11.718750
4651		7.812500
4652		11.718750
4653		9.765625
4654		11.718750
4655		7.812500
4656		11.718750
4657		7.812500
4658		11.718750
4659		9.765625
4660		11.718750
4661		9.765625
4662		13.671875
4663		9.765625
4664		13.671875
4665		9.765625
4666		13.671875
4667		9.765625
4668		13.671875
4669		9.765625
4670		13.671875
4671		9.765625
4672		13.671875
4673		9.765625
4674		13.671875
4675		11.718750
4676		13.671875
4677		11.718750
4678		13.671875
4679		11.718750
4680		13.671875
4681		11.718750
4682		13.671875
4683		11.718750
4684		15.625000
4685		11.718750
4686		15.625000
4687		11.718750
4688		15.625000
4689		11.718750
4690		15.625000
4691		11.718750
4692		15.625000
4693		11.718750
4694		15.625000
4695		11.718750
4696		15.625000
4697		11.718750
4698		15.625000
4699		11.718750
4700		15.625000
4701		11.718750
4702		15.625000
4703		13.671875
4704		15.625000
4705		13.671875
4706		15.625000
4707		13.671875
4708		15.625000
4709		13.671875
4710		15.625000
4711		13.671875
4712		15.625000
4713		11.718750
4714		15.625000
4715		13.671875
4716		15.625000
4717		13.671875
4718		15.625000
4719		13.671875
4720		15.625000
4721		13.671875
4722		15.625000
4723		13.671875
4724		15.625000
4725		13.671875
4726		15.625000
4727		13.671875
4728		15.625000
4729		11.718750
4730		17.578125
4731		11.718750
4732		15.625000
4733		11.718750
4734		15.625000
4735		11.718750
4736		15.625000
4737		11.718750
4738		15.625000
4739		11.718750
4740		15.625000
4741		11.718750
4742		15.625000
4743		11.718750
4744		15.625000
4745		11.718750
4746		15.625000
4747		11.718750
4748		15.625000
4749		11.718750
4750		13.671875
4751		11.718750
4752		13.671875
4753		11.718750
4754		15.625000
4755		11.718750
4756		13.671875
4757		9.765625
4758		13.671875
4759		11.718750
4760		13.671875
4761		11.718750
4762		13.671875
4763		9.765625
4764		13.671875
4765		9.765625
4766		13.671875
4767		9.765625
4768		11.718750
4769		9.765625
4770		11.718750
4771		9.765625
4772		11.718750
4773		9.765625
4774		11.718750
4775		9.765625
4776		11.718750
4777		9.765625
4778		11.718750
4779		7.812500
4780		11.718750
4781		7.812500
4782		11.718750
4783		7.812500
4784		11.718750
4785		7.812500
4786		11.718750
4787		7.812500
4788		11.718750
4789		7.812500
4790		9.765625
4791		7.812500
4792		9.765625
4793		7.812500
4794		9.765625
4795		7.812500
4796		9.765625
4797		5.859375
4798		9.765625
4799		5.859375
4800		9.765625
4801		5.859375
4802		9.765625
4803		5.859375
4804		9.765625
4805		5.859375
4806		9.765625
4807		5.859375
4808		9.765625
4809		5.859375
4810		9.765625
4811		5.859375
4812		9.765625
4813		5.859375
4814		9.765625
4815		5.859375
4816		9.765625
4817		5.859375
4818		7.812500
4819		5.859375
4820		9.765625
4821		5.859375
4822		7.812500
4823		5.859375
4824		7.812500
4825		3.906250
4826		9.765625
4827		5.859375
4828		7.812500
4829		5.859375
4830		7.812500
4831		5.859375
4832		7.812500
4833		5.859375
4834		7.812500
4835		3.906250
4836		7.812500
4837		3.906250
4838		7.812500
4839		3.906250
4840		7.812500
4841		5.859375
4842		7.812500
4843		5.859375
4844		7.812500
4845		5.859375
4846		7.812500
4847		3.906250
4848		7.812500
4849		5.859375
4850		7.812500
4851		5.859375
4852		7.812500
4853		5.859375
4854		7.812500
4855		5.859375
4856		7.812500
4857		5.859375
4858		7.812500
4859		5.859375
4860		9.765625
4861		5.859375
4862		7.812500
4863		5.859375
4864		9.765625
4865		5.859375
4866		7.812500
4867		5.859375
4868		7.812500
4869		5.859375
4870		7.812500
4871		5.859375
4872		9.765625
4873		5.859375
4874		9.765625
4875		5.859375
4876		9.765625
4877		5.859375
4878		7.812500
4879		7.812500
4880		9.765625
4881		5.859375
4882		9.765625
4883		7.812500
4884		9.765625
4885		7.812500
4886		9.765625
4887		7.812500
4888		9.765625
4889		7.812500
4890		9.765625
4891		5.859375
4892		9.765625
4893		5.859375
4894		9.765625
4895		7.812500
4896		9.765625
4897		7.812500
4898		11.718750
4899		7.812500
4900		11.718750
4901		7.812500
4902		11.718750
4903		7.812500
4904		11.718750
4905		7.812500
4906		11.718750
4907		7.812500
4908		11.718750
4909		7.812500
4910		11.718750
4911		9.765625
4912		11.718750
4913		7.812500
4914		13.671875
4915		9.765625
4916		13.671875
4917		9.765625
4918		13.671875
4919		9.765625
4920		13.671875
4921		9.765625
4922		13.671875
4923		9.765625
4924		13.671875
4925		9.765625
4926		13.671875
4927		11.718750
4928		13.671875
4929		11.718750
4930		13.671875
4931		9.765625
4932		15.625000
4933		11.718750
4934		13.671875
4935		11.718750
4936		15.625000
4937		11.718750
4938		15.625000
4939		11.718750
4940		15.625000
4941		11.718750
4942		15.625000
4943		11.718750
4944		15.625000
4945		11.718750
4946		15.625000
4947		11.718750
4948		15.625000
4949		11.718750
4950		15.625000
4951		11.718750
4952		15.625000
4953		13.671875
4954		15.625000
4955		13.671875
4956		15.625000
4957		11.718750
4958		15.625000
4959		11.718750
4960		15.625000
4961		13.671875
4962		15.625000
4963		13.671875
4964		15.625000
4965		11.718750
4966		15.625000
4967		13.671875
4968		15.625000
4969		13.671875
4970		15.625000
4971		11.718750
4972		15.625000
4973		13.671875
4974		15.625000
4975		13.671875
4976		15.625000
4977		11.718750
4978		15.625000
4979		13.671875
4980		15.625000
4981		11.718750
4982		17.578125
4983		11.718750
4984		15.625000
4985		11.718750
4986		15.625000
4987		13.671875
4988		15.625000
4989		11.718750
4990		15.625000
4991		11.718750
4992		15.625000
4993		13.671875
4994		15.625000
4995		13.671875
4996		15.625000
4997		9.765625
4998		17.578125
4999		11.718750
5000		15.625000
5001		11.718750
5002		15.625000
5003		11.718750
5004		13.671875
5005		11.718750
5006		13.671875
5007		11.718750
5008		13.671875
5009		9.765625
5010		13.671875
5011		11.718750
5012		13.671875
5013		11.718750
5014		13.671875
5015		9.765625
5016		13.671875
5017		9.765625
5018		13.671875
5019		9.765625
5020		13.671875
5021		9.765625
5022		11.718750
5023		9.765625
5024		11.718750
5025		9.765625
5026		11.718750
5027		7.812500
5028		11.718750
5029		9.765625
5030		11.718750
5031		7.812500
5032		11.718750
5033		7.812500
5034		11.718750
5035		7.812500
5036		11.718750
5037		7.812500
5038		11.718750
5039		7.812500
5040		11.718750
5041		7.812500
5042		9.765625
5043		7.812500
5044		11.718750
5045		7.812500
5046		9.765625
5047		7.812500
5048		9.765625
5049		5.859375
5050		11.718750
5051		5.859375
5052		9.765625
5053		5.859375
5054		9.765625
5055		5.859375
5056		9.765625
5057		5.859375
5058		9.765625
5059		5.859375
5060		9.765625
5061		5.859375
5062		9.765625
5063		5.859375
5064		9.765625
5065		5.859375
5066		9.765625
5067		5.859375
5068		9.765625
5069		5.859375
5070		9.765625
5071		5.859375
5072		7.812500
5073		5.859375
5074		7.812500
5075		5.859375
5076		7.812500
5077		5.859375
5078		7.812500
5079		5.859375
5080		7.812500
5081		5.859375
5082		7.812500
5083		3.906250
5084		7.812500
5085		5.859375
5086		7.812500
5087		3.906250
5088		7.812500
5089		5.859375
5090		7.812500
5091		3.906250
5092		7.812500
5093		3.906250
5094		7.812500
5095		5.859375
5096		7.812500
5097		5.859375
5098		7.812500
5099		5.859375
5100		7.812500
5101		3.906250
5102		7.812500
5103		5.859375
5104		7.812500
5105		5.859375
5106		7.812500
5107		5.859375
5108		7.812500
5109		5.859375
5110		7.812500
5111		3.906250
5112		9.765625
5113		5.859375
5114		7.812500
5115		5.859375
5116		7.812500
5117		5.859375
5118		7.812500
5119		5.859375
5120		7.812500
5121		5.859375
5122		9.765625
5123		5.859375
5124		7.812500
5125		5.859375
5126		9.765625
5127		5.859375
5128		9.765625
5129		5.859375
5130		9.765625
5131		5.859375
5132		7.812500
5133		5.859375
5134		9.765625
5135		5.859375
5136		9.765625
5137		5.859375
5138		9.765625
5139		5.859375
5140		9.765625
5141		5.859375
5142		9.765625
5143		7.812500
5144		9.765625
5145		5.859375
5146		9.765625
5147		7.812500
5148		9.765625
5149		7.812500
5150		11.718750
5151		7.812500
5152		11.718750
5153		7.812500
5154		11.718750
5155		7.812500
5156		11.718750
5157		7.812500
5158		11.718750
5159		7.812500
5160		11.718750
5161		7.812500
5162		11.718750
5163		9.765625
5164		11.718750
5165		9.765625
5166		11.718750
5167		9.765625
5168		11.718750
5169		9.765625
5170		13.671875
5171		9.765625
5172		11.718750
5173		9.765625
5174		13.671875
5175		9.765625
5176		13.671875
5177		9.765625
5178		13.671875
5179		11.718750
5180		13.671875
5181		11.718750
5182		13.671875
5183		9.765625
5184		13.671875
5185		11.718750
5186		13.671875
5187		11.718750
5188		13.671875
5189		11.718750
5190		13.671875
5191		11.718750
5192		15.625000
5193		11.718750
5194		15.625000
5195		11.718750
5196		15.625000
5197		11.718750
5198		13.671875
5199		11.718750
5200		15.625000
5201		11.718750
5202		15.625000
5203		11.718750
5204		15.625000
5205		11.718750
5206		15.625000
5207		11.718750
5208		15.625000
5209		13.671875
5210		15.625000
5211		11.718750
5212		15.625000
5213		13.671875
5214		15.625000
5215		13.671875
5216		15.625000
5217		11.718750
5218		15.625000
5219		13.671875
5220		15.625000
5221		13.671875
5222		15.625000
5223		13.671875
5224		15.625000
5225		13.671875
5226		15.625000
5227		13.671875
5228		15.625000
5229		11.718750
5230		15.625000
5231		13.671875
5232		15.625000
5233		13.671875
5234		15.625000
5235		13.671875
5236		15.625000
5237		13.671875
5238		15.625000
5239		13.671875
5240		15.625000
5241		13.671875
5242		15.625000
5243		13.671875
5244		15.625000
5245		11.718750
5246		15.625000
5247		13.671875
5248		15.625000
5249		11.718750
5250		15.625000
5251		11.718750
5252		15.625000
5253		11.718750
5254		15.625000
5255		11.718750
5256		15.625000
5257		11.718750
5258		13.671875
5259		11.718750
5260		13.671875
5261		11.718750
5262		13.671875
5263		11.718750
5264		13.671875
5265		9.765625
5266		13.671875
5267		9.765625
5268		13.671875
5269		9.765625
5270		13.671875
5271		9.765625
5272		13.671875
5273		9.765625
5274		13.671875
5275		9.765625
5276		11.718750
5277		9.765625
5278		13.671875
5279		9.765625
5280		11.718750
5281		9.765625
5282		11.718750
5283		7.812500
5284		11.718750
5285		7.812500
5286		11.718750
5287		7.812500
5288		11.718750
5289		7.812500
5290		11.718750
5291		7.812500
5292		11.718750
5293		7.812500
5294		11.718750
5295		7.812500
5296		9.765625
5297		7.812500
5298		9.765625
5299		7.812500
5300		9.765625
5301		7.812500
5302		9.765625
5303		7.812500
5304		9.765625
5305		5.859375
5306		9.765625
5307		5.859375
5308		9.765625
5309		5.859375
5310		9.765625
5311		5.859375
5312		9.765625
5313		5.859375
5314		9.765625
5315		5.859375
5316		7.812500
5317		5.859375
5318		9.765625
5319		5.859375
5320		9.765625
5321		5.859375
5322		7.812500
5323		5.859375
5324		7.812500
5325		5.859375
5326		7.812500
5327		5.859375
5328		7.812500
5329		3.906250
5330		7.812500
5331		5.859375
5332		7.812500
5333		5.859375
5334		7.812500
5335		3.906250
5336		7.812500
5337		5.859375
5338		7.812500
5339		3.906250
5340		7.812500
5341		5.859375
5342		7.812500
5343		5.859375
5344		7.812500
5345		3.906250
5346		7.812500
5347		5.859375
5348		7.812500
5349		5.859375
5350		7.812500
5351		3.906250
5352		7.812500
5353		3.906250
5354		7.812500
5355		5.859375
5356		7.812500
5357		3.906250
5358		7.812500
5359		3.906250
5360		7.812500
5361		5.859375
5362		7.812500
5363		3.906250
5364		7.812500
5365		5.859375
5366		7.812500
5367		5.859375
5368		7.812500
5369		5.859375
5370		7.812500
5371		5.859375
5372		7.812500
5373		5.859375
5374		7.812500
5375		5.859375
5376		7.812500
5377		5.859375
5378		9.765625
5379		5.859375
5380		9.765625
5381		5.859375
5382		7.812500
5383		5.859375
5384		7.812500
5385		5.859375
5386		9.765625
5387		5.859375
5388		9.765625
5389		5.859375
5390		9.765625
5391		5.859375
5392		9.765625
5393		5.859375
5394		9.765625
5395		5.859375
5396		9.765625
5397		7.812500
5398		9.765625
5399		7.812500
5400		9.765625
5401		7.812500
5402		11.718750
5403		7.812500
5404		11.718750
5405		7.812500
5406		11.718750
5407		7.812500
5408		9.765625
5409		7.812500
5410		11.718750
5411		7.812500
5412		11.718750
5413		7.812500
5414		11.718750
5415		9.765625
5416		11.718750
5417		9.765625
5418		11.718750
5419		7.812500
5420		11.718750
5421		9.765625
5422		11.718750
5423		9.765625
5424		11.718750
5425		9.765625
5426		13.671875
5427		9.765625
5428		13.671875
5429		9.765625
5430		13.671875
5431		9.765625
5432		13.671875
5433		11.718750
5434		13.671875
5435		9.765625
5436		13.671875
5437		9.765625
5438		13.671875
5439		9.765625
5440		13.671875
5441		11.718750
5442		13.671875
5443		11.718750
5444		15.625000
5445		11.718750
5446		15.625000
5447		11.718750
5448		15.625000
5449		11.718750
5450		13.671875
5451		11.718750
5452		15.625000
5453		11.718750
5454		15.625000
5455		11.718750
5456		15.625000
5457		11.718750
5458		15.625000
5459		11.718750
5460		15.625000
5461		11.718750
5462		15.625000
5463		11.718750
5464		15.625000
5465		13.671875
5466		15.625000
5467		13.671875
5468		15.625000
5469		11.718750
5470		15.625000
5471		13.671875
5472		15.625000
5473		13.671875
5474		15.625000
5475		13.671875
5476		15.625000
5477		13.671875
5478		15.625000
5479		13.671875
5480		15.625000
5481		13.671875
5482		15.625000
5483		13.671875
5484		15.625000
5485		11.718750
5486		15.625000
5487		13.671875
5488		15.625000
5489		11.718750
5490		15.625000
5491		13.671875
5492		15.625000
5493		11.718750
5494		15.625000
5495		11.718750
5496		15.625000
5497		11.718750
5498		15.625000
5499		11.718750
5500		15.625000
5501		11.718750
5502		13.671875
5503		11.718750
5504		15.625000
5505		11.718750
5506		15.625000
5507		11.718750
5508		13.671875
5509		11.718750
5510		13.671875
5511		11.718750
5512		13.671875
5513		9.765625
5514		13.671875
5515		9.765625
5516		15.625000
5517		11.718750
5518		13.671875
5519		9.765625
5520		13.671875
5521		9.765625
5522		13.671875
5523		9.765625
5524		13.671875
5525		9.765625
5526		11.718750
5527		9.765625
5528		11.718750
5529		9.765625
5530		11.718750
5531		9.765625
5532		11.718750
5533		9.765625
5534		11.718750
5535		7.812500
5536		11.718750
5537		7.812500
5538		11.718750
5539		7.812500
5540		11.718750
5541		7.812500
5542		11.718750
5543		7.812500
5544		11.718750
5545		7.812500
5546		9.765625
5547		7.812500
5548		11.718750
5549		7.812500
5550		9.765625
5551		7.812500
5552		9.765625
5553		5.859375
5554		9.765625
5555		5.859375
5556		9.765625
5557		5.859375
5558		9.765625
5559		5.859375
5560		9.765625
5561		5.859375
5562		9.765625
5563		5.859375
5564		9.765625
5565		5.859375
5566		9.765625
5567		5.859375
5568		7.812500
5569		3.906250
5570		9.765625
5571		3.906250
5572		7.812500
5573		5.859375
5574		7.812500
5575		5.859375
5576		7.812500
5577		3.906250
5578		9.765625
5579		3.906250
5580		7.812500
5581		3.906250
5582		7.812500
5583		5.859375
5584		7.812500
5585		5.859375
5586		7.812500
5587		3.906250
5588		7.812500
5589		3.906250
5590		7.812500
5591		3.906250
5592		7.812500
5593		3.906250
5594		7.812500
5595		3.906250
5596		7.812500
5597		3.906250
5598		7.812500
5599		3.906250
5600		9.765625
5601		5.859375
5602		7.812500
5603		3.906250
5604		7.812500
5605		3.906250
5606		7.812500
5607		3.906250
5608		7.812500
5609		3.906250
5610		7.812500
5611		3.906250
5612		7.812500
5613		5.859375
5614		7.812500
5615		5.859375
5616		7.812500
5617		5.859375
5618		7.812500
5619		3.906250
5620		7.812500
5621		5.859375
5622		7.812500
5623		5.859375
5624		7.812500
5625		5.859375
5626		7.812500
5627		5.859375
5628		7.812500
5629		5.859375
5630		7.812500
5631		5.859375
5632		7.812500
5633		5.859375
5634		7.812500
5635		5.859375
5636		7.812500
5637		5.859375
5638		7.812500
5639		5.859375
5640		9.765625
5641		5.859375
5642		9.765625
5643		5.859375
5644		9.765625
5645		5.859375
5646		9.765625
5647		5.859375
5648		9.765625
5649		5.859375
5650		9.765625
5651		7.812500
5652		9.765625
5653		7.812500
5654		11.718750
5655		5.859375
5656		9.765625
5657		7.812500
5658		9.765625
5659		7.812500
5660		11.718750
5661		7.812500
5662		11.718750
5663		7.812500
5664		11.718750
5665		7.812500
5666		11.718750
5667		9.765625
5668		11.718750
5669		7.812500
5670		11.718750
5671		7.812500
5672		11.718750
5673		7.812500
5674		11.718750
5675		9.765625
5676		13.671875
5677		9.765625
5678		13.671875
5679		9.765625
5680		11.718750
5681		9.765625
5682		11.718750
5683		9.765625
5684		13.671875
5685		9.765625
5686		13.671875
5687		9.765625
5688		13.671875
5689		9.765625
5690		13.671875
5691		9.765625
5692		13.671875
5693		11.718750
5694		13.671875
5695		9.765625
5696		13.671875
5697		11.718750
5698		13.671875
5699		11.718750
5700		13.671875
5701		11.718750
5702		13.671875
5703		11.718750
5704		13.671875
5705		11.718750
5706		15.625000
5707		11.718750
5708		15.625000
5709		11.718750
5710		15.625000
5711		11.718750
5712		15.625000
5713		11.718750
5714		15.625000
5715		11.718750
5716		15.625000
5717		11.718750
5718		15.625000
5719		13.671875
5720		15.625000
5721		13.671875
5722		15.625000
5723		13.671875
5724		15.625000
5725		13.671875
5726		15.625000
5727		13.671875
5728		15.625000
5729		11.718750
5730		15.625000
5731		13.671875
5732		15.625000
5733		11.718750
5734		15.625000
5735		13.671875
5736		15.625000
5737		11.718750
5738		15.625000
5739		11.718750
5740		15.625000
5741		11.718750
5742		15.625000
5743		11.718750
5744		15.625000
5745		11.718750
5746		15.625000
5747		11.718750
5748		15.625000
5749		11.718750
5750		15.625000
5751		11.718750
5752		15.625000
5753		11.718750
5754		15.625000
5755		11.718750
5756		15.625000
5757		11.718750
5758		13.671875
5759		11.718750
5760		15.625000
5761		11.718750
5762		13.671875
5763		11.718750
5764		13.671875
5765		11.718750
5766		13.671875
5767		9.765625
5768		13.671875
5769		11.718750
5770		13.671875
5771		9.765625
5772		13.671875
5773		9.765625
5774		13.671875
5775		9.765625
5776		13.671875
5777		9.765625
5778		11.718750
5779		9.765625
5780		13.671875
5781		9.765625
5782		11.718750
5783		7.812500
5784		13.671875
5785		9.765625
5786		11.718750
5787		9.765625
5788		11.718750
5789		7.812500
5790		11.718750
5791		7.812500
5792		11.718750
5793		7.812500
5794		11.718750
5795		7.812500
5796		11.718750
5797		7.812500
5798		11.718750
5799		5.859375
5800		11.718750
5801		5.859375
5802		9.765625
5803		7.812500
5804		9.765625
5805		5.859375
5806		11.718750
5807		5.859375
5808		9.765625
5809		5.859375
5810		9.765625
5811		5.859375
5812		9.765625
5813		5.859375
5814		9.765625
5815		5.859375
5816		9.765625
5817		5.859375
5818		9.765625
5819		5.859375
5820		9.765625
5821		5.859375
5822		9.765625
5823		5.859375
5824		9.765625
5825		5.859375
5826		7.812500
5827		5.859375
5828		7.812500
5829		5.859375
5830		7.812500
5831		5.859375
5832		7.812500
5833		5.859375
5834		7.812500
5835		5.859375
5836		7.812500
5837		5.859375
5838		7.812500
5839		3.906250
5840		7.812500
5841		5.859375
5842		7.812500
5843		3.906250
5844		7.812500
5845		3.906250
5846		7.812500
5847		5.859375
5848		7.812500
5849		3.906250
5850		7.812500
5851		3.906250
5852		7.812500
5853		5.859375
5854		7.812500
5855		3.906250
5856		7.812500
5857		3.906250
5858		7.812500
5859		3.906250
5860		7.812500
5861		3.906250
5862		7.812500
5863		3.906250
5864		7.812500
5865		3.906250
5866		7.812500
5867		3.906250
5868		7.812500
5869		5.859375
5870		7.812500
5871		3.906250
5872		7.812500
5873		5.859375
5874		7.812500
5875		5.859375
5876		7.812500
5877		5.859375
5878		7.812500
5879		5.859375
5880		7.812500
5881		5.859375
5882		7.812500
5883		3.906250
5884		7.812500
5885		5.859375
5886		9.765625
5887		5.859375
5888		7.812500
5889		3.906250
5890		9.765625
5891		5.859375
5892		7.812500
5893		5.859375
5894		9.765625
5895		5.859375
5896		9.765625
5897		5.859375
5898		9.765625
5899		5.859375
5900		9.765625
5901		5.859375
5902		9.765625
5903		7.812500
5904		9.765625
5905		7.812500
5906		9.765625
5907		7.812500
5908		9.765625
5909		7.812500
5910		9.765625
5911		7.812500
5912		11.718750
5913		7.812500
5914		11.718750
5915		7.812500
5916		11.718750
5917		7.812500
5918		11.718750
5919		7.812500
5920		11.718750
5921		9.765625
5922		11.718750
5923		7.812500
5924		11.718750
5925		9.765625
5926		11.718750
5927		9.765625
5928		11.718750
5929		9.765625
5930		11.718750
5931		9.765625
5932		13.671875
5933		9.765625
5934		13.671875
5935		9.765625
5936		13.671875
5937		9.765625
5938		13.671875
5939		9.765625
5940		13.671875
5941		9.765625
5942		13.671875
5943		9.765625
5944		13.671875
5945		11.718750
5946		13.671875
5947		11.718750
5948		13.671875
5949		11.718750
5950		13.671875
5951		11.718750
5952		15.625000
5953		11.718750
5954		13.671875
5955		11.718750
5956		13.671875
5957		11.718750
5958		15.625000
5959		11.718750
5960		15.625000
5961		11.718750
5962		15.625000
5963		11.718750
5964		15.625000
5965		11.718750
5966		15.625000
5967		11.718750
5968		15.625000
5969		11.718750
5970		15.625000
5971		11.718750
5972		15.625000
5973		11.718750
5974		15.625000
5975		11.718750
5976		15.625000
5977		11.718750
5978		15.625000
5979		11.718750
5980		15.625000
5981		11.718750
5982		15.625000
5983		11.718750
5984		15.625000
5985		11.718750
5986		15.625000
5987		13.671875
5988		15.625000
5989		11.718750
5990		15.625000
5991		11.718750
5992		15.625000
5993		11.718750
5994		15.625000
5995		11.718750
5996		15.625000
5997		11.718750
5998		15.625000
5999		11.718750
6000		15.625000
6001		11.718750
6002		15.625000
6003		11.718750
6004		13.671875
6005		11.718750
6006		15.625000
6007		11.718750
6008		15.625000
6009		11.718750
6010		15.625000
6011		11.718750
6012		13.671875
6013		11.718750
6014		13.671875
6015		11.718750
6016		13.671875
6017		9.765625
6018		13.671875
6019		9.765625
6020		13.671875
6021		11.718750
6022		13.671875
6023		9.765625
6024		13.671875
6025		9.765625
6026		13.671875
6027		9.765625
6028		13.671875
6029		9.765625
6030		13.671875
6031		9.765625
6032		13.671875
6033		9.765625
6034		11.718750
6035		9.765625
6036		11.718750
6037		9.765625
6038		11.718750
6039		9.765625
6040		11.718750
6041		7.812500
6042		11.718750
6043		7.812500
6044		11.718750
6045		7.812500
6046		11.718750
6047		7.812500
6048		11.718750
6049		7.812500
6050		11.718750
6051		7.812500
6052		9.765625
6053		7.812500
6054		9.765625
6055		7.812500
6056		9.765625
6057		5.859375
6058		9.765625
6059		5.859375
6060		9.765625
6061		5.859375
6062		9.765625
6063		5.859375
6064		9.765625
6065		5.859375
6066		9.765625
6067		5.859375
6068		9.765625
6069		5.859375
6070		9.765625
6071		5.859375
6072		7.812500
6073		5.859375
6074		9.765625
6075		5.859375
6076		7.812500
6077		5.859375
6078		7.812500
6079		5.859375
6080		7.812500
6081		5.859375
6082		7.812500
6083		5.859375
6084		7.812500
6085		3.906250
6086		7.812500
6087		5.859375
6088		7.812500
6089		5.859375
6090		7.812500
6091		3.906250
6092		7.812500
6093		3.906250
6094		7.812500
6095		3.906250
6096		7.812500
6097		3.906250
6098		7.812500
6099		3.906250
6100		7.812500
6101		3.906250
6102		7.812500
6103		3.906250
6104		7.812500
6105		3.906250
6106		7.812500
6107		3.906250
6108		7.812500
6109		3.906250
6110		7.812500
6111		3.906250
6112		7.812500
6113		3.906250
6114		7.812500
6115		3.906250
6116		7.812500
6117		3.906250
6118		7.812500
6119		3.906250
6120		7.812500
6121		5.859375
6122		7.812500
6123		5.859375
6124		7.812500
6125		3.906250
6126		7.812500
6127		5.859375
6128		7.812500
6129		3.906250
6130		7.812500
6131		5.859375
6132		7.812500
6133		5.859375
6134		7.812500
6135		5.859375
6136		7.812500
6137		3.906250
6138		7.812500
6139		5.859375
6140		7.812500
6141		5.859375
6142		7.812500
6143		5.859375
6144		7.812500
6145		5.859375
6146		7.812500
6147		5.859375
6148		9.765625
6149		5.859375
6150		9.765625
6151		5.859375
6152		9.765625
6153		5.859375
6154		9.765625
6155		7.812500
6156		9.765625
6157		5.859375
6158		9.765625
6159		5.859375
6160		9.765625
6161		7.812500
6162		9.765625
6163		5.859375
6164		9.765625
6165		5.859375
6166		11.718750
6167		7.812500
6168		9.765625
6169		7.812500
6170		11.718750
6171		7.812500
6172		9.765625
6173		7.812500
6174		9.765625
6175		7.812500
6176		11.718750
6177		7.812500
6178		11.718750
6179		7.812500
6180		11.718750
6181		9.765625
6182		11.718750
6183		7.812500
6184		11.718750
6185		9.765625
6186		11.718750
6187		9.765625
6188		11.718750
6189		9.765625
6190		11.718750
6191		9.765625
6192		13.671875
6193		9.765625
6194		13.671875
6195		9.765625
6196		13.671875
6197		9.765625
6198		13.671875
6199		9.765625
6200		13.671875
6201		11.718750
6202		13.671875
6203		9.765625
6204		13.671875
6205		11.718750
6206		13.671875
6207		11.718750
6208		13.671875
6209		11.718750
6210		15.625000
6211		11.718750
6212		15.625000
6213		11.718750
6214		15.625000
6215		11.718750
6216		13.671875
6217		11.718750
6218		15.625000
6219		11.718750
6220		15.625000
6221		11.718750
6222		15.625000
6223		11.718750
6224		13.671875
6225		11.718750
6226		15.625000
6227		11.718750
6228		15.625000
6229		11.718750
6230		15.625000
6231		11.718750
6232		15.625000
6233		11.718750
6234		15.625000
6235		11.718750
6236		15.625000
6237		11.718750
6238		15.625000
6239		13.671875
6240		15.625000
6241		11.718750
6242		15.625000
6243		11.718750
6244		15.625000
6245		11.718750
6246		15.625000
6247		11.718750
6248		15.625000
6249		11.718750
6250		15.625000
6251		11.718750
6252		15.625000
6253		11.718750
6254		15.625000
6255		11.718750
6256		15.625000
6257		11.718750
6258		13.671875
6259		9.765625
6260		15.625000
6261		11.718750
6262		15.625000
6263		11.718750
6264		13.671875
6265		11.718750
6266		13.671875
6267		11.718750
6268		13.671875
6269		11.718750
6270		13.671875
6271		9.765625
6272		13.671875
6273		11.718750
6274		13.671875
6275		9.765625
6276		13.671875
6277		9.765625
6278		13.671875
6279		9.765625
6280		13.671875
6281		9.765625
6282		13.671875
6283		9.765625
6284		13.671875
6285		9.765625
6286		11.718750
6287		7.812500
6288		11.718750
6289		9.765625
6290		11.718750
6291		9.765625
6292		11.718750
6293		7.812500
6294		11.718750
6295		7.812500
6296		11.718750
6297		7.812500
6298		11.718750
6299		7.812500
6300		11.718750
6301		7.812500
6302		9.765625
6303		7.812500
6304		9.765625
6305		7.812500
6306		9.765625
6307		7.812500
6308		9.765625
6309		5.859375
6310		9.765625
6311		5.859375
6312		9.765625
6313		5.859375
6314		9.765625
6315		5.859375
6316		9.765625
6317		5.859375
6318		9.765625
6319		5.859375
6320		9.765625
6321		5.859375
6322		7.812500
6323		5.859375
6324		7.812500
6325		5.859375
6326		7.812500
6327		3.906250
6328		9.765625
6329		5.859375
6330		7.812500
6331		3.906250
6332		7.812500
6333		3.906250
6334		7.812500
6335		5.859375
6336		7.812500
6337		3.906250
6338		7.812500
6339		5.859375
6340		7.812500
6341		5.859375
6342		7.812500
6343		3.906250
6344		7.812500
6345		3.906250
6346		7.812500
6347		3.906250
6348		7.812500
6349		3.906250
6350		7.812500
6351		3.906250
6352		7.812500
6353		3.906250
6354		7.812500
6355		3.906250
6356		7.812500
6357		3.906250
6358		5.859375
6359		3.906250
6360		7.812500
6361		3.906250
6362		7.812500
6363		3.906250
6364		7.812500
6365		3.906250
6366		7.812500
6367		3.906250
6368		7.812500
6369		3.906250
6370		5.859375
6371		3.906250
6372		7.812500
6373		3.906250
6374		5.859375
6375		3.906250
6376		7.812500
6377		3.906250
6378		7.812500
6379		3.906250
6380		7.812500
6381		3.906250
6382		7.812500
6383		3.906250
6384		7.812500
6385		3.906250
6386		7.812500
6387		3.906250
6388		7.812500
6389		3.906250
6390		7.812500
6391		5.859375
6392		7.812500
6393		3.906250
6394		7.812500
6395		5.859375
6396		7.812500
6397		5.859375
6398		7.812500
6399		5.859375
6400		9.765625
6401		5.859375
6402		7.812500
6403		5.859375
6404		9.765625
6405		5.859375
6406		9.765625
6407		5.859375
6408		9.765625
6409		5.859375
6410		7.812500
6411		5.859375
6412		9.765625
6413		5.859375
6414		9.765625
6415		5.859375
6416		9.765625
6417		5.859375
6418		9.765625
6419		7.812500
6420		9.765625
6421		7.812500
6422		9.765625
6423		5.859375
6424		9.765625
6425		7.812500
6426		9.765625
6427		7.812500
6428		9.765625
6429		7.812500
6430		11.718750
6431		7.812500
6432		11.718750
6433		7.812500
6434		11.718750
6435		7.812500
6436		11.718750
6437		9.765625
6438		11.718750
6439		9.765625
6440		11.718750
6441		9.765625
6442		11.718750
6443		7.812500
6444		13.671875
6445		9.765625
6446		11.718750
6447		9.765625
6448		11.718750
6449		9.765625
6450		11.718750
6451		9.765625
6452		13.671875
6453		9.765625
6454		13.671875
6455		9.765625
6456		13.671875
6457		9.765625
6458		13.671875
6459		11.718750
6460		13.671875
6461		9.765625
6462		13.671875
6463		11.718750
6464		13.671875
6465		11.718750
6466		13.671875
6467		11.718750
6468		13.671875
6469		11.718750
6470		13.671875
6471		11.718750
6472		13.671875
6473		11.718750
6474		15.625000
6475		11.718750
6476		13.671875
6477		11.718750
6478		15.625000
6479		11.718750
6480		15.625000
6481		11.718750
6482		15.625000
6483		11.718750
6484		13.671875
6485		11.718750
6486		15.625000
6487		11.718750
6488		15.625000
6489		11.718750
6490		15.625000
6491		11.718750
6492		15.625000
6493		11.718750
6494		13.671875
6495		11.718750
6496		15.625000
6497		11.718750
6498		15.625000
6499		11.718750
6500		15.625000
6501		11.718750
6502		15.625000
6503		11.718750
6504		13.671875
6505		11.718750
6506		15.625000
6507		11.718750
6508		15.625000
6509		11.718750
6510		13.671875
6511		11.718750
6512		13.671875
6513		11.718750
6514		15.625000
6515		11.718750
6516		13.671875
6517		11.718750
6518		13.671875
6519		11.718750
6520		13.671875
6521		9.765625
6522		13.671875
6523		9.765625
6524		13.671875
6525		9.765625
6526		13.671875
6527		9.765625
6528		13.671875
6529		9.765625
6530		13.671875
6531		9.765625
6532		13.671875
6533		9.765625
6534		11.718750
6535		9.765625
6536		11.718750
6537		9.765625
6538		11.718750
6539		7.812500
6540		11.718750
6541		9.765625
6542		11.718750
6543		7.812500
6544		11.718750
6545		7.812500
6546		11.718750
6547		7.812500
6548		11.718750
6549		7.812500
6550		11.718750
6551		7.812500
6552		9.765625
6553		7.812500
6554		9.765625
6555		7.812500
6556		9.765625
6557		5.859375
6558		9.765625
6559		7.812500
6560		9.765625
6561		5.859375
6562		9.765625
6563		5.859375
6564		9.765625
6565		5.859375
6566		9.765625
6567		5.859375
6568		7.812500
6569		5.859375
6570		9.765625
6571		5.859375
6572		7.812500
6573		5.859375
6574		9.765625
6575		5.859375
6576		7.812500
6577		5.859375
6578		7.812500
6579		3.906250
6580		7.812500
6581		3.906250
6582		7.812500
6583		3.906250
6584		7.812500
6585		3.906250
6586		7.812500
6587		3.906250
6588		7.812500
6589		3.906250
6590		7.812500
6591		3.906250
6592		7.812500
6593		3.906250
6594		7.812500
6595		3.906250
6596		7.812500
6597		3.906250
6598		7.812500
6599		3.906250
6600		7.812500
6601		3.906250
6602		7.812500
6603		3.906250
6604		7.812500
6605		3.906250
6606		5.859375
6607		3.906250
6608		7.812500
6609		3.906250
6610		7.812500
6611		3.906250
6612		7.812500
6613		3.906250
6614		7.812500
6615		3.906250
6616		7.812500
6617		3.906250
6618		7.812500
6619		3.906250
6620		7.812500
6621		3.906250
6622		7.812500
6623		1.953125
6624		7.812500
6625		3.906250
6626		5.859375
6627		3.906250
6628		5.859375
6629		3.906250
6630		7.812500
6631		3.906250
6632		7.812500
6633		3.906250
6634		7.812500
6635		3.906250
6636		7.812500
6637		3.906250
6638		7.812500
6639		3.906250
6640		7.812500
6641		3.906250
6642		7.812500
6643		3.906250
6644		7.812500
6645		3.906250
6646		7.812500
6647		3.906250
6648		7.812500
6649		5.859375
6650		7.812500
6651		5.859375
6652		7.812500
6653		5.859375
6654		9.765625
6655		5.859375
6656		7.812500
6657		5.859375
6658		9.765625
6659		5.859375
6660		7.812500
6661		5.859375
6662		7.812500
6663		5.859375
6664		9.765625
6665		5.859375
6666		9.765625
6667		5.859375
6668		9.765625
6669		5.859375
6670		9.765625
6671		5.859375
6672		9.765625
6673		5.859375
6674		9.765625
6675		5.859375
6676		9.765625
6677		7.812500
6678		9.765625
6679		5.859375
6680		11.718750
6681		7.812500
6682		11.718750
6683		7.812500
6684		11.718750
6685		7.812500
6686		11.718750
6687		7.812500
6688		11.718750
6689		7.812500
6690		11.718750
6691		7.812500
6692		11.718750
6693		7.812500
6694		11.718750
6695		9.765625
6696		11.718750
6697		9.765625
6698		11.718750
6699		9.765625
6700		11.718750
6701		9.765625
6702		11.718750
6703		9.765625
6704		13.671875
6705		9.765625
6706		13.671875
6707		9.765625
6708		13.671875
6709		9.765625
6710		13.671875
6711		11.718750
6712		13.671875
6713		9.765625
6714		13.671875
6715		11.718750
6716		13.671875
6717		11.718750
6718		13.671875
6719		11.718750
6720		13.671875
6721		9.765625
6722		15.625000
6723		11.718750
6724		13.671875
6725		11.718750
6726		15.625000
6727		11.718750
6728		13.671875
6729		11.718750
6730		15.625000
6731		11.718750
6732		15.625000
6733		11.718750
6734		15.625000
6735		11.718750
6736		15.625000
6737		11.718750
6738		15.625000
6739		11.718750
6740		15.625000
6741		11.718750
6742		15.625000
6743		11.718750
6744		13.671875
6745		11.718750
6746		15.625000
6747		11.718750
6748		15.625000
6749		11.718750
6750		15.625000
6751		11.718750
6752		15.625000
6753		11.718750
6754		15.625000
6755		11.718750
6756		15.625000
6757		11.718750
6758		15.625000
6759		11.718750
6760		15.625000
6761		11.718750
6762		13.671875
6763		11.718750
6764		15.625000
6765		11.718750
6766		13.671875
6767		11.718750
6768		13.671875
6769		11.718750
6770		13.671875
6771		11.718750
6772		13.671875
6773		11.718750
6774		13.671875
6775		9.765625
6776		13.671875
6777		9.765625
6778		13.671875
6779		9.765625
6780		13.671875
6781		9.765625
6782		13.671875
6783		9.765625
6784		13.671875
6785		9.765625
6786		11.718750
6787		9.765625
6788		13.671875
6789		9.765625
6790		11.718750
6791		9.765625
6792		11.718750
6793		9.765625
6794		11.718750
6795		9.765625
6796		11.718750
6797		7.812500
6798		11.718750
6799		7.812500
6800		11.718750
6801		7.812500
6802		11.718750
6803		7.812500
6804		9.765625
6805		7.812500
6806		9.765625
6807		7.812500
6808		9.765625
6809		7.812500
6810		11.718750
6811		7.812500
6812		9.765625
6813		5.859375
6814		9.765625
6815		5.859375
6816		9.765625
6817		5.859375
6818		9.765625
6819		5.859375
6820		9.765625
6821		5.859375
6822		9.765625
6823		5.859375
6824		9.765625
6825		3.906250
6826		9.765625
6827		5.859375
6828		7.812500
6829		5.859375
6830		7.812500
6831		5.859375
6832		7.812500
6833		3.906250
6834		7.812500
6835		5.859375
6836		7.812500
6837		3.906250
6838		7.812500
6839		3.906250
6840		7.812500
6841		3.906250
6842		7.812500
6843		3.906250
6844		7.812500
6845		5.859375
6846		7.812500
6847		3.906250
6848		7.812500
6849		3.906250
6850		7.812500
6851		3.906250
6852		7.812500
6853		3.906250
6854		7.812500
6855		3.906250
6856		7.812500
6857		3.906250
6858		7.812500
6859		3.906250
6860		7.812500
6861		3.906250
6862		5.859375
6863		3.906250
6864		7.812500
6865		3.906250
6866		7.812500
6867		3.906250
6868		7.812500
6869		3.906250
6870		7.812500
6871		3.906250
6872		7.812500
6873		3.906250
6874		7.812500
6875		3.906250
6876		7.812500
6877		3.906250
6878		5.859375
6879		3.906250
6880		5.859375
6881		3.906250
6882		7.812500
6883		3.906250
6884		7.812500
6885		3.906250
6886		7.812500
6887		3.906250
6888		7.812500
6889		3.906250
6890		7.812500
6891		3.906250
6892		7.812500
6893		3.906250
6894		7.812500
6895		3.906250
6896		7.812500
6897		5.859375
6898		7.812500
6899		3.906250
6900		7.812500
6901		5.859375
6902		7.812500
6903		5.859375
6904		7.812500
6905		5.859375
6906		7.812500
6907		5.859375
6908		7.812500
6909		3.906250
6910		9.765625
6911		5.859375
6912		7.812500
6913		5.859375
6914		9.765625
6915		5.859375
6916		7.812500
6917		5.859375
6918		9.765625
6919		7.812500
6920		9.765625
6921		7.812500
6922		9.765625
6923		7.812500
6924		9.765625
6925		7.812500
6926		9.765625
6927		7.812500
6928		9.765625
6929		7.812500
6930		9.765625
6931		7.812500
6932		11.718750
6933		7.812500
6934		11.718750
6935		7.812500
6936		11.718750
6937		7.812500
6938		11.718750
6939		7.812500
6940		11.718750
6941		7.812500
6942		11.718750
6943		7.812500
6944		11.718750
6945		9.765625
6946		11.718750
6947		9.765625
6948		11.718750
6949		7.812500
6950		11.718750
6951		9.765625
6952		13.671875
6953		9.765625
6954		11.718750
6955		9.765625
6956		11.718750
6957		9.765625
6958		13.671875
6959		9.765625
6960		13.671875
6961		9.765625
6962		13.671875
6963		11.718750
6964		13.671875
6965		9.765625
6966		13.671875
6967		11.718750
6968		13.671875
6969		9.765625
6970		13.671875
6971		11.718750
6972		13.671875
6973		11.718750
6974		13.671875
6975		11.718750
6976		13.671875
6977		9.765625
6978		15.625000
6979		11.718750
6980		13.671875
6981		11.718750
6982		15.625000
6983		11.718750
6984		15.625000
6985		11.718750
6986		15.625000
6987		11.718750
6988		15.625000
6989		11.718750
6990		15.625000
6991		11.718750
6992		15.625000
6993		11.718750
6994		15.625000
6995		11.718750
6996		15.625000
6997		11.718750
6998		15.625000
6999		11.718750
7000		15.625000
7001		11.718750
7002		15.625000
7003		11.718750
7004		15.625000
7005		11.718750
7006		15.625000
7007		11.718750
7008		15.625000
7009		11.718750
7010		15.625000
7011		11.718750
7012		15.625000
7013		11.718750
7014		13.671875
7015		11.718750
7016		15.625000
7017		11.718750
7018		13.671875
7019		11.718750
7020		13.671875
7021		11.718750
7022		13.671875
7023		11.718750
7024		13.671875
7025		11.718750
7026		13.671875
7027		9.765625
7028		13.671875
7029		11.718750
7030		13.671875
7031		11.718750
7032		13.671875
7033		9.765625
7034		13.671875
7035		9.765625
7036		13.671875
7037		9.765625
7038		11.718750
7039		9.765625
7040		13.671875
7041		9.765625
7042		13.671875
7043		7.812500
7044		11.718750
7045		7.812500
7046		13.671875
7047		9.765625
7048		11.718750
7049		7.812500
7050		11.718750
7051		7.812500
7052		11.718750
7053		7.812500
7054		11.718750
7055		7.812500
7056		11.718750
7057		7.812500
7058		11.718750
7059		7.812500
7060		11.718750
7061		7.812500
7062		11.718750
7063		7.812500
7064		9.765625
7065		5.859375
7066		9.765625
7067		5.859375
7068		9.765625
7069		5.859375
7070		9.765625
7071		5.859375
7072		9.765625
7073		5.859375
7074		9.765625
7075		5.859375
7076		9.765625
7077		5.859375
7078		9.765625
7079		5.859375
7080		9.765625
7081		5.859375
7082		7.812500
7083		5.859375
7084		9.765625
7085		5.859375
7086		7.812500
7087		5.859375
7088		7.812500
7089		3.906250
7090		7.812500
7091		3.906250
7092		7.812500
7093		3.906250
7094		7.812500
7095		3.906250
7096		7.812500
7097		5.859375
7098		7.812500
7099		3.906250
7100		7.812500
7101		3.906250
7102		7.812500
7103		3.906250
7104		7.812500
7105		3.906250
7106		7.812500
7107		3.906250
7108		7.812500
7109		3.906250
7110		7.812500
7111		3.906250
7112		7.812500
7113		3.906250
7114		5.859375
7115		3.906250
7116		7.812500
7117		3.906250
7118		7.812500
7119		3.906250
7120		7.812500
7121		3.906250
7122		7.812500
7123		3.906250
7124		7.812500
7125		3.906250
7126		7.812500
7127		3.906250
7128		7.812500
7129		3.906250
7130		7.812500
7131		3.906250
7132		5.859375
7133		3.906250
7134		7.812500
7135		3.906250
7136		7.812500
7137		3.906250
7138		7.812500
7139		3.906250
7140		7.812500
7141		3.906250
7142		7.812500
7143		3.906250
7144		7.812500
7145		3.906250
7146		7.812500
7147		3.906250
7148		7.812500
7149		3.906250
7150		7.812500
7151		3.906250
7152		7.812500
7153		5.859375
7154		7.812500
7155		5.859375
7156		7.812500
7157		5.859375
7158		7.812500
7159		5.859375
7160		7.812500
7161		5.859375
7162		7.812500
7163		5.859375
7164		7.812500
7165		5.859375
7166		7.812500
7167		5.859375
7168		9.765625
7169		5.859375
7170		9.765625
7171		5.859375
7172		9.765625
7173		5.859375
7174		9.765625
7175		5.859375
7176		9.765625
7177		7.812500
7178		9.765625
7179		5.859375
7180		11.718750
7181		7.812500
7182		9.765625
7183		7.812500
7184		9.765625
7185		7.812500
7186		9.765625
7187		7.812500
7188		11.718750
7189		7.812500
7190		9.765625
7191		7.812500
7192		11.718750
7193		7.812500
7194		11.718750
7195		7.812500
7196		11.718750
7197		9.765625
7198		11.718750
7199		9.765625
7200		11.718750
7201		7.812500
7202		11.718750
7203		9.765625
7204		11.718750
7205		9.765625
7206		11.718750
7207		9.765625
7208		13.671875
7209		9.765625
7210		13.671875
7211		9.765625
7212		13.671875
7213		9.765625
7214		13.671875
7215		9.765625
7216		13.671875
7217		9.765625
7218		13.671875
7219		11.718750
7220		13.671875
7221		11.718750
7222		13.671875
7223		11.718750
7224		13.671875
7225		11.718750
7226		13.671875
7227		11.718750
7228		13.671875
7229		11.718750
7230		13.671875
7231		11.718750
7232		13.671875
7233		11.718750
7234		15.625000
7235		11.718750
7236		15.625000
7237		11.718750
7238		15.625000
7239		11.718750
7240		15.625000
7241		11.718750
7242		15.625000
7243		11.718750
7244		15.625000
7245		11.718750
7246		15.625000
7247		11.718750
7248		13.671875
7249		11.718750
7250		15.625000
7251		11.718750
7252		15.625000
7253		11.718750
7254		15.625000
7255		11.718750
7256		15.625000
7257		11.718750
7258		15.625000
7259		11.718750
7260		15.625000
7261		11.718750
7262		15.625000
7263		11.718750
7264		15.625000
7265		11.718750
7266		13.671875
7267		11.718750
7268		13.671875
7269		11.718750
7270		13.671875
7271		11.718750
7272		13.671875
7273		9.765625
7274		13.671875
7275		11.718750
7276		13.671875
7277		11.718750
7278		13.671875
7279		9.765625
7280		13.671875
7281		11.718750
7282		13.671875
7283		11.718750
7284		13.671875
7285		9.765625
7286		15.625000
7287		9.765625
7288		13.671875
7289		9.765625
7290		13.671875
7291		9.765625
7292		11.718750
7293		9.765625
7294		13.671875
7295		9.765625
7296		11.718750
7297		7.812500
7298		11.718750
7299		9.765625
7300		11.718750
7301		7.812500
7302		11.718750
7303		7.812500
7304		11.718750
7305		7.812500
7306		11.718750
7307		7.812500
7308		11.718750
7309		7.812500
7310		11.718750
7311		7.812500
7312		11.718750
7313		5.859375
7314		9.765625
7315		7.812500
7316		9.765625
7317		5.859375
7318		9.765625
7319		5.859375
7320		9.765625
7321		5.859375
7322		9.765625
7323		5.859375
7324		9.765625
7325		5.859375
7326		9.765625
7327		5.859375
7328		9.765625
7329		3.906250
7330		9.765625
7331		5.859375
7332		7.812500
7333		5.859375
7334		7.812500
7335		3.906250
7336		7.812500
7337		5.859375
7338		7.812500
7339		3.906250
7340		7.812500
7341		5.859375
7342		7.812500
7343		3.906250
7344		7.812500
7345		3.906250
7346		7.812500
7347		5.859375
7348		7.812500
7349		5.859375
7350		7.812500
7351		3.906250
7352		7.812500
7353		3.906250
7354		7.812500
7355		3.906250
7356		7.812500
7357		3.906250
7358		7.812500
7359		3.906250
7360		7.812500
7361		3.906250
7362		7.812500
7363		3.906250
7364		7.812500
7365		3.906250
7366		5.859375
7367		3.906250
7368		5.859375
7369		3.906250
7370		7.812500
7371		3.906250
7372		7.812500
7373		3.906250
7374		7.812500
7375		3.906250
7376		7.812500
7377		3.906250
7378		7.812500
7379		3.906250
7380		7.812500
7381		3.906250
7382		7.812500
7383		3.906250
7384		5.859375
7385		3.906250
7386		7.812500
7387		3.906250
7388		7.812500
7389		3.906250
7390		7.812500
7391		3.906250
7392		7.812500
7393		3.906250
7394		7.812500
7395		3.906250
7396		7.812500
7397		3.906250
7398		7.812500
7399		5.859375
7400		7.812500
7401		3.906250
7402		7.812500
7403		3.906250
7404		7.812500
7405		3.906250
7406		7.812500
7407		5.859375
7408		7.812500
7409		5.859375
7410		7.812500
7411		5.859375
7412		7.812500
7413		5.859375
7414		7.812500
7415		5.859375
7416		7.812500
7417		5.859375
7418		7.812500
7419		5.859375
7420		9.765625
7421		5.859375
7422		9.765625
7423		5.859375
7424		9.765625
7425		5.859375
7426		9.765625
7427		5.859375
7428		9.765625
7429		5.859375
7430		9.765625
7431		5.859375
7432		9.765625
7433		7.812500
7434		9.765625
7435		5.859375
7436		9.765625
7437		7.812500
7438		9.765625
7439		7.812500
7440		9.765625
7441		7.812500
7442		11.718750
7443		7.812500
7444		11.718750
7445		7.812500
7446		11.718750
7447		7.812500
7448		11.718750
7449		9.765625
7450		11.718750
7451		9.765625
7452		11.718750
7453		7.812500
7454		11.718750
7455		9.765625
7456		11.718750
7457		9.765625
7458		11.718750
7459		9.765625
7460		11.718750
7461		9.765625
7462		13.671875
7463		9.765625
7464		13.671875
7465		9.765625
7466		13.671875
7467		9.765625
7468		11.718750
7469		9.765625
7470		13.671875
7471		9.765625
7472		13.671875
7473		9.765625
7474		13.671875
7475		9.765625
7476		13.671875
7477		11.718750
7478		13.671875
7479		11.718750
7480		13.671875
7481		11.718750
7482		15.625000
7483		11.718750
7484		13.671875
7485		11.718750
7486		15.625000
7487		9.765625
7488		15.625000
7489		11.718750
7490		15.625000
7491		11.718750
7492		13.671875
7493		11.718750
7494		15.625000
7495		11.718750
7496		15.625000
7497		11.718750
7498		15.625000
7499		11.718750
7500		13.671875
7501		11.718750
7502		13.671875
7503		11.718750
7504		15.625000
7505		11.718750
7506		15.625000
7507		11.718750
7508		15.625000
7509		11.718750
7510		15.625000
7511		11.718750
7512		15.625000
7513		11.718750
7514		13.671875
7515		11.718750
7516		15.625000
7517		11.718750
7518		13.671875
7519		11.718750
7520		15.625000
7521		11.718750
7522		15.625000
7523		11.718750
7524		15.625000
7525		11.718750
7526		13.671875
7527		9.765625
7528		13.671875
7529		9.765625
7530		13.671875
7531		9.765625
7532		13.671875
7533		11.718750
7534		13.671875
7535		11.718750
7536		13.671875
7537		9.765625
7538		13.671875
7539		9.765625
7540		13.671875
7541		9.765625
7542		13.671875
7543		9.765625
7544		13.671875
7545		9.765625
7546		11.718750
7547		9.765625
7548		11.718750
7549		9.765625
7550		11.718750
7551		9.765625
7552		11.718750
7553		7.812500
7554		11.718750
7555		7.812500
7556		11.718750
7557		7.812500
7558		11.718750
7559		7.812500
7560		11.718750
7561		7.812500
7562		9.765625
7563		7.812500
7564		9.765625
7565		7.812500
7566		11.718750
7567		7.812500
7568		9.765625
7569		7.812500
7570		9.765625
7571		5.859375
7572		9.765625
7573		5.859375
7574		9.765625
7575		5.859375
7576		9.765625
7577		5.859375
7578		9.765625
7579		5.859375
7580		9.765625
7581		5.859375
7582		9.765625
7583		5.859375
7584		7.812500
7585		5.859375
7586		7.812500
7587		3.906250
7588		9.765625
7589		5.859375
7590		7.812500
7591		5.859375
7592		7.812500
7593		3.906250
7594		7.812500
7595		3.906250
7596		7.812500
7597		3.906250
7598		7.812500
7599		3.906250
7600		7.812500
7601		3.906250
7602		7.812500
7603		3.906250
7604		7.812500
7605		3.906250
7606		7.812500
7607		3.906250
7608		7.812500
7609		3.906250
7610		7.812500
7611		3.906250
7612		7.812500
7613		3.906250
7614		7.812500
7615		3.906250
7616		7.812500
7617		3.906250
7618		5.859375
7619		3.906250
7620		5.859375
7621		1.953125
7622		7.812500
7623		3.906250
7624		5.859375
7625		3.906250
7626		7.812500
7627		3.906250
7628		7.812500
7629		3.906250
7630		5.859375
7631		3.906250
7632		5.859375
7633		3.906250
7634		5.859375
7635		3.906250
7636		5.859375
7637		3.906250
7638		7.812500
7639		3.906250
7640		7.812500
7641		3.906250
7642		7.812500
7643		3.906250
7644		7.812500
7645		3.906250
7646		7.812500
7647		3.906250
7648		7.812500
7649		3.906250
7650		7.812500
7651		3.906250
7652		7.812500
7653		5.859375
7654		7.812500
7655		3.906250
7656		7.812500
7657		3.906250
7658		7.812500
7659		3.906250
7660		7.812500
7661		3.906250
7662		7.812500
7663		3.906250
7664		7.812500
7665		3.906250
7666		9.765625
7667		3.906250
7668		7.812500
7669		5.859375
7670		7.812500
7671		5.859375
7672		9.765625
7673		5.859375
7674		9.765625
7675		5.859375
7676		9.765625
7677		5.859375
7678		9.765625
7679		5.859375
7680		9.765625
7681		5.859375
7682		9.765625
7683		5.859375
7684		9.765625
7685		7.812500
7686		9.765625
7687		5.859375
7688		9.765625
7689		5.859375
7690		11.718750
7691		5.859375
7692		11.718750
7693		5.859375
7694		11.718750
7695		7.812500
7696		11.718750
7697		7.812500
7698		11.718750
7699		7.812500
7700		11.718750
7701		7.812500
7702		11.718750
7703		7.812500
7704		11.718750
7705		7.812500
7706		13.671875
7707		7.812500
7708		13.671875
7709		7.812500
7710		13.671875
7711		7.812500
7712		13.671875
7713		7.812500
7714		13.671875
7715		9.765625
7716		13.671875
7717		9.765625
7718		13.671875
7719		9.765625
7720		11.718750
7721		9.765625
7722		13.671875
7723		9.765625
7724		13.671875
7725		9.765625
7726		15.625000
7727		9.765625
7728		15.625000
7729		9.765625
7730		13.671875
7731		9.765625
7732		15.625000
7733		9.765625
7734		15.625000
7735		11.718750
7736		13.671875
7737		11.718750
7738		13.671875
7739		11.718750
7740		15.625000
7741		9.765625
7742		15.625000
7743		9.765625
7744		15.625000
7745		11.718750
7746		15.625000
7747		11.718750
7748		15.625000
7749		11.718750
7750		15.625000
7751		11.718750
7752		15.625000
7753		11.718750
7754		13.671875
7755		11.718750
7756		13.671875
7757		11.718750
7758		13.671875
7759		11.718750
7760		15.625000
7761		11.718750
7762		13.671875
7763		11.718750
7764		13.671875
7765		11.718750
7766		13.671875
7767		11.718750
7768		13.671875
7769		11.718750
7770		13.671875
7771		11.718750
7772		15.625000
7773		11.718750
7774		13.671875
7775		11.718750
7776		13.671875
7777		11.718750
7778		13.671875
7779		11.718750
7780		13.671875
7781		11.718750
7782		13.671875
7783		9.765625
7784		13.671875
7785		11.718750
7786		13.671875
7787		11.718750
7788		13.671875
7789		11.718750
7790		13.671875
7791		9.765625
7792		13.671875
7793		9.765625
7794		11.718750
7795		9.765625
7796		11.718750
7797		9.765625
7798		13.671875
7799		9.765625
7800		11.718750
7801		9.765625
7802		11.718750
7803		9.765625
7804		11.718750
7805		9.765625
7806		11.718750
7807		9.765625
7808		11.718750
7809		9.765625
7810		11.718750
7811		9.765625
7812		11.718750
7813		7.812500
7814		9.765625
7815		7.812500
7816		9.765625
7817		7.812500
7818		9.765625
7819		7.812500
7820		9.765625
7821		7.812500
7822		9.765625
7823		7.812500
7824		9.765625
7825		7.812500
7826		9.765625
7827		7.812500
7828		9.765625
7829		7.812500
7830		9.765625
7831		7.812500
7832		9.765625
7833		5.859375
7834		7.812500
7835		5.859375
7836		7.812500
7837		5.859375
7838		7.812500
7839		5.859375
7840		7.812500
7841		5.859375
7842		7.812500
7843		5.859375
7844		7.812500
7845		5.859375
7846		7.812500
7847		5.859375
7848		7.812500
7849		5.859375
7850		7.812500
7851		5.859375
7852		7.812500
7853		5.859375
7854		7.812500
7855		1.953125
7856		9.765625
7857		1.953125
7858		11.718750
7859		1.953125
7860		9.765625
7861		1.953125
7862		9.765625
7863		3.906250
7864		5.859375
7865		3.906250
7866		5.859375
7867		3.906250
7868		5.859375
7869		3.906250
7870		5.859375
7871		3.906250
7872		5.859375
7873		1.953125
7874		9.765625
7875		1.953125
7876		9.765625
7877		1.953125
7878		9.765625
7879		3.906250
7880		5.859375
7881		3.906250
7882		5.859375
7883		3.906250
7884		5.859375
7885		3.906250
7886		5.859375
7887		3.906250
7888		5.859375
7889		0.000000
7890		9.765625
7891		0.000000
7892		9.765625
7893		1.953125
7894		9.765625
7895		0.000000
7896		11.718750
7897		3.906250
7898		7.812500
7899		3.906250
7900		5.859375
7901		3.906250
7902		5.859375
7903		3.906250
7904		5.859375
7905		5.859375
7906		7.812500
7907		1.953125
7908		11.718750
7909		1.953125
7910		11.718750
7911		1.953125
7912		11.718750
7913		5.859375
7914		7.812500
7915		5.859375
7916		7.812500
7917		5.859375
7918		7.812500
7919		5.859375
7920		7.812500
7921		5.859375
7922		7.812500
7923		1.953125
7924		11.718750
7925		1.953125
7926		11.718750
7927		1.953125
7928		11.718750
7929		5.859375
7930		7.812500
7931		5.859375
7932		7.812500
7933		5.859375
7934		9.765625
7935		7.812500
7936		9.765625
7937		7.812500
7938		9.765625
7939		5.859375
7940		11.718750
7941		3.906250
7942		13.671875
7943		3.906250
7944		13.671875
7945		3.906250
7946		13.671875
7947		7.812500
7948		9.765625
7949		7.812500
7950		9.765625
7951		7.812500
7952		9.765625
7953		7.812500
7954		9.765625
7955		9.765625
7956		11.718750
7957		5.859375
7958		15.625000
7959		5.859375
7960		15.625000
7961		5.859375
7962		15.625000
7963		9.765625
7964		11.718750
7965		9.765625
7966		11.718750
7967		9.765625
7968		11.718750
7969		9.765625
7970		11.718750
7971		9.765625
7972		11.718750
7973		5.859375
7974		17.578125
7975		7.812500
7976		15.625000
7977		7.812500
7978		17.578125
7979		7.812500
7980		17.578125
7981		11.718750
7982		13.671875
7983		11.718750
7984		13.671875
7985		11.718750
7986		13.671875
7987		11.718750
7988		13.671875
7989		11.718750
7990		13.671875
7991		7.812500
7992		17.578125
7993		7.812500
7994		17.578125
7995		9.765625
7996		17.578125
7997		11.718750
7998		13.671875
7999		11.718750
8000		13.671875
8001		11.718750
8002		13.671875
8003		11.718750
8004		13.671875
8005		11.718750
8006		13.671875
8007		9.765625
8008		17.578125
8009		9.765625
8010		17.578125
8011		9.765625
8012		17.578125
8013		11.718750
8014		13.671875
8015		11.718750
8016		13.671875
8017		11.718750
8018		15.625000
8019		11.718750
8020		13.671875
8021		11.718750
8022		13.671875
8023		9.765625
8024		17.578125
8025		7.812500
8026		17.578125
8027		7.812500
8028		17.578125
8029		9.765625
8030		17.578125
8031		11.718750
8032		13.671875
8033		11.718750
8034		13.671875
8035		11.718750
8036		13.671875
8037		11.718750
8038		13.671875
8039		11.718750
8040		13.671875
8041		11.718750
8042		13.671875
8043		7.812500
8044		15.625000
8045		9.765625
8046		13.671875
8047		9.765625
8048		13.671875
8049		9.765625
8050		11.718750
8051		9.765625
8052		11.718750
8053		9.765625
8054		11.718750
8055		9.765625
8056		11.718750
8057		9.765625
8058		11.718750
8059		7.812500
8060		13.671875
8061		5.859375
8062		13.671875
8063		9.765625
8064		11.718750
8065		7.812500
8066		11.718750
8067		7.812500
8068		11.718750
8069		7.812500
8070		9.765625
8071		7.812500
8072		9.765625
8073		7.812500
8074		9.765625
8075		7.812500
8076		9.765625
8077		5.859375
8078		11.718750
8079		5.859375
8080		11.718750
8081		5.859375
8082		9.765625
8083		5.859375
8084		9.765625
8085		5.859375
8086		9.765625
8087		5.859375
8088		7.812500
8089		5.859375
8090		7.812500
8091		5.859375
8092		7.812500
8093		5.859375
8094		7.812500
8095		5.859375
8096		7.812500
8097		5.859375
8098		7.812500
8099		5.859375
8100		7.812500
8101		5.859375
8102		7.812500
8103		3.906250
8104		7.812500
8105		5.859375
8106		7.812500
8107		5.859375
8108		7.812500
8109		5.859375
8110		7.812500
8111		3.906250
8112		7.812500
8113		3.906250
8114		7.812500
8115		3.906250
8116		7.812500
8117		3.906250
8118		5.859375
8119		3.906250
8120		5.859375
8121		3.906250
8122		5.859375
8123		3.906250
8124		5.859375
8125		3.906250
8126		5.859375
8127		3.906250
8128		5.859375
8129		3.906250
8130		5.859375
8131		3.906250
8132		7.812500
8133		3.906250
8134		5.859375
8135		3.906250
8136		5.859375
8137		3.906250
8138		5.859375
8139		3.906250
8140		5.859375
8141		3.906250
8142		7.812500
8143		3.906250
8144		7.812500
8145		3.906250
8146		5.859375
8147		3.906250
8148		7.812500
8149		3.906250
8150		7.812500
8151		3.906250
8152		7.812500
8153		3.906250
8154		5.859375
8155		3.906250
8156		7.812500
8157		5.859375
8158		7.812500
8159		3.906250
8160		7.812500
8161		3.906250
8162		7.812500
8163		5.859375
8164		7.812500
8165		3.906250
8166		7.812500
8167		5.859375
8168		7.812500
8169		5.859375
8170		7.812500
8171		5.859375
8172		7.812500
8173		5.859375
8174		7.812500
8175		5.859375
8176		7.812500
8177		5.859375
8178		9.765625
8179		5.859375
8180		7.812500
8181		5.859375
8182		9.765625
8183		5.859375
8184		9.765625
8185		5.859375
8186		9.765625
8187		5.859375
8188		9.765625
8189		7.812500
8190		9.765625
8191		5.859375
8192		11.718750
8193		5.859375
8194		9.765625
8195		5.859375
8196		9.765625
8197		7.812500
8198		9.765625
8199		7.812500
8200		11.718750
8201		7.812500
8202		11.718750
8203		7.812500
8204		9.765625
8205		7.812500
8206		11.718750
8207		7.812500
8208		11.718750
8209		5.859375
8210		11.718750
8211		7.812500
8212		11.718750
8213		9.765625
8214		11.718750
8215		7.812500
8216		11.718750
8217		7.812500
8218		11.718750
8219		9.765625
8220		11.718750
8221		9.765625
8222		11.718750
8223		9.765625
8224		11.718750
8225		9.765625
8226		13.671875
8227		9.765625
8228		13.671875
8229		9.765625
8230		13.671875
8231		9.765625
8232		13.671875
8233		9.765625
8234		13.671875
8235		9.765625
8236		13.671875
8237		11.718750
8238		13.671875
8239		11.718750
8240		13.671875
8241		11.718750
8242		13.671875
8243		11.718750
8244		15.625000
8245		11.718750
8246		15.625000
8247		11.718750
8248		13.671875
8249		11.718750
8250		15.625000
8251		11.718750
8252		15.625000
8253		11.718750
8254		13.671875
8255		11.718750
8256		15.625000
8257		11.718750
8258		15.625000
8259		11.718750
8260		15.625000
8261		11.718750
8262		15.625000
8263		11.718750
8264		15.625000
8265		11.718750
8266		15.625000
8267		11.718750
8268		15.625000
8269		11.718750
8270		15.625000
8271		11.718750
8272		15.625000
8273		11.718750
8274		13.671875
8275		11.718750
8276		15.625000
8277		11.718750
8278		15.625000
8279		11.718750
8280		15.625000
8281		11.718750
8282		13.671875
8283		11.718750
8284		15.625000
8285		11.718750
8286		15.625000
8287		11.718750
8288		13.671875
8289		11.718750
8290		13.671875
8291		11.718750
8292		13.671875
8293		9.765625
8294		13.671875
8295		9.765625
8296		13.671875
8297		11.718750
8298		13.671875
8299		9.765625
8300		13.671875
8301		9.765625
8302		13.671875
8303		9.765625
8304		13.671875
8305		9.765625
8306		11.718750
8307		9.765625
8308		11.718750
8309		7.812500
8310		13.671875
8311		7.812500
8312		11.718750
8313		9.765625
8314		11.718750
8315		9.765625
8316		11.718750
8317		7.812500
8318		11.718750
8319		7.812500
8320		11.718750
8321		7.812500
8322		9.765625
8323		7.812500
8324		9.765625
8325		7.812500
8326		11.718750
8327		7.812500
8328		9.765625
8329		7.812500
8330		9.765625
8331		7.812500
8332		9.765625
8333		5.859375
8334		9.765625
8335		7.812500
8336		9.765625
8337		7.812500
8338		9.765625
8339		5.859375
8340		9.765625
8341		5.859375
8342		7.812500
8343		5.859375
8344		9.765625
8345		5.859375
8346		7.812500
8347		5.859375
8348		7.812500
8349		5.859375
8350		7.812500
8351		5.859375
8352		7.812500
8353		5.859375
8354		7.812500
8355		5.859375
8356		7.812500
8357		5.859375
8358		7.812500
8359		5.859375
8360		7.812500
8361		5.859375
8362		7.812500
8363		3.906250
8364		7.812500
8365		3.906250
8366		7.812500
8367		3.906250
8368		7.812500
8369		3.906250
8370		7.812500
8371		3.906250
8372		5.859375
8373		3.906250
8374		5.859375
8375		3.906250
8376		5.859375
8377		3.906250
8378		5.859375
8379		3.906250
8380		5.859375
8381		3.906250
8382		5.859375
8383		3.906250
8384		5.859375
8385		3.906250
8386		5.859375
8387		3.906250
8388		5.859375
8389		3.906250
8390		5.859375
8391		3.906250
8392		7.812500
8393		3.906250
8394		5.859375
8395		3.906250
8396		5.859375
8397		3.906250
8398		5.859375
8399		3.906250
8400		5.859375
8401		3.906250
8402		7.812500
8403		3.906250
8404		5.859375
8405		3.906250
8406		5.859375
8407		5.859375
8408		5.859375
8409		5.859375
8410		7.812500
8411		3.906250
8412		7.812500
8413		3.906250
8414		7.812500
8415		3.906250
8416		7.812500
8417		5.859375
8418		7.812500
8419		5.859375
8420		7.812500
8421		5.859375
8422		7.812500
8423		5.859375
8424		7.812500
8425		5.859375
8426		7.812500
8427		5.859375
8428		7.812500
8429		5.859375
8430		7.812500
8431		5.859375
8432		7.812500
8433		5.859375
8434		7.812500
8435		5.859375
8436		7.812500
8437		5.859375
8438		7.812500
8439		7.812500
8440		9.765625
8441		7.812500
8442		9.765625
8443		5.859375
8444		9.765625
8445		5.859375
8446		9.765625
8447		7.812500
8448		9.765625
8449		7.812500
8450		9.765625
8451		7.812500
8452		9.765625
8453		7.812500
8454		9.765625
8455		7.812500
8456		9.765625
8457		7.812500
8458		9.765625
8459		7.812500
8460		11.718750
8461		7.812500
8462		11.718750
8463		9.765625
8464		11.718750
8465		9.765625
8466		11.718750
8467		9.765625
8468		11.718750
8469		9.765625
8470		11.718750
8471		9.765625
8472		11.718750
8473		9.765625
8474		11.718750
8475		9.765625
8476		11.718750
8477		7.812500
8478		13.671875
8479		9.765625
8480		13.671875
8481		9.765625
8482		13.671875
8483		9.765625
8484		13.671875
8485		11.718750
8486		13.671875
8487		9.765625
8488		13.671875
8489		11.718750
8490		13.671875
8491		11.718750
8492		13.671875
8493		11.718750
8494		13.671875
8495		9.765625
8496		15.625000
8497		9.765625
8498		15.625000
8499		11.718750
8500		13.671875
8501		11.718750
8502		13.671875
8503		11.718750
8504		13.671875
8505		11.718750
8506		13.671875
8507		11.718750
8508		13.671875
8509		11.718750
8510		13.671875
8511		11.718750
8512		15.625000
8513		11.718750
8514		15.625000
8515		11.718750
8516		13.671875
8517		11.718750
8518		15.625000
8519		11.718750
8520		15.625000
8521		11.718750
8522		15.625000
8523		11.718750
8524		13.671875
8525		11.718750
8526		15.625000
8527		11.718750
8528		15.625000
8529		9.765625
8530		15.625000
8531		11.718750
8532		15.625000
8533		11.718750
8534		13.671875
8535		11.718750
8536		13.671875
8537		11.718750
8538		13.671875
8539		11.718750
8540		13.671875
8541		11.718750
8542		13.671875
8543		11.718750
8544		13.671875
8545		9.765625
8546		15.625000
8547		9.765625
8548		13.671875
8549		9.765625
8550		13.671875
8551		11.718750
8552		13.671875
8553		9.765625
8554		13.671875
8555		9.765625
8556		11.718750
8557		9.765625
8558		11.718750
8559		9.765625
8560		11.718750
8561		7.812500
8562		13.671875
8563		7.812500
8564		13.671875
8565		7.812500
8566		13.671875
8567		9.765625
8568		11.718750
8569		9.765625
8570		11.718750
8571		9.765625
8572		11.718750
8573		7.812500
8574		9.765625
8575		7.812500
8576		9.765625
8577		7.812500
8578		9.765625
8579		5.859375
8580		11.718750
8581		5.859375
8582		11.718750
8583		7.812500
8584		9.765625
8585		7.812500
8586		9.765625
8587		7.812500
8588		9.765625
8589		7.812500
8590		9.765625
8591		7.812500
8592		9.765625
8593		5.859375
8594		7.812500
8595		5.859375
8596		9.765625
8597		5.859375
8598		9.765625
8599		5.859375
8600		7.812500
8601		5.859375
8602		7.812500
8603		5.859375
8604		7.812500
8605		5.859375
8606		7.812500
8607		5.859375
8608		7.812500
8609		5.859375
8610		7.812500
8611		3.906250
8612		7.812500
8613		1.953125
8614		9.765625
8615		3.906250
8616		9.765625
8617		5.859375
8618		7.812500
8619		3.906250
8620		7.812500
8621		5.859375
8622		5.859375
8623		5.859375
8624		5.859375
8625		3.906250
8626		7.812500
8627		3.906250
8628		5.859375
8629		1.953125
8630		7.812500
8631		3.906250
8632		7.812500
8633		3.906250
8634		5.859375
8635		3.906250
8636		5.859375
8637		3.906250
8638		5.859375
8639		3.906250
8640		5.859375
8641		3.906250
8642		5.859375
8643		3.906250
8644		5.859375
8645		3.906250
8646		7.812500
8647		3.906250
8648		7.812500
8649		3.906250
8650		9.765625
8651		3.906250
8652		7.812500
8653		3.906250
8654		7.812500
8655		3.906250
8656		5.859375
8657		3.906250
8658		5.859375
8659		3.906250
8660		7.812500
8661		3.906250
8662		7.812500
8663		3.906250
8664		7.812500
8665		5.859375
8666		7.812500
8667		5.859375
8668		7.812500
8669		5.859375
8670		7.812500
8671		5.859375
8672		7.812500
8673		5.859375
8674		7.812500
8675		5.859375
8676		7.812500
8677		5.859375
8678		7.812500
8679		3.906250
8680		7.812500
8681		5.859375
8682		7.812500
8683		5.859375
8684		7.812500
8685		5.859375
8686		7.812500
8687		5.859375
8688		7.812500
8689		5.859375
8690		7.812500
8691		5.859375
8692		9.765625
8693		5.859375
8694		9.765625
8695		5.859375
8696		9.765625
8697		5.859375
8698		9.765625
8699		7.812500
8700		9.765625
8701		7.812500
8702		9.765625
8703		7.812500
8704		9.765625
8705		7.812500
8706		9.765625
8707		7.812500
8708		9.765625
8709		7.812500
8710		9.765625
8711		7.812500
8712		11.718750
8713		9.765625
8714		11.718750
8715		9.765625
8716		11.718750
8717		9.765625
8718		11.718750
8719		9.765625
8720		11.718750
8721		9.765625
8722		11.718750
8723		9.765625
8724		11.718750
8725		9.765625
8726		11.718750
8727		9.765625
8728		11.718750
8729		9.765625
8730		11.718750
8731		9.765625
8732		13.671875
8733		11.718750
8734		13.671875
8735		11.718750
8736		13.671875
8737		11.718750
8738		13.671875
8739		11.718750
8740		13.671875
8741		11.718750
8742		13.671875
8743		11.718750
8744		13.671875
8745		11.718750
8746		13.671875
8747		11.718750
8748		13.671875
8749		11.718750
8750		13.671875
8751		11.718750
8752		13.671875
8753		11.718750
8754		13.671875
8755		11.718750
8756		13.671875
8757		11.718750
8758		13.671875
8759		11.718750
8760		15.625000
8761		13.671875
8762		15.625000
8763		11.718750
8764		15.625000
8765		11.718750
8766		15.625000
8767		13.671875
8768		15.625000
8769		13.671875
8770		15.625000
8771		11.718750
8772		15.625000
8773		13.671875
8774		15.625000
8775		11.718750
8776		15.625000
8777		13.671875
8778		15.625000
8779		11.718750
8780		15.625000
8781		11.718750
8782		15.625000
8783		11.718750
8784		13.671875
8785		11.718750
8786		13.671875
8787		11.718750
8788		13.671875
8789		11.718750
8790		13.671875
8791		11.718750
8792		13.671875
8793		11.718750
8794		13.671875
8795		11.718750
8796		13.671875
8797		11.718750
8798		13.671875
8799		11.718750
8800		13.671875
8801		11.718750
8802		13.671875
8803		11.718750
8804		13.671875
8805		11.718750
8806		13.671875
8807		11.718750
8808		13.671875
8809		9.765625
8810		13.671875
8811		9.765625
8812		13.671875
8813		9.765625
8814		11.718750
8815		9.765625
8816		11.718750
8817		9.765625
8818		11.718750
8819		9.765625
8820		11.718750
8821		9.765625
8822		11.718750
8823		9.765625
8824		11.718750
8825		9.765625
8826		11.718750
8827		9.765625
8828		11.718750
8829		7.812500
8830		11.718750
8831		7.812500
8832		9.765625
8833		7.812500
8834		9.765625
8835		7.812500
8836		11.718750
8837		7.812500
8838		9.765625
8839		7.812500
8840		9.765625
8841		7.812500
8842		9.765625
8843		7.812500
8844		9.765625
8845		7.812500
8846		9.765625
8847		5.859375
8848		9.765625
8849		5.859375
8850		9.765625
8851		5.859375
8852		9.765625
8853		5.859375
8854		7.812500
8855		5.859375
8856		7.812500
8857		5.859375
8858		7.812500
8859		5.859375
8860		7.812500
8861		5.859375
8862		7.812500
8863		3.906250
8864		9.765625
8865		5.859375
8866		7.812500
8867		5.859375
8868		7.812500
8869		5.859375
8870		7.812500
8871		5.859375
8872		7.812500
8873		5.859375
8874		7.812500
8875		3.906250
8876		7.812500
8877		5.859375
8878		7.812500
8879		5.859375
8880		7.812500
8881		3.906250
8882		7.812500
8883		3.906250
8884		5.859375
8885		3.906250
8886		7.812500
8887		3.906250
8888		7.812500
8889		3.906250
8890		7.812500
8891		3.906250
8892		5.859375
8893		3.906250
8894		5.859375
8895		3.906250
8896		7.812500
8897		3.906250
8898		7.812500
8899		3.906250
8900		7.812500
8901		3.906250
8902		5.859375
8903		3.906250
8904		5.859375
8905		5.859375
8906		7.812500
8907		3.906250
8908		7.812500
8909		3.906250
8910		7.812500
8911		5.859375
8912		7.812500
8913		5.859375
8914		7.812500
8915		5.859375
8916		7.812500
8917		5.859375
8918		7.812500
8919		5.859375
8920		7.812500
8921		5.859375
8922		7.812500
8923		5.859375
8924		7.812500
8925		5.859375
8926		7.812500
8927		5.859375
8928		7.812500
8929		5.859375
8930		7.812500
8931		5.859375
8932		7.812500
8933		5.859375
8934		7.812500
8935		5.859375
8936		7.812500
8937		5.859375
8938		7.812500
8939		5.859375
8940		9.765625
8941		5.859375
8942		9.765625
8943		5.859375
8944		9.765625
8945		7.812500
8946		9.765625
8947		7.812500
8948		9.765625
8949		7.812500
8950		9.765625
8951		7.812500
8952		9.765625
8953		7.812500
8954		9.765625
8955		7.812500
8956		9.765625
8957		7.812500
8958		9.765625
8959		7.812500
8960		9.765625
8961		7.812500
8962		11.718750
8963		7.812500
8964		11.718750
8965		7.812500
8966		11.718750
8967		7.812500
8968		11.718750
8969		9.765625
8970		11.718750
8971		9.765625
8972		11.718750
8973		9.765625
8974		11.718750
8975		9.765625
8976		11.718750
8977		9.765625
8978		11.718750
8979		9.765625
8980		11.718750
8981		9.765625
8982		11.718750
8983		11.718750
8984		13.671875
8985		9.765625
8986		13.671875
8987		11.718750
8988		13.671875
8989		11.718750
8990		13.671875
8991		11.718750
8992		13.671875
8993		11.718750
8994		13.671875
8995		11.718750
8996		13.671875
8997		11.718750
8998		13.671875
8999		11.718750
9000		13.671875
9001		11.718750
9002		13.671875
9003		11.718750
9004		13.671875
9005		11.718750
9006		13.671875
9007		11.718750
9008		15.625000
9009		11.718750
9010		15.625000
9011		11.718750
9012		15.625000
9013		13.671875
9014		15.625000
9015		11.718750
9016		15.625000
9017		13.671875
9018		15.625000
9019		13.671875
9020		15.625000
9021		13.671875
9022		15.625000
9023		13.671875
9024		15.625000
9025		13.671875
9026		15.625000
9027		11.718750
9028		15.625000
9029		13.671875
9030		15.625000
9031		11.718750
9032		15.625000
9033		11.718750
9034		15.625000
9035		11.718750
9036		15.625000
9037		11.718750
9038		15.625000
9039		11.718750
9040		15.625000
9041		11.718750
9042		13.671875
9043		11.718750
9044		13.671875
9045		11.718750
9046		13.671875
9047		11.718750
9048		13.671875
9049		11.718750
9050		13.671875
9051		11.718750
9052		13.671875
9053		11.718750
9054		13.671875
9055		11.718750
9056		13.671875
9057		9.765625
9058		13.671875
9059		11.718750
9060		13.671875
9061		11.718750
9062		13.671875
9063		9.765625
9064		13.671875
9065		9.765625
9066		13.671875
9067		9.765625
9068		11.718750
9069		9.765625
9070		11.718750
9071		9.765625
9072		11.718750
9073		9.765625
9074		11.718750
9075		9.765625
9076		11.718750
9077		9.765625
9078		11.718750
9079		9.765625
9080		11.718750
9081		9.765625
9082		11.718750
9083		9.765625
9084		11.718750
9085		7.812500
9086		9.765625
9087		7.812500
9088		9.765625
9089		7.812500
9090		9.765625
9091		7.812500
9092		9.765625
9093		7.812500
9094		9.765625
9095		7.812500
9096		9.765625
9097		7.812500
9098		9.765625
9099		7.812500
9100		9.765625
9101		7.812500
9102		9.765625
9103		5.859375
9104		9.765625
9105		5.859375
9106		7.812500
9107		5.859375
9108		7.812500
9109		5.859375
9110		7.812500
9111		5.859375
9112		7.812500
9113		5.859375
9114		7.812500
9115		5.859375
9116		7.812500
9117		5.859375
9118		7.812500
9119		5.859375
9120		7.812500
9121		5.859375
9122		7.812500
9123		5.859375
9124		7.812500
9125		3.906250
9126		7.812500
9127		5.859375
9128		7.812500
9129		5.859375
9130		7.812500
9131		5.859375
9132		7.812500
9133		5.859375
9134		7.812500
9135		5.859375
9136		7.812500
9137		3.906250
9138		7.812500
9139		5.859375
9140		7.812500
9141		5.859375
9142		7.812500
9143		5.859375
9144		7.812500
9145		3.906250
9146		7.812500
9147		3.906250
9148		7.812500
9149		3.906250
9150		7.812500
9151		5.859375
9152		7.812500
9153		5.859375
9154		7.812500
9155		5.859375
9156		7.812500
9157		3.906250
9158		7.812500
9159		5.859375
9160		7.812500
9161		3.906250
9162		7.812500
9163		5.859375
9164		7.812500
9165		5.859375
9166		7.812500
9167		5.859375
9168		7.812500
9169		5.859375
9170		7.812500
9171		5.859375
9172		7.812500
9173		5.859375
9174		7.812500
9175		5.859375
9176		7.812500
9177		5.859375
9178		7.812500
9179		5.859375
9180		7.812500
9181		5.859375
9182		7.812500
9183		5.859375
9184		7.812500
9185		5.859375
9186		7.812500
9187		5.859375
9188		7.812500
9189		5.859375
9190		9.765625
9191		5.859375
9192		7.812500
9193		5.859375
9194		9.765625
9195		7.812500
9196		9.765625
9197		7.812500
9198		9.765625
9199		7.812500
9200		9.765625
9201		7.812500
9202		9.765625
9203		7.812500
9204		9.765625
9205		7.812500
9206		9.765625
9207		7.812500
9208		9.765625
9209		7.812500
9210		9.765625
9211		7.812500
9212		11.718750
9213		7.812500
9214		11.718750
9215		7.812500
9216		11.718750
9217		9.765625
9218		11.718750
9219		7.812500
9220		11.718750
9221		9.765625
9222		11.718750
9223		9.765625
9224		11.718750
9225		9.765625
9226		11.718750
9227		9.765625
9228		11.718750
9229		9.765625
9230		13.671875
9231		9.765625
9232		11.718750
9233		9.765625
9234		11.718750
9235		9.765625
9236		13.671875
9237		11.718750
9238		13.671875
9239		11.718750
9240		13.671875
9241		11.718750
9242		13.671875
9243		11.718750
9244		13.671875
9245		11.718750
9246		13.671875
9247		11.718750
9248		13.671875
9249		11.718750
9250		13.671875
9251		11.718750
9252		13.671875
9253		11.718750
9254		15.625000
9255		11.718750
9256		13.671875
9257		11.718750
9258		13.671875
9259		11.718750
9260		15.625000
9261		13.671875
9262		15.625000
9263		13.671875
9264		15.625000
9265		11.718750
9266		15.625000
9267		13.671875
9268		15.625000
9269		13.671875
9270		15.625000
9271		13.671875
9272		15.625000
9273		13.671875
9274		15.625000
9275		13.671875
9276		15.625000
9277		11.718750
9278		15.625000
9279		13.671875
9280		15.625000
9281		13.671875
9282		15.625000
9283		13.671875
9284		15.625000
9285		13.671875
9286		15.625000
9287		13.671875
9288		15.625000
9289		11.718750
9290		15.625000
9291		13.671875
9292		15.625000
9293		11.718750
9294		15.625000
9295		11.718750
9296		15.625000
9297		13.671875
9298		15.625000
9299		11.718750
9300		15.625000
9301		11.718750
9302		15.625000
9303		11.718750
9304		13.671875
9305		11.718750
9306		13.671875
9307		11.718750
9308		13.671875
9309		11.718750
9310		13.671875
9311		11.718750
9312		13.671875
9313		11.718750
9314		13.671875
9315		11.718750
9316		13.671875
9317		11.718750
9318		13.671875
9319		11.718750
9320		13.671875
9321		9.765625
9322		11.718750
9323		9.765625
9324		13.671875
9325		9.765625
9326		11.718750
9327		9.765625
9328		11.718750
9329		9.765625
9330		11.718750
9331		9.765625
9332		11.718750
9333		9.765625
9334		11.718750
9335		7.812500
9336		11.718750
9337		9.765625
9338		11.718750
9339		7.812500
9340		11.718750
9341		7.812500
9342		11.718750
9343		7.812500
9344		9.765625
9345		7.812500
9346		9.765625
9347		7.812500
9348		11.718750
9349		7.812500
9350		9.765625
9351		7.812500
9352		9.765625
9353		7.812500
9354		9.765625
9355		7.812500
9356		9.765625
9357		5.859375
9358		9.765625
9359		5.859375
9360		9.765625
9361		5.859375
9362		9.765625
9363		5.859375
9364		7.812500
9365		5.859375
9366		7.812500
9367		5.859375
9368		7.812500
9369		5.859375
9370		7.812500
9371		5.859375
9372		7.812500
9373		5.859375
9374		7.812500
9375		5.859375
9376		7.812500
9377		5.859375
9378		7.812500
9379		5.859375
9380		7.812500
9381		5.859375
9382		7.812500
9383		5.859375
9384		7.812500
9385		5.859375
9386		7.812500
9387		5.859375
9388		7.812500
9389		5.859375
9390		7.812500
9391		5.859375
9392		7.812500
9393		5.859375
9394		7.812500
9395		5.859375
9396		7.812500
9397		5.859375
9398		7.812500
9399		5.859375
9400		7.812500
9401		5.859375
9402		7.812500
9403		5.859375
9404		7.812500
9405		5.859375
9406		7.812500
9407		5.859375
9408		7.812500
9409		5.859375
9410		7.812500
9411		5.859375
9412		7.812500
9413		5.859375
9414		7.812500
9415		5.859375
9416		7.812500
9417		5.859375
9418		7.812500
9419		5.859375
9420		7.812500
9421		5.859375
9422		7.812500
9423		5.859375
9424		7.812500
9425		5.859375
9426		7.812500
9427		5.859375
9428		7.812500
9429		5.859375
9430		7.812500
9431		5.859375
9432		7.812500
9433		5.859375
9434		7.812500
9435		5.859375
9436		7.812500
9437		5.859375
9438		7.812500
9439		5.859375
9440		7.812500
9441		5.859375
9442		7.812500
9443		5.859375
9444		9.765625
9445		7.812500
9446		9.765625
9447		7.812500
9448		9.765625
9449		7.812500
9450		9.765625
9451		7.812500
9452		9.765625
9453		7.812500
9454		9.765625
9455		7.812500
9456		9.765625
9457		7.812500
9458		9.765625
9459		7.812500
9460		9.765625
9461		7.812500
9462		9.765625
9463		7.812500
9464		9.765625
9465		7.812500
9466		9.765625
9467		7.812500
9468		11.718750
9469		9.765625
9470		11.718750
9471		9.765625
9472		11.718750
9473		9.765625
9474		11.718750
9475		9.765625
9476		11.718750
9477		9.765625
9478		11.718750
9479		9.765625
9480		11.718750
9481		9.765625
9482		11.718750
9483		9.765625
9484		11.718750
9485		11.718750
9486		13.671875
9487		11.718750
9488		13.671875
9489		11.718750
9490		13.671875
9491		11.718750
9492		13.671875
9493		11.718750
9494		13.671875
9495		11.718750
9496		13.671875
9497		11.718750
9498		13.671875
9499		11.718750
9500		13.671875
9501		11.718750
9502		13.671875
9503		9.765625
9504		15.625000
9505		11.718750
9506		13.671875
9507		9.765625
9508		15.625000
9509		11.718750
9510		15.625000
9511		11.718750
9512		15.625000
9513		13.671875
9514		15.625000
9515		13.671875
9516		15.625000
9517		13.671875
9518		15.625000
9519		13.671875
9520		15.625000
9521		13.671875
9522		15.625000
9523		11.718750
9524		17.578125
9525		11.718750
9526		15.625000
9527		13.671875
9528		17.578125
9529		11.718750
9530		15.625000
9531		9.765625
9532		17.578125
9533		13.671875
9534		15.625000
9535		13.671875
9536		15.625000
9537		11.718750
9538		15.625000
9539		13.671875
9540		15.625000
9541		11.718750
9542		17.578125
9543		11.718750
9544		15.625000
9545		11.718750
9546		15.625000
9547		13.671875
9548		15.625000
9549		11.718750
9550		17.578125
9551		13.671875
9552		15.625000
9553		11.718750
9554		15.625000
9555		11.718750
9556		17.578125
9557		11.718750
9558		15.625000
9559		11.718750
9560		15.625000
9561		11.718750
9562		15.625000
9563		11.718750
9564		15.625000
9565		9.765625
9566		15.625000
9567		11.718750
9568		13.671875
9569		11.718750
9570		13.671875
9571		9.765625
9572		15.625000
9573		7.812500
9574		15.625000
9575		7.812500
9576		13.671875
9577		9.765625
9578		13.671875
9579		7.812500
9580		13.671875
9581		9.765625
9582		11.718750
9583		7.812500
9584		13.671875
9585		9.765625
9586		11.718750
9587		7.812500
9588		11.718750
9589		5.859375
9590		13.671875
9591		7.812500
9592		13.671875
9593		7.812500
9594		11.718750
9595		5.859375
9596		13.671875
9597		5.859375
9598		13.671875
9599		5.859375
9600		13.671875
9601		7.812500
9602		9.765625
9603		7.812500
9604		9.765625
9605		5.859375
9606		11.718750
9607		3.906250
9608		11.718750
9609		5.859375
9610		11.718750
9611		5.859375
9612		9.765625
9613		3.906250
9614		11.718750
9615		3.906250
9616		11.718750
9617		5.859375
9618		7.812500
9619		5.859375
9620		7.812500
9621		3.906250
9622		9.765625
9623		3.906250
9624		11.718750
9625		3.906250
9626		9.765625
9627		5.859375
9628		7.812500
9629		3.906250
9630		11.718750
9631		3.906250
9632		11.718750
9633		1.953125
9634		11.718750
9635		5.859375
9636		7.812500
9637		3.906250
9638		7.812500
9639		3.906250
9640		11.718750
9641		1.953125
9642		11.718750
9643		5.859375
9644		7.812500
9645		3.906250
9646		7.812500
9647		1.953125
9648		11.718750
9649		1.953125
9650		11.718750
9651		5.859375
9652		7.812500
9653		5.859375
9654		7.812500
9655		3.906250
9656		7.812500
9657		1.953125
9658		11.718750
9659		1.953125
9660		9.765625
9661		5.859375
9662		7.812500
9663		1.953125
9664		11.718750
9665		1.953125
9666		11.718750
9667		1.953125
9668		9.765625
9669		5.859375
9670		7.812500
9671		3.906250
9672		7.812500
9673		1.953125
9674		11.718750
9675		3.906250
9676		9.765625
9677		5.859375
9678		7.812500
9679		5.859375
9680		9.765625
9681		1.953125
9682		11.718750
9683		3.906250
9684		11.718750
9685		5.859375
9686		7.812500
9687		5.859375
9688		7.812500
9689		5.859375
9690		9.765625
9691		3.906250
9692		11.718750
9693		5.859375
9694		9.765625
9695		5.859375
9696		9.765625
9697		3.906250
9698		11.718750
9699		3.906250
9700		11.718750
9701		7.812500
9702		9.765625
9703		7.812500
9704		9.765625
9705		5.859375
9706		11.718750
9707		3.906250
9708		13.671875
9709		5.859375
9710		11.718750
9711		7.812500
9712		9.765625
9713		5.859375
9714		13.671875
9715		5.859375
9716		13.671875
9717		5.859375
9718		13.671875
9719		9.765625
9720		11.718750
9721		9.765625
9722		11.718750
9723		7.812500
9724		13.671875
9725		5.859375
9726		15.625000
9727		9.765625
9728		13.671875
9729		9.765625
9730		13.671875
9731		5.859375
9732		15.625000
9733		7.812500
9734		15.625000
9735		9.765625
9736		11.718750
9737		9.765625
9738		13.671875
9739		9.765625
9740		13.671875
9741		7.812500
9742		15.625000
9743		9.765625
9744		15.625000
9745		11.718750
9746		13.671875
9747		9.765625
9748		17.578125
9749		7.812500
9750		17.578125
9751		9.765625
9752		17.578125
9753		11.718750
9754		13.671875
9755		11.718750
9756		15.625000
9757		9.765625
9758		15.625000
9759		11.718750
9760		15.625000
9761		13.671875
9762		15.625000
9763		9.765625
9764		17.578125
9765		9.765625
9766		17.578125
9767		11.718750
9768		17.578125
9769		13.671875
9770		15.625000
9771		13.671875
9772		15.625000
9773		11.718750
9774		17.578125
9775		11.718750
9776		17.578125
9777		13.671875
9778		17.578125
9779		13.671875
9780		17.578125
9781		11.718750
9782		17.578125
9783		9.765625
9784		17.578125
9785		13.671875
9786		15.625000
9787		13.671875
9788		15.625000
9789		13.671875
9790		15.625000
9791		13.671875
9792		15.625000
9793		11.718750
9794		17.578125
9795		13.671875
9796		15.625000
9797		11.718750
9798		15.625000
9799		13.671875
9800		15.625000
9801		13.671875
9802		15.625000
9803		13.671875
9804		15.625000
9805		13.671875
9806		15.625000
9807		11.718750
9808		15.625000
9809		11.718750
9810		17.578125
9811		11.718750
9812		15.625000
9813		11.718750
9814		15.625000
9815		9.765625
9816		15.625000
9817		11.718750
9818		13.671875
9819		11.718750
9820		13.671875
9821		11.718750
9822		13.671875
9823		11.718750
9824		15.625000
9825		11.718750
9826		13.671875
9827		11.718750
9828		13.671875
9829		11.718750
9830		13.671875
9831		9.765625
9832		13.671875
9833		9.765625
9834		11.718750
9835		9.765625
9836		13.671875
9837		9.765625
9838		11.718750
9839		9.765625
9840		11.718750
9841		9.765625
9842		11.718750
9843		9.765625
9844		11.718750
9845		7.812500
9846		11.718750
9847		9.765625
9848		11.718750
9849		7.812500
9850		11.718750
9851		7.812500
9852		11.718750
9853		7.812500
9854		9.765625
9855		7.812500
9856		9.765625
9857		5.859375
9858		11.718750
9859		5.859375
9860		11.718750
9861		5.859375
9862		11.718750
9863		5.859375
9864		11.718750
9865		5.859375
9866		11.718750
9867		5.859375
9868		9.765625
9869		5.859375
9870		9.765625
9871		5.859375
9872		9.765625
9873		5.859375
9874		9.765625
9875		5.859375
9876		9.765625
9877		5.859375
9878		9.765625
9879		3.906250
9880		9.765625
9881		5.859375
9882		9.765625
9883		3.906250
9884		9.765625
9885		3.906250
9886		9.765625
9887		5.859375
9888		7.812500
9889		5.859375
9890		7.812500
9891		3.906250
9892		9.765625
9893		3.906250
9894		9.765625
9895		3.906250
9896		9.765625
9897		3.906250
9898		9.765625
9899		3.906250
9900		9.765625
9901		3.906250
9902		9.765625
9903		5.859375
9904		7.812500
9905		5.859375
9906		7.812500
9907		3.906250
9908		7.812500
9909		3.906250
9910		9.765625
9911		3.906250
9912		9.765625
9913		3.906250
9914		9.765625
9915		3.906250
9916		9.765625
9917		3.906250
9918		9.765625
9919		3.906250
9920		7.812500
9921		5.859375
9922		7.812500
9923		3.906250
9924		7.812500
9925		3.906250
9926		9.765625
9927		3.906250
9928		9.765625
9929		3.906250
9930		9.765625
9931		5.859375
9932		7.812500
9933		5.859375
9934		9.765625
9935		5.859375
9936		9.765625
9937		5.859375
9938		7.812500
9939		5.859375
9940		7.812500
9941		5.859375
9942		9.765625
9943		5.859375
9944		9.765625
9945		5.859375
9946		9.765625
9947		3.906250
9948		11.718750
9949		5.859375
9950		9.765625
9951		5.859375
9952		9.765625
9953		5.859375
9954		9.765625
9955		7.812500
9956		9.765625
9957		7.812500
9958		11.718750
9959		7.812500
9960		11.718750
9961		7.812500
9962		11.718750
9963		5.859375
9964		11.718750
9965		7.812500
9966		11.718750
9967		7.812500
9968		11.718750
9969		7.812500
9970		11.718750
9971		9.765625
9972		11.718750
9973		9.765625
9974		11.718750
9975		7.812500
9976		11.718750
9977		9.765625
9978		11.718750
9979		7.812500
9980		13.671875
9981		7.812500
9982		13.671875
9983		9.765625
9984		13.671875
9985		9.765625
9986		13.671875
9987		9.765625
9988		13.671875
9989		11.718750
9990		13.671875
9991		9.765625
9992		13.671875
9993		11.718750
9994		13.671875
9995		11.718750
9996		13.671875
9997		9.765625
9998		15.625000
9999		11.718750
10000		13.671875
