Channel              :		CH1
Frequency            :		1.771kHz
Period               :		0.565ms
PK-PK                :		127.0mV
Probe attenuation    :		1X
Voltage per ADC value:		0.122070mV
Time interval        :		2.00000us

index		CH1_Voltage(mV)
1		78.125000
2		78.125000
3		74.218750
4		78.125000
5		74.218750
6		78.125000
7		74.218750
8		78.125000
9		74.218750
10		76.171875
11		72.265625
12		76.171875
13		72.265625
14		76.171875
15		70.312500
16		74.218750
17		70.312500
18		72.265625
19		68.359375
20		72.265625
21		68.359375
22		72.265625
23		66.406250
24		70.312500
25		64.453125
26		68.359375
27		62.500000
28		66.406250
29		62.500000
30		64.453125
31		60.546875
32		64.453125
33		58.593750
34		62.500000
35		56.640625
36		60.546875
37		54.687500
38		58.593750
39		52.734375
40		56.640625
41		50.781250
42		54.687500
43		48.828125
44		52.734375
45		46.875000
46		50.781250
47		42.968750
48		46.875000
49		41.015625
50		44.921875
51		39.062500
52		42.968750
53		35.156250
54		41.015625
55		33.203125
56		39.062500
57		31.250000
58		35.156250
59		29.296875
60		33.203125
61		27.343750
62		31.250000
63		23.437500
64		29.296875
65		21.484375
66		25.390625
67		19.531250
68		23.437500
69		15.625000
70		19.531250
71		13.671875
72		17.578125
73		9.765625
74		13.671875
75		7.812500
76		11.718750
77		5.859375
78		9.765625
79		1.953125
80		7.812500
81		0.000000
82		3.906250
83		-1.953125
84		1.953125
85		-5.859375
86		-1.953125
87		-7.812500
88		-3.906250
89		-9.765625
90		-5.859375
91		-13.671875
92		-9.765625
93		-15.625000
94		-11.718750
95		-17.578125
96		-13.671875
97		-19.531250
98		-15.625000
99		-23.437500
100		-17.578125
101		-23.437500
102		-19.531250
103		-25.390625
104		-21.484375
105		-27.343750
106		-23.437500
107		-29.296875
108		-25.390625
109		-31.250000
110		-27.343750
111		-33.203125
112		-29.296875
113		-35.156250
114		-31.250000
115		-35.156250
116		-31.250000
117		-37.109375
118		-33.203125
119		-37.109375
120		-35.156250
121		-41.015625
122		-37.109375
123		-41.015625
124		-37.109375
125		-41.015625
126		-37.109375
127		-41.015625
128		-39.062500
129		-42.968750
130		-39.062500
131		-42.968750
132		-39.062500
133		-44.921875
134		-39.062500
135		-42.968750
136		-41.015625
137		-44.921875
138		-41.015625
139		-44.921875
140		-41.015625
141		-42.968750
142		-41.015625
143		-44.921875
144		-39.062500
145		-42.968750
146		-39.062500
147		-42.968750
148		-39.062500
149		-42.968750
150		-37.109375
151		-41.015625
152		-37.109375
153		-39.062500
154		-37.109375
155		-39.062500
156		-35.156250
157		-39.062500
158		-35.156250
159		-37.109375
160		-33.203125
161		-35.156250
162		-31.250000
163		-35.156250
164		-29.296875
165		-31.250000
166		-29.296875
167		-31.250000
168		-27.343750
169		-29.296875
170		-25.390625
171		-27.343750
172		-23.437500
173		-25.390625
174		-21.484375
175		-23.437500
176		-19.531250
177		-21.484375
178		-17.578125
179		-19.531250
180		-13.671875
181		-17.578125
182		-13.671875
183		-15.625000
184		-9.765625
185		-11.718750
186		-7.812500
187		-9.765625
188		-3.906250
189		-7.812500
190		-3.906250
191		-3.906250
192		0.000000
193		-1.953125
194		1.953125
195		0.000000
196		5.859375
197		3.906250
198		7.812500
199		5.859375
200		9.765625
201		7.812500
202		11.718750
203		11.718750
204		15.625000
205		13.671875
206		17.578125
207		15.625000
208		19.531250
209		17.578125
210		23.437500
211		21.484375
212		25.390625
213		23.437500
214		29.296875
215		25.390625
216		31.250000
217		29.296875
218		33.203125
219		31.250000
220		35.156250
221		33.203125
222		39.062500
223		37.109375
224		41.015625
225		39.062500
226		42.968750
227		41.015625
228		44.921875
229		44.921875
230		48.828125
231		46.875000
232		50.781250
233		48.828125
234		52.734375
235		50.781250
236		54.687500
237		52.734375
238		56.640625
239		54.687500
240		58.593750
241		56.640625
242		60.546875
243		58.593750
244		62.500000
245		60.546875
246		64.453125
247		62.500000
248		64.453125
249		62.500000
250		66.406250
251		64.453125
252		68.359375
253		66.406250
254		68.359375
255		66.406250
256		70.312500
257		68.359375
258		72.265625
259		70.312500
260		72.265625
261		70.312500
262		74.218750
263		70.312500
264		74.218750
265		72.265625
266		74.218750
267		72.265625
268		76.171875
269		74.218750
270		76.171875
271		74.218750
272		76.171875
273		74.218750
274		78.125000
275		74.218750
276		78.125000
277		74.218750
278		78.125000
279		74.218750
280		78.125000
281		74.218750
282		78.125000
283		74.218750
284		78.125000
285		74.218750
286		78.125000
287		74.218750
288		76.171875
289		74.218750
290		78.125000
291		72.265625
292		76.171875
293		72.265625
294		74.218750
295		70.312500
296		74.218750
297		70.312500
298		74.218750
299		68.359375
300		74.218750
301		68.359375
302		72.265625
303		68.359375
304		70.312500
305		66.406250
306		68.359375
307		64.453125
308		68.359375
309		62.500000
310		66.406250
311		60.546875
312		66.406250
313		60.546875
314		64.453125
315		56.640625
316		62.500000
317		54.687500
318		60.546875
319		54.687500
320		58.593750
321		52.734375
322		56.640625
323		50.781250
324		54.687500
325		46.875000
326		52.734375
327		44.921875
328		50.781250
329		42.968750
330		48.828125
331		41.015625
332		44.921875
333		39.062500
334		42.968750
335		37.109375
336		41.015625
337		33.203125
338		37.109375
339		29.296875
340		35.156250
341		29.296875
342		33.203125
343		25.390625
344		31.250000
345		23.437500
346		27.343750
347		19.531250
348		25.390625
349		17.578125
350		23.437500
351		13.671875
352		21.484375
353		11.718750
354		17.578125
355		9.765625
356		13.671875
357		7.812500
358		11.718750
359		5.859375
360		9.765625
361		1.953125
362		7.812500
363		0.000000
364		3.906250
365		-3.906250
366		1.953125
367		-5.859375
368		-1.953125
369		-7.812500
370		-1.953125
371		-9.765625
372		-5.859375
373		-13.671875
374		-9.765625
375		-15.625000
376		-11.718750
377		-17.578125
378		-13.671875
379		-19.531250
380		-15.625000
381		-21.484375
382		-17.578125
383		-25.390625
384		-19.531250
385		-25.390625
386		-21.484375
387		-27.343750
388		-23.437500
389		-29.296875
390		-25.390625
391		-31.250000
392		-27.343750
393		-33.203125
394		-29.296875
395		-35.156250
396		-31.250000
397		-37.109375
398		-33.203125
399		-37.109375
400		-33.203125
401		-39.062500
402		-35.156250
403		-39.062500
404		-35.156250
405		-41.015625
406		-37.109375
407		-42.968750
408		-37.109375
409		-42.968750
410		-39.062500
411		-42.968750
412		-39.062500
413		-42.968750
414		-39.062500
415		-42.968750
416		-41.015625
417		-44.921875
418		-41.015625
419		-44.921875
420		-41.015625
421		-42.968750
422		-41.015625
423		-42.968750
424		-41.015625
425		-42.968750
426		-41.015625
427		-42.968750
428		-39.062500
429		-42.968750
430		-39.062500
431		-42.968750
432		-39.062500
433		-41.015625
434		-37.109375
435		-41.015625
436		-37.109375
437		-41.015625
438		-37.109375
439		-37.109375
440		-35.156250
441		-37.109375
442		-33.203125
443		-35.156250
444		-33.203125
445		-35.156250
446		-31.250000
447		-33.203125
448		-29.296875
449		-31.250000
450		-27.343750
451		-29.296875
452		-25.390625
453		-27.343750
454		-23.437500
455		-25.390625
456		-21.484375
457		-23.437500
458		-19.531250
459		-21.484375
460		-17.578125
461		-19.531250
462		-15.625000
463		-17.578125
464		-13.671875
465		-15.625000
466		-9.765625
467		-11.718750
468		-7.812500
469		-11.718750
470		-5.859375
471		-7.812500
472		-3.906250
473		-3.906250
474		0.000000
475		-3.906250
476		1.953125
477		0.000000
478		3.906250
479		3.906250
480		7.812500
481		5.859375
482		9.765625
483		7.812500
484		11.718750
485		9.765625
486		15.625000
487		11.718750
488		17.578125
489		15.625000
490		19.531250
491		19.531250
492		23.437500
493		21.484375
494		25.390625
495		23.437500
496		29.296875
497		27.343750
498		31.250000
499		29.296875
500		33.203125
501		31.250000
502		35.156250
503		33.203125
504		39.062500
505		37.109375
506		41.015625
507		39.062500
508		42.968750
509		41.015625
510		46.875000
511		44.921875
512		46.875000
513		44.921875
514		50.781250
515		48.828125
516		52.734375
517		50.781250
518		54.687500
519		52.734375
520		56.640625
521		54.687500
522		58.593750
523		56.640625
524		60.546875
525		56.640625
526		62.500000
527		60.546875
528		64.453125
529		62.500000
530		66.406250
531		62.500000
532		66.406250
533		64.453125
534		68.359375
535		66.406250
536		70.312500
537		66.406250
538		70.312500
539		68.359375
540		72.265625
541		68.359375
542		74.218750
543		70.312500
544		74.218750
545		72.265625
546		74.218750
547		72.265625
548		76.171875
549		72.265625
550		76.171875
551		74.218750
552		76.171875
553		74.218750
554		78.125000
555		76.171875
556		78.125000
557		76.171875
558		78.125000
559		74.218750
560		78.125000
561		74.218750
562		78.125000
563		76.171875
564		78.125000
565		74.218750
566		78.125000
567		74.218750
568		78.125000
569		74.218750
570		78.125000
571		74.218750
572		78.125000
573		74.218750
574		76.171875
575		72.265625
576		76.171875
577		72.265625
578		76.171875
579		70.312500
580		74.218750
581		70.312500
582		74.218750
583		68.359375
584		72.265625
585		68.359375
586		70.312500
587		66.406250
588		70.312500
589		64.453125
590		68.359375
591		62.500000
592		66.406250
593		60.546875
594		66.406250
595		60.546875
596		64.453125
597		58.593750
598		62.500000
599		56.640625
600		60.546875
601		54.687500
602		58.593750
603		52.734375
604		56.640625
605		50.781250
606		54.687500
607		48.828125
608		52.734375
609		46.875000
610		50.781250
611		44.921875
612		48.828125
613		41.015625
614		46.875000
615		39.062500
616		42.968750
617		37.109375
618		41.015625
619		35.156250
620		39.062500
621		31.250000
622		37.109375
623		29.296875
624		33.203125
625		25.390625
626		31.250000
627		23.437500
628		29.296875
629		21.484375
630		27.343750
631		19.531250
632		23.437500
633		15.625000
634		19.531250
635		13.671875
636		17.578125
637		9.765625
638		15.625000
639		7.812500
640		11.718750
641		5.859375
642		9.765625
643		1.953125
644		7.812500
645		0.000000
646		5.859375
647		-1.953125
648		1.953125
649		-5.859375
650		0.000000
651		-7.812500
652		-3.906250
653		-9.765625
654		-5.859375
655		-11.718750
656		-7.812500
657		-13.671875
658		-9.765625
659		-17.578125
660		-13.671875
661		-19.531250
662		-15.625000
663		-21.484375
664		-17.578125
665		-23.437500
666		-19.531250
667		-25.390625
668		-21.484375
669		-27.343750
670		-23.437500
671		-29.296875
672		-25.390625
673		-31.250000
674		-27.343750
675		-33.203125
676		-29.296875
677		-35.156250
678		-29.296875
679		-35.156250
680		-33.203125
681		-37.109375
682		-33.203125
683		-39.062500
684		-35.156250
685		-39.062500
686		-37.109375
687		-41.015625
688		-37.109375
689		-41.015625
690		-39.062500
691		-41.015625
692		-39.062500
693		-42.968750
694		-39.062500
695		-42.968750
696		-41.015625
697		-42.968750
698		-41.015625
699		-44.921875
700		-41.015625
701		-44.921875
702		-41.015625
703		-44.921875
704		-41.015625
705		-44.921875
706		-41.015625
707		-44.921875
708		-41.015625
709		-42.968750
710		-41.015625
711		-42.968750
712		-39.062500
713		-42.968750
714		-39.062500
715		-41.015625
716		-39.062500
717		-41.015625
718		-37.109375
719		-41.015625
720		-37.109375
721		-39.062500
722		-35.156250
723		-37.109375
724		-33.203125
725		-35.156250
726		-33.203125
727		-35.156250
728		-31.250000
729		-33.203125
730		-29.296875
731		-31.250000
732		-27.343750
733		-29.296875
734		-25.390625
735		-27.343750
736		-25.390625
737		-27.343750
738		-23.437500
739		-23.437500
740		-21.484375
741		-21.484375
742		-17.578125
743		-21.484375
744		-15.625000
745		-17.578125
746		-13.671875
747		-15.625000
748		-11.718750
749		-13.671875
750		-7.812500
751		-9.765625
752		-5.859375
753		-7.812500
754		-1.953125
755		-5.859375
756		-1.953125
757		-3.906250
758		0.000000
759		0.000000
760		5.859375
761		1.953125
762		5.859375
763		3.906250
764		7.812500
765		7.812500
766		11.718750
767		9.765625
768		13.671875
769		11.718750
770		17.578125
771		15.625000
772		19.531250
773		17.578125
774		21.484375
775		21.484375
776		25.390625
777		23.437500
778		27.343750
779		25.390625
780		29.296875
781		27.343750
782		33.203125
783		31.250000
784		35.156250
785		33.203125
786		37.109375
787		35.156250
788		39.062500
789		37.109375
790		42.968750
791		41.015625
792		44.921875
793		42.968750
794		46.875000
795		44.921875
796		48.828125
797		46.875000
798		52.734375
799		48.828125
800		52.734375
801		50.781250
802		56.640625
803		52.734375
804		58.593750
805		54.687500
806		60.546875
807		56.640625
808		60.546875
809		58.593750
810		62.500000
811		60.546875
812		64.453125
813		62.500000
814		66.406250
815		64.453125
816		66.406250
817		66.406250
818		68.359375
819		66.406250
820		70.312500
821		68.359375
822		70.312500
823		68.359375
824		72.265625
825		70.312500
826		72.265625
827		70.312500
828		74.218750
829		72.265625
830		76.171875
831		72.265625
832		76.171875
833		72.265625
834		76.171875
835		74.218750
836		76.171875
837		74.218750
838		78.125000
839		74.218750
840		78.125000
841		74.218750
842		78.125000
843		74.218750
844		78.125000
845		74.218750
846		78.125000
847		74.218750
848		78.125000
849		74.218750
850		78.125000
851		74.218750
852		78.125000
853		74.218750
854		76.171875
855		72.265625
856		76.171875
857		72.265625
858		76.171875
859		72.265625
860		74.218750
861		70.312500
862		74.218750
863		70.312500
864		74.218750
865		68.359375
866		72.265625
867		66.406250
868		70.312500
869		66.406250
870		70.312500
871		64.453125
872		68.359375
873		62.500000
874		66.406250
875		62.500000
876		64.453125
877		58.593750
878		64.453125
879		58.593750
880		62.500000
881		56.640625
882		60.546875
883		54.687500
884		58.593750
885		52.734375
886		56.640625
887		50.781250
888		54.687500
889		48.828125
890		52.734375
891		46.875000
892		50.781250
893		44.921875
894		48.828125
895		41.015625
896		46.875000
897		39.062500
898		42.968750
899		37.109375
900		42.968750
901		35.156250
902		39.062500
903		31.250000
904		37.109375
905		29.296875
906		35.156250
907		27.343750
908		31.250000
909		25.390625
910		29.296875
911		21.484375
912		25.390625
913		19.531250
914		23.437500
915		15.625000
916		21.484375
917		13.671875
918		19.531250
919		11.718750
920		15.625000
921		7.812500
922		13.671875
923		5.859375
924		9.765625
925		3.906250
926		7.812500
927		0.000000
928		3.906250
929		-1.953125
930		3.906250
931		-3.906250
932		0.000000
933		-5.859375
934		-1.953125
935		-9.765625
936		-5.859375
937		-11.718750
938		-7.812500
939		-15.625000
940		-9.765625
941		-15.625000
942		-13.671875
943		-19.531250
944		-15.625000
945		-21.484375
946		-17.578125
947		-23.437500
948		-19.531250
949		-25.390625
950		-21.484375
951		-27.343750
952		-23.437500
953		-29.296875
954		-25.390625
955		-31.250000
956		-27.343750
957		-33.203125
958		-29.296875
959		-33.203125
960		-31.250000
961		-37.109375
962		-33.203125
963		-37.109375
964		-33.203125
965		-39.062500
966		-35.156250
967		-39.062500
968		-35.156250
969		-41.015625
970		-37.109375
971		-41.015625
972		-37.109375
973		-42.968750
974		-39.062500
975		-42.968750
976		-39.062500
977		-42.968750
978		-41.015625
979		-44.921875
980		-39.062500
981		-42.968750
982		-41.015625
983		-44.921875
984		-41.015625
985		-42.968750
986		-41.015625
987		-44.921875
988		-41.015625
989		-42.968750
990		-41.015625
991		-44.921875
992		-41.015625
993		-42.968750
994		-39.062500
995		-41.015625
996		-39.062500
997		-41.015625
998		-37.109375
999		-41.015625
1000		-37.109375
1001		-39.062500
1002		-37.109375
1003		-39.062500
1004		-35.156250
1005		-37.109375
1006		-33.203125
1007		-37.109375
1008		-31.250000
1009		-35.156250
1010		-31.250000
1011		-33.203125
1012		-29.296875
1013		-31.250000
1014		-27.343750
1015		-29.296875
1016		-25.390625
1017		-27.343750
1018		-23.437500
1019		-25.390625
1020		-21.484375
1021		-23.437500
1022		-19.531250
1023		-21.484375
1024		-17.578125
1025		-19.531250
1026		-15.625000
1027		-17.578125
1028		-13.671875
1029		-15.625000
1030		-11.718750
1031		-13.671875
1032		-9.765625
1033		-9.765625
1034		-5.859375
1035		-7.812500
1036		-3.906250
1037		-5.859375
1038		-1.953125
1039		-3.906250
1040		1.953125
1041		0.000000
1042		3.906250
1043		1.953125
1044		5.859375
1045		3.906250
1046		9.765625
1047		7.812500
1048		11.718750
1049		9.765625
1050		13.671875
1051		11.718750
1052		17.578125
1053		15.625000
1054		19.531250
1055		17.578125
1056		23.437500
1057		19.531250
1058		25.390625
1059		23.437500
1060		27.343750
1061		25.390625
1062		29.296875
1063		27.343750
1064		33.203125
1065		31.250000
1066		35.156250
1067		33.203125
1068		39.062500
1069		37.109375
1070		41.015625
1071		37.109375
1072		42.968750
1073		41.015625
1074		44.921875
1075		42.968750
1076		46.875000
1077		44.921875
1078		48.828125
1079		46.875000
1080		52.734375
1081		50.781250
1082		52.734375
1083		50.781250
1084		56.640625
1085		52.734375
1086		58.593750
1087		54.687500
1088		60.546875
1089		56.640625
1090		60.546875
1091		58.593750
1092		64.453125
1093		60.546875
1094		64.453125
1095		62.500000
1096		66.406250
1097		62.500000
1098		70.312500
1099		64.453125
1100		70.312500
1101		66.406250
1102		70.312500
1103		68.359375
1104		74.218750
1105		68.359375
1106		74.218750
1107		68.359375
1108		74.218750
1109		70.312500
1110		74.218750
1111		72.265625
1112		76.171875
1113		72.265625
1114		76.171875
1115		72.265625
1116		78.125000
1117		74.218750
1118		78.125000
1119		74.218750
1120		78.125000
1121		72.265625
1122		78.125000
1123		74.218750
1124		80.078125
1125		74.218750
1126		78.125000
1127		74.218750
1128		78.125000
1129		74.218750
1130		78.125000
1131		72.265625
1132		80.078125
1133		72.265625
1134		80.078125
1135		72.265625
1136		78.125000
1137		72.265625
1138		78.125000
1139		72.265625
1140		78.125000
1141		72.265625
1142		76.171875
1143		70.312500
1144		74.218750
1145		70.312500
1146		72.265625
1147		66.406250
1148		74.218750
1149		66.406250
1150		74.218750
1151		64.453125
1152		72.265625
1153		64.453125
1154		70.312500
1155		62.500000
1156		68.359375
1157		60.546875
1158		66.406250
1159		60.546875
1160		66.406250
1161		58.593750
1162		62.500000
1163		54.687500
1164		60.546875
1165		52.734375
1166		60.546875
1167		50.781250
1168		58.593750
1169		48.828125
1170		56.640625
1171		46.875000
1172		54.687500
1173		44.921875
1174		52.734375
1175		42.968750
1176		50.781250
1177		42.968750
1178		46.875000
1179		41.015625
1180		44.921875
1181		35.156250
1182		42.968750
1183		33.203125
1184		41.015625
1185		31.250000
1186		39.062500
1187		27.343750
1188		35.156250
1189		25.390625
1190		33.203125
1191		23.437500
1192		31.250000
1193		21.484375
1194		29.296875
1195		19.531250
1196		23.437500
1197		13.671875
1198		21.484375
1199		11.718750
1200		19.531250
1201		9.765625
1202		17.578125
1203		5.859375
1204		15.625000
1205		3.906250
1206		11.718750
1207		1.953125
1208		9.765625
1209		0.000000
1210		5.859375
1211		-1.953125
1212		1.953125
1213		-5.859375
1214		0.000000
1215		-7.812500
1216		0.000000
1217		-11.718750
1218		-3.906250
1219		-13.671875
1220		-5.859375
1221		-15.625000
1222		-7.812500
1223		-19.531250
1224		-9.765625
1225		-21.484375
1226		-13.671875
1227		-21.484375
1228		-17.578125
1229		-23.437500
1230		-19.531250
1231		-27.343750
1232		-21.484375
1233		-29.296875
1234		-21.484375
1235		-31.250000
1236		-23.437500
1237		-33.203125
1238		-25.390625
1239		-35.156250
1240		-27.343750
1241		-37.109375
1242		-29.296875
1243		-37.109375
1244		-31.250000
1245		-37.109375
1246		-33.203125
1247		-39.062500
1248		-33.203125
1249		-41.015625
1250		-35.156250
1251		-42.968750
1252		-35.156250
1253		-42.968750
1254		-37.109375
1255		-44.921875
1256		-37.109375
1257		-44.921875
1258		-37.109375
1259		-44.921875
1260		-37.109375
1261		-42.968750
1262		-41.015625
1263		-44.921875
1264		-41.015625
1265		-46.875000
1266		-39.062500
1267		-46.875000
1268		-39.062500
1269		-46.875000
1270		-39.062500
1271		-46.875000
1272		-39.062500
1273		-46.875000
1274		-39.062500
1275		-44.921875
1276		-39.062500
1277		-44.921875
1278		-37.109375
1279		-41.015625
1280		-39.062500
1281		-42.968750
1282		-35.156250
1283		-41.015625
1284		-35.156250
1285		-41.015625
1286		-33.203125
1287		-41.015625
1288		-33.203125
1289		-39.062500
1290		-31.250000
1291		-37.109375
1292		-29.296875
1293		-35.156250
1294		-29.296875
1295		-31.250000
1296		-29.296875
1297		-31.250000
1298		-25.390625
1299		-31.250000
1300		-23.437500
1301		-29.296875
1302		-21.484375
1303		-27.343750
1304		-19.531250
1305		-25.390625
1306		-17.578125
1307		-23.437500
1308		-15.625000
1309		-21.484375
1310		-11.718750
1311		-15.625000
1312		-11.718750
1313		-13.671875
1314		-9.765625
1315		-13.671875
1316		-5.859375
1317		-11.718750
1318		-3.906250
1319		-7.812500
1320		0.000000
1321		-5.859375
1322		1.953125
1323		-3.906250
1324		3.906250
1325		-1.953125
1326		5.859375
1327		1.953125
1328		7.812500
1329		5.859375
1330		9.765625
1331		9.765625
1332		15.625000
1333		9.765625
1334		17.578125
1335		11.718750
1336		21.484375
1337		15.625000
1338		23.437500
1339		17.578125
1340		25.390625
1341		19.531250
1342		29.296875
1343		23.437500
1344		31.250000
1345		27.343750
1346		31.250000
1347		31.250000
1348		33.203125
1349		31.250000
1350		39.062500
1351		33.203125
1352		41.015625
1353		35.156250
1354		44.921875
1355		37.109375
1356		44.921875
1357		41.015625
1358		48.828125
1359		42.968750
1360		50.781250
1361		44.921875
1362		50.781250
1363		48.828125
1364		52.734375
1365		50.781250
1366		56.640625
1367		50.781250
1368		58.593750
1369		52.734375
1370		60.546875
1371		54.687500
1372		62.500000
1373		56.640625
1374		64.453125
1375		58.593750
1376		66.406250
1377		60.546875
1378		68.359375
1379		64.453125
1380		66.406250
1381		64.453125
1382		68.359375
1383		64.453125
1384		72.265625
1385		64.453125
1386		72.265625
1387		66.406250
1388		74.218750
1389		66.406250
1390		76.171875
1391		68.359375
1392		76.171875
1393		70.312500
1394		76.171875
1395		72.265625
1396		74.218750
1397		74.218750
1398		76.171875
1399		72.265625
1400		78.125000
1401		72.265625
1402		78.125000
1403		72.265625
1404		80.078125
1405		72.265625
1406		80.078125
1407		72.265625
1408		80.078125
1409		72.265625
1410		80.078125
1411		72.265625
1412		80.078125
1413		74.218750
1414		76.171875
1415		72.265625
1416		78.125000
1417		72.265625
1418		78.125000
1419		70.312500
1420		78.125000
1421		70.312500
1422		78.125000
1423		70.312500
1424		78.125000
1425		70.312500
1426		76.171875
1427		68.359375
1428		76.171875
1429		70.312500
1430		72.265625
1431		68.359375
1432		70.312500
1433		64.453125
1434		72.265625
1435		62.500000
1436		70.312500
1437		62.500000
1438		68.359375
1439		60.546875
1440		68.359375
1441		58.593750
1442		66.406250
1443		56.640625
1444		64.453125
1445		56.640625
1446		62.500000
1447		56.640625
1448		58.593750
1449		52.734375
1450		56.640625
1451		48.828125
1452		56.640625
1453		46.875000
1454		54.687500
1455		44.921875
1456		52.734375
1457		42.968750
1458		50.781250
1459		41.015625
1460		48.828125
1461		39.062500
1462		44.921875
1463		39.062500
1464		41.015625
1465		35.156250
1466		39.062500
1467		31.250000
1468		39.062500
1469		27.343750
1470		37.109375
1471		25.390625
1472		33.203125
1473		23.437500
1474		31.250000
1475		21.484375
1476		29.296875
1477		17.578125
1478		25.390625
1479		17.578125
1480		21.484375
1481		15.625000
1482		17.578125
1483		9.765625
1484		15.625000
1485		5.859375
1486		15.625000
1487		5.859375
1488		13.671875
1489		1.953125
1490		9.765625
1491		0.000000
1492		7.812500
1493		-3.906250
1494		3.906250
1495		-3.906250
1496		1.953125
1497		-5.859375
1498		-1.953125
1499		-11.718750
1500		-5.859375
1501		-13.671875
1502		-5.859375
1503		-15.625000
1504		-7.812500
1505		-17.578125
1506		-9.765625
1507		-21.484375
1508		-11.718750
1509		-23.437500
1510		-15.625000
1511		-23.437500
1512		-17.578125
1513		-25.390625
1514		-21.484375
1515		-27.343750
1516		-23.437500
1517		-31.250000
1518		-23.437500
1519		-33.203125
1520		-25.390625
1521		-33.203125
1522		-27.343750
1523		-35.156250
1524		-29.296875
1525		-37.109375
1526		-29.296875
1527		-39.062500
1528		-31.250000
1529		-39.062500
1530		-33.203125
1531		-39.062500
1532		-35.156250
1533		-41.015625
1534		-35.156250
1535		-42.968750
1536		-35.156250
1537		-44.921875
1538		-37.109375
1539		-44.921875
1540		-37.109375
1541		-44.921875
1542		-37.109375
1543		-44.921875
1544		-39.062500
1545		-44.921875
1546		-39.062500
1547		-42.968750
1548		-41.015625
1549		-42.968750
1550		-41.015625
1551		-44.921875
1552		-39.062500
1553		-46.875000
1554		-39.062500
1555		-44.921875
1556		-39.062500
1557		-44.921875
1558		-37.109375
1559		-44.921875
1560		-37.109375
1561		-42.968750
1562		-37.109375
1563		-41.015625
1564		-37.109375
1565		-39.062500
1566		-37.109375
1567		-41.015625
1568		-33.203125
1569		-41.015625
1570		-33.203125
1571		-39.062500
1572		-31.250000
1573		-37.109375
1574		-29.296875
1575		-35.156250
1576		-27.343750
1577		-33.203125
1578		-27.343750
1579		-31.250000
1580		-25.390625
1581		-29.296875
1582		-25.390625
1583		-27.343750
1584		-21.484375
1585		-27.343750
1586		-19.531250
1587		-25.390625
1588		-17.578125
1589		-21.484375
1590		-15.625000
1591		-21.484375
1592		-11.718750
1593		-17.578125
1594		-9.765625
1595		-15.625000
1596		-7.812500
1597		-11.718750
1598		-7.812500
1599		-7.812500
1600		-5.859375
1601		-7.812500
1602		0.000000
1603		-5.859375
1604		1.953125
1605		-3.906250
1606		3.906250
1607		-1.953125
1608		7.812500
1609		1.953125
1610		9.765625
1611		3.906250
1612		13.671875
1613		7.812500
1614		13.671875
1615		11.718750
1616		15.625000
1617		13.671875
1618		19.531250
1619		13.671875
1620		23.437500
1621		17.578125
1622		25.390625
1623		19.531250
1624		27.343750
1625		21.484375
1626		31.250000
1627		25.390625
1628		33.203125
1629		27.343750
1630		35.156250
1631		33.203125
1632		37.109375
1633		35.156250
1634		39.062500
1635		35.156250
1636		42.968750
1637		37.109375
1638		44.921875
1639		41.015625
1640		46.875000
1641		41.015625
1642		50.781250
1643		44.921875
1644		52.734375
1645		46.875000
1646		54.687500
1647		50.781250
1648		54.687500
1649		52.734375
1650		56.640625
1651		54.687500
1652		60.546875
1653		54.687500
1654		60.546875
1655		58.593750
1656		62.500000
1657		58.593750
1658		64.453125
1659		60.546875
1660		66.406250
1661		62.500000
1662		68.359375
1663		64.453125
1664		68.359375
1665		66.406250
1666		70.312500
1667		68.359375
1668		72.265625
1669		66.406250
1670		74.218750
1671		68.359375
1672		74.218750
1673		68.359375
1674		76.171875
1675		70.312500
1676		76.171875
1677		70.312500
1678		78.125000
1679		70.312500
1680		78.125000
1681		74.218750
1682		76.171875
1683		74.218750
1684		76.171875
1685		72.265625
1686		78.125000
1687		72.265625
1688		80.078125
1689		72.265625
1690		80.078125
1691		72.265625
1692		80.078125
1693		72.265625
1694		80.078125
1695		72.265625
1696		80.078125
1697		72.265625
1698		78.125000
1699		74.218750
1700		76.171875
1701		72.265625
1702		78.125000
1703		70.312500
1704		78.125000
1705		70.312500
1706		78.125000
1707		68.359375
1708		76.171875
1709		68.359375
1710		76.171875
1711		68.359375
1712		74.218750
1713		66.406250
1714		72.265625
1715		66.406250
1716		70.312500
1717		66.406250
1718		68.359375
1719		62.500000
1720		70.312500
1721		60.546875
1722		68.359375
1723		58.593750
1724		66.406250
1725		56.640625
1726		64.453125
1727		56.640625
1728		62.500000
1729		54.687500
1730		60.546875
1731		54.687500
1732		58.593750
1733		52.734375
1734		54.687500
1735		48.828125
1736		54.687500
1737		44.921875
1738		52.734375
1739		42.968750
1740		50.781250
1741		41.015625
1742		48.828125
1743		39.062500
1744		46.875000
1745		37.109375
1746		44.921875
1747		35.156250
1748		41.015625
1749		33.203125
1750		37.109375
1751		31.250000
1752		35.156250
1753		25.390625
1754		35.156250
1755		23.437500
1756		31.250000
1757		21.484375
1758		29.296875
1759		17.578125
1760		25.390625
1761		15.625000
1762		23.437500
1763		13.671875
1764		21.484375
1765		11.718750
1766		15.625000
1767		9.765625
1768		13.671875
1769		3.906250
1770		11.718750
1771		1.953125
1772		9.765625
1773		0.000000
1774		7.812500
1775		-3.906250
1776		5.859375
1777		-5.859375
1778		1.953125
1779		-7.812500
1780		0.000000
1781		-9.765625
1782		-3.906250
1783		-11.718750
1784		-7.812500
1785		-13.671875
1786		-9.765625
1787		-17.578125
1788		-9.765625
1789		-19.531250
1790		-13.671875
1791		-23.437500
1792		-15.625000
1793		-25.390625
1794		-17.578125
1795		-27.343750
1796		-19.531250
1797		-27.343750
1798		-21.484375
1799		-29.296875
1800		-25.390625
1801		-31.250000
1802		-27.343750
1803		-35.156250
1804		-27.343750
1805		-35.156250
1806		-29.296875
1807		-37.109375
1808		-29.296875
1809		-39.062500
1810		-31.250000
1811		-39.062500
1812		-31.250000
1813		-41.015625
1814		-33.203125
1815		-41.015625
1816		-35.156250
1817		-41.015625
1818		-39.062500
1819		-42.968750
1820		-37.109375
1821		-44.921875
1822		-39.062500
1823		-44.921875
1824		-39.062500
1825		-44.921875
1826		-39.062500
1827		-46.875000
1828		-39.062500
1829		-46.875000
1830		-39.062500
1831		-44.921875
1832		-39.062500
1833		-44.921875
1834		-41.015625
1835		-44.921875
1836		-41.015625
1837		-46.875000
1838		-39.062500
1839		-44.921875
1840		-39.062500
1841		-44.921875
1842		-39.062500
1843		-44.921875
1844		-37.109375
1845		-42.968750
1846		-37.109375
1847		-42.968750
1848		-35.156250
1849		-39.062500
1850		-37.109375
1851		-39.062500
1852		-35.156250
1853		-39.062500
1854		-33.203125
1855		-37.109375
1856		-31.250000
1857		-37.109375
1858		-29.296875
1859		-35.156250
1860		-27.343750
1861		-33.203125
1862		-25.390625
1863		-31.250000
1864		-23.437500
1865		-29.296875
1866		-23.437500
1867		-25.390625
1868		-21.484375
1869		-23.437500
1870		-17.578125
1871		-23.437500
1872		-15.625000
1873		-21.484375
1874		-13.671875
1875		-19.531250
1876		-9.765625
1877		-15.625000
1878		-9.765625
1879		-13.671875
1880		-5.859375
1881		-11.718750
1882		-5.859375
1883		-7.812500
1884		-3.906250
1885		-3.906250
1886		0.000000
1887		-3.906250
1888		3.906250
1889		-1.953125
1890		5.859375
1891		0.000000
1892		9.765625
1893		3.906250
1894		11.718750
1895		5.859375
1896		15.625000
1897		9.765625
1898		17.578125
1899		11.718750
1900		17.578125
1901		15.625000
1902		19.531250
1903		17.578125
1904		25.390625
1905		19.531250
1906		27.343750
1907		21.484375
1908		29.296875
1909		25.390625
1910		33.203125
1911		27.343750
1912		35.156250
1913		29.296875
1914		39.062500
1915		31.250000
1916		39.062500
1917		37.109375
1918		41.015625
1919		39.062500
1920		44.921875
1921		39.062500
1922		46.875000
1923		41.015625
1924		48.828125
1925		42.968750
1926		52.734375
1927		44.921875
1928		52.734375
1929		48.828125
1930		56.640625
1931		50.781250
1932		58.593750
1933		54.687500
1934		58.593750
1935		56.640625
1936		60.546875
1937		56.640625
1938		64.453125
1939		56.640625
1940		64.453125
1941		60.546875
1942		66.406250
1943		60.546875
1944		68.359375
1945		62.500000
1946		70.312500
1947		64.453125
1948		72.265625
1949		64.453125
1950		70.312500
1951		68.359375
1952		72.265625
1953		68.359375
1954		74.218750
1955		68.359375
1956		76.171875
1957		70.312500
1958		76.171875
1959		70.312500
1960		78.125000
1961		70.312500
1962		78.125000
1963		72.265625
1964		78.125000
1965		72.265625
1966		78.125000
1967		74.218750
1968		76.171875
1969		74.218750
1970		78.125000
1971		72.265625
1972		80.078125
1973		72.265625
1974		80.078125
1975		72.265625
1976		80.078125
1977		72.265625
1978		80.078125
1979		72.265625
1980		80.078125
1981		72.265625
1982		80.078125
1983		72.265625
1984		78.125000
1985		74.218750
1986		76.171875
1987		70.312500
1988		76.171875
1989		68.359375
1990		76.171875
1991		68.359375
1992		76.171875
1993		68.359375
1994		74.218750
1995		66.406250
1996		74.218750
1997		64.453125
1998		72.265625
1999		64.453125
2000		70.312500
2001		64.453125
2002		68.359375
2003		60.546875
2004		66.406250
2005		60.546875
2006		66.406250
2007		58.593750
2008		64.453125
2009		56.640625
2010		64.453125
2011		54.687500
2012		60.546875
2013		50.781250
2014		60.546875
2015		50.781250
2016		58.593750
2017		50.781250
2018		54.687500
2019		48.828125
2020		52.734375
2021		44.921875
2022		50.781250
2023		41.015625
2024		48.828125
2025		39.062500
2026		46.875000
2027		35.156250
2028		44.921875
2029		35.156250
2030		42.968750
2031		31.250000
2032		39.062500
2033		31.250000
2034		37.109375
2035		29.296875
2036		33.203125
2037		23.437500
2038		29.296875
2039		21.484375
2040		29.296875
2041		17.578125
2042		27.343750
2043		15.625000
2044		23.437500
2045		11.718750
2046		21.484375
2047		9.765625
2048		17.578125
2049		9.765625
2050		17.578125
2051		7.812500
2052		11.718750
2053		5.859375
2054		9.765625
2055		0.000000
2056		7.812500
2057		-3.906250
2058		5.859375
2059		-5.859375
2060		3.906250
2061		-7.812500
2062		0.000000
2063		-9.765625
2064		-1.953125
2065		-13.671875
2066		-3.906250
2067		-13.671875
2068		-7.812500
2069		-15.625000
2070		-11.718750
2071		-19.531250
2072		-13.671875
2073		-21.484375
2074		-13.671875
2075		-23.437500
2076		-15.625000
2077		-25.390625
2078		-17.578125
2079		-27.343750
2080		-19.531250
2081		-29.296875
2082		-21.484375
2083		-31.250000
2084		-23.437500
2085		-31.250000
2086		-27.343750
2087		-33.203125
2088		-29.296875
2089		-37.109375
2090		-29.296875
2091		-39.062500
2092		-31.250000
2093		-39.062500
2094		-33.203125
2095		-41.015625
2096		-33.203125
2097		-41.015625
2098		-35.156250
2099		-42.968750
2100		-35.156250
2101		-41.015625
2102		-39.062500
2103		-41.015625
2104		-39.062500
2105		-44.921875
2106		-39.062500
2107		-44.921875
2108		-39.062500
2109		-44.921875
2110		-39.062500
2111		-44.921875
2112		-39.062500
2113		-46.875000
2114		-39.062500
2115		-46.875000
2116		-39.062500
2117		-44.921875
2118		-39.062500
2119		-42.968750
2120		-41.015625
2121		-44.921875
2122		-39.062500
2123		-44.921875
2124		-37.109375
2125		-44.921875
2126		-37.109375
2127		-42.968750
2128		-37.109375
2129		-41.015625
2130		-35.156250
2131		-41.015625
2132		-33.203125
2133		-41.015625
2134		-33.203125
2135		-37.109375
2136		-33.203125
2137		-35.156250
2138		-33.203125
2139		-35.156250
2140		-29.296875
2141		-35.156250
2142		-27.343750
2143		-33.203125
2144		-25.390625
2145		-31.250000
2146		-23.437500
2147		-29.296875
2148		-21.484375
2149		-27.343750
2150		-19.531250
2151		-23.437500
2152		-19.531250
2153		-21.484375
2154		-17.578125
2155		-19.531250
2156		-11.718750
2157		-17.578125
2158		-11.718750
2159		-17.578125
2160		-7.812500
2161		-13.671875
2162		-5.859375
2163		-11.718750
2164		-3.906250
2165		-9.765625
2166		-1.953125
2167		-5.859375
2168		0.000000
2169		-1.953125
2170		1.953125
2171		0.000000
2172		5.859375
2173		0.000000
2174		9.765625
2175		3.906250
2176		11.718750
2177		5.859375
2178		13.671875
2179		9.765625
2180		17.578125
2181		11.718750
2182		19.531250
2183		13.671875
2184		21.484375
2185		17.578125
2186		23.437500
2187		21.484375
2188		25.390625
2189		23.437500
2190		31.250000
2191		23.437500
2192		33.203125
2193		27.343750
2194		35.156250
2195		29.296875
2196		37.109375
2197		33.203125
2198		41.015625
2199		35.156250
2200		42.968750
2201		37.109375
2202		42.968750
2203		41.015625
2204		44.921875
2205		42.968750
2206		48.828125
2207		42.968750
2208		50.781250
2209		44.921875
2210		54.687500
2211		48.828125
2212		56.640625
2213		50.781250
2214		58.593750
2215		52.734375
2216		60.546875
2217		54.687500
2218		62.500000
2219		58.593750
2220		60.546875
2221		60.546875
2222		62.500000
2223		60.546875
2224		66.406250
2225		60.546875
2226		68.359375
2227		62.500000
2228		70.312500
2229		64.453125
2230		72.265625
2231		64.453125
2232		72.265625
2233		66.406250
2234		74.218750
2235		68.359375
2236		74.218750
2237		70.312500
2238		74.218750
2239		70.312500
2240		76.171875
2241		70.312500
2242		76.171875
2243		70.312500
2244		78.125000
2245		70.312500
2246		78.125000
2247		72.265625
2248		78.125000
2249		72.265625
2250		80.078125
2251		72.265625
2252		78.125000
2253		74.218750
2254		78.125000
2255		74.218750
2256		78.125000
2257		72.265625
2258		80.078125
2259		72.265625
2260		80.078125
2261		72.265625
2262		78.125000
2263		72.265625
2264		78.125000
2265		70.312500
2266		78.125000
2267		70.312500
2268		78.125000
2269		72.265625
2270		76.171875
2271		72.265625
2272		74.218750
2273		68.359375
2274		74.218750
2275		66.406250
2276		74.218750
2277		66.406250
2278		74.218750
2279		64.453125
2280		72.265625
2281		62.500000
2282		70.312500
2283		62.500000
2284		70.312500
2285		62.500000
2286		68.359375
2287		60.546875
2288		64.453125
2289		58.593750
2290		62.500000
2291		56.640625
2292		62.500000
2293		54.687500
2294		62.500000
2295		52.734375
2296		60.546875
2297		50.781250
2298		58.593750
2299		46.875000
2300		56.640625
2301		44.921875
2302		54.687500
2303		44.921875
2304		48.828125
2305		42.968750
2306		46.875000
2307		39.062500
2308		46.875000
2309		37.109375
2310		44.921875
2311		33.203125
2312		41.015625
2313		31.250000
2314		41.015625
2315		29.296875
2316		37.109375
2317		27.343750
2318		35.156250
2319		25.390625
2320		31.250000
2321		23.437500
2322		27.343750
2323		19.531250
2324		25.390625
2325		15.625000
2326		25.390625
2327		13.671875
2328		21.484375
2329		9.765625
2330		19.531250
2331		7.812500
2332		15.625000
2333		5.859375
2334		13.671875
2335		3.906250
2336		9.765625
2337		1.953125
2338		5.859375
2339		0.000000
2340		3.906250
2341		-5.859375
2342		1.953125
2343		-7.812500
2344		0.000000
2345		-9.765625
2346		-1.953125
2347		-11.718750
2348		-5.859375
2349		-15.625000
2350		-7.812500
2351		-17.578125
2352		-9.765625
2353		-17.578125
2354		-13.671875
2355		-19.531250
2356		-15.625000
2357		-23.437500
2358		-17.578125
2359		-27.343750
2360		-17.578125
2361		-29.296875
2362		-21.484375
2363		-29.296875
2364		-21.484375
2365		-31.250000
2366		-25.390625
2367		-33.203125
2368		-27.343750
2369		-35.156250
2370		-27.343750
2371		-35.156250
2372		-31.250000
2373		-37.109375
2374		-33.203125
2375		-39.062500
2376		-33.203125
2377		-41.015625
2378		-33.203125
2379		-42.968750
2380		-35.156250
2381		-42.968750
2382		-35.156250
2383		-42.968750
2384		-37.109375
2385		-44.921875
2386		-37.109375
2387		-42.968750
2388		-41.015625
2389		-42.968750
2390		-41.015625
2391		-46.875000
2392		-39.062500
2393		-46.875000
2394		-39.062500
2395		-46.875000
2396		-39.062500
2397		-46.875000
2398		-41.015625
2399		-46.875000
2400		-39.062500
2401		-46.875000
2402		-39.062500
2403		-46.875000
2404		-39.062500
2405		-42.968750
2406		-41.015625
2407		-42.968750
2408		-37.109375
2409		-44.921875
2410		-37.109375
2411		-42.968750
2412		-35.156250
2413		-42.968750
2414		-35.156250
2415		-41.015625
2416		-33.203125
2417		-39.062500
2418		-33.203125
2419		-39.062500
2420		-31.250000
2421		-35.156250
2422		-31.250000
2423		-33.203125
2424		-29.296875
2425		-33.203125
2426		-25.390625
2427		-31.250000
2428		-25.390625
2429		-29.296875
2430		-21.484375
2431		-27.343750
2432		-19.531250
2433		-27.343750
2434		-17.578125
2435		-23.437500
2436		-15.625000
2437		-21.484375
2438		-15.625000
2439		-17.578125
2440		-13.671875
2441		-15.625000
2442		-9.765625
2443		-15.625000
2444		-7.812500
2445		-13.671875
2446		-3.906250
2447		-9.765625
2448		-1.953125
2449		-7.812500
2450		1.953125
2451		-5.859375
2452		1.953125
2453		-1.953125
2454		3.906250
2455		1.953125
2456		5.859375
2457		3.906250
2458		9.765625
2459		5.859375
2460		13.671875
2461		7.812500
2462		15.625000
2463		9.765625
2464		19.531250
2465		13.671875
2466		21.484375
2467		15.625000
2468		23.437500
2469		17.578125
2470		27.343750
2471		23.437500
2472		27.343750
2473		25.390625
2474		29.296875
2475		27.343750
2476		35.156250
2477		29.296875
2478		37.109375
2479		31.250000
2480		39.062500
2481		33.203125
2482		42.968750
2483		37.109375
2484		44.921875
2485		39.062500
2486		46.875000
2487		41.015625
2488		46.875000
2489		44.921875
2490		48.828125
2491		46.875000
2492		52.734375
2493		48.828125
2494		56.640625
2495		50.781250
2496		58.593750
2497		52.734375
2498		60.546875
2499		52.734375
2500		60.546875
2501		54.687500
2502		64.453125
2503		56.640625
2504		64.453125
2505		60.546875
2506		64.453125
2507		62.500000
2508		66.406250
2509		62.500000
2510		70.312500
2511		62.500000
2512		70.312500
2513		64.453125
2514		72.265625
2515		66.406250
2516		74.218750
2517		68.359375
2518		74.218750
2519		68.359375
2520		76.171875
2521		70.312500
2522		74.218750
2523		72.265625
2524		74.218750
2525		70.312500
2526		78.125000
2527		72.265625
2528		78.125000
2529		72.265625
2530		80.078125
2531		72.265625
2532		80.078125
2533		72.265625
2534		80.078125
2535		72.265625
2536		80.078125
2537		72.265625
2538		80.078125
2539		74.218750
2540		78.125000
2541		72.265625
2542		80.078125
2543		72.265625
2544		80.078125
2545		72.265625
2546		78.125000
2547		72.265625
2548		80.078125
2549		72.265625
2550		78.125000
2551		70.312500
2552		78.125000
2553		70.312500
2554		76.171875
2555		70.312500
2556		74.218750
2557		70.312500
2558		72.265625
2559		66.406250
2560		74.218750
2561		66.406250
2562		72.265625
2563		64.453125
2564		72.265625
2565		62.500000
2566		70.312500
2567		62.500000
2568		68.359375
2569		60.546875
2570		68.359375
2571		60.546875
2572		66.406250
2573		58.593750
2574		62.500000
2575		56.640625
2576		60.546875
2577		52.734375
2578		60.546875
2579		50.781250
2580		58.593750
2581		48.828125
2582		56.640625
2583		46.875000
2584		54.687500
2585		44.921875
2586		52.734375
2587		42.968750
2588		50.781250
2589		41.015625
2590		44.921875
2591		39.062500
2592		42.968750
2593		35.156250
2594		42.968750
2595		33.203125
2596		41.015625
2597		31.250000
2598		39.062500
2599		27.343750
2600		35.156250
2601		25.390625
2602		33.203125
2603		21.484375
2604		31.250000
2605		21.484375
2606		27.343750
2607		17.578125
2608		23.437500
2609		13.671875
2610		21.484375
2611		11.718750
2612		19.531250
2613		9.765625
2614		17.578125
2615		5.859375
2616		13.671875
2617		3.906250
2618		11.718750
2619		0.000000
2620		9.765625
2621		0.000000
2622		5.859375
2623		-1.953125
2624		1.953125
2625		-5.859375
2626		0.000000
2627		-9.765625
2628		0.000000
2629		-11.718750
2630		-3.906250
2631		-15.625000
2632		-5.859375
2633		-17.578125
2634		-9.765625
2635		-19.531250
2636		-11.718750
2637		-19.531250
2638		-13.671875
2639		-21.484375
2640		-17.578125
2641		-23.437500
2642		-19.531250
2643		-29.296875
2644		-21.484375
2645		-29.296875
2646		-21.484375
2647		-31.250000
2648		-23.437500
2649		-33.203125
2650		-25.390625
2651		-35.156250
2652		-27.343750
2653		-37.109375
2654		-29.296875
2655		-37.109375
2656		-31.250000
2657		-37.109375
2658		-33.203125
2659		-39.062500
2660		-35.156250
2661		-41.015625
2662		-35.156250
2663		-42.968750
2664		-35.156250
2665		-42.968750
2666		-37.109375
2667		-42.968750
2668		-37.109375
2669		-44.921875
2670		-37.109375
2671		-44.921875
2672		-39.062500
2673		-42.968750
2674		-41.015625
2675		-42.968750
2676		-41.015625
2677		-46.875000
2678		-39.062500
2679		-44.921875
2680		-39.062500
2681		-46.875000
2682		-39.062500
2683		-44.921875
2684		-39.062500
2685		-44.921875
2686		-39.062500
2687		-44.921875
2688		-37.109375
2689		-44.921875
2690		-39.062500
2691		-41.015625
2692		-39.062500
2693		-42.968750
2694		-35.156250
2695		-41.015625
2696		-35.156250
2697		-41.015625
2698		-33.203125
2699		-39.062500
2700		-31.250000
2701		-39.062500
2702		-31.250000
2703		-37.109375
2704		-29.296875
2705		-35.156250
2706		-29.296875
2707		-31.250000
2708		-27.343750
2709		-29.296875
2710		-25.390625
2711		-29.296875
2712		-23.437500
2713		-29.296875
2714		-19.531250
2715		-25.390625
2716		-17.578125
2717		-23.437500
2718		-15.625000
2719		-21.484375
2720		-13.671875
2721		-19.531250
2722		-11.718750
2723		-15.625000
2724		-11.718750
2725		-13.671875
2726		-9.765625
2727		-11.718750
2728		-3.906250
2729		-9.765625
2730		-1.953125
2731		-7.812500
2732		0.000000
2733		-3.906250
2734		3.906250
2735		-3.906250
2736		5.859375
2737		0.000000
2738		7.812500
2739		1.953125
2740		9.765625
2741		7.812500
2742		11.718750
2743		9.765625
2744		15.625000
2745		9.765625
2746		19.531250
2747		13.671875
2748		21.484375
2749		15.625000
2750		23.437500
2751		17.578125
2752		27.343750
2753		21.484375
2754		29.296875
2755		23.437500
2756		31.250000
2757		29.296875
2758		33.203125
2759		31.250000
2760		35.156250
2761		31.250000
2762		39.062500
2763		35.156250
2764		41.015625
2765		37.109375
2766		44.921875
2767		39.062500
2768		46.875000
2769		41.015625
2770		48.828125
2771		42.968750
2772		50.781250
2773		44.921875
2774		50.781250
2775		50.781250
2776		52.734375
2777		50.781250
2778		56.640625
2779		50.781250
2780		58.593750
2781		54.687500
2782		60.546875
2783		54.687500
2784		62.500000
2785		56.640625
2786		64.453125
2787		58.593750
2788		66.406250
2789		60.546875
2790		66.406250
2791		64.453125
2792		68.359375
2793		66.406250
2794		68.359375
2795		64.453125
2796		72.265625
2797		66.406250
2798		74.218750
2799		68.359375
2800		74.218750
2801		68.359375
2802		76.171875
2803		68.359375
2804		76.171875
2805		70.312500
2806		76.171875
2807		72.265625
2808		76.171875
2809		74.218750
2810		76.171875
2811		72.265625
2812		78.125000
2813		72.265625
2814		78.125000
2815		72.265625
2816		80.078125
2817		72.265625
2818		80.078125
2819		72.265625
2820		80.078125
2821		72.265625
2822		80.078125
2823		72.265625
2824		78.125000
2825		74.218750
2826		76.171875
2827		72.265625
2828		78.125000
2829		72.265625
2830		78.125000
2831		72.265625
2832		78.125000
2833		70.312500
2834		78.125000
2835		70.312500
2836		76.171875
2837		68.359375
2838		76.171875
2839		68.359375
2840		76.171875
2841		68.359375
2842		72.265625
2843		68.359375
2844		70.312500
2845		64.453125
2846		70.312500
2847		62.500000
2848		70.312500
2849		60.546875
2850		68.359375
2851		58.593750
2852		66.406250
2853		58.593750
2854		66.406250
2855		56.640625
2856		64.453125
2857		56.640625
2858		62.500000
2859		54.687500
2860		58.593750
2861		50.781250
2862		56.640625
2863		48.828125
2864		56.640625
2865		46.875000
2866		54.687500
2867		44.921875
2868		52.734375
2869		41.015625
2870		50.781250
2871		39.062500
2872		46.875000
2873		39.062500
2874		44.921875
2875		37.109375
2876		41.015625
2877		35.156250
2878		39.062500
2879		29.296875
2880		37.109375
2881		27.343750
2882		37.109375
2883		25.390625
2884		33.203125
2885		21.484375
2886		29.296875
2887		19.531250
2888		27.343750
2889		17.578125
2890		25.390625
2891		15.625000
2892		21.484375
2893		13.671875
2894		17.578125
2895		9.765625
2896		15.625000
2897		5.859375
2898		13.671875
2899		3.906250
2900		11.718750
2901		0.000000
2902		7.812500
2903		-1.953125
2904		7.812500
2905		-3.906250
2906		3.906250
2907		-5.859375
2908		1.953125
2909		-7.812500
2910		-3.906250
2911		-11.718750
2912		-5.859375
2913		-13.671875
2914		-5.859375
2915		-17.578125
2916		-7.812500
2917		-19.531250
2918		-11.718750
2919		-21.484375
2920		-13.671875
2921		-23.437500
2922		-15.625000
2923		-25.390625
2924		-17.578125
2925		-25.390625
2926		-21.484375
2927		-27.343750
2928		-23.437500
2929		-31.250000
2930		-23.437500
2931		-33.203125
2932		-25.390625
2933		-35.156250
2934		-27.343750
2935		-37.109375
2936		-29.296875
2937		-37.109375
2938		-31.250000
2939		-39.062500
2940		-31.250000
2941		-39.062500
2942		-33.203125
2943		-39.062500
2944		-37.109375
2945		-42.968750
2946		-35.156250
2947		-42.968750
2948		-37.109375
2949		-44.921875
2950		-37.109375
2951		-44.921875
2952		-37.109375
2953		-44.921875
2954		-39.062500
2955		-46.875000
2956		-39.062500
2957		-44.921875
2958		-39.062500
2959		-42.968750
2960		-41.015625
2961		-44.921875
2962		-41.015625
2963		-46.875000
2964		-39.062500
2965		-46.875000
2966		-39.062500
2967		-44.921875
2968		-39.062500
2969		-44.921875
2970		-39.062500
2971		-44.921875
2972		-37.109375
2973		-42.968750
2974		-37.109375
2975		-41.015625
2976		-37.109375
2977		-39.062500
2978		-37.109375
2979		-41.015625
2980		-35.156250
2981		-39.062500
2982		-31.250000
2983		-39.062500
2984		-31.250000
2985		-37.109375
2986		-29.296875
2987		-35.156250
2988		-27.343750
2989		-33.203125
2990		-27.343750
2991		-31.250000
2992		-25.390625
2993		-27.343750
2994		-25.390625
2995		-27.343750
2996		-21.484375
2997		-25.390625
2998		-19.531250
2999		-23.437500
3000		-17.578125
3001		-21.484375
3002		-13.671875
3003		-19.531250
3004		-11.718750
3005		-17.578125
3006		-9.765625
3007		-15.625000
3008		-7.812500
3009		-9.765625
3010		-7.812500
3011		-7.812500
3012		-3.906250
3013		-7.812500
3014		0.000000
3015		-5.859375
3016		1.953125
3017		-1.953125
3018		5.859375
3019		0.000000
3020		7.812500
3021		1.953125
3022		11.718750
3023		5.859375
3024		13.671875
3025		7.812500
3026		13.671875
3027		11.718750
3028		17.578125
3029		13.671875
3030		21.484375
3031		15.625000
3032		23.437500
3033		19.531250
3034		27.343750
3035		21.484375
3036		29.296875
3037		23.437500
3038		31.250000
3039		25.390625
3040		35.156250
3041		29.296875
3042		37.109375
3043		33.203125
3044		37.109375
3045		35.156250
3046		41.015625
3047		37.109375
3048		42.968750
3049		39.062500
3050		46.875000
3051		41.015625
3052		48.828125
3053		42.968750
3054		50.781250
3055		44.921875
3056		52.734375
3057		46.875000
3058		54.687500
3059		50.781250
3060		54.687500
3061		54.687500
3062		56.640625
3063		54.687500
3064		60.546875
3065		54.687500
3066		62.500000
3067		56.640625
3068		64.453125
3069		58.593750
3070		66.406250
3071		60.546875
3072		68.359375
3073		62.500000
3074		68.359375
3075		64.453125
3076		70.312500
3077		68.359375
3078		70.312500
3079		68.359375
3080		72.265625
3081		66.406250
3082		74.218750
3083		68.359375
3084		76.171875
3085		70.312500
3086		76.171875
3087		70.312500
3088		78.125000
3089		72.265625
3090		78.125000
3091		72.265625
3092		78.125000
3093		74.218750
3094		76.171875
3095		74.218750
3096		78.125000
3097		72.265625
3098		80.078125
3099		74.218750
3100		80.078125
3101		74.218750
3102		80.078125
3103		74.218750
3104		80.078125
3105		74.218750
3106		80.078125
3107		72.265625
3108		80.078125
3109		72.265625
3110		80.078125
3111		74.218750
3112		76.171875
3113		72.265625
3114		78.125000
3115		70.312500
3116		78.125000
3117		70.312500
3118		76.171875
3119		68.359375
3120		76.171875
3121		68.359375
3122		76.171875
3123		68.359375
3124		74.218750
3125		66.406250
3126		74.218750
3127		66.406250
3128		70.312500
3129		66.406250
3130		68.359375
3131		62.500000
3132		68.359375
3133		60.546875
3134		68.359375
3135		58.593750
3136		66.406250
3137		56.640625
3138		64.453125
3139		56.640625
3140		62.500000
3141		52.734375
3142		60.546875
3143		54.687500
3144		58.593750
3145		50.781250
3146		54.687500
3147		46.875000
3148		54.687500
3149		44.921875
3150		52.734375
3151		42.968750
3152		50.781250
3153		41.015625
3154		48.828125
3155		39.062500
3156		46.875000
3157		35.156250
3158		44.921875
3159		35.156250
3160		41.015625
3161		33.203125
3162		37.109375
3163		29.296875
3164		35.156250
3165		25.390625
3166		33.203125
3167		23.437500
3168		31.250000
3169		21.484375
3170		29.296875
3171		17.578125
3172		25.390625
3173		15.625000
3174		23.437500
3175		13.671875
3176		21.484375
3177		11.718750
3178		15.625000
3179		9.765625
3180		13.671875
3181		3.906250
3182		11.718750
3183		1.953125
3184		9.765625
3185		-1.953125
3186		5.859375
3187		-3.906250
3188		3.906250
3189		-5.859375
3190		1.953125
3191		-9.765625
3192		0.000000
3193		-9.765625
3194		-3.906250
3195		-11.718750
3196		-7.812500
3197		-15.625000
3198		-9.765625
3199		-17.578125
3200		-9.765625
3201		-21.484375
3202		-13.671875
3203		-21.484375
3204		-15.625000
3205		-25.390625
3206		-17.578125
3207		-27.343750
3208		-19.531250
3209		-27.343750
3210		-21.484375
3211		-29.296875
3212		-25.390625
3213		-31.250000
3214		-27.343750
3215		-35.156250
3216		-27.343750
3217		-35.156250
3218		-29.296875
3219		-35.156250
3220		-31.250000
3221		-37.109375
3222		-33.203125
3223		-39.062500
3224		-33.203125
3225		-41.015625
3226		-33.203125
3227		-39.062500
3228		-35.156250
3229		-41.015625
3230		-39.062500
3231		-42.968750
3232		-37.109375
3233		-44.921875
3234		-37.109375
3235		-44.921875
3236		-39.062500
3237		-42.968750
3238		-41.015625
3239		-44.921875
3240		-39.062500
3241		-44.921875
3242		-39.062500
3243		-44.921875
3244		-39.062500
3245		-42.968750
3246		-41.015625
3247		-44.921875
3248		-39.062500
3249		-44.921875
3250		-41.015625
3251		-42.968750
3252		-39.062500
3253		-42.968750
3254		-39.062500
3255		-41.015625
3256		-39.062500
3257		-41.015625
3258		-37.109375
3259		-41.015625
3260		-37.109375
3261		-39.062500
3262		-35.156250
3263		-37.109375
3264		-35.156250
3265		-37.109375
3266		-33.203125
3267		-35.156250
3268		-31.250000
3269		-33.203125
3270		-29.296875
3271		-31.250000
3272		-27.343750
3273		-29.296875
3274		-25.390625
3275		-29.296875
3276		-23.437500
3277		-27.343750
3278		-23.437500
3279		-23.437500
3280		-21.484375
3281		-21.484375
3282		-17.578125
3283		-19.531250
3284		-15.625000
3285		-17.578125
3286		-13.671875
3287		-17.578125
3288		-11.718750
3289		-13.671875
3290		-9.765625
3291		-11.718750
3292		-7.812500
3293		-9.765625
3294		-3.906250
3295		-5.859375
3296		-1.953125
3297		-3.906250
3298		0.000000
3299		-1.953125
3300		3.906250
3301		1.953125
3302		5.859375
3303		3.906250
3304		7.812500
3305		7.812500
3306		11.718750
3307		9.765625
3308		13.671875
3309		11.718750
3310		15.625000
3311		13.671875
3312		19.531250
3313		17.578125
3314		21.484375
3315		19.531250
3316		25.390625
3317		23.437500
3318		27.343750
3319		23.437500
3320		29.296875
3321		27.343750
3322		33.203125
3323		29.296875
3324		35.156250
3325		33.203125
3326		37.109375
3327		35.156250
3328		39.062500
3329		37.109375
3330		41.015625
3331		41.015625
3332		44.921875
3333		41.015625
3334		46.875000
3335		44.921875
3336		48.828125
3337		46.875000
3338		50.781250
3339		48.828125
3340		52.734375
3341		50.781250
3342		54.687500
3343		52.734375
3344		56.640625
3345		54.687500
3346		58.593750
3347		56.640625
3348		60.546875
3349		58.593750
3350		62.500000
3351		60.546875
3352		64.453125
3353		62.500000
3354		66.406250
3355		62.500000
3356		66.406250
3357		64.453125
3358		68.359375
3359		66.406250
3360		70.312500
3361		66.406250
3362		72.265625
3363		68.359375
3364		72.265625
3365		70.312500
3366		74.218750
3367		70.312500
3368		74.218750
3369		72.265625
3370		74.218750
3371		72.265625
3372		76.171875
3373		74.218750
3374		76.171875
3375		74.218750
3376		76.171875
3377		74.218750
3378		78.125000
3379		74.218750
3380		78.125000
3381		76.171875
3382		78.125000
3383		74.218750
3384		78.125000
3385		74.218750
3386		78.125000
3387		74.218750
3388		78.125000
3389		74.218750
3390		78.125000
3391		74.218750
3392		78.125000
3393		74.218750
3394		78.125000
3395		72.265625
3396		76.171875
3397		72.265625
3398		76.171875
3399		72.265625
3400		76.171875
3401		70.312500
3402		74.218750
3403		70.312500
3404		74.218750
3405		70.312500
3406		72.265625
3407		68.359375
3408		72.265625
3409		66.406250
3410		70.312500
3411		64.453125
3412		68.359375
3413		64.453125
3414		68.359375
3415		62.500000
3416		66.406250
3417		60.546875
3418		64.453125
3419		58.593750
3420		64.453125
3421		56.640625
3422		60.546875
3423		54.687500
3424		58.593750
3425		52.734375
3426		56.640625
3427		50.781250
3428		54.687500
3429		48.828125
3430		54.687500
3431		46.875000
3432		50.781250
3433		44.921875
3434		48.828125
3435		42.968750
3436		46.875000
3437		41.015625
3438		44.921875
3439		37.109375
3440		42.968750
3441		35.156250
3442		39.062500
3443		33.203125
3444		37.109375
3445		31.250000
3446		35.156250
3447		27.343750
3448		33.203125
3449		23.437500
3450		29.296875
3451		21.484375
3452		27.343750
3453		19.531250
3454		23.437500
3455		17.578125
3456		21.484375
3457		15.625000
3458		19.531250
3459		11.718750
3460		17.578125
3461		7.812500
3462		13.671875
3463		5.859375
3464		11.718750
3465		3.906250
3466		7.812500
3467		0.000000
3468		5.859375
3469		-1.953125
3470		3.906250
3471		-3.906250
3472		1.953125
3473		-5.859375
3474		-1.953125
3475		-9.765625
3476		-3.906250
3477		-11.718750
3478		-7.812500
3479		-13.671875
3480		-9.765625
3481		-15.625000
3482		-11.718750
3483		-17.578125
3484		-13.671875
3485		-21.484375
3486		-15.625000
3487		-23.437500
3488		-17.578125
3489		-23.437500
3490		-21.484375
3491		-27.343750
3492		-21.484375
3493		-29.296875
3494		-23.437500
3495		-29.296875
3496		-27.343750
3497		-31.250000
3498		-29.296875
3499		-33.203125
3500		-29.296875
3501		-35.156250
3502		-31.250000
3503		-37.109375
3504		-33.203125
3505		-37.109375
3506		-33.203125
3507		-39.062500
3508		-35.156250
3509		-39.062500
3510		-37.109375
3511		-41.015625
3512		-37.109375
3513		-41.015625
3514		-39.062500
3515		-42.968750
3516		-39.062500
3517		-42.968750
3518		-39.062500
3519		-42.968750
3520		-39.062500
3521		-42.968750
3522		-41.015625
3523		-42.968750
3524		-39.062500
3525		-42.968750
3526		-41.015625
3527		-42.968750
3528		-41.015625
3529		-42.968750
3530		-39.062500
3531		-42.968750
3532		-41.015625
3533		-42.968750
3534		-39.062500
3535		-42.968750
3536		-39.062500
3537		-41.015625
3538		-37.109375
3539		-41.015625
3540		-37.109375
3541		-39.062500
3542		-37.109375
3543		-39.062500
3544		-35.156250
3545		-37.109375
3546		-33.203125
3547		-35.156250
3548		-33.203125
3549		-35.156250
3550		-31.250000
3551		-33.203125
3552		-29.296875
3553		-31.250000
3554		-27.343750
3555		-29.296875
3556		-25.390625
3557		-27.343750
3558		-23.437500
3559		-27.343750
3560		-21.484375
3561		-23.437500
3562		-19.531250
3563		-23.437500
3564		-17.578125
3565		-19.531250
3566		-15.625000
3567		-17.578125
3568		-13.671875
3569		-15.625000
3570		-11.718750
3571		-13.671875
3572		-7.812500
3573		-11.718750
3574		-7.812500
3575		-7.812500
3576		-3.906250
3577		-5.859375
3578		-1.953125
3579		-3.906250
3580		0.000000
3581		0.000000
3582		3.906250
3583		1.953125
3584		5.859375
3585		3.906250
3586		7.812500
3587		7.812500
3588		11.718750
3589		9.765625
3590		13.671875
3591		11.718750
3592		15.625000
3593		15.625000
3594		19.531250
3595		17.578125
3596		21.484375
3597		19.531250
3598		23.437500
3599		23.437500
3600		27.343750
3601		25.390625
3602		29.296875
3603		27.343750
3604		33.203125
3605		31.250000
3606		35.156250
3607		33.203125
3608		37.109375
3609		35.156250
3610		39.062500
3611		37.109375
3612		42.968750
3613		41.015625
3614		44.921875
3615		42.968750
3616		46.875000
3617		44.921875
3618		50.781250
3619		46.875000
3620		50.781250
3621		48.828125
3622		52.734375
3623		50.781250
3624		54.687500
3625		52.734375
3626		56.640625
3627		54.687500
3628		60.546875
3629		56.640625
3630		62.500000
3631		58.593750
3632		62.500000
3633		60.546875
3634		64.453125
3635		62.500000
3636		66.406250
3637		64.453125
3638		68.359375
3639		66.406250
3640		70.312500
3641		66.406250
3642		70.312500
3643		68.359375
3644		72.265625
3645		68.359375
3646		72.265625
3647		70.312500
3648		74.218750
3649		72.265625
3650		74.218750
3651		72.265625
3652		76.171875
3653		74.218750
3654		76.171875
3655		74.218750
3656		76.171875
3657		74.218750
3658		78.125000
3659		74.218750
3660		78.125000
3661		74.218750
3662		78.125000
3663		74.218750
3664		78.125000
3665		76.171875
3666		78.125000
3667		76.171875
3668		78.125000
3669		76.171875
3670		78.125000
3671		74.218750
3672		78.125000
3673		74.218750
3674		78.125000
3675		74.218750
3676		78.125000
3677		74.218750
3678		78.125000
3679		74.218750
3680		76.171875
3681		72.265625
3682		76.171875
3683		72.265625
3684		74.218750
3685		70.312500
3686		74.218750
3687		70.312500
3688		74.218750
3689		68.359375
3690		72.265625
3691		66.406250
3692		70.312500
3693		66.406250
3694		70.312500
3695		64.453125
3696		68.359375
3697		62.500000
3698		68.359375
3699		60.546875
3700		64.453125
3701		60.546875
3702		62.500000
3703		56.640625
3704		62.500000
3705		56.640625
3706		60.546875
3707		54.687500
3708		58.593750
3709		52.734375
3710		56.640625
3711		50.781250
3712		54.687500
3713		46.875000
3714		52.734375
3715		46.875000
3716		50.781250
3717		42.968750
3718		46.875000
3719		41.015625
3720		44.921875
3721		39.062500
3722		42.968750
3723		35.156250
3724		41.015625
3725		33.203125
3726		37.109375
3727		31.250000
3728		35.156250
3729		29.296875
3730		33.203125
3731		25.390625
3732		31.250000
3733		23.437500
3734		27.343750
3735		19.531250
3736		25.390625
3737		17.578125
3738		23.437500
3739		15.625000
3740		19.531250
3741		13.671875
3742		17.578125
3743		9.765625
3744		13.671875
3745		7.812500
3746		11.718750
3747		3.906250
3748		9.765625
3749		1.953125
3750		5.859375
3751		0.000000
3752		3.906250
3753		-3.906250
3754		1.953125
3755		-5.859375
3756		-1.953125
3757		-7.812500
3758		-3.906250
3759		-11.718750
3760		-5.859375
3761		-13.671875
3762		-7.812500
3763		-15.625000
3764		-11.718750
3765		-17.578125
3766		-13.671875
3767		-19.531250
3768		-15.625000
3769		-21.484375
3770		-17.578125
3771		-25.390625
3772		-19.531250
3773		-27.343750
3774		-21.484375
3775		-27.343750
3776		-23.437500
3777		-29.296875
3778		-25.390625
3779		-31.250000
3780		-27.343750
3781		-33.203125
3782		-29.296875
3783		-35.156250
3784		-31.250000
3785		-37.109375
3786		-33.203125
3787		-37.109375
3788		-33.203125
3789		-39.062500
3790		-35.156250
3791		-39.062500
3792		-37.109375
3793		-41.015625
3794		-37.109375
3795		-41.015625
3796		-39.062500
3797		-42.968750
3798		-39.062500
3799		-42.968750
3800		-39.062500
3801		-42.968750
3802		-41.015625
3803		-42.968750
3804		-41.015625
3805		-42.968750
3806		-41.015625
3807		-42.968750
3808		-41.015625
3809		-42.968750
3810		-41.015625
3811		-42.968750
3812		-41.015625
3813		-42.968750
3814		-39.062500
3815		-42.968750
3816		-39.062500
3817		-41.015625
3818		-39.062500
3819		-41.015625
3820		-37.109375
3821		-41.015625
3822		-37.109375
3823		-39.062500
3824		-37.109375
3825		-39.062500
3826		-35.156250
3827		-37.109375
3828		-35.156250
3829		-37.109375
3830		-33.203125
3831		-35.156250
3832		-31.250000
3833		-33.203125
3834		-29.296875
3835		-31.250000
3836		-29.296875
3837		-31.250000
3838		-25.390625
3839		-29.296875
3840		-25.390625
3841		-27.343750
3842		-23.437500
3843		-25.390625
3844		-21.484375
3845		-23.437500
3846		-19.531250
3847		-21.484375
3848		-15.625000
3849		-19.531250
3850		-15.625000
3851		-15.625000
3852		-11.718750
3853		-13.671875
3854		-9.765625
3855		-11.718750
3856		-7.812500
3857		-9.765625
3858		-5.859375
3859		-7.812500
3860		-1.953125
3861		-3.906250
3862		0.000000
3863		-1.953125
3864		3.906250
3865		0.000000
3866		5.859375
3867		3.906250
3868		7.812500
3869		5.859375
3870		11.718750
3871		7.812500
3872		13.671875
3873		11.718750
3874		15.625000
3875		13.671875
3876		17.578125
3877		17.578125
3878		21.484375
3879		19.531250
3880		23.437500
3881		21.484375
3882		27.343750
3883		25.390625
3884		29.296875
3885		27.343750
3886		31.250000
3887		29.296875
3888		33.203125
3889		31.250000
3890		37.109375
3891		35.156250
3892		39.062500
3893		37.109375
3894		41.015625
3895		39.062500
3896		44.921875
3897		42.968750
3898		46.875000
3899		42.968750
3900		48.828125
3901		46.875000
3902		50.781250
3903		48.828125
3904		52.734375
3905		50.781250
3906		54.687500
3907		52.734375
3908		56.640625
3909		54.687500
3910		58.593750
3911		56.640625
3912		60.546875
3913		58.593750
3914		62.500000
3915		60.546875
3916		64.453125
3917		62.500000
3918		64.453125
3919		64.453125
3920		66.406250
3921		64.453125
3922		68.359375
3923		66.406250
3924		70.312500
3925		68.359375
3926		70.312500
3927		68.359375
3928		72.265625
3929		70.312500
3930		72.265625
3931		70.312500
3932		74.218750
3933		72.265625
3934		74.218750
3935		74.218750
3936		76.171875
3937		72.265625
3938		76.171875
3939		74.218750
3940		78.125000
3941		74.218750
3942		78.125000
3943		74.218750
3944		78.125000
3945		76.171875
3946		78.125000
3947		74.218750
3948		78.125000
3949		74.218750
3950		78.125000
3951		76.171875
3952		78.125000
3953		76.171875
3954		78.125000
3955		74.218750
3956		78.125000
3957		74.218750
3958		78.125000
3959		74.218750
3960		76.171875
3961		72.265625
3962		76.171875
3963		72.265625
3964		76.171875
3965		72.265625
3966		76.171875
3967		70.312500
3968		74.218750
3969		70.312500
3970		72.265625
3971		68.359375
3972		72.265625
3973		68.359375
3974		70.312500
3975		66.406250
3976		70.312500
3977		64.453125
3978		68.359375
3979		62.500000
3980		66.406250
3981		62.500000
3982		66.406250
3983		60.546875
3984		64.453125
3985		58.593750
3986		62.500000
3987		54.687500
3988		60.546875
3989		54.687500
3990		58.593750
3991		52.734375
3992		56.640625
3993		50.781250
3994		54.687500
3995		48.828125
3996		52.734375
3997		46.875000
3998		50.781250
3999		42.968750
4000		48.828125
4001		41.015625
4002		44.921875
4003		39.062500
4004		42.968750
4005		37.109375
4006		42.968750
4007		35.156250
4008		39.062500
4009		31.250000
4010		37.109375
4011		29.296875
4012		33.203125
4013		27.343750
4014		31.250000
4015		23.437500
4016		27.343750
4017		21.484375
4018		27.343750
4019		17.578125
4020		23.437500
4021		15.625000
4022		19.531250
4023		13.671875
4024		17.578125
4025		9.765625
4026		15.625000
4027		7.812500
4028		11.718750
4029		5.859375
4030		9.765625
4031		1.953125
4032		7.812500
4033		0.000000
4034		3.906250
4035		-1.953125
4036		1.953125
4037		-3.906250
4038		-1.953125
4039		-7.812500
4040		-1.953125
4041		-9.765625
4042		-5.859375
4043		-11.718750
4044		-7.812500
4045		-15.625000
4046		-11.718750
4047		-17.578125
4048		-13.671875
4049		-19.531250
4050		-15.625000
4051		-21.484375
4052		-17.578125
4053		-23.437500
4054		-19.531250
4055		-25.390625
4056		-21.484375
4057		-27.343750
4058		-23.437500
4059		-29.296875
4060		-25.390625
4061		-31.250000
4062		-27.343750
4063		-33.203125
4064		-27.343750
4065		-35.156250
4066		-29.296875
4067		-35.156250
4068		-31.250000
4069		-37.109375
4070		-33.203125
4071		-39.062500
4072		-35.156250
4073		-39.062500
4074		-35.156250
4075		-39.062500
4076		-37.109375
4077		-41.015625
4078		-37.109375
4079		-41.015625
4080		-39.062500
4081		-42.968750
4082		-39.062500
4083		-42.968750
4084		-39.062500
4085		-42.968750
4086		-39.062500
4087		-42.968750
4088		-41.015625
4089		-44.921875
4090		-39.062500
4091		-42.968750
4092		-41.015625
4093		-42.968750
4094		-41.015625
4095		-42.968750
4096		-39.062500
4097		-42.968750
4098		-39.062500
4099		-41.015625
4100		-39.062500
4101		-42.968750
4102		-37.109375
4103		-39.062500
4104		-37.109375
4105		-39.062500
4106		-35.156250
4107		-39.062500
4108		-35.156250
4109		-37.109375
4110		-33.203125
4111		-35.156250
4112		-33.203125
4113		-35.156250
4114		-31.250000
4115		-33.203125
4116		-29.296875
4117		-33.203125
4118		-27.343750
4119		-29.296875
4120		-27.343750
4121		-29.296875
4122		-25.390625
4123		-29.296875
4124		-23.437500
4125		-25.390625
4126		-19.531250
4127		-21.484375
4128		-17.578125
4129		-19.531250
4130		-15.625000
4131		-17.578125
4132		-13.671875
4133		-17.578125
4134		-11.718750
4135		-13.671875
4136		-9.765625
4137		-11.718750
4138		-7.812500
4139		-9.765625
4140		-3.906250
4141		-5.859375
4142		-1.953125
4143		-3.906250
4144		0.000000
4145		-1.953125
4146		3.906250
4147		1.953125
4148		5.859375
4149		3.906250
4150		7.812500
4151		5.859375
4152		11.718750
4153		9.765625
4154		13.671875
4155		11.718750
4156		17.578125
4157		13.671875
4158		19.531250
4159		17.578125
4160		21.484375
4161		19.531250
4162		23.437500
4163		21.484375
4164		25.390625
4165		23.437500
4166		29.296875
4167		27.343750
4168		31.250000
4169		29.296875
4170		33.203125
4171		33.203125
4172		37.109375
4173		35.156250
4174		39.062500
4175		37.109375
4176		41.015625
4177		39.062500
4178		42.968750
4179		42.968750
4180		46.875000
4181		44.921875
4182		48.828125
4183		46.875000
4184		50.781250
4185		48.828125
4186		52.734375
4187		50.781250
4188		54.687500
4189		52.734375
4190		56.640625
4191		54.687500
4192		58.593750
4193		56.640625
4194		60.546875
4195		58.593750
4196		62.500000
4197		60.546875
4198		64.453125
4199		62.500000
4200		64.453125
4201		62.500000
4202		68.359375
4203		64.453125
4204		68.359375
4205		66.406250
4206		70.312500
4207		66.406250
4208		70.312500
4209		68.359375
4210		72.265625
4211		70.312500
4212		74.218750
4213		70.312500
4214		74.218750
4215		72.265625
4216		76.171875
4217		72.265625
4218		76.171875
4219		72.265625
4220		76.171875
4221		74.218750
4222		76.171875
4223		74.218750
4224		78.125000
4225		74.218750
4226		78.125000
4227		76.171875
4228		78.125000
4229		76.171875
4230		78.125000
4231		76.171875
4232		78.125000
4233		76.171875
4234		78.125000
4235		74.218750
4236		80.078125
4237		74.218750
4238		78.125000
4239		74.218750
4240		78.125000
4241		74.218750
4242		78.125000
4243		74.218750
4244		76.171875
4245		74.218750
4246		76.171875
4247		72.265625
4248		76.171875
4249		72.265625
4250		74.218750
4251		68.359375
4252		74.218750
4253		70.312500
4254		72.265625
4255		68.359375
4256		70.312500
4257		66.406250
4258		70.312500
4259		64.453125
4260		68.359375
4261		64.453125
4262		66.406250
4263		62.500000
4264		64.453125
4265		60.546875
4266		64.453125
4267		58.593750
4268		62.500000
4269		56.640625
4270		60.546875
4271		54.687500
4272		58.593750
4273		52.734375
4274		56.640625
4275		50.781250
4276		54.687500
4277		48.828125
4278		52.734375
4279		46.875000
4280		50.781250
4281		42.968750
4282		48.828125
4283		42.968750
4284		46.875000
4285		39.062500
4286		44.921875
4287		37.109375
4288		41.015625
4289		35.156250
4290		39.062500
4291		31.250000
4292		37.109375
4293		29.296875
4294		33.203125
4295		27.343750
4296		31.250000
4297		23.437500
4298		27.343750
4299		21.484375
4300		27.343750
4301		19.531250
4302		23.437500
4303		15.625000
4304		21.484375
4305		13.671875
4306		17.578125
4307		11.718750
4308		15.625000
4309		7.812500
4310		11.718750
4311		5.859375
4312		9.765625
4313		1.953125
4314		7.812500
4315		0.000000
4316		3.906250
4317		-1.953125
4318		1.953125
4319		-5.859375
4320		0.000000
4321		-7.812500
4322		-3.906250
4323		-9.765625
4324		-5.859375
4325		-13.671875
4326		-7.812500
4327		-15.625000
4328		-9.765625
4329		-17.578125
4330		-11.718750
4331		-19.531250
4332		-15.625000
4333		-21.484375
4334		-17.578125
4335		-23.437500
4336		-19.531250
4337		-25.390625
4338		-21.484375
4339		-27.343750
4340		-23.437500
4341		-29.296875
4342		-25.390625
4343		-31.250000
4344		-27.343750
4345		-33.203125
4346		-29.296875
4347		-33.203125
4348		-31.250000
4349		-37.109375
4350		-31.250000
4351		-37.109375
4352		-33.203125
4353		-37.109375
4354		-35.156250
4355		-39.062500
4356		-37.109375
4357		-41.015625
4358		-37.109375
4359		-41.015625
4360		-37.109375
4361		-42.968750
4362		-39.062500
4363		-42.968750
4364		-39.062500
4365		-42.968750
4366		-39.062500
4367		-42.968750
4368		-41.015625
4369		-44.921875
4370		-41.015625
4371		-42.968750
4372		-41.015625
4373		-44.921875
4374		-41.015625
4375		-42.968750
4376		-39.062500
4377		-42.968750
4378		-39.062500
4379		-42.968750
4380		-39.062500
4381		-42.968750
4382		-39.062500
4383		-41.015625
4384		-37.109375
4385		-41.015625
4386		-37.109375
4387		-41.015625
4388		-37.109375
4389		-39.062500
4390		-35.156250
4391		-37.109375
4392		-35.156250
4393		-37.109375
4394		-33.203125
4395		-35.156250
4396		-31.250000
4397		-33.203125
4398		-29.296875
4399		-33.203125
4400		-29.296875
4401		-31.250000
4402		-27.343750
4403		-29.296875
4404		-25.390625
4405		-27.343750
4406		-23.437500
4407		-25.390625
4408		-21.484375
4409		-23.437500
4410		-19.531250
4411		-21.484375
4412		-17.578125
4413		-19.531250
4414		-15.625000
4415		-17.578125
4416		-13.671875
4417		-13.671875
4418		-9.765625
4419		-11.718750
4420		-7.812500
4421		-9.765625
4422		-5.859375
4423		-7.812500
4424		-3.906250
4425		-5.859375
4426		0.000000
4427		-1.953125
4428		1.953125
4429		0.000000
4430		3.906250
4431		3.906250
4432		7.812500
4433		5.859375
4434		11.718750
4435		7.812500
4436		13.671875
4437		9.765625
4438		15.625000
4439		13.671875
4440		17.578125
4441		15.625000
4442		21.484375
4443		19.531250
4444		23.437500
4445		21.484375
4446		27.343750
4447		23.437500
4448		27.343750
4449		27.343750
4450		31.250000
4451		29.296875
4452		33.203125
4453		31.250000
4454		37.109375
4455		35.156250
4456		39.062500
4457		37.109375
4458		41.015625
4459		39.062500
4460		42.968750
4461		41.015625
4462		46.875000
4463		42.968750
4464		46.875000
4465		46.875000
4466		50.781250
4467		48.828125
4468		52.734375
4469		50.781250
4470		54.687500
4471		50.781250
4472		56.640625
4473		54.687500
4474		58.593750
4475		56.640625
4476		60.546875
4477		58.593750
4478		62.500000
4479		60.546875
4480		64.453125
4481		60.546875
4482		66.406250
4483		64.453125
4484		66.406250
4485		64.453125
4486		68.359375
4487		66.406250
4488		70.312500
4489		68.359375
4490		70.312500
4491		70.312500
4492		74.218750
4493		68.359375
4494		74.218750
4495		70.312500
4496		74.218750
4497		72.265625
4498		74.218750
4499		72.265625
4500		76.171875
4501		74.218750
4502		76.171875
4503		74.218750
4504		78.125000
4505		74.218750
4506		78.125000
4507		74.218750
4508		78.125000
4509		74.218750
4510		78.125000
4511		76.171875
4512		78.125000
4513		74.218750
4514		78.125000
4515		76.171875
4516		80.078125
4517		74.218750
4518		78.125000
4519		76.171875
4520		78.125000
4521		74.218750
4522		78.125000
4523		74.218750
4524		76.171875
4525		74.218750
4526		76.171875
4527		72.265625
4528		76.171875
4529		72.265625
4530		76.171875
4531		72.265625
4532		74.218750
4533		70.312500
4534		74.218750
4535		68.359375
4536		72.265625
4537		68.359375
4538		72.265625
4539		66.406250
4540		70.312500
4541		66.406250
4542		68.359375
4543		64.453125
4544		68.359375
4545		62.500000
4546		66.406250
4547		60.546875
4548		64.453125
4549		58.593750
4550		62.500000
4551		56.640625
4552		60.546875
4553		54.687500
4554		58.593750
4555		52.734375
4556		58.593750
4557		50.781250
4558		54.687500
4559		48.828125
4560		52.734375
4561		46.875000
4562		50.781250
4563		44.921875
4564		48.828125
4565		42.968750
4566		46.875000
4567		41.015625
4568		44.921875
4569		37.109375
4570		41.015625
4571		35.156250
4572		39.062500
4573		33.203125
4574		37.109375
4575		29.296875
4576		33.203125
4577		27.343750
4578		33.203125
4579		25.390625
4580		29.296875
4581		21.484375
4582		27.343750
4583		19.531250
4584		23.437500
4585		15.625000
4586		21.484375
4587		13.671875
4588		17.578125
4589		11.718750
4590		15.625000
4591		9.765625
4592		13.671875
4593		5.859375
4594		9.765625
4595		3.906250
4596		7.812500
4597		1.953125
4598		5.859375
4599		-1.953125
4600		3.906250
4601		-3.906250
4602		0.000000
4603		-5.859375
4604		-1.953125
4605		-9.765625
4606		-3.906250
4607		-11.718750
4608		-7.812500
4609		-15.625000
4610		-9.765625
4611		-15.625000
4612		-11.718750
4613		-17.578125
4614		-13.671875
4615		-21.484375
4616		-15.625000
4617		-23.437500
4618		-19.531250
4619		-25.390625
4620		-21.484375
4621		-27.343750
4622		-23.437500
4623		-27.343750
4624		-25.390625
4625		-29.296875
4626		-27.343750
4627		-31.250000
4628		-27.343750
4629		-33.203125
4630		-29.296875
4631		-35.156250
4632		-31.250000
4633		-35.156250
4634		-33.203125
4635		-37.109375
4636		-33.203125
4637		-39.062500
4638		-35.156250
4639		-39.062500
4640		-37.109375
4641		-41.015625
4642		-37.109375
4643		-41.015625
4644		-37.109375
4645		-41.015625
4646		-39.062500
4647		-42.968750
4648		-39.062500
4649		-42.968750
4650		-39.062500
4651		-42.968750
4652		-39.062500
4653		-42.968750
4654		-39.062500
4655		-42.968750
4656		-39.062500
4657		-42.968750
4658		-41.015625
4659		-42.968750
4660		-39.062500
4661		-42.968750
4662		-39.062500
4663		-41.015625
4664		-39.062500
4665		-41.015625
4666		-39.062500
4667		-41.015625
4668		-37.109375
4669		-39.062500
4670		-37.109375
4671		-39.062500
4672		-35.156250
4673		-39.062500
4674		-33.203125
4675		-37.109375
4676		-33.203125
4677		-35.156250
4678		-31.250000
4679		-33.203125
4680		-29.296875
4681		-31.250000
4682		-27.343750
4683		-31.250000
4684		-27.343750
4685		-29.296875
4686		-25.390625
4687		-27.343750
4688		-23.437500
4689		-25.390625
4690		-21.484375
4691		-23.437500
4692		-19.531250
4693		-21.484375
4694		-15.625000
4695		-19.531250
4696		-13.671875
4697		-15.625000
4698		-11.718750
4699		-13.671875
4700		-9.765625
4701		-11.718750
4702		-7.812500
4703		-9.765625
4704		-5.859375
4705		-7.812500
4706		-3.906250
4707		-3.906250
4708		0.000000
4709		-1.953125
4710		1.953125
4711		0.000000
4712		5.859375
4713		3.906250
4714		7.812500
4715		5.859375
4716		9.765625
4717		7.812500
4718		11.718750
4719		11.718750
4720		15.625000
4721		13.671875
4722		17.578125
4723		15.625000
4724		21.484375
4725		19.531250
4726		23.437500
4727		21.484375
4728		27.343750
4729		23.437500
4730		29.296875
4731		27.343750
4732		31.250000
4733		29.296875
4734		33.203125
4735		31.250000
4736		35.156250
4737		33.203125
4738		39.062500
4739		37.109375
4740		41.015625
4741		39.062500
4742		42.968750
4743		41.015625
4744		44.921875
4745		42.968750
4746		48.828125
4747		46.875000
4748		50.781250
4749		48.828125
4750		52.734375
4751		50.781250
4752		54.687500
4753		52.734375
4754		56.640625
4755		54.687500
4756		58.593750
4757		56.640625
4758		60.546875
4759		58.593750
4760		62.500000
4761		60.546875
4762		64.453125
4763		62.500000
4764		66.406250
4765		62.500000
4766		68.359375
4767		64.453125
4768		68.359375
4769		66.406250
4770		70.312500
4771		66.406250
4772		72.265625
4773		68.359375
4774		72.265625
4775		70.312500
4776		74.218750
4777		70.312500
4778		74.218750
4779		72.265625
4780		76.171875
4781		72.265625
4782		76.171875
4783		74.218750
4784		76.171875
4785		74.218750
4786		78.125000
4787		74.218750
4788		78.125000
4789		74.218750
4790		78.125000
4791		76.171875
4792		78.125000
4793		76.171875
4794		78.125000
4795		76.171875
4796		78.125000
4797		76.171875
4798		78.125000
4799		74.218750
4800		80.078125
4801		74.218750
4802		78.125000
4803		74.218750
4804		78.125000
4805		74.218750
4806		78.125000
4807		74.218750
4808		78.125000
4809		74.218750
4810		76.171875
4811		72.265625
4812		76.171875
4813		70.312500
4814		74.218750
4815		70.312500
4816		74.218750
4817		70.312500
4818		72.265625
4819		68.359375
4820		72.265625
4821		66.406250
4822		70.312500
4823		66.406250
4824		70.312500
4825		64.453125
4826		68.359375
4827		62.500000
4828		66.406250
4829		60.546875
4830		64.453125
4831		58.593750
4832		62.500000
4833		56.640625
4834		60.546875
4835		54.687500
4836		58.593750
4837		52.734375
4838		56.640625
4839		50.781250
4840		54.687500
4841		48.828125
4842		54.687500
4843		46.875000
4844		50.781250
4845		44.921875
4846		48.828125
4847		42.968750
4848		46.875000
4849		41.015625
4850		44.921875
4851		37.109375
4852		42.968750
4853		35.156250
4854		39.062500
4855		33.203125
4856		37.109375
4857		31.250000
4858		35.156250
4859		27.343750
4860		31.250000
4861		25.390625
4862		29.296875
4863		21.484375
4864		27.343750
4865		19.531250
4866		23.437500
4867		17.578125
4868		21.484375
4869		13.671875
4870		17.578125
4871		11.718750
4872		15.625000
4873		7.812500
4874		13.671875
4875		5.859375
4876		9.765625
4877		3.906250
4878		7.812500
4879		0.000000
4880		5.859375
4881		-1.953125
4882		1.953125
4883		-3.906250
4884		0.000000
4885		-5.859375
4886		-1.953125
4887		-9.765625
4888		-3.906250
4889		-11.718750
4890		-7.812500
4891		-13.671875
4892		-9.765625
4893		-15.625000
4894		-11.718750
4895		-19.531250
4896		-15.625000
4897		-21.484375
4898		-17.578125
4899		-23.437500
4900		-19.531250
4901		-25.390625
4902		-21.484375
4903		-27.343750
4904		-23.437500
4905		-29.296875
4906		-25.390625
4907		-31.250000
4908		-27.343750
4909		-31.250000
4910		-29.296875
4911		-33.203125
4912		-29.296875
4913		-35.156250
4914		-31.250000
4915		-37.109375
4916		-33.203125
4917		-37.109375
4918		-35.156250
4919		-39.062500
4920		-35.156250
4921		-39.062500
4922		-37.109375
4923		-41.015625
4924		-37.109375
4925		-41.015625
4926		-39.062500
4927		-41.015625
4928		-39.062500
4929		-42.968750
4930		-39.062500
4931		-42.968750
4932		-39.062500
4933		-42.968750
4934		-41.015625
4935		-42.968750
4936		-41.015625
4937		-42.968750
4938		-41.015625
4939		-42.968750
4940		-41.015625
4941		-44.921875
4942		-39.062500
4943		-42.968750
4944		-41.015625
4945		-42.968750
4946		-39.062500
4947		-41.015625
4948		-37.109375
4949		-41.015625
4950		-37.109375
4951		-39.062500
4952		-37.109375
4953		-39.062500
4954		-35.156250
4955		-39.062500
4956		-35.156250
4957		-37.109375
4958		-33.203125
4959		-35.156250
4960		-33.203125
4961		-33.203125
4962		-31.250000
4963		-33.203125
4964		-29.296875
4965		-31.250000
4966		-27.343750
4967		-29.296875
4968		-25.390625
4969		-27.343750
4970		-23.437500
4971		-25.390625
4972		-21.484375
4973		-23.437500
4974		-19.531250
4975		-21.484375
4976		-17.578125
4977		-19.531250
4978		-15.625000
4979		-17.578125
4980		-11.718750
4981		-15.625000
4982		-11.718750
4983		-11.718750
4984		-7.812500
4985		-9.765625
4986		-5.859375
4987		-7.812500
4988		-3.906250
4989		-5.859375
4990		-1.953125
4991		-1.953125
4992		1.953125
4993		0.000000
4994		3.906250
4995		1.953125
4996		7.812500
4997		5.859375
4998		9.765625
4999		7.812500
5000		11.718750
5001		9.765625
5002		15.625000
5003		13.671875
5004		17.578125
5005		15.625000
5006		19.531250
5007		17.578125
5008		23.437500
5009		19.531250
5010		25.390625
5011		23.437500
5012		27.343750
5013		27.343750
5014		31.250000
5015		29.296875
5016		33.203125
5017		31.250000
5018		35.156250
5019		33.203125
5020		37.109375
5021		37.109375
5022		41.015625
5023		39.062500
5024		42.968750
5025		41.015625
5026		44.921875
5027		42.968750
5028		46.875000
5029		46.875000
5030		50.781250
5031		48.828125
5032		52.734375
5033		50.781250
5034		54.687500
5035		52.734375
5036		56.640625
5037		54.687500
5038		58.593750
5039		56.640625
5040		60.546875
5041		58.593750
5042		62.500000
5043		60.546875
5044		64.453125
5045		62.500000
5046		64.453125
5047		62.500000
5048		66.406250
5049		64.453125
5050		68.359375
5051		66.406250
5052		70.312500
5053		68.359375
5054		70.312500
5055		68.359375
5056		72.265625
5057		70.312500
5058		74.218750
5059		70.312500
5060		74.218750
5061		72.265625
5062		76.171875
5063		74.218750
5064		76.171875
5065		74.218750
5066		76.171875
5067		74.218750
5068		78.125000
5069		74.218750
5070		78.125000
5071		76.171875
5072		78.125000
5073		76.171875
5074		78.125000
5075		76.171875
5076		80.078125
5077		76.171875
5078		78.125000
5079		76.171875
5080		78.125000
5081		76.171875
5082		80.078125
5083		74.218750
5084		80.078125
5085		76.171875
5086		78.125000
5087		74.218750
5088		78.125000
5089		74.218750
5090		78.125000
5091		74.218750
5092		78.125000
5093		72.265625
5094		76.171875
5095		72.265625
5096		74.218750
5097		70.312500
5098		74.218750
5099		70.312500
5100		74.218750
5101		68.359375
5102		72.265625
5103		68.359375
5104		72.265625
5105		66.406250
5106		70.312500
5107		64.453125
5108		68.359375
5109		64.453125
5110		66.406250
5111		62.500000
5112		64.453125
5113		58.593750
5114		64.453125
5115		58.593750
5116		62.500000
5117		56.640625
5118		60.546875
5119		54.687500
5120		58.593750
5121		52.734375
5122		56.640625
5123		48.828125
5124		54.687500
5125		46.875000
5126		52.734375
5127		46.875000
5128		48.828125
5129		42.968750
5130		46.875000
5131		41.015625
5132		46.875000
5133		39.062500
5134		42.968750
5135		37.109375
5136		41.015625
5137		33.203125
5138		39.062500
5139		31.250000
5140		35.156250
5141		29.296875
5142		33.203125
5143		27.343750
5144		31.250000
5145		23.437500
5146		27.343750
5147		19.531250
5148		25.390625
5149		17.578125
5150		23.437500
5151		15.625000
5152		19.531250
5153		13.671875
5154		17.578125
5155		9.765625
5156		15.625000
5157		7.812500
5158		11.718750
5159		3.906250
5160		9.765625
5161		1.953125
5162		5.859375
5163		0.000000
5164		3.906250
5165		-1.953125
5166		1.953125
5167		-5.859375
5168		-1.953125
5169		-7.812500
5170		-3.906250
5171		-11.718750
5172		-5.859375
5173		-13.671875
5174		-7.812500
5175		-15.625000
5176		-9.765625
5177		-17.578125
5178		-11.718750
5179		-19.531250
5180		-15.625000
5181		-21.484375
5182		-17.578125
5183		-23.437500
5184		-19.531250
5185		-25.390625
5186		-21.484375
5187		-27.343750
5188		-23.437500
5189		-29.296875
5190		-25.390625
5191		-31.250000
5192		-27.343750
5193		-33.203125
5194		-29.296875
5195		-33.203125
5196		-31.250000
5197		-35.156250
5198		-31.250000
5199		-37.109375
5200		-33.203125
5201		-39.062500
5202		-35.156250
5203		-39.062500
5204		-35.156250
5205		-39.062500
5206		-37.109375
5207		-41.015625
5208		-37.109375
5209		-41.015625
5210		-37.109375
5211		-41.015625
5212		-39.062500
5213		-41.015625
5214		-39.062500
5215		-42.968750
5216		-39.062500
5217		-42.968750
5218		-39.062500
5219		-42.968750
5220		-39.062500
5221		-42.968750
5222		-39.062500
5223		-42.968750
5224		-39.062500
5225		-42.968750
5226		-39.062500
5227		-42.968750
5228		-37.109375
5229		-41.015625
5230		-39.062500
5231		-41.015625
5232		-37.109375
5233		-39.062500
5234		-35.156250
5235		-39.062500
5236		-35.156250
5237		-37.109375
5238		-35.156250
5239		-37.109375
5240		-33.203125
5241		-35.156250
5242		-31.250000
5243		-33.203125
5244		-29.296875
5245		-31.250000
5246		-29.296875
5247		-29.296875
5248		-27.343750
5249		-29.296875
5250		-25.390625
5251		-27.343750
5252		-23.437500
5253		-25.390625
5254		-21.484375
5255		-23.437500
5256		-19.531250
5257		-21.484375
5258		-17.578125
5259		-19.531250
5260		-15.625000
5261		-17.578125
5262		-11.718750
5263		-15.625000
5264		-9.765625
5265		-11.718750
5266		-7.812500
5267		-9.765625
5268		-5.859375
5269		-7.812500
5270		-3.906250
5271		-3.906250
5272		0.000000
5273		-1.953125
5274		1.953125
5275		0.000000
5276		3.906250
5277		1.953125
5278		5.859375
5279		5.859375
5280		9.765625
5281		7.812500
5282		11.718750
5283		9.765625
5284		15.625000
5285		13.671875
5286		17.578125
5287		15.625000
5288		19.531250
5289		19.531250
5290		23.437500
5291		21.484375
5292		25.390625
5293		23.437500
5294		27.343750
5295		25.390625
5296		31.250000
5297		29.296875
5298		33.203125
5299		31.250000
5300		35.156250
5301		33.203125
5302		39.062500
5303		37.109375
5304		41.015625
5305		39.062500
5306		42.968750
5307		41.015625
5308		44.921875
5309		42.968750
5310		46.875000
5311		46.875000
5312		50.781250
5313		48.828125
5314		52.734375
5315		50.781250
5316		54.687500
5317		52.734375
5318		56.640625
5319		54.687500
5320		58.593750
5321		56.640625
5322		60.546875
5323		56.640625
5324		62.500000
5325		58.593750
5326		64.453125
5327		62.500000
5328		64.453125
5329		64.453125
5330		66.406250
5331		64.453125
5332		68.359375
5333		66.406250
5334		70.312500
5335		68.359375
5336		70.312500
5337		68.359375
5338		72.265625
5339		70.312500
5340		72.265625
5341		70.312500
5342		74.218750
5343		72.265625
5344		74.218750
5345		72.265625
5346		76.171875
5347		74.218750
5348		76.171875
5349		74.218750
5350		78.125000
5351		74.218750
5352		78.125000
5353		74.218750
5354		78.125000
5355		74.218750
5356		78.125000
5357		76.171875
5358		78.125000
5359		76.171875
5360		80.078125
5361		76.171875
5362		78.125000
5363		76.171875
5364		78.125000
5365		76.171875
5366		78.125000
5367		74.218750
5368		78.125000
5369		74.218750
5370		78.125000
5371		74.218750
5372		76.171875
5373		74.218750
5374		76.171875
5375		74.218750
5376		76.171875
5377		72.265625
5378		76.171875
5379		70.312500
5380		74.218750
5381		70.312500
5382		74.218750
5383		68.359375
5384		72.265625
5385		68.359375
5386		70.312500
5387		66.406250
5388		70.312500
5389		64.453125
5390		68.359375
5391		62.500000
5392		66.406250
5393		60.546875
5394		66.406250
5395		60.546875
5396		62.500000
5397		58.593750
5398		60.546875
5399		54.687500
5400		60.546875
5401		54.687500
5402		58.593750
5403		52.734375
5404		56.640625
5405		50.781250
5406		54.687500
5407		46.875000
5408		52.734375
5409		44.921875
5410		50.781250
5411		42.968750
5412		46.875000
5413		41.015625
5414		44.921875
5415		39.062500
5416		42.968750
5417		35.156250
5418		41.015625
5419		33.203125
5420		37.109375
5421		31.250000
5422		35.156250
5423		29.296875
5424		33.203125
5425		25.390625
5426		31.250000
5427		23.437500
5428		27.343750
5429		21.484375
5430		25.390625
5431		17.578125
5432		21.484375
5433		13.671875
5434		19.531250
5435		11.718750
5436		17.578125
5437		9.765625
5438		13.671875
5439		7.812500
5440		11.718750
5441		3.906250
5442		9.765625
5443		1.953125
5444		5.859375
5445		0.000000
5446		3.906250
5447		-3.906250
5448		1.953125
5449		-5.859375
5450		-1.953125
5451		-7.812500
5452		-3.906250
5453		-9.765625
5454		-5.859375
5455		-13.671875
5456		-9.765625
5457		-15.625000
5458		-11.718750
5459		-17.578125
5460		-13.671875
5461		-19.531250
5462		-15.625000
5463		-21.484375
5464		-17.578125
5465		-23.437500
5466		-19.531250
5467		-25.390625
5468		-21.484375
5469		-27.343750
5470		-23.437500
5471		-29.296875
5472		-25.390625
5473		-31.250000
5474		-27.343750
5475		-33.203125
5476		-29.296875
5477		-33.203125
5478		-31.250000
5479		-37.109375
5480		-31.250000
5481		-37.109375
5482		-33.203125
5483		-37.109375
5484		-35.156250
5485		-39.062500
5486		-35.156250
5487		-41.015625
5488		-37.109375
5489		-41.015625
5490		-37.109375
5491		-41.015625
5492		-39.062500
5493		-42.968750
5494		-39.062500
5495		-42.968750
5496		-39.062500
5497		-42.968750
5498		-41.015625
5499		-42.968750
5500		-41.015625
5501		-42.968750
5502		-41.015625
5503		-42.968750
5504		-41.015625
5505		-42.968750
5506		-39.062500
5507		-42.968750
5508		-39.062500
5509		-41.015625
5510		-39.062500
5511		-41.015625
5512		-39.062500
5513		-41.015625
5514		-37.109375
5515		-39.062500
5516		-37.109375
5517		-39.062500
5518		-35.156250
5519		-37.109375
5520		-33.203125
5521		-37.109375
5522		-33.203125
5523		-35.156250
5524		-31.250000
5525		-33.203125
5526		-29.296875
5527		-33.203125
5528		-29.296875
5529		-31.250000
5530		-27.343750
5531		-29.296875
5532		-25.390625
5533		-27.343750
5534		-23.437500
5535		-27.343750
5536		-21.484375
5537		-23.437500
5538		-19.531250
5539		-21.484375
5540		-17.578125
5541		-19.531250
5542		-15.625000
5543		-17.578125
5544		-13.671875
5545		-15.625000
5546		-9.765625
5547		-13.671875
5548		-9.765625
5549		-9.765625
5550		-5.859375
5551		-7.812500
5552		-3.906250
5553		-5.859375
5554		-1.953125
5555		-1.953125
5556		1.953125
5557		0.000000
5558		3.906250
5559		1.953125
5560		5.859375
5561		3.906250
5562		9.765625
5563		7.812500
5564		11.718750
5565		9.765625
5566		13.671875
5567		13.671875
5568		17.578125
5569		15.625000
5570		21.484375
5571		17.578125
5572		21.484375
5573		19.531250
5574		25.390625
5575		23.437500
5576		27.343750
5577		25.390625
5578		31.250000
5579		27.343750
5580		33.203125
5581		31.250000
5582		35.156250
5583		33.203125
5584		37.109375
5585		35.156250
5586		41.015625
5587		39.062500
5588		42.968750
5589		41.015625
5590		44.921875
5591		42.968750
5592		46.875000
5593		44.921875
5594		50.781250
5595		48.828125
5596		52.734375
5597		50.781250
5598		54.687500
5599		52.734375
5600		56.640625
5601		54.687500
5602		58.593750
5603		56.640625
5604		60.546875
5605		58.593750
5606		62.500000
5607		60.546875
5608		62.500000
5609		62.500000
5610		66.406250
5611		62.500000
5612		66.406250
5613		64.453125
5614		68.359375
5615		66.406250
5616		70.312500
5617		68.359375
5618		70.312500
5619		68.359375
5620		72.265625
5621		70.312500
5622		74.218750
5623		70.312500
5624		74.218750
5625		72.265625
5626		76.171875
5627		72.265625
5628		76.171875
5629		74.218750
5630		76.171875
5631		74.218750
5632		78.125000
5633		74.218750
5634		78.125000
5635		76.171875
5636		78.125000
5637		76.171875
5638		80.078125
5639		76.171875
5640		78.125000
5641		76.171875
5642		80.078125
5643		76.171875
5644		80.078125
5645		76.171875
5646		78.125000
5647		74.218750
5648		80.078125
5649		76.171875
5650		78.125000
5651		74.218750
5652		78.125000
5653		74.218750
5654		78.125000
5655		74.218750
5656		78.125000
5657		74.218750
5658		76.171875
5659		72.265625
5660		76.171875
5661		72.265625
5662		76.171875
5663		70.312500
5664		74.218750
5665		70.312500
5666		72.265625
5667		68.359375
5668		72.265625
5669		66.406250
5670		70.312500
5671		64.453125
5672		70.312500
5673		64.453125
5674		68.359375
5675		62.500000
5676		66.406250
5677		60.546875
5678		64.453125
5679		58.593750
5680		62.500000
5681		56.640625
5682		60.546875
5683		54.687500
5684		58.593750
5685		52.734375
5686		56.640625
5687		50.781250
5688		54.687500
5689		48.828125
5690		52.734375
5691		46.875000
5692		50.781250
5693		42.968750
5694		48.828125
5695		42.968750
5696		46.875000
5697		39.062500
5698		42.968750
5699		37.109375
5700		41.015625
5701		35.156250
5702		39.062500
5703		31.250000
5704		37.109375
5705		29.296875
5706		33.203125
5707		27.343750
5708		31.250000
5709		23.437500
5710		29.296875
5711		21.484375
5712		25.390625
5713		19.531250
5714		23.437500
5715		15.625000
5716		21.484375
5717		13.671875
5718		17.578125
5719		11.718750
5720		15.625000
5721		7.812500
5722		11.718750
5723		5.859375
5724		9.765625
5725		1.953125
5726		7.812500
5727		0.000000
5728		3.906250
5729		-1.953125
5730		1.953125
5731		-3.906250
5732		0.000000
5733		-7.812500
5734		-3.906250
5735		-9.765625
5736		-5.859375
5737		-11.718750
5738		-7.812500
5739		-15.625000
5740		-9.765625
5741		-17.578125
5742		-11.718750
5743		-19.531250
5744		-15.625000
5745		-21.484375
5746		-15.625000
5747		-23.437500
5748		-17.578125
5749		-25.390625
5750		-21.484375
5751		-27.343750
5752		-23.437500
5753		-29.296875
5754		-25.390625
5755		-31.250000
5756		-25.390625
5757		-31.250000
5758		-27.343750
5759		-35.156250
5760		-29.296875
5761		-37.109375
5762		-31.250000
5763		-37.109375
5764		-33.203125
5765		-37.109375
5766		-33.203125
5767		-39.062500
5768		-35.156250
5769		-39.062500
5770		-37.109375
5771		-41.015625
5772		-35.156250
5773		-41.015625
5774		-37.109375
5775		-41.015625
5776		-37.109375
5777		-42.968750
5778		-39.062500
5779		-42.968750
5780		-39.062500
5781		-42.968750
5782		-39.062500
5783		-42.968750
5784		-41.015625
5785		-42.968750
5786		-39.062500
5787		-42.968750
5788		-39.062500
5789		-42.968750
5790		-39.062500
5791		-42.968750
5792		-37.109375
5793		-42.968750
5794		-37.109375
5795		-41.015625
5796		-37.109375
5797		-41.015625
5798		-35.156250
5799		-39.062500
5800		-35.156250
5801		-37.109375
5802		-35.156250
5803		-37.109375
5804		-31.250000
5805		-37.109375
5806		-31.250000
5807		-35.156250
5808		-29.296875
5809		-33.203125
5810		-27.343750
5811		-31.250000
5812		-25.390625
5813		-31.250000
5814		-23.437500
5815		-29.296875
5816		-23.437500
5817		-25.390625
5818		-21.484375
5819		-23.437500
5820		-19.531250
5821		-23.437500
5822		-17.578125
5823		-19.531250
5824		-15.625000
5825		-19.531250
5826		-11.718750
5827		-15.625000
5828		-11.718750
5829		-13.671875
5830		-7.812500
5831		-11.718750
5832		-5.859375
5833		-7.812500
5834		-3.906250
5835		-5.859375
5836		-1.953125
5837		-3.906250
5838		1.953125
5839		-1.953125
5840		3.906250
5841		1.953125
5842		7.812500
5843		3.906250
5844		9.765625
5845		5.859375
5846		11.718750
5847		7.812500
5848		15.625000
5849		11.718750
5850		15.625000
5851		15.625000
5852		19.531250
5853		17.578125
5854		21.484375
5855		19.531250
5856		25.390625
5857		23.437500
5858		27.343750
5859		25.390625
5860		29.296875
5861		27.343750
5862		31.250000
5863		31.250000
5864		35.156250
5865		33.203125
5866		37.109375
5867		35.156250
5868		39.062500
5869		37.109375
5870		42.968750
5871		39.062500
5872		44.921875
5873		42.968750
5874		46.875000
5875		44.921875
5876		48.828125
5877		46.875000
5878		50.781250
5879		50.781250
5880		52.734375
5881		50.781250
5882		54.687500
5883		54.687500
5884		56.640625
5885		56.640625
5886		58.593750
5887		58.593750
5888		60.546875
5889		60.546875
5890		62.500000
5891		60.546875
5892		64.453125
5893		62.500000
5894		66.406250
5895		64.453125
5896		68.359375
5897		66.406250
5898		68.359375
5899		66.406250
5900		70.312500
5901		68.359375
5902		72.265625
5903		70.312500
5904		72.265625
5905		70.312500
5906		74.218750
5907		72.265625
5908		74.218750
5909		72.265625
5910		76.171875
5911		74.218750
5912		76.171875
5913		74.218750
5914		76.171875
5915		74.218750
5916		76.171875
5917		76.171875
5918		78.125000
5919		76.171875
5920		78.125000
5921		76.171875
5922		78.125000
5923		76.171875
5924		78.125000
5925		76.171875
5926		78.125000
5927		76.171875
5928		78.125000
5929		76.171875
5930		78.125000
5931		76.171875
5932		78.125000
5933		76.171875
5934		78.125000
5935		74.218750
5936		76.171875
5937		74.218750
5938		76.171875
5939		74.218750
5940		76.171875
5941		72.265625
5942		76.171875
5943		72.265625
5944		74.218750
5945		70.312500
5946		72.265625
5947		68.359375
5948		72.265625
5949		68.359375
5950		70.312500
5951		66.406250
5952		70.312500
5953		66.406250
5954		68.359375
5955		62.500000
5956		70.312500
5957		60.546875
5958		68.359375
5959		58.593750
5960		66.406250
5961		58.593750
5962		62.500000
5963		56.640625
5964		60.546875
5965		54.687500
5966		58.593750
5967		52.734375
5968		56.640625
5969		50.781250
5970		54.687500
5971		46.875000
5972		54.687500
5973		42.968750
5974		52.734375
5975		41.015625
5976		50.781250
5977		41.015625
5978		46.875000
5979		39.062500
5980		42.968750
5981		37.109375
5982		41.015625
5983		35.156250
5984		39.062500
5985		31.250000
5986		37.109375
5987		29.296875
5988		33.203125
5989		25.390625
5990		33.203125
5991		21.484375
5992		31.250000
5993		19.531250
5994		29.296875
5995		19.531250
5996		23.437500
5997		15.625000
5998		19.531250
5999		13.671875
6000		17.578125
6001		11.718750
6002		15.625000
6003		7.812500
6004		11.718750
6005		1.953125
6006		11.718750
6007		0.000000
6008		9.765625
6009		-1.953125
6010		5.859375
6011		-3.906250
6012		1.953125
6013		-3.906250
6014		0.000000
6015		-7.812500
6016		-3.906250
6017		-9.765625
6018		-5.859375
6019		-11.718750
6020		-7.812500
6021		-17.578125
6022		-7.812500
6023		-19.531250
6024		-9.765625
6025		-21.484375
6026		-11.718750
6027		-23.437500
6028		-13.671875
6029		-23.437500
6030		-19.531250
6031		-25.390625
6032		-21.484375
6033		-27.343750
6034		-23.437500
6035		-29.296875
6036		-25.390625
6037		-31.250000
6038		-27.343750
6039		-35.156250
6040		-25.390625
6041		-37.109375
6042		-27.343750
6043		-39.062500
6044		-29.296875
6045		-35.156250
6046		-33.203125
6047		-37.109375
6048		-35.156250
6049		-39.062500
6050		-35.156250
6051		-39.062500
6052		-35.156250
6053		-39.062500
6054		-37.109375
6055		-44.921875
6056		-33.203125
6057		-44.921875
6058		-35.156250
6059		-44.921875
6060		-35.156250
6061		-44.921875
6062		-35.156250
6063		-42.968750
6064		-39.062500
6065		-42.968750
6066		-41.015625
6067		-42.968750
6068		-41.015625
6069		-42.968750
6070		-39.062500
6071		-42.968750
6072		-39.062500
6073		-44.921875
6074		-35.156250
6075		-44.921875
6076		-35.156250
6077		-42.968750
6078		-35.156250
6079		-39.062500
6080		-37.109375
6081		-39.062500
6082		-35.156250
6083		-37.109375
6084		-35.156250
6085		-37.109375
6086		-33.203125
6087		-35.156250
6088		-31.250000
6089		-37.109375
6090		-27.343750
6091		-35.156250
6092		-25.390625
6093		-33.203125
6094		-25.390625
6095		-29.296875
6096		-25.390625
6097		-27.343750
6098		-23.437500
6099		-25.390625
6100		-21.484375
6101		-23.437500
6102		-19.531250
6103		-21.484375
6104		-17.578125
6105		-19.531250
6106		-13.671875
6107		-21.484375
6108		-9.765625
6109		-17.578125
6110		-7.812500
6111		-15.625000
6112		-7.812500
6113		-9.765625
6114		-5.859375
6115		-7.812500
6116		-3.906250
6117		-5.859375
6118		-1.953125
6119		-3.906250
6120		0.000000
6121		0.000000
6122		3.906250
6123		0.000000
6124		9.765625
6125		1.953125
6126		11.718750
6127		3.906250
6128		13.671875
6129		9.765625
6130		13.671875
6131		11.718750
6132		15.625000
6133		15.625000
6134		19.531250
6135		17.578125
6136		21.484375
6137		19.531250
6138		25.390625
6139		23.437500
6140		27.343750
6141		25.390625
6142		31.250000
6143		27.343750
6144		35.156250
6145		31.250000
6146		35.156250
6147		33.203125
6148		37.109375
6149		35.156250
6150		41.015625
6151		39.062500
6152		41.015625
6153		41.015625
6154		44.921875
6155		42.968750
6156		46.875000
6157		44.921875
6158		48.828125
6159		46.875000
6160		52.734375
6161		48.828125
6162		54.687500
6163		50.781250
6164		54.687500
6165		54.687500
6166		56.640625
6167		56.640625
6168		58.593750
6169		58.593750
6170		60.546875
6171		58.593750
6172		62.500000
6173		60.546875
6174		64.453125
6175		62.500000
6176		68.359375
6177		62.500000
6178		70.312500
6179		66.406250
6180		68.359375
6181		68.359375
6182		70.312500
6183		68.359375
6184		72.265625
6185		70.312500
6186		72.265625
6187		72.265625
6188		74.218750
6189		72.265625
6190		74.218750
6191		72.265625
6192		76.171875
6193		74.218750
6194		76.171875
6195		74.218750
6196		76.171875
6197		76.171875
6198		78.125000
6199		76.171875
6200		78.125000
6201		76.171875
6202		78.125000
6203		76.171875
6204		78.125000
6205		76.171875
6206		80.078125
6207		76.171875
6208		78.125000
6209		76.171875
6210		78.125000
6211		76.171875
6212		78.125000
6213		76.171875
6214		78.125000
6215		76.171875
6216		78.125000
6217		74.218750
6218		78.125000
6219		74.218750
6220		76.171875
6221		74.218750
6222		76.171875
6223		72.265625
6224		76.171875
6225		72.265625
6226		76.171875
6227		70.312500
6228		74.218750
6229		70.312500
6230		72.265625
6231		68.359375
6232		72.265625
6233		68.359375
6234		70.312500
6235		66.406250
6236		68.359375
6237		64.453125
6238		68.359375
6239		62.500000
6240		66.406250
6241		60.546875
6242		64.453125
6243		58.593750
6244		62.500000
6245		56.640625
6246		60.546875
6247		54.687500
6248		58.593750
6249		54.687500
6250		58.593750
6251		52.734375
6252		54.687500
6253		48.828125
6254		52.734375
6255		46.875000
6256		50.781250
6257		44.921875
6258		48.828125
6259		42.968750
6260		46.875000
6261		41.015625
6262		42.968750
6263		37.109375
6264		42.968750
6265		35.156250
6266		41.015625
6267		33.203125
6268		37.109375
6269		29.296875
6270		33.203125
6271		27.343750
6272		31.250000
6273		23.437500
6274		29.296875
6275		21.484375
6276		27.343750
6277		19.531250
6278		25.390625
6279		17.578125
6280		21.484375
6281		13.671875
6282		19.531250
6283		11.718750
6284		15.625000
6285		9.765625
6286		13.671875
6287		5.859375
6288		9.765625
6289		3.906250
6290		7.812500
6291		0.000000
6292		5.859375
6293		-1.953125
6294		1.953125
6295		-3.906250
6296		0.000000
6297		-7.812500
6298		-3.906250
6299		-9.765625
6300		-3.906250
6301		-11.718750
6302		-7.812500
6303		-13.671875
6304		-9.765625
6305		-15.625000
6306		-11.718750
6307		-19.531250
6308		-13.671875
6309		-21.484375
6310		-15.625000
6311		-23.437500
6312		-19.531250
6313		-25.390625
6314		-21.484375
6315		-27.343750
6316		-23.437500
6317		-29.296875
6318		-25.390625
6319		-29.296875
6320		-27.343750
6321		-31.250000
6322		-29.296875
6323		-33.203125
6324		-31.250000
6325		-35.156250
6326		-31.250000
6327		-35.156250
6328		-33.203125
6329		-37.109375
6330		-35.156250
6331		-39.062500
6332		-35.156250
6333		-39.062500
6334		-35.156250
6335		-39.062500
6336		-37.109375
6337		-41.015625
6338		-37.109375
6339		-41.015625
6340		-39.062500
6341		-42.968750
6342		-39.062500
6343		-42.968750
6344		-39.062500
6345		-42.968750
6346		-41.015625
6347		-42.968750
6348		-39.062500
6349		-42.968750
6350		-39.062500
6351		-42.968750
6352		-41.015625
6353		-42.968750
6354		-39.062500
6355		-42.968750
6356		-39.062500
6357		-42.968750
6358		-37.109375
6359		-41.015625
6360		-37.109375
6361		-41.015625
6362		-37.109375
6363		-39.062500
6364		-37.109375
6365		-39.062500
6366		-35.156250
6367		-39.062500
6368		-35.156250
6369		-35.156250
6370		-33.203125
6371		-35.156250
6372		-31.250000
6373		-33.203125
6374		-29.296875
6375		-33.203125
6376		-27.343750
6377		-29.296875
6378		-27.343750
6379		-27.343750
6380		-25.390625
6381		-27.343750
6382		-21.484375
6383		-25.390625
6384		-21.484375
6385		-21.484375
6386		-19.531250
6387		-19.531250
6388		-15.625000
6389		-19.531250
6390		-15.625000
6391		-15.625000
6392		-11.718750
6393		-13.671875
6394		-9.765625
6395		-11.718750
6396		-7.812500
6397		-9.765625
6398		-3.906250
6399		-7.812500
6400		-1.953125
6401		-3.906250
6402		0.000000
6403		-1.953125
6404		1.953125
6405		0.000000
6406		3.906250
6407		3.906250
6408		7.812500
6409		5.859375
6410		9.765625
6411		7.812500
6412		13.671875
6413		11.718750
6414		15.625000
6415		13.671875
6416		19.531250
6417		15.625000
6418		21.484375
6419		19.531250
6420		23.437500
6421		21.484375
6422		27.343750
6423		23.437500
6424		29.296875
6425		27.343750
6426		31.250000
6427		29.296875
6428		33.203125
6429		33.203125
6430		37.109375
6431		35.156250
6432		39.062500
6433		37.109375
6434		41.015625
6435		39.062500
6436		42.968750
6437		42.968750
6438		46.875000
6439		44.921875
6440		48.828125
6441		46.875000
6442		50.781250
6443		48.828125
6444		52.734375
6445		50.781250
6446		54.687500
6447		52.734375
6448		56.640625
6449		54.687500
6450		58.593750
6451		56.640625
6452		60.546875
6453		58.593750
6454		62.500000
6455		60.546875
6456		64.453125
6457		62.500000
6458		66.406250
6459		64.453125
6460		66.406250
6461		66.406250
6462		68.359375
6463		66.406250
6464		70.312500
6465		68.359375
6466		70.312500
6467		70.312500
6468		72.265625
6469		70.312500
6470		74.218750
6471		72.265625
6472		74.218750
6473		72.265625
6474		74.218750
6475		74.218750
6476		76.171875
6477		74.218750
6478		76.171875
6479		74.218750
6480		78.125000
6481		74.218750
6482		78.125000
6483		76.171875
6484		78.125000
6485		76.171875
6486		78.125000
6487		76.171875
6488		78.125000
6489		76.171875
6490		78.125000
6491		76.171875
6492		78.125000
6493		76.171875
6494		78.125000
6495		76.171875
6496		78.125000
6497		76.171875
6498		78.125000
6499		74.218750
6500		76.171875
6501		74.218750
6502		76.171875
6503		74.218750
6504		76.171875
6505		72.265625
6506		76.171875
6507		72.265625
6508		74.218750
6509		70.312500
6510		74.218750
6511		70.312500
6512		72.265625
6513		68.359375
6514		72.265625
6515		68.359375
6516		70.312500
6517		66.406250
6518		68.359375
6519		64.453125
6520		68.359375
6521		62.500000
6522		66.406250
6523		60.546875
6524		64.453125
6525		60.546875
6526		62.500000
6527		58.593750
6528		60.546875
6529		56.640625
6530		60.546875
6531		54.687500
6532		56.640625
6533		52.734375
6534		54.687500
6535		48.828125
6536		52.734375
6537		46.875000
6538		52.734375
6539		44.921875
6540		48.828125
6541		42.968750
6542		46.875000
6543		41.015625
6544		44.921875
6545		39.062500
6546		41.015625
6547		35.156250
6548		39.062500
6549		33.203125
6550		37.109375
6551		31.250000
6552		35.156250
6553		27.343750
6554		31.250000
6555		25.390625
6556		29.296875
6557		21.484375
6558		27.343750
6559		19.531250
6560		23.437500
6561		17.578125
6562		21.484375
6563		13.671875
6564		19.531250
6565		11.718750
6566		15.625000
6567		9.765625
6568		13.671875
6569		5.859375
6570		9.765625
6571		3.906250
6572		7.812500
6573		1.953125
6574		5.859375
6575		-1.953125
6576		1.953125
6577		-3.906250
6578		1.953125
6579		-5.859375
6580		0.000000
6581		-9.765625
6582		-3.906250
6583		-11.718750
6584		-7.812500
6585		-13.671875
6586		-9.765625
6587		-15.625000
6588		-11.718750
6589		-17.578125
6590		-13.671875
6591		-19.531250
6592		-17.578125
6593		-23.437500
6594		-17.578125
6595		-25.390625
6596		-19.531250
6597		-25.390625
6598		-23.437500
6599		-27.343750
6600		-23.437500
6601		-29.296875
6602		-25.390625
6603		-31.250000
6604		-27.343750
6605		-33.203125
6606		-29.296875
6607		-35.156250
6608		-31.250000
6609		-37.109375
6610		-31.250000
6611		-39.062500
6612		-31.250000
6613		-39.062500
6614		-33.203125
6615		-39.062500
6616		-37.109375
6617		-39.062500
6618		-37.109375
6619		-41.015625
6620		-37.109375
6621		-41.015625
6622		-39.062500
6623		-41.015625
6624		-39.062500
6625		-41.015625
6626		-39.062500
6627		-44.921875
6628		-37.109375
6629		-42.968750
6630		-39.062500
6631		-42.968750
6632		-39.062500
6633		-42.968750
6634		-39.062500
6635		-42.968750
6636		-39.062500
6637		-41.015625
6638		-39.062500
6639		-41.015625
6640		-39.062500
6641		-41.015625
6642		-37.109375
6643		-41.015625
6644		-35.156250
6645		-41.015625
6646		-35.156250
6647		-39.062500
6648		-35.156250
6649		-37.109375
6650		-33.203125
6651		-35.156250
6652		-33.203125
6653		-33.203125
6654		-31.250000
6655		-33.203125
6656		-29.296875
6657		-31.250000
6658		-27.343750
6659		-29.296875
6660		-27.343750
6661		-29.296875
6662		-23.437500
6663		-27.343750
6664		-23.437500
6665		-23.437500
6666		-19.531250
6667		-23.437500
6668		-19.531250
6669		-19.531250
6670		-15.625000
6671		-17.578125
6672		-13.671875
6673		-15.625000
6674		-11.718750
6675		-13.671875
6676		-9.765625
6677		-11.718750
6678		-5.859375
6679		-9.765625
6680		-3.906250
6681		-5.859375
6682		-1.953125
6683		-3.906250
6684		0.000000
6685		-1.953125
6686		1.953125
6687		1.953125
6688		3.906250
6689		3.906250
6690		7.812500
6691		5.859375
6692		9.765625
6693		9.765625
6694		13.671875
6695		9.765625
6696		17.578125
6697		13.671875
6698		17.578125
6699		17.578125
6700		21.484375
6701		19.531250
6702		23.437500
6703		21.484375
6704		25.390625
6705		25.390625
6706		29.296875
6707		27.343750
6708		31.250000
6709		29.296875
6710		33.203125
6711		31.250000
6712		37.109375
6713		33.203125
6714		39.062500
6715		37.109375
6716		41.015625
6717		39.062500
6718		44.921875
6719		42.968750
6720		46.875000
6721		44.921875
6722		48.828125
6723		46.875000
6724		50.781250
6725		48.828125
6726		52.734375
6727		50.781250
6728		56.640625
6729		52.734375
6730		58.593750
6731		54.687500
6732		58.593750
6733		56.640625
6734		60.546875
6735		58.593750
6736		62.500000
6737		60.546875
6738		64.453125
6739		62.500000
6740		66.406250
6741		64.453125
6742		68.359375
6743		66.406250
6744		68.359375
6745		66.406250
6746		72.265625
6747		66.406250
6748		72.265625
6749		68.359375
6750		72.265625
6751		70.312500
6752		74.218750
6753		72.265625
6754		74.218750
6755		72.265625
6756		76.171875
6757		74.218750
6758		76.171875
6759		74.218750
6760		76.171875
6761		74.218750
6762		78.125000
6763		76.171875
6764		78.125000
6765		76.171875
6766		78.125000
6767		76.171875
6768		78.125000
6769		76.171875
6770		78.125000
6771		76.171875
6772		78.125000
6773		76.171875
6774		78.125000
6775		76.171875
6776		78.125000
6777		76.171875
6778		78.125000
6779		74.218750
6780		78.125000
6781		76.171875
6782		78.125000
6783		74.218750
6784		76.171875
6785		74.218750
6786		76.171875
6787		72.265625
6788		76.171875
6789		72.265625
6790		74.218750
6791		72.265625
6792		74.218750
6793		70.312500
6794		72.265625
6795		68.359375
6796		72.265625
6797		68.359375
6798		70.312500
6799		66.406250
6800		68.359375
6801		64.453125
6802		68.359375
6803		62.500000
6804		66.406250
6805		62.500000
6806		64.453125
6807		60.546875
6808		62.500000
6809		58.593750
6810		60.546875
6811		56.640625
6812		58.593750
6813		54.687500
6814		58.593750
6815		52.734375
6816		54.687500
6817		50.781250
6818		54.687500
6819		46.875000
6820		50.781250
6821		44.921875
6822		48.828125
6823		42.968750
6824		46.875000
6825		41.015625
6826		44.921875
6827		37.109375
6828		42.968750
6829		35.156250
6830		39.062500
6831		33.203125
6832		37.109375
6833		31.250000
6834		35.156250
6835		27.343750
6836		33.203125
6837		25.390625
6838		29.296875
6839		23.437500
6840		27.343750
6841		19.531250
6842		23.437500
6843		17.578125
6844		21.484375
6845		15.625000
6846		19.531250
6847		11.718750
6848		15.625000
6849		9.765625
6850		13.671875
6851		5.859375
6852		11.718750
6853		3.906250
6854		7.812500
6855		1.953125
6856		5.859375
6857		-1.953125
6858		1.953125
6859		-3.906250
6860		0.000000
6861		-5.859375
6862		-1.953125
6863		-7.812500
6864		-3.906250
6865		-11.718750
6866		-7.812500
6867		-13.671875
6868		-9.765625
6869		-15.625000
6870		-11.718750
6871		-17.578125
6872		-13.671875
6873		-19.531250
6874		-15.625000
6875		-21.484375
6876		-19.531250
6877		-23.437500
6878		-19.531250
6879		-25.390625
6880		-23.437500
6881		-29.296875
6882		-25.390625
6883		-29.296875
6884		-25.390625
6885		-31.250000
6886		-29.296875
6887		-33.203125
6888		-29.296875
6889		-35.156250
6890		-31.250000
6891		-35.156250
6892		-33.203125
6893		-37.109375
6894		-35.156250
6895		-37.109375
6896		-35.156250
6897		-39.062500
6898		-37.109375
6899		-41.015625
6900		-37.109375
6901		-41.015625
6902		-39.062500
6903		-41.015625
6904		-39.062500
6905		-42.968750
6906		-39.062500
6907		-42.968750
6908		-39.062500
6909		-42.968750
6910		-41.015625
6911		-42.968750
6912		-41.015625
6913		-42.968750
6914		-41.015625
6915		-42.968750
6916		-41.015625
6917		-42.968750
6918		-39.062500
6919		-41.015625
6920		-39.062500
6921		-41.015625
6922		-39.062500
6923		-41.015625
6924		-39.062500
6925		-41.015625
6926		-37.109375
6927		-39.062500
6928		-37.109375
6929		-39.062500
6930		-35.156250
6931		-37.109375
6932		-35.156250
6933		-37.109375
6934		-33.203125
6935		-35.156250
6936		-31.250000
6937		-33.203125
6938		-31.250000
6939		-33.203125
6940		-29.296875
6941		-31.250000
6942		-27.343750
6943		-29.296875
6944		-25.390625
6945		-27.343750
6946		-23.437500
6947		-25.390625
6948		-21.484375
6949		-23.437500
6950		-19.531250
6951		-21.484375
6952		-17.578125
6953		-19.531250
6954		-15.625000
6955		-17.578125
6956		-13.671875
6957		-13.671875
6958		-11.718750
6959		-11.718750
6960		-7.812500
6961		-9.765625
6962		-5.859375
6963		-7.812500
6964		-3.906250
6965		-5.859375
6966		0.000000
6967		-1.953125
6968		1.953125
6969		0.000000
6970		3.906250
6971		1.953125
6972		7.812500
6973		5.859375
6974		9.765625
6975		7.812500
6976		11.718750
6977		11.718750
6978		15.625000
6979		13.671875
6980		17.578125
6981		15.625000
6982		19.531250
6983		19.531250
6984		23.437500
6985		21.484375
6986		25.390625
6987		23.437500
6988		27.343750
6989		27.343750
6990		31.250000
6991		29.296875
6992		33.203125
6993		31.250000
6994		35.156250
6995		33.203125
6996		39.062500
6997		37.109375
6998		41.015625
6999		39.062500
7000		42.968750
7001		41.015625
7002		44.921875
7003		44.921875
7004		46.875000
7005		46.875000
7006		50.781250
7007		48.828125
7008		52.734375
7009		50.781250
7010		54.687500
7011		52.734375
7012		56.640625
7013		54.687500
7014		58.593750
7015		56.640625
7016		60.546875
7017		58.593750
7018		62.500000
7019		60.546875
7020		62.500000
7021		60.546875
7022		64.453125
7023		64.453125
7024		66.406250
7025		64.453125
7026		68.359375
7027		66.406250
7028		70.312500
7029		68.359375
7030		70.312500
7031		68.359375
7032		72.265625
7033		70.312500
7034		72.265625
7035		72.265625
7036		74.218750
7037		72.265625
7038		74.218750
7039		74.218750
7040		76.171875
7041		74.218750
7042		76.171875
7043		74.218750
7044		76.171875
7045		76.171875
7046		78.125000
7047		74.218750
7048		78.125000
7049		76.171875
7050		78.125000
7051		76.171875
7052		78.125000
7053		76.171875
7054		78.125000
7055		76.171875
7056		78.125000
7057		76.171875
7058		78.125000
7059		76.171875
7060		78.125000
7061		76.171875
7062		78.125000
7063		74.218750
7064		78.125000
7065		74.218750
7066		78.125000
7067		74.218750
7068		76.171875
7069		74.218750
7070		76.171875
7071		72.265625
7072		74.218750
7073		72.265625
7074		74.218750
7075		70.312500
7076		74.218750
7077		68.359375
7078		72.265625
7079		68.359375
7080		70.312500
7081		66.406250
7082		70.312500
7083		64.453125
7084		68.359375
7085		64.453125
7086		66.406250
7087		62.500000
7088		64.453125
7089		60.546875
7090		64.453125
7091		58.593750
7092		62.500000
7093		56.640625
7094		60.546875
7095		54.687500
7096		58.593750
7097		52.734375
7098		56.640625
7099		50.781250
7100		54.687500
7101		48.828125
7102		50.781250
7103		44.921875
7104		50.781250
7105		42.968750
7106		46.875000
7107		41.015625
7108		44.921875
7109		39.062500
7110		42.968750
7111		37.109375
7112		41.015625
7113		33.203125
7114		39.062500
7115		31.250000
7116		35.156250
7117		29.296875
7118		33.203125
7119		25.390625
7120		29.296875
7121		23.437500
7122		27.343750
7123		21.484375
7124		25.390625
7125		17.578125
7126		21.484375
7127		15.625000
7128		19.531250
7129		13.671875
7130		17.578125
7131		9.765625
7132		13.671875
7133		7.812500
7134		11.718750
7135		3.906250
7136		9.765625
7137		1.953125
7138		5.859375
7139		0.000000
7140		3.906250
7141		-1.953125
7142		1.953125
7143		-5.859375
7144		-1.953125
7145		-7.812500
7146		-3.906250
7147		-9.765625
7148		-5.859375
7149		-11.718750
7150		-7.812500
7151		-15.625000
7152		-11.718750
7153		-17.578125
7154		-13.671875
7155		-19.531250
7156		-15.625000
7157		-21.484375
7158		-17.578125
7159		-23.437500
7160		-19.531250
7161		-25.390625
7162		-21.484375
7163		-27.343750
7164		-23.437500
7165		-29.296875
7166		-25.390625
7167		-31.250000
7168		-27.343750
7169		-31.250000
7170		-29.296875
7171		-33.203125
7172		-31.250000
7173		-35.156250
7174		-31.250000
7175		-37.109375
7176		-33.203125
7177		-37.109375
7178		-35.156250
7179		-39.062500
7180		-35.156250
7181		-39.062500
7182		-37.109375
7183		-39.062500
7184		-37.109375
7185		-41.015625
7186		-39.062500
7187		-41.015625
7188		-39.062500
7189		-42.968750
7190		-39.062500
7191		-41.015625
7192		-39.062500
7193		-42.968750
7194		-39.062500
7195		-42.968750
7196		-39.062500
7197		-41.015625
7198		-39.062500
7199		-41.015625
7200		-39.062500
7201		-41.015625
7202		-39.062500
7203		-41.015625
7204		-39.062500
7205		-41.015625
7206		-37.109375
7207		-39.062500
7208		-37.109375
7209		-39.062500
7210		-37.109375
7211		-37.109375
7212		-35.156250
7213		-37.109375
7214		-33.203125
7215		-35.156250
7216		-33.203125
7217		-35.156250
7218		-31.250000
7219		-33.203125
7220		-29.296875
7221		-31.250000
7222		-27.343750
7223		-29.296875
7224		-27.343750
7225		-27.343750
7226		-25.390625
7227		-27.343750
7228		-23.437500
7229		-25.390625
7230		-21.484375
7231		-23.437500
7232		-19.531250
7233		-21.484375
7234		-17.578125
7235		-19.531250
7236		-13.671875
7237		-17.578125
7238		-11.718750
7239		-13.671875
7240		-9.765625
7241		-11.718750
7242		-7.812500
7243		-9.765625
7244		-5.859375
7245		-5.859375
7246		-3.906250
7247		-3.906250
7248		0.000000
7249		-1.953125
7250		1.953125
7251		0.000000
7252		3.906250
7253		3.906250
7254		7.812500
7255		5.859375
7256		9.765625
7257		7.812500
7258		11.718750
7259		9.765625
7260		15.625000
7261		13.671875
7262		17.578125
7263		15.625000
7264		19.531250
7265		19.531250
7266		23.437500
7267		21.484375
7268		25.390625
7269		23.437500
7270		27.343750
7271		27.343750
7272		31.250000
7273		29.296875
7274		33.203125
7275		31.250000
7276		35.156250
7277		35.156250
7278		39.062500
7279		37.109375
7280		41.015625
7281		39.062500
7282		42.968750
7283		41.015625
7284		44.921875
7285		44.921875
7286		46.875000
7287		46.875000
7288		50.781250
7289		48.828125
7290		52.734375
7291		50.781250
7292		54.687500
7293		52.734375
7294		56.640625
7295		54.687500
7296		58.593750
7297		56.640625
7298		60.546875
7299		58.593750
7300		62.500000
7301		60.546875
7302		64.453125
7303		62.500000
7304		64.453125
7305		64.453125
7306		66.406250
7307		64.453125
7308		68.359375
7309		66.406250
7310		70.312500
7311		68.359375
7312		70.312500
7313		68.359375
7314		72.265625
7315		70.312500
7316		74.218750
7317		72.265625
7318		74.218750
7319		72.265625
7320		74.218750
7321		74.218750
7322		76.171875
7323		74.218750
7324		76.171875
7325		74.218750
7326		78.125000
7327		76.171875
7328		78.125000
7329		76.171875
7330		78.125000
7331		76.171875
7332		78.125000
7333		76.171875
7334		78.125000
7335		76.171875
7336		78.125000
7337		76.171875
7338		78.125000
7339		76.171875
7340		80.078125
7341		76.171875
7342		78.125000
7343		76.171875
7344		78.125000
7345		76.171875
7346		78.125000
7347		74.218750
7348		78.125000
7349		74.218750
7350		76.171875
7351		74.218750
7352		76.171875
7353		72.265625
7354		76.171875
7355		72.265625
7356		74.218750
7357		70.312500
7358		74.218750
7359		68.359375
7360		72.265625
7361		68.359375
7362		72.265625
7363		66.406250
7364		70.312500
7365		66.406250
7366		68.359375
7367		64.453125
7368		66.406250
7369		62.500000
7370		64.453125
7371		60.546875
7372		64.453125
7373		58.593750
7374		62.500000
7375		56.640625
7376		60.546875
7377		54.687500
7378		58.593750
7379		52.734375
7380		56.640625
7381		50.781250
7382		54.687500
7383		48.828125
7384		52.734375
7385		46.875000
7386		50.781250
7387		42.968750
7388		46.875000
7389		41.015625
7390		44.921875
7391		39.062500
7392		42.968750
7393		37.109375
7394		41.015625
7395		33.203125
7396		37.109375
7397		31.250000
7398		35.156250
7399		29.296875
7400		33.203125
7401		25.390625
7402		31.250000
7403		23.437500
7404		27.343750
7405		21.484375
7406		25.390625
7407		19.531250
7408		23.437500
7409		15.625000
7410		19.531250
7411		13.671875
7412		17.578125
7413		9.765625
7414		13.671875
7415		7.812500
7416		11.718750
7417		5.859375
7418		9.765625
7419		1.953125
7420		5.859375
7421		0.000000
7422		3.906250
7423		-3.906250
7424		1.953125
7425		-5.859375
7426		-1.953125
7427		-7.812500
7428		-3.906250
7429		-9.765625
7430		-5.859375
7431		-13.671875
7432		-9.765625
7433		-15.625000
7434		-11.718750
7435		-17.578125
7436		-13.671875
7437		-19.531250
7438		-15.625000
7439		-21.484375
7440		-17.578125
7441		-23.437500
7442		-19.531250
7443		-25.390625
7444		-21.484375
7445		-27.343750
7446		-23.437500
7447		-29.296875
7448		-25.390625
7449		-31.250000
7450		-27.343750
7451		-33.203125
7452		-29.296875
7453		-33.203125
7454		-31.250000
7455		-35.156250
7456		-31.250000
7457		-37.109375
7458		-33.203125
7459		-37.109375
7460		-35.156250
7461		-39.062500
7462		-35.156250
7463		-39.062500
7464		-37.109375
7465		-41.015625
7466		-37.109375
7467		-41.015625
7468		-39.062500
7469		-41.015625
7470		-39.062500
7471		-41.015625
7472		-39.062500
7473		-42.968750
7474		-39.062500
7475		-42.968750
7476		-41.015625
7477		-42.968750
7478		-41.015625
7479		-42.968750
7480		-41.015625
7481		-42.968750
7482		-39.062500
7483		-42.968750
7484		-39.062500
7485		-42.968750
7486		-39.062500
7487		-41.015625
7488		-39.062500
7489		-41.015625
7490		-37.109375
7491		-39.062500
7492		-37.109375
7493		-39.062500
7494		-37.109375
7495		-37.109375
7496		-35.156250
7497		-37.109375
7498		-33.203125
7499		-35.156250
7500		-33.203125
7501		-33.203125
7502		-31.250000
7503		-33.203125
7504		-29.296875
7505		-31.250000
7506		-27.343750
7507		-29.296875
7508		-25.390625
7509		-27.343750
7510		-23.437500
7511		-25.390625
7512		-21.484375
7513		-23.437500
7514		-19.531250
7515		-21.484375
7516		-17.578125
7517		-19.531250
7518		-15.625000
7519		-17.578125
7520		-13.671875
7521		-15.625000
7522		-11.718750
7523		-13.671875
7524		-7.812500
7525		-9.765625
7526		-5.859375
7527		-7.812500
7528		-3.906250
7529		-5.859375
7530		-1.953125
7531		-1.953125
7532		1.953125
7533		0.000000
7534		3.906250
7535		1.953125
7536		5.859375
7537		3.906250
7538		9.765625
7539		7.812500
7540		11.718750
7541		9.765625
7542		13.671875
7543		13.671875
7544		17.578125
7545		15.625000
7546		19.531250
7547		17.578125
7548		21.484375
7549		21.484375
7550		25.390625
7551		23.437500
7552		27.343750
7553		25.390625
7554		29.296875
7555		27.343750
7556		33.203125
7557		31.250000
7558		35.156250
7559		33.203125
7560		37.109375
7561		37.109375
7562		41.015625
7563		39.062500
7564		42.968750
7565		41.015625
7566		44.921875
7567		42.968750
7568		46.875000
7569		44.921875
7570		48.828125
7571		48.828125
7572		50.781250
7573		48.828125
7574		54.687500
7575		52.734375
7576		56.640625
7577		54.687500
7578		56.640625
7579		56.640625
7580		58.593750
7581		58.593750
7582		60.546875
7583		60.546875
7584		62.500000
7585		62.500000
7586		64.453125
7587		64.453125
7588		66.406250
7589		64.453125
7590		68.359375
7591		66.406250
7592		70.312500
7593		68.359375
7594		70.312500
7595		68.359375
7596		72.265625
7597		70.312500
7598		72.265625
7599		72.265625
7600		74.218750
7601		72.265625
7602		76.171875
7603		74.218750
7604		76.171875
7605		72.265625
7606		78.125000
7607		74.218750
7608		78.125000
7609		74.218750
7610		78.125000
7611		74.218750
7612		80.078125
7613		76.171875
7614		78.125000
7615		76.171875
7616		78.125000
7617		76.171875
7618		78.125000
7619		76.171875
7620		78.125000
7621		76.171875
7622		80.078125
7623		74.218750
7624		80.078125
7625		76.171875
7626		78.125000
7627		74.218750
7628		78.125000
7629		74.218750
7630		78.125000
7631		72.265625
7632		80.078125
7633		74.218750
7634		76.171875
7635		72.265625
7636		76.171875
7637		72.265625
7638		76.171875
7639		70.312500
7640		76.171875
7641		68.359375
7642		72.265625
7643		68.359375
7644		72.265625
7645		68.359375
7646		70.312500
7647		64.453125
7648		70.312500
7649		64.453125
7650		68.359375
7651		62.500000
7652		66.406250
7653		60.546875
7654		64.453125
7655		58.593750
7656		62.500000
7657		56.640625
7658		62.500000
7659		54.687500
7660		60.546875
7661		52.734375
7662		58.593750
7663		50.781250
7664		54.687500
7665		48.828125
7666		54.687500
7667		46.875000
7668		50.781250
7669		42.968750
7670		48.828125
7671		41.015625
7672		46.875000
7673		39.062500
7674		44.921875
7675		37.109375
7676		41.015625
7677		33.203125
7678		39.062500
7679		33.203125
7680		37.109375
7681		29.296875
7682		35.156250
7683		27.343750
7684		31.250000
7685		25.390625
7686		29.296875
7687		21.484375
7688		27.343750
7689		17.578125
7690		25.390625
7691		15.625000
7692		21.484375
7693		13.671875
7694		19.531250
7695		9.765625
7696		17.578125
7697		3.906250
7698		13.671875
7699		5.859375
7700		9.765625
7701		1.953125
7702		7.812500
7703		0.000000
7704		3.906250
7705		-1.953125
7706		3.906250
7707		-5.859375
7708		0.000000
7709		-7.812500
7710		-1.953125
7711		-11.718750
7712		-3.906250
7713		-11.718750
7714		-3.906250
7715		-15.625000
7716		-7.812500
7717		-15.625000
7718		-11.718750
7719		-19.531250
7720		-15.625000
7721		-23.437500
7722		-15.625000
7723		-23.437500
7724		-15.625000
7725		-25.390625
7726		-21.484375
7727		-27.343750
7728		-23.437500
7729		-31.250000
7730		-21.484375
7731		-33.203125
7732		-25.390625
7733		-31.250000
7734		-29.296875
7735		-33.203125
7736		-29.296875
7737		-35.156250
7738		-31.250000
7739		-39.062500
7740		-29.296875
7741		-39.062500
7742		-33.203125
7743		-37.109375
7744		-35.156250
7745		-42.968750
7746		-33.203125
7747		-41.015625
7748		-35.156250
7749		-42.968750
7750		-33.203125
7751		-41.015625
7752		-39.062500
7753		-42.968750
7754		-37.109375
7755		-44.921875
7756		-37.109375
7757		-42.968750
7758		-39.062500
7759		-42.968750
7760		-41.015625
7761		-44.921875
7762		-35.156250
7763		-44.921875
7764		-35.156250
7765		-44.921875
7766		-37.109375
7767		-41.015625
7768		-39.062500
7769		-41.015625
7770		-39.062500
7771		-41.015625
7772		-37.109375
7773		-42.968750
7774		-33.203125
7775		-39.062500
7776		-35.156250
7777		-37.109375
7778		-35.156250
7779		-41.015625
7780		-29.296875
7781		-39.062500
7782		-29.296875
7783		-33.203125
7784		-31.250000
7785		-33.203125
7786		-29.296875
7787		-31.250000
7788		-27.343750
7789		-31.250000
7790		-23.437500
7791		-29.296875
7792		-23.437500
7793		-25.390625
7794		-21.484375
7795		-25.390625
7796		-17.578125
7797		-25.390625
7798		-15.625000
7799		-21.484375
7800		-13.671875
7801		-17.578125
7802		-13.671875
7803		-15.625000
7804		-9.765625
7805		-13.671875
7806		-5.859375
7807		-13.671875
7808		-5.859375
7809		-7.812500
7810		-3.906250
7811		-5.859375
7812		-1.953125
7813		-5.859375
7814		3.906250
7815		-1.953125
7816		3.906250
7817		1.953125
7818		5.859375
7819		3.906250
7820		9.765625
7821		7.812500
7822		11.718750
7823		7.812500
7824		15.625000
7825		9.765625
7826		17.578125
7827		15.625000
7828		19.531250
7829		15.625000
7830		25.390625
7831		17.578125
7832		25.390625
7833		19.531250
7834		27.343750
7835		25.390625
7836		29.296875
7837		29.296875
7838		33.203125
7839		29.296875
7840		39.062500
7841		31.250000
7842		39.062500
7843		35.156250
7844		41.015625
7845		37.109375
7846		44.921875
7847		37.109375
7848		46.875000
7849		41.015625
7850		48.828125
7851		44.921875
7852		48.828125
7853		46.875000
7854		50.781250
7855		48.828125
7856		54.687500
7857		48.828125
7858		56.640625
7859		52.734375
7860		58.593750
7861		56.640625
7862		60.546875
7863		54.687500
7864		64.453125
7865		58.593750
7866		66.406250
7867		60.546875
7868		64.453125
7869		62.500000
7870		66.406250
7871		64.453125
7872		68.359375
7873		64.453125
7874		72.265625
7875		66.406250
7876		70.312500
7877		68.359375
7878		72.265625
7879		68.359375
7880		74.218750
7881		70.312500
7882		74.218750
7883		70.312500
7884		76.171875
7885		72.265625
7886		76.171875
7887		74.218750
7888		76.171875
7889		74.218750
7890		76.171875
7891		70.312500
7892		80.078125
7893		74.218750
7894		78.125000
7895		76.171875
7896		78.125000
7897		74.218750
7898		80.078125
7899		76.171875
7900		78.125000
7901		76.171875
7902		78.125000
7903		76.171875
7904		78.125000
7905		76.171875
7906		78.125000
7907		76.171875
7908		78.125000
7909		74.218750
7910		80.078125
7911		74.218750
7912		78.125000
7913		72.265625
7914		78.125000
7915		74.218750
7916		76.171875
7917		72.265625
7918		74.218750
7919		72.265625
7920		74.218750
7921		70.312500
7922		74.218750
7923		70.312500
7924		72.265625
7925		68.359375
7926		72.265625
7927		66.406250
7928		70.312500
7929		66.406250
7930		68.359375
7931		64.453125
7932		66.406250
7933		62.500000
7934		66.406250
7935		60.546875
7936		64.453125
7937		58.593750
7938		62.500000
7939		56.640625
7940		60.546875
7941		54.687500
7942		58.593750
7943		52.734375
7944		56.640625
7945		50.781250
7946		54.687500
7947		48.828125
7948		52.734375
7949		46.875000
7950		50.781250
7951		44.921875
7952		48.828125
7953		42.968750
7954		46.875000
7955		39.062500
7956		42.968750
7957		35.156250
7958		42.968750
7959		33.203125
7960		41.015625
7961		31.250000
7962		37.109375
7963		27.343750
7964		35.156250
7965		25.390625
7966		33.203125
7967		25.390625
7968		29.296875
7969		21.484375
7970		25.390625
7971		19.531250
7972		23.437500
7973		15.625000
7974		21.484375
7975		11.718750
7976		19.531250
7977		9.765625
7978		15.625000
7979		7.812500
7980		13.671875
7981		5.859375
7982		11.718750
7983		1.953125
7984		7.812500
7985		0.000000
7986		3.906250
7987		-1.953125
7988		1.953125
7989		-5.859375
7990		0.000000
7991		-7.812500
7992		-1.953125
7993		-9.765625
7994		-3.906250
7995		-13.671875
7996		-5.859375
7997		-15.625000
7998		-9.765625
7999		-17.578125
8000		-11.718750
8001		-19.531250
8002		-15.625000
8003		-21.484375
8004		-17.578125
8005		-23.437500
8006		-19.531250
8007		-27.343750
8008		-19.531250
8009		-27.343750
8010		-21.484375
8011		-31.250000
8012		-23.437500
8013		-31.250000
8014		-27.343750
8015		-33.203125
8016		-27.343750
8017		-33.203125
8018		-29.296875
8019		-35.156250
8020		-31.250000
8021		-37.109375
8022		-33.203125
8023		-37.109375
8024		-33.203125
8025		-39.062500
8026		-35.156250
8027		-41.015625
8028		-35.156250
8029		-42.968750
8030		-35.156250
8031		-42.968750
8032		-37.109375
8033		-42.968750
8034		-37.109375
8035		-42.968750
8036		-39.062500
8037		-42.968750
8038		-39.062500
8039		-42.968750
8040		-39.062500
8041		-42.968750
8042		-39.062500
8043		-42.968750
8044		-39.062500
8045		-44.921875
8046		-39.062500
8047		-42.968750
8048		-39.062500
8049		-42.968750
8050		-39.062500
8051		-42.968750
8052		-39.062500
8053		-41.015625
8054		-39.062500
8055		-39.062500
8056		-35.156250
8057		-39.062500
8058		-35.156250
8059		-39.062500
8060		-35.156250
8061		-39.062500
8062		-31.250000
8063		-37.109375
8064		-31.250000
8065		-35.156250
8066		-31.250000
8067		-33.203125
8068		-29.296875
8069		-31.250000
8070		-27.343750
8071		-29.296875
8072		-25.390625
8073		-27.343750
8074		-25.390625
8075		-27.343750
8076		-21.484375
8077		-23.437500
8078		-19.531250
8079		-23.437500
8080		-17.578125
8081		-21.484375
8082		-15.625000
8083		-17.578125
8084		-13.671875
8085		-15.625000
8086		-11.718750
8087		-13.671875
8088		-9.765625
8089		-11.718750
8090		-5.859375
8091		-9.765625
8092		-3.906250
8093		-5.859375
8094		-1.953125
8095		-3.906250
8096		1.953125
8097		-1.953125
8098		3.906250
8099		1.953125
8100		5.859375
8101		3.906250
8102		7.812500
8103		7.812500
8104		9.765625
8105		9.765625
8106		13.671875
8107		11.718750
8108		17.578125
8109		15.625000
8110		19.531250
8111		17.578125
8112		21.484375
8113		17.578125
8114		25.390625
8115		23.437500
8116		27.343750
8117		25.390625
8118		29.296875
8119		27.343750
8120		31.250000
8121		31.250000
8122		35.156250
8123		33.203125
8124		37.109375
8125		35.156250
8126		39.062500
8127		37.109375
8128		42.968750
8129		39.062500
8130		44.921875
8131		42.968750
8132		46.875000
8133		44.921875
8134		48.828125
8135		46.875000
8136		50.781250
8137		48.828125
8138		52.734375
8139		50.781250
8140		54.687500
8141		52.734375
8142		56.640625
8143		54.687500
8144		58.593750
8145		56.640625
8146		62.500000
8147		58.593750
8148		62.500000
8149		60.546875
8150		64.453125
8151		62.500000
8152		66.406250
8153		64.453125
8154		68.359375
8155		66.406250
8156		68.359375
8157		66.406250
8158		70.312500
8159		68.359375
8160		72.265625
8161		70.312500
8162		72.265625
8163		70.312500
8164		76.171875
8165		72.265625
8166		74.218750
8167		72.265625
8168		76.171875
8169		74.218750
8170		76.171875
8171		74.218750
8172		78.125000
8173		74.218750
8174		78.125000
8175		76.171875
8176		78.125000
8177		76.171875
8178		78.125000
8179		76.171875
8180		80.078125
8181		76.171875
8182		80.078125
8183		76.171875
8184		78.125000
8185		76.171875
8186		80.078125
8187		76.171875
8188		78.125000
8189		76.171875
8190		78.125000
8191		74.218750
8192		78.125000
8193		74.218750
8194		78.125000
8195		74.218750
8196		78.125000
8197		72.265625
8198		78.125000
8199		72.265625
8200		76.171875
8201		72.265625
8202		76.171875
8203		70.312500
8204		74.218750
8205		70.312500
8206		72.265625
8207		68.359375
8208		72.265625
8209		66.406250
8210		70.312500
8211		64.453125
8212		68.359375
8213		64.453125
8214		68.359375
8215		62.500000
8216		66.406250
8217		60.546875
8218		64.453125
8219		58.593750
8220		62.500000
8221		56.640625
8222		62.500000
8223		56.640625
8224		58.593750
8225		52.734375
8226		58.593750
8227		50.781250
8228		54.687500
8229		48.828125
8230		52.734375
8231		46.875000
8232		50.781250
8233		44.921875
8234		48.828125
8235		41.015625
8236		46.875000
8237		41.015625
8238		44.921875
8239		37.109375
8240		41.015625
8241		35.156250
8242		39.062500
8243		33.203125
8244		37.109375
8245		29.296875
8246		33.203125
8247		27.343750
8248		31.250000
8249		23.437500
8250		29.296875
8251		21.484375
8252		27.343750
8253		19.531250
8254		23.437500
8255		17.578125
8256		21.484375
8257		13.671875
8258		17.578125
8259		11.718750
8260		15.625000
8261		7.812500
8262		13.671875
8263		5.859375
8264		9.765625
8265		1.953125
8266		7.812500
8267		0.000000
8268		5.859375
8269		-1.953125
8270		1.953125
8271		-3.906250
8272		0.000000
8273		-5.859375
8274		-3.906250
8275		-9.765625
8276		-5.859375
8277		-11.718750
8278		-7.812500
8279		-13.671875
8280		-9.765625
8281		-15.625000
8282		-11.718750
8283		-19.531250
8284		-13.671875
8285		-21.484375
8286		-17.578125
8287		-23.437500
8288		-17.578125
8289		-25.390625
8290		-21.484375
8291		-27.343750
8292		-23.437500
8293		-29.296875
8294		-25.390625
8295		-31.250000
8296		-27.343750
8297		-33.203125
8298		-27.343750
8299		-33.203125
8300		-29.296875
8301		-35.156250
8302		-31.250000
8303		-37.109375
8304		-33.203125
8305		-37.109375
8306		-35.156250
8307		-39.062500
8308		-35.156250
8309		-41.015625
8310		-35.156250
8311		-41.015625
8312		-37.109375
8313		-41.015625
8314		-37.109375
8315		-41.015625
8316		-39.062500
8317		-42.968750
8318		-39.062500
8319		-42.968750
8320		-39.062500
8321		-42.968750
8322		-39.062500
8323		-42.968750
8324		-41.015625
8325		-42.968750
8326		-39.062500
8327		-42.968750
8328		-41.015625
8329		-42.968750
8330		-39.062500
8331		-42.968750
8332		-39.062500
8333		-41.015625
8334		-39.062500
8335		-41.015625
8336		-37.109375
8337		-41.015625
8338		-37.109375
8339		-39.062500
8340		-37.109375
8341		-39.062500
8342		-35.156250
8343		-37.109375
8344		-33.203125
8345		-35.156250
8346		-33.203125
8347		-35.156250
8348		-31.250000
8349		-33.203125
8350		-29.296875
8351		-31.250000
8352		-27.343750
8353		-31.250000
8354		-25.390625
8355		-29.296875
8356		-25.390625
8357		-27.343750
8358		-23.437500
8359		-25.390625
8360		-21.484375
8361		-23.437500
8362		-19.531250
8363		-21.484375
8364		-15.625000
8365		-17.578125
8366		-13.671875
8367		-17.578125
8368		-11.718750
8369		-13.671875
8370		-9.765625
8371		-11.718750
8372		-7.812500
8373		-9.765625
8374		-5.859375
8375		-7.812500
8376		-1.953125
8377		-3.906250
8378		0.000000
8379		-1.953125
8380		1.953125
8381		0.000000
8382		5.859375
8383		3.906250
8384		7.812500
8385		5.859375
8386		11.718750
8387		7.812500
8388		13.671875
8389		11.718750
8390		15.625000
8391		13.671875
8392		17.578125
8393		15.625000
8394		21.484375
8395		19.531250
8396		23.437500
8397		21.484375
8398		25.390625
8399		25.390625
8400		29.296875
8401		27.343750
8402		31.250000
8403		29.296875
8404		33.203125
8405		31.250000
8406		37.109375
8407		35.156250
8408		39.062500
8409		37.109375
8410		41.015625
8411		39.062500
8412		42.968750
8413		41.015625
8414		46.875000
8415		42.968750
8416		48.828125
8417		46.875000
8418		50.781250
8419		48.828125
8420		52.734375
8421		50.781250
8422		54.687500
8423		52.734375
8424		56.640625
8425		54.687500
8426		58.593750
8427		56.640625
8428		60.546875
8429		58.593750
8430		62.500000
8431		60.546875
8432		64.453125
8433		62.500000
8434		64.453125
8435		62.500000
8436		68.359375
8437		64.453125
8438		68.359375
8439		66.406250
8440		70.312500
8441		68.359375
8442		70.312500
8443		68.359375
8444		72.265625
8445		70.312500
8446		74.218750
8447		70.312500
8448		74.218750
8449		72.265625
8450		74.218750
8451		72.265625
8452		76.171875
8453		74.218750
8454		76.171875
8455		74.218750
8456		78.125000
8457		74.218750
8458		78.125000
8459		74.218750
8460		78.125000
8461		76.171875
8462		78.125000
8463		76.171875
8464		78.125000
8465		76.171875
8466		78.125000
8467		76.171875
8468		78.125000
8469		74.218750
8470		78.125000
8471		72.265625
8472		80.078125
8473		74.218750
8474		78.125000
8475		74.218750
8476		78.125000
8477		74.218750
8478		78.125000
8479		72.265625
8480		76.171875
8481		72.265625
8482		76.171875
8483		70.312500
8484		74.218750
8485		70.312500
8486		74.218750
8487		70.312500
8488		72.265625
8489		68.359375
8490		72.265625
8491		66.406250
8492		70.312500
8493		64.453125
8494		68.359375
8495		64.453125
8496		68.359375
8497		62.500000
8498		66.406250
8499		60.546875
8500		64.453125
8501		58.593750
8502		62.500000
8503		56.640625
8504		60.546875
8505		54.687500
8506		58.593750
8507		52.734375
8508		56.640625
8509		50.781250
8510		54.687500
8511		48.828125
8512		52.734375
8513		46.875000
8514		50.781250
8515		44.921875
8516		48.828125
8517		42.968750
8518		46.875000
8519		41.015625
8520		44.921875
8521		37.109375
8522		41.015625
8523		35.156250
8524		39.062500
8525		33.203125
8526		37.109375
8527		29.296875
8528		35.156250
8529		27.343750
8530		31.250000
8531		25.390625
8532		29.296875
8533		21.484375
8534		25.390625
8535		19.531250
8536		23.437500
8537		17.578125
8538		21.484375
8539		13.671875
8540		19.531250
8541		11.718750
8542		15.625000
8543		7.812500
8544		13.671875
8545		5.859375
8546		9.765625
8547		3.906250
8548		7.812500
8549		1.953125
8550		5.859375
8551		-1.953125
8552		1.953125
8553		-3.906250
8554		0.000000
8555		-7.812500
8556		-1.953125
8557		-9.765625
8558		-5.859375
8559		-11.718750
8560		-7.812500
8561		-13.671875
8562		-9.765625
8563		-15.625000
8564		-11.718750
8565		-19.531250
8566		-15.625000
8567		-21.484375
8568		-17.578125
8569		-23.437500
8570		-19.531250
8571		-25.390625
8572		-21.484375
8573		-27.343750
8574		-21.484375
8575		-29.296875
8576		-25.390625
8577		-31.250000
8578		-27.343750
8579		-33.203125
8580		-29.296875
8581		-33.203125
8582		-29.296875
8583		-35.156250
8584		-31.250000
8585		-37.109375
8586		-33.203125
8587		-37.109375
8588		-33.203125
8589		-39.062500
8590		-35.156250
8591		-39.062500
8592		-37.109375
8593		-41.015625
8594		-37.109375
8595		-41.015625
8596		-37.109375
8597		-42.968750
8598		-39.062500
8599		-42.968750
8600		-39.062500
8601		-42.968750
8602		-39.062500
8603		-42.968750
8604		-39.062500
8605		-44.921875
8606		-39.062500
8607		-42.968750
8608		-41.015625
8609		-42.968750
8610		-41.015625
8611		-42.968750
8612		-39.062500
8613		-42.968750
8614		-39.062500
8615		-42.968750
8616		-39.062500
8617		-41.015625
8618		-39.062500
8619		-41.015625
8620		-37.109375
8621		-39.062500
8622		-35.156250
8623		-39.062500
8624		-35.156250
8625		-37.109375
8626		-35.156250
8627		-37.109375
8628		-33.203125
8629		-35.156250
8630		-31.250000
8631		-33.203125
8632		-29.296875
8633		-31.250000
8634		-29.296875
8635		-31.250000
8636		-27.343750
8637		-29.296875
8638		-25.390625
8639		-27.343750
8640		-23.437500
8641		-25.390625
8642		-21.484375
8643		-23.437500
8644		-19.531250
8645		-21.484375
8646		-17.578125
8647		-19.531250
8648		-13.671875
8649		-15.625000
8650		-11.718750
8651		-13.671875
8652		-9.765625
8653		-11.718750
8654		-7.812500
8655		-9.765625
8656		-5.859375
8657		-7.812500
8658		-1.953125
8659		-3.906250
8660		0.000000
8661		-1.953125
8662		1.953125
8663		0.000000
8664		5.859375
8665		3.906250
8666		7.812500
8667		5.859375
8668		9.765625
8669		7.812500
8670		13.671875
8671		9.765625
8672		15.625000
8673		13.671875
8674		17.578125
8675		17.578125
8676		19.531250
8677		19.531250
8678		23.437500
8679		21.484375
8680		25.390625
8681		23.437500
8682		29.296875
8683		27.343750
8684		31.250000
8685		29.296875
8686		33.203125
8687		31.250000
8688		37.109375
8689		35.156250
8690		39.062500
8691		37.109375
8692		41.015625
8693		39.062500
8694		42.968750
8695		41.015625
8696		44.921875
8697		42.968750
8698		48.828125
8699		46.875000
8700		50.781250
8701		48.828125
8702		52.734375
8703		50.781250
8704		54.687500
8705		52.734375
8706		56.640625
8707		54.687500
8708		58.593750
8709		56.640625
8710		60.546875
8711		58.593750
8712		62.500000
8713		60.546875
8714		64.453125
8715		62.500000
8716		66.406250
8717		64.453125
8718		66.406250
8719		64.453125
8720		68.359375
8721		66.406250
8722		70.312500
8723		68.359375
8724		72.265625
8725		70.312500
8726		72.265625
8727		70.312500
8728		72.265625
8729		70.312500
8730		74.218750
8731		72.265625
8732		76.171875
8733		72.265625
8734		76.171875
8735		72.265625
8736		76.171875
8737		74.218750
8738		78.125000
8739		74.218750
8740		78.125000
8741		74.218750
8742		78.125000
8743		76.171875
8744		78.125000
8745		76.171875
8746		80.078125
8747		76.171875
8748		78.125000
8749		76.171875
8750		78.125000
8751		76.171875
8752		78.125000
8753		76.171875
8754		78.125000
8755		74.218750
8756		78.125000
8757		74.218750
8758		78.125000
8759		74.218750
8760		76.171875
8761		74.218750
8762		76.171875
8763		72.265625
8764		76.171875
8765		72.265625
8766		76.171875
8767		70.312500
8768		74.218750
8769		70.312500
8770		72.265625
8771		68.359375
8772		72.265625
8773		66.406250
8774		70.312500
8775		66.406250
8776		68.359375
8777		64.453125
8778		68.359375
8779		62.500000
8780		66.406250
8781		60.546875
8782		64.453125
8783		58.593750
8784		62.500000
8785		58.593750
8786		60.546875
8787		54.687500
8788		58.593750
8789		54.687500
8790		56.640625
8791		50.781250
8792		56.640625
8793		48.828125
8794		52.734375
8795		46.875000
8796		50.781250
8797		44.921875
8798		48.828125
8799		42.968750
8800		46.875000
8801		41.015625
8802		44.921875
8803		39.062500
8804		41.015625
8805		35.156250
8806		39.062500
8807		33.203125
8808		37.109375
8809		31.250000
8810		35.156250
8811		27.343750
8812		31.250000
8813		25.390625
8814		29.296875
8815		23.437500
8816		27.343750
8817		19.531250
8818		23.437500
8819		17.578125
8820		21.484375
8821		15.625000
8822		19.531250
8823		11.718750
8824		15.625000
8825		9.765625
8826		13.671875
8827		5.859375
8828		11.718750
8829		3.906250
8830		7.812500
8831		0.000000
8832		5.859375
8833		-1.953125
8834		3.906250
8835		-3.906250
8836		0.000000
8837		-7.812500
8838		-1.953125
8839		-9.765625
8840		-3.906250
8841		-11.718750
8842		-7.812500
8843		-13.671875
8844		-9.765625
8845		-15.625000
8846		-11.718750
8847		-17.578125
8848		-13.671875
8849		-21.484375
8850		-15.625000
8851		-23.437500
8852		-19.531250
8853		-25.390625
8854		-21.484375
8855		-27.343750
8856		-21.484375
8857		-29.296875
8858		-25.390625
8859		-29.296875
8860		-27.343750
8861		-31.250000
8862		-29.296875
8863		-33.203125
8864		-29.296875
8865		-35.156250
8866		-31.250000
8867		-37.109375
8868		-33.203125
8869		-37.109375
8870		-33.203125
8871		-39.062500
8872		-35.156250
8873		-41.015625
8874		-37.109375
8875		-41.015625
8876		-37.109375
8877		-41.015625
8878		-39.062500
8879		-42.968750
8880		-39.062500
8881		-42.968750
8882		-39.062500
8883		-42.968750
8884		-39.062500
8885		-42.968750
8886		-41.015625
8887		-42.968750
8888		-41.015625
8889		-42.968750
8890		-41.015625
8891		-42.968750
8892		-39.062500
8893		-42.968750
8894		-41.015625
8895		-42.968750
8896		-41.015625
8897		-42.968750
8898		-39.062500
8899		-41.015625
8900		-39.062500
8901		-41.015625
8902		-37.109375
8903		-41.015625
8904		-37.109375
8905		-39.062500
8906		-37.109375
8907		-39.062500
8908		-35.156250
8909		-37.109375
8910		-33.203125
8911		-35.156250
8912		-33.203125
8913		-35.156250
8914		-31.250000
8915		-33.203125
8916		-29.296875
8917		-31.250000
8918		-27.343750
8919		-29.296875
8920		-25.390625
8921		-27.343750
8922		-23.437500
8923		-25.390625
8924		-21.484375
8925		-23.437500
8926		-19.531250
8927		-21.484375
8928		-17.578125
8929		-19.531250
8930		-15.625000
8931		-17.578125
8932		-13.671875
8933		-15.625000
8934		-9.765625
8935		-13.671875
8936		-7.812500
8937		-9.765625
8938		-5.859375
8939		-7.812500
8940		-3.906250
8941		-5.859375
8942		0.000000
8943		-3.906250
8944		1.953125
8945		0.000000
8946		3.906250
8947		1.953125
8948		5.859375
8949		3.906250
8950		9.765625
8951		7.812500
8952		11.718750
8953		9.765625
8954		15.625000
8955		13.671875
8956		17.578125
8957		15.625000
8958		19.531250
8959		17.578125
8960		21.484375
8961		21.484375
8962		25.390625
8963		23.437500
8964		27.343750
8965		25.390625
8966		31.250000
8967		27.343750
8968		33.203125
8969		31.250000
8970		37.109375
8971		33.203125
8972		37.109375
8973		35.156250
8974		41.015625
8975		39.062500
8976		42.968750
8977		41.015625
8978		44.921875
8979		42.968750
8980		46.875000
8981		44.921875
8982		48.828125
8983		46.875000
8984		50.781250
8985		48.828125
8986		54.687500
8987		52.734375
8988		54.687500
8989		52.734375
8990		58.593750
8991		54.687500
8992		60.546875
8993		56.640625
8994		60.546875
8995		60.546875
8996		62.500000
8997		60.546875
8998		64.453125
8999		62.500000
9000		66.406250
9001		64.453125
9002		68.359375
9003		66.406250
9004		68.359375
9005		66.406250
9006		70.312500
9007		68.359375
9008		72.265625
9009		68.359375
9010		72.265625
9011		70.312500
9012		72.265625
9013		72.265625
9014		74.218750
9015		72.265625
9016		76.171875
9017		72.265625
9018		76.171875
9019		74.218750
9020		76.171875
9021		74.218750
9022		78.125000
9023		74.218750
9024		78.125000
9025		74.218750
9026		78.125000
9027		74.218750
9028		78.125000
9029		76.171875
9030		78.125000
9031		74.218750
9032		78.125000
9033		74.218750
9034		78.125000
9035		74.218750
9036		78.125000
9037		74.218750
9038		78.125000
9039		74.218750
9040		78.125000
9041		74.218750
9042		78.125000
9043		72.265625
9044		76.171875
9045		72.265625
9046		74.218750
9047		70.312500
9048		74.218750
9049		70.312500
9050		74.218750
9051		68.359375
9052		72.265625
9053		68.359375
9054		72.265625
9055		66.406250
9056		70.312500
9057		64.453125
9058		68.359375
9059		64.453125
9060		68.359375
9061		62.500000
9062		66.406250
9063		60.546875
9064		64.453125
9065		58.593750
9066		62.500000
9067		56.640625
9068		60.546875
9069		54.687500
9070		58.593750
9071		54.687500
9072		56.640625
9073		50.781250
9074		56.640625
9075		48.828125
9076		52.734375
9077		46.875000
9078		50.781250
9079		44.921875
9080		48.828125
9081		42.968750
9082		46.875000
9083		41.015625
9084		44.921875
9085		37.109375
9086		41.015625
9087		35.156250
9088		39.062500
9089		33.203125
9090		37.109375
9091		29.296875
9092		35.156250
9093		27.343750
9094		33.203125
9095		25.390625
9096		29.296875
9097		23.437500
9098		27.343750
9099		19.531250
9100		25.390625
9101		17.578125
9102		21.484375
9103		13.671875
9104		19.531250
9105		11.718750
9106		15.625000
9107		9.765625
9108		13.671875
9109		5.859375
9110		11.718750
9111		3.906250
9112		9.765625
9113		1.953125
9114		5.859375
9115		-1.953125
9116		3.906250
9117		-3.906250
9118		0.000000
9119		-5.859375
9120		-1.953125
9121		-9.765625
9122		-3.906250
9123		-11.718750
9124		-7.812500
9125		-13.671875
9126		-9.765625
9127		-15.625000
9128		-11.718750
9129		-17.578125
9130		-13.671875
9131		-21.484375
9132		-17.578125
9133		-23.437500
9134		-17.578125
9135		-25.390625
9136		-21.484375
9137		-27.343750
9138		-23.437500
9139		-27.343750
9140		-25.390625
9141		-31.250000
9142		-25.390625
9143		-31.250000
9144		-29.296875
9145		-33.203125
9146		-29.296875
9147		-35.156250
9148		-31.250000
9149		-37.109375
9150		-31.250000
9151		-37.109375
9152		-33.203125
9153		-39.062500
9154		-35.156250
9155		-39.062500
9156		-37.109375
9157		-41.015625
9158		-37.109375
9159		-41.015625
9160		-39.062500
9161		-42.968750
9162		-39.062500
9163		-42.968750
9164		-39.062500
9165		-42.968750
9166		-39.062500
9167		-42.968750
9168		-39.062500
9169		-42.968750
9170		-41.015625
9171		-42.968750
9172		-41.015625
9173		-42.968750
9174		-39.062500
9175		-42.968750
9176		-39.062500
9177		-42.968750
9178		-39.062500
9179		-41.015625
9180		-39.062500
9181		-41.015625
9182		-39.062500
9183		-41.015625
9184		-37.109375
9185		-41.015625
9186		-37.109375
9187		-39.062500
9188		-35.156250
9189		-37.109375
9190		-35.156250
9191		-37.109375
9192		-33.203125
9193		-37.109375
9194		-31.250000
9195		-35.156250
9196		-31.250000
9197		-33.203125
9198		-29.296875
9199		-31.250000
9200		-27.343750
9201		-29.296875
9202		-25.390625
9203		-27.343750
9204		-23.437500
9205		-25.390625
9206		-21.484375
9207		-23.437500
9208		-19.531250
9209		-21.484375
9210		-17.578125
9211		-19.531250
9212		-15.625000
9213		-17.578125
9214		-13.671875
9215		-15.625000
9216		-9.765625
9217		-13.671875
9218		-7.812500
9219		-9.765625
9220		-5.859375
9221		-7.812500
9222		-3.906250
9223		-5.859375
9224		-1.953125
9225		-1.953125
9226		1.953125
9227		0.000000
9228		3.906250
9229		1.953125
9230		5.859375
9231		5.859375
9232		9.765625
9233		7.812500
9234		11.718750
9235		9.765625
9236		13.671875
9237		13.671875
9238		17.578125
9239		15.625000
9240		19.531250
9241		17.578125
9242		23.437500
9243		21.484375
9244		25.390625
9245		23.437500
9246		27.343750
9247		25.390625
9248		29.296875
9249		29.296875
9250		33.203125
9251		31.250000
9252		35.156250
9253		33.203125
9254		39.062500
9255		37.109375
9256		41.015625
9257		39.062500
9258		42.968750
9259		41.015625
9260		44.921875
9261		42.968750
9262		46.875000
9263		44.921875
9264		48.828125
9265		46.875000
9266		50.781250
9267		48.828125
9268		54.687500
9269		52.734375
9270		56.640625
9271		54.687500
9272		58.593750
9273		56.640625
9274		60.546875
9275		58.593750
9276		60.546875
9277		60.546875
9278		64.453125
9279		60.546875
9280		64.453125
9281		62.500000
9282		66.406250
9283		64.453125
9284		68.359375
9285		64.453125
9286		70.312500
9287		66.406250
9288		70.312500
9289		68.359375
9290		72.265625
9291		70.312500
9292		74.218750
9293		70.312500
9294		74.218750
9295		70.312500
9296		76.171875
9297		72.265625
9298		76.171875
9299		72.265625
9300		76.171875
9301		72.265625
9302		78.125000
9303		74.218750
9304		78.125000
9305		74.218750
9306		78.125000
9307		76.171875
9308		78.125000
9309		76.171875
9310		78.125000
9311		74.218750
9312		78.125000
9313		76.171875
9314		78.125000
9315		76.171875
9316		78.125000
9317		76.171875
9318		78.125000
9319		74.218750
9320		78.125000
9321		74.218750
9322		78.125000
9323		74.218750
9324		78.125000
9325		74.218750
9326		76.171875
9327		72.265625
9328		76.171875
9329		72.265625
9330		76.171875
9331		70.312500
9332		74.218750
9333		68.359375
9334		72.265625
9335		68.359375
9336		72.265625
9337		66.406250
9338		70.312500
9339		66.406250
9340		68.359375
9341		64.453125
9342		68.359375
9343		62.500000
9344		66.406250
9345		60.546875
9346		64.453125
9347		58.593750
9348		62.500000
9349		56.640625
9350		60.546875
9351		54.687500
9352		60.546875
9353		54.687500
9354		58.593750
9355		52.734375
9356		56.640625
9357		48.828125
9358		54.687500
9359		46.875000
9360		52.734375
9361		44.921875
9362		48.828125
9363		42.968750
9364		46.875000
9365		41.015625
9366		44.921875
9367		37.109375
9368		42.968750
9369		35.156250
9370		39.062500
9371		33.203125
9372		37.109375
9373		29.296875
9374		35.156250
9375		27.343750
9376		31.250000
9377		25.390625
9378		29.296875
9379		21.484375
9380		27.343750
9381		19.531250
9382		25.390625
9383		17.578125
9384		21.484375
9385		13.671875
9386		19.531250
9387		11.718750
9388		17.578125
9389		9.765625
9390		13.671875
9391		7.812500
9392		11.718750
9393		3.906250
9394		7.812500
9395		0.000000
9396		5.859375
9397		-1.953125
9398		3.906250
9399		-3.906250
9400		0.000000
9401		-5.859375
9402		-1.953125
9403		-7.812500
9404		-3.906250
9405		-11.718750
9406		-7.812500
9407		-13.671875
9408		-9.765625
9409		-15.625000
9410		-11.718750
9411		-17.578125
9412		-13.671875
9413		-19.531250
9414		-15.625000
9415		-21.484375
9416		-19.531250
9417		-25.390625
9418		-21.484375
9419		-27.343750
9420		-23.437500
9421		-29.296875
9422		-25.390625
9423		-29.296875
9424		-25.390625
9425		-33.203125
9426		-27.343750
9427		-33.203125
9428		-29.296875
9429		-35.156250
9430		-31.250000
9431		-37.109375
9432		-33.203125
9433		-37.109375
9434		-35.156250
9435		-39.062500
9436		-35.156250
9437		-39.062500
9438		-37.109375
9439		-41.015625
9440		-37.109375
9441		-41.015625
9442		-39.062500
9443		-42.968750
9444		-39.062500
9445		-42.968750
9446		-39.062500
9447		-44.921875
9448		-39.062500
9449		-42.968750
9450		-41.015625
9451		-44.921875
9452		-41.015625
9453		-42.968750
9454		-41.015625
9455		-42.968750
9456		-41.015625
9457		-42.968750
9458		-41.015625
9459		-44.921875
9460		-41.015625
9461		-42.968750
9462		-39.062500
9463		-42.968750
9464		-39.062500
9465		-41.015625
9466		-39.062500
9467		-41.015625
9468		-37.109375
9469		-41.015625
9470		-37.109375
9471		-39.062500
9472		-35.156250
9473		-37.109375
9474		-35.156250
9475		-37.109375
9476		-33.203125
9477		-35.156250
9478		-31.250000
9479		-33.203125
9480		-29.296875
9481		-31.250000
9482		-29.296875
9483		-29.296875
9484		-27.343750
9485		-29.296875
9486		-23.437500
9487		-27.343750
9488		-23.437500
9489		-25.390625
9490		-21.484375
9491		-23.437500
9492		-19.531250
9493		-21.484375
9494		-15.625000
9495		-17.578125
9496		-13.671875
9497		-17.578125
9498		-11.718750
9499		-13.671875
9500		-9.765625
9501		-11.718750
9502		-5.859375
9503		-9.765625
9504		-3.906250
9505		-5.859375
9506		-1.953125
9507		-3.906250
9508		0.000000
9509		-1.953125
9510		3.906250
9511		0.000000
9512		5.859375
9513		3.906250
9514		7.812500
9515		5.859375
9516		9.765625
9517		9.765625
9518		13.671875
9519		11.718750
9520		15.625000
9521		13.671875
9522		17.578125
9523		17.578125
9524		21.484375
9525		19.531250
9526		23.437500
9527		21.484375
9528		25.390625
9529		25.390625
9530		29.296875
9531		27.343750
9532		31.250000
9533		29.296875
9534		35.156250
9535		33.203125
9536		37.109375
9537		35.156250
9538		39.062500
9539		37.109375
9540		41.015625
9541		39.062500
9542		44.921875
9543		42.968750
9544		46.875000
9545		44.921875
9546		48.828125
9547		46.875000
9548		50.781250
9549		48.828125
9550		52.734375
9551		50.781250
9552		54.687500
9553		52.734375
9554		56.640625
9555		54.687500
9556		58.593750
9557		56.640625
9558		60.546875
9559		58.593750
9560		62.500000
9561		60.546875
9562		64.453125
9563		62.500000
9564		66.406250
9565		62.500000
9566		66.406250
9567		64.453125
9568		68.359375
9569		66.406250
9570		70.312500
9571		68.359375
9572		72.265625
9573		68.359375
9574		72.265625
9575		70.312500
9576		74.218750
9577		70.312500
9578		74.218750
9579		72.265625
9580		76.171875
9581		72.265625
9582		76.171875
9583		74.218750
9584		76.171875
9585		74.218750
9586		78.125000
9587		74.218750
9588		78.125000
9589		74.218750
9590		78.125000
9591		74.218750
9592		78.125000
9593		74.218750
9594		78.125000
9595		74.218750
9596		78.125000
9597		74.218750
9598		78.125000
9599		76.171875
9600		78.125000
9601		74.218750
9602		78.125000
9603		74.218750
9604		78.125000
9605		72.265625
9606		76.171875
9607		72.265625
9608		76.171875
9609		72.265625
9610		76.171875
9611		72.265625
9612		76.171875
9613		70.312500
9614		74.218750
9615		70.312500
9616		72.265625
9617		68.359375
9618		72.265625
9619		66.406250
9620		70.312500
9621		66.406250
9622		70.312500
9623		64.453125
9624		68.359375
9625		62.500000
9626		66.406250
9627		60.546875
9628		66.406250
9629		60.546875
9630		62.500000
9631		56.640625
9632		62.500000
9633		56.640625
9634		58.593750
9635		54.687500
9636		58.593750
9637		52.734375
9638		56.640625
9639		50.781250
9640		54.687500
9641		48.828125
9642		50.781250
9643		44.921875
9644		48.828125
9645		42.968750
9646		46.875000
9647		41.015625
9648		44.921875
9649		39.062500
9650		44.921875
9651		37.109375
9652		41.015625
9653		33.203125
9654		39.062500
9655		31.250000
9656		35.156250
9657		29.296875
9658		33.203125
9659		25.390625
9660		31.250000
9661		23.437500
9662		27.343750
9663		21.484375
9664		25.390625
9665		17.578125
9666		23.437500
9667		15.625000
9668		19.531250
9669		11.718750
9670		17.578125
9671		9.765625
9672		13.671875
9673		7.812500
9674		11.718750
9675		3.906250
9676		9.765625
9677		1.953125
9678		5.859375
9679		-1.953125
9680		3.906250
9681		-3.906250
9682		1.953125
9683		-5.859375
9684		-1.953125
9685		-7.812500
9686		-3.906250
9687		-11.718750
9688		-5.859375
9689		-13.671875
9690		-9.765625
9691		-15.625000
9692		-11.718750
9693		-17.578125
9694		-13.671875
9695		-21.484375
9696		-15.625000
9697		-21.484375
9698		-17.578125
9699		-23.437500
9700		-19.531250
9701		-25.390625
9702		-23.437500
9703		-27.343750
9704		-25.390625
9705		-29.296875
9706		-27.343750
9707		-31.250000
9708		-27.343750
9709		-33.203125
9710		-29.296875
9711		-35.156250
9712		-29.296875
9713		-35.156250
9714		-31.250000
9715		-37.109375
9716		-33.203125
9717		-37.109375
9718		-35.156250
9719		-39.062500
9720		-37.109375
9721		-41.015625
9722		-37.109375
9723		-41.015625
9724		-37.109375
9725		-41.015625
9726		-39.062500
9727		-42.968750
9728		-39.062500
9729		-42.968750
9730		-41.015625
9731		-42.968750
9732		-41.015625
9733		-42.968750
9734		-39.062500
9735		-42.968750
9736		-41.015625
9737		-44.921875
9738		-41.015625
9739		-42.968750
9740		-39.062500
9741		-42.968750
9742		-39.062500
9743		-42.968750
9744		-39.062500
9745		-42.968750
9746		-39.062500
9747		-41.015625
9748		-37.109375
9749		-41.015625
9750		-37.109375
9751		-39.062500
9752		-37.109375
9753		-39.062500
9754		-35.156250
9755		-37.109375
9756		-33.203125
9757		-37.109375
9758		-33.203125
9759		-35.156250
9760		-31.250000
9761		-33.203125
9762		-29.296875
9763		-31.250000
9764		-27.343750
9765		-29.296875
9766		-25.390625
9767		-29.296875
9768		-25.390625
9769		-27.343750
9770		-23.437500
9771		-25.390625
9772		-19.531250
9773		-21.484375
9774		-17.578125
9775		-21.484375
9776		-15.625000
9777		-17.578125
9778		-13.671875
9779		-15.625000
9780		-11.718750
9781		-13.671875
9782		-9.765625
9783		-11.718750
9784		-7.812500
9785		-9.765625
9786		-3.906250
9787		-5.859375
9788		-1.953125
9789		-3.906250
9790		0.000000
9791		-1.953125
9792		3.906250
9793		1.953125
9794		5.859375
9795		3.906250
9796		7.812500
9797		5.859375
9798		9.765625
9799		7.812500
9800		13.671875
9801		11.718750
9802		15.625000
9803		13.671875
9804		17.578125
9805		15.625000
9806		21.484375
9807		19.531250
9808		23.437500
9809		23.437500
9810		27.343750
9811		23.437500
9812		29.296875
9813		27.343750
9814		31.250000
9815		29.296875
9816		35.156250
9817		31.250000
9818		37.109375
9819		35.156250
9820		39.062500
9821		37.109375
9822		41.015625
9823		41.015625
9824		44.921875
9825		42.968750
9826		46.875000
9827		44.921875
9828		48.828125
9829		46.875000
9830		50.781250
9831		48.828125
9832		52.734375
9833		50.781250
9834		54.687500
9835		52.734375
9836		56.640625
9837		54.687500
9838		58.593750
9839		56.640625
9840		60.546875
9841		58.593750
9842		62.500000
9843		60.546875
9844		64.453125
9845		62.500000
9846		66.406250
9847		64.453125
9848		66.406250
9849		64.453125
9850		68.359375
9851		66.406250
9852		70.312500
9853		68.359375
9854		70.312500
9855		68.359375
9856		72.265625
9857		70.312500
9858		72.265625
9859		70.312500
9860		74.218750
9861		72.265625
9862		76.171875
9863		72.265625
9864		76.171875
9865		72.265625
9866		76.171875
9867		72.265625
9868		78.125000
9869		74.218750
9870		78.125000
9871		74.218750
9872		78.125000
9873		74.218750
9874		78.125000
9875		74.218750
9876		78.125000
9877		74.218750
9878		78.125000
9879		74.218750
9880		78.125000
9881		74.218750
9882		78.125000
9883		74.218750
9884		78.125000
9885		74.218750
9886		76.171875
9887		74.218750
9888		76.171875
9889		72.265625
9890		78.125000
9891		72.265625
9892		76.171875
9893		70.312500
9894		76.171875
9895		70.312500
9896		74.218750
9897		70.312500
9898		72.265625
9899		68.359375
9900		72.265625
9901		68.359375
9902		70.312500
9903		66.406250
9904		70.312500
9905		64.453125
9906		68.359375
9907		62.500000
9908		66.406250
9909		60.546875
9910		64.453125
9911		58.593750
9912		64.453125
9913		58.593750
9914		62.500000
9915		54.687500
9916		60.546875
9917		54.687500
9918		58.593750
9919		52.734375
9920		56.640625
9921		48.828125
9922		54.687500
9923		46.875000
9924		52.734375
9925		44.921875
9926		52.734375
9927		42.968750
9928		48.828125
9929		41.015625
9930		44.921875
9931		37.109375
9932		42.968750
9933		35.156250
9934		41.015625
9935		33.203125
9936		37.109375
9937		31.250000
9938		35.156250
9939		25.390625
9940		33.203125
9941		23.437500
9942		31.250000
9943		23.437500
9944		27.343750
9945		21.484375
9946		25.390625
9947		17.578125
9948		23.437500
9949		13.671875
9950		19.531250
9951		11.718750
9952		17.578125
9953		9.765625
9954		13.671875
9955		5.859375
9956		11.718750
9957		3.906250
9958		9.765625
9959		0.000000
9960		7.812500
9961		-1.953125
9962		5.859375
9963		-5.859375
9964		1.953125
9965		-5.859375
9966		0.000000
9967		-9.765625
9968		-1.953125
9969		-11.718750
9970		-5.859375
9971		-13.671875
9972		-9.765625
9973		-17.578125
9974		-9.765625
9975		-19.531250
9976		-11.718750
9977		-21.484375
9978		-13.671875
9979		-23.437500
9980		-15.625000
9981		-25.390625
9982		-19.531250
9983		-27.343750
9984		-21.484375
9985		-29.296875
9986		-23.437500
9987		-29.296875
9988		-27.343750
9989		-33.203125
9990		-27.343750
9991		-35.156250
9992		-27.343750
9993		-37.109375
9994		-29.296875
9995		-37.109375
9996		-31.250000
9997		-39.062500
9998		-33.203125
9999		-41.015625
10000		-33.203125
