Channel              :		CH1
Frequency            :		1.992kHz
Period               :		0.502ms
PK-PK                :		158.2mV
Probe attenuation    :		1X
Voltage per ADC value:		0.122070mV
Time interval        :		2.00000us

index		CH1_Voltage(mV)
1		41.015625
2		41.015625
3		39.062500
4		42.968750
5		42.968750
6		46.875000
7		44.921875
8		50.781250
9		48.828125
10		52.734375
11		50.781250
12		54.687500
13		52.734375
14		58.593750
15		56.640625
16		60.546875
17		58.593750
18		62.500000
19		60.546875
20		66.406250
21		62.500000
22		66.406250
23		64.453125
24		70.312500
25		68.359375
26		72.265625
27		68.359375
28		74.218750
29		70.312500
30		74.218750
31		72.265625
32		76.171875
33		74.218750
34		78.125000
35		74.218750
36		78.125000
37		76.171875
38		80.078125
39		78.125000
40		80.078125
41		78.125000
42		82.031250
43		78.125000
44		82.031250
45		78.125000
46		82.031250
47		78.125000
48		82.031250
49		78.125000
50		82.031250
51		78.125000
52		82.031250
53		78.125000
54		82.031250
55		78.125000
56		82.031250
57		78.125000
58		80.078125
59		76.171875
60		80.078125
61		76.171875
62		80.078125
63		74.218750
64		78.125000
65		72.265625
66		78.125000
67		72.265625
68		76.171875
69		70.312500
70		74.218750
71		68.359375
72		72.265625
73		66.406250
74		70.312500
75		64.453125
76		68.359375
77		62.500000
78		66.406250
79		60.546875
80		64.453125
81		56.640625
82		60.546875
83		54.687500
84		60.546875
85		52.734375
86		56.640625
87		48.828125
88		54.687500
89		46.875000
90		50.781250
91		42.968750
92		48.828125
93		39.062500
94		44.921875
95		37.109375
96		41.015625
97		33.203125
98		39.062500
99		29.296875
100		35.156250
101		27.343750
102		31.250000
103		23.437500
104		27.343750
105		19.531250
106		25.390625
107		15.625000
108		21.484375
109		11.718750
110		17.578125
111		7.812500
112		13.671875
113		3.906250
114		9.765625
115		0.000000
116		5.859375
117		-3.906250
118		1.953125
119		-7.812500
120		0.000000
121		-9.765625
122		-3.906250
123		-13.671875
124		-7.812500
125		-17.578125
126		-11.718750
127		-21.484375
128		-15.625000
129		-23.437500
130		-19.531250
131		-27.343750
132		-23.437500
133		-31.250000
134		-25.390625
135		-33.203125
136		-29.296875
137		-37.109375
138		-31.250000
139		-41.015625
140		-35.156250
141		-42.968750
142		-39.062500
143		-46.875000
144		-41.015625
145		-48.828125
146		-42.968750
147		-50.781250
148		-46.875000
149		-52.734375
150		-48.828125
151		-54.687500
152		-50.781250
153		-58.593750
154		-52.734375
155		-58.593750
156		-54.687500
157		-60.546875
158		-56.640625
159		-62.500000
160		-58.593750
161		-64.453125
162		-60.546875
163		-66.406250
164		-62.500000
165		-66.406250
166		-62.500000
167		-66.406250
168		-62.500000
169		-66.406250
170		-64.453125
171		-66.406250
172		-64.453125
173		-68.359375
174		-64.453125
175		-68.359375
176		-64.453125
177		-68.359375
178		-64.453125
179		-66.406250
180		-64.453125
181		-66.406250
182		-62.500000
183		-66.406250
184		-60.546875
185		-64.453125
186		-60.546875
187		-64.453125
188		-60.546875
189		-62.500000
190		-58.593750
191		-60.546875
192		-56.640625
193		-58.593750
194		-54.687500
195		-56.640625
196		-52.734375
197		-54.687500
198		-50.781250
199		-52.734375
200		-46.875000
201		-50.781250
202		-44.921875
203		-46.875000
204		-42.968750
205		-44.921875
206		-41.015625
207		-42.968750
208		-37.109375
209		-39.062500
210		-35.156250
211		-37.109375
212		-31.250000
213		-33.203125
214		-27.343750
215		-29.296875
216		-25.390625
217		-27.343750
218		-21.484375
219		-23.437500
220		-17.578125
221		-21.484375
222		-13.671875
223		-15.625000
224		-11.718750
225		-13.671875
226		-7.812500
227		-9.765625
228		-3.906250
229		-7.812500
230		0.000000
231		-1.953125
232		3.906250
233		1.953125
234		7.812500
235		5.859375
236		11.718750
237		9.765625
238		15.625000
239		11.718750
240		17.578125
241		15.625000
242		23.437500
243		21.484375
244		25.390625
245		21.484375
246		29.296875
247		27.343750
248		33.203125
249		31.250000
250		37.109375
251		33.203125
252		39.062500
253		37.109375
254		42.968750
255		41.015625
256		44.921875
257		42.968750
258		48.828125
259		46.875000
260		50.781250
261		48.828125
262		54.687500
263		50.781250
264		56.640625
265		54.687500
266		58.593750
267		58.593750
268		62.500000
269		60.546875
270		64.453125
271		62.500000
272		66.406250
273		64.453125
274		68.359375
275		66.406250
276		70.312500
277		68.359375
278		72.265625
279		70.312500
280		74.218750
281		72.265625
282		74.218750
283		74.218750
284		76.171875
285		74.218750
286		78.125000
287		76.171875
288		78.125000
289		76.171875
290		80.078125
291		78.125000
292		80.078125
293		78.125000
294		82.031250
295		78.125000
296		82.031250
297		78.125000
298		82.031250
299		80.078125
300		82.031250
301		78.125000
302		82.031250
303		78.125000
304		82.031250
305		78.125000
306		82.031250
307		78.125000
308		80.078125
309		76.171875
310		80.078125
311		76.171875
312		80.078125
313		74.218750
314		78.125000
315		74.218750
316		76.171875
317		72.265625
318		76.171875
319		70.312500
320		74.218750
321		68.359375
322		72.265625
323		66.406250
324		70.312500
325		64.453125
326		70.312500
327		62.500000
328		66.406250
329		60.546875
330		64.453125
331		58.593750
332		62.500000
333		56.640625
334		60.546875
335		52.734375
336		58.593750
337		48.828125
338		54.687500
339		46.875000
340		50.781250
341		44.921875
342		48.828125
343		41.015625
344		44.921875
345		37.109375
346		42.968750
347		35.156250
348		41.015625
349		31.250000
350		35.156250
351		27.343750
352		33.203125
353		23.437500
354		29.296875
355		21.484375
356		25.390625
357		17.578125
358		21.484375
359		13.671875
360		19.531250
361		9.765625
362		15.625000
363		5.859375
364		11.718750
365		1.953125
366		7.812500
367		-1.953125
368		3.906250
369		-5.859375
370		0.000000
371		-9.765625
372		-3.906250
373		-11.718750
374		-7.812500
375		-15.625000
376		-11.718750
377		-19.531250
378		-13.671875
379		-23.437500
380		-17.578125
381		-27.343750
382		-21.484375
383		-29.296875
384		-25.390625
385		-33.203125
386		-27.343750
387		-37.109375
388		-31.250000
389		-41.015625
390		-35.156250
391		-42.968750
392		-37.109375
393		-44.921875
394		-39.062500
395		-46.875000
396		-42.968750
397		-50.781250
398		-44.921875
399		-52.734375
400		-48.828125
401		-56.640625
402		-50.781250
403		-56.640625
404		-52.734375
405		-58.593750
406		-54.687500
407		-60.546875
408		-56.640625
409		-62.500000
410		-58.593750
411		-64.453125
412		-60.546875
413		-66.406250
414		-60.546875
415		-66.406250
416		-62.500000
417		-66.406250
418		-64.453125
419		-68.359375
420		-62.500000
421		-68.359375
422		-64.453125
423		-68.359375
424		-64.453125
425		-68.359375
426		-64.453125
427		-68.359375
428		-64.453125
429		-68.359375
430		-64.453125
431		-68.359375
432		-62.500000
433		-66.406250
434		-62.500000
435		-66.406250
436		-62.500000
437		-64.453125
438		-60.546875
439		-62.500000
440		-60.546875
441		-62.500000
442		-56.640625
443		-60.546875
444		-56.640625
445		-58.593750
446		-54.687500
447		-56.640625
448		-50.781250
449		-54.687500
450		-50.781250
451		-52.734375
452		-46.875000
453		-48.828125
454		-44.921875
455		-46.875000
456		-42.968750
457		-44.921875
458		-39.062500
459		-41.015625
460		-37.109375
461		-39.062500
462		-33.203125
463		-35.156250
464		-29.296875
465		-31.250000
466		-27.343750
467		-29.296875
468		-23.437500
469		-25.390625
470		-19.531250
471		-21.484375
472		-15.625000
473		-17.578125
474		-13.671875
475		-13.671875
476		-9.765625
477		-11.718750
478		-5.859375
479		-7.812500
480		-1.953125
481		-3.906250
482		1.953125
483		0.000000
484		5.859375
485		3.906250
486		9.765625
487		7.812500
488		11.718750
489		11.718750
490		17.578125
491		15.625000
492		19.531250
493		17.578125
494		23.437500
495		21.484375
496		27.343750
497		25.390625
498		31.250000
499		29.296875
500		33.203125
501		33.203125
502		37.109375
503		35.156250
504		41.015625
505		39.062500
506		44.921875
507		42.968750
508		46.875000
509		44.921875
510		50.781250
511		48.828125
512		52.734375
513		50.781250
514		54.687500
515		52.734375
516		58.593750
517		56.640625
518		60.546875
519		58.593750
520		62.500000
521		60.546875
522		64.453125
523		62.500000
524		68.359375
525		64.453125
526		70.312500
527		66.406250
528		70.312500
529		68.359375
530		74.218750
531		70.312500
532		74.218750
533		72.265625
534		76.171875
535		74.218750
536		78.125000
537		74.218750
538		78.125000
539		76.171875
540		80.078125
541		76.171875
542		80.078125
543		76.171875
544		80.078125
545		78.125000
546		80.078125
547		76.171875
548		82.031250
549		78.125000
550		82.031250
551		78.125000
552		82.031250
553		78.125000
554		80.078125
555		78.125000
556		80.078125
557		76.171875
558		80.078125
559		76.171875
560		80.078125
561		74.218750
562		80.078125
563		74.218750
564		78.125000
565		74.218750
566		76.171875
567		72.265625
568		76.171875
569		70.312500
570		74.218750
571		68.359375
572		72.265625
573		66.406250
574		72.265625
575		66.406250
576		70.312500
577		62.500000
578		68.359375
579		60.546875
580		64.453125
581		58.593750
582		62.500000
583		56.640625
584		60.546875
585		52.734375
586		58.593750
587		50.781250
588		56.640625
589		48.828125
590		52.734375
591		44.921875
592		50.781250
593		41.015625
594		46.875000
595		39.062500
596		42.968750
597		35.156250
598		41.015625
599		31.250000
600		39.062500
601		29.296875
602		33.203125
603		25.390625
604		31.250000
605		21.484375
606		27.343750
607		17.578125
608		25.390625
609		13.671875
610		21.484375
611		9.765625
612		15.625000
613		5.859375
614		11.718750
615		3.906250
616		7.812500
617		0.000000
618		3.906250
619		-3.906250
620		1.953125
621		-7.812500
622		-1.953125
623		-11.718750
624		-5.859375
625		-15.625000
626		-9.765625
627		-17.578125
628		-13.671875
629		-21.484375
630		-17.578125
631		-27.343750
632		-21.484375
633		-29.296875
634		-23.437500
635		-33.203125
636		-27.343750
637		-35.156250
638		-31.250000
639		-39.062500
640		-33.203125
641		-41.015625
642		-37.109375
643		-44.921875
644		-39.062500
645		-46.875000
646		-42.968750
647		-50.781250
648		-44.921875
649		-52.734375
650		-46.875000
651		-54.687500
652		-50.781250
653		-56.640625
654		-52.734375
655		-58.593750
656		-54.687500
657		-60.546875
658		-56.640625
659		-62.500000
660		-58.593750
661		-62.500000
662		-60.546875
663		-66.406250
664		-60.546875
665		-66.406250
666		-62.500000
667		-66.406250
668		-64.453125
669		-66.406250
670		-64.453125
671		-68.359375
672		-64.453125
673		-68.359375
674		-64.453125
675		-68.359375
676		-64.453125
677		-68.359375
678		-64.453125
679		-68.359375
680		-64.453125
681		-66.406250
682		-62.500000
683		-68.359375
684		-64.453125
685		-66.406250
686		-62.500000
687		-64.453125
688		-60.546875
689		-64.453125
690		-60.546875
691		-62.500000
692		-58.593750
693		-60.546875
694		-56.640625
695		-60.546875
696		-54.687500
697		-58.593750
698		-52.734375
699		-54.687500
700		-50.781250
701		-52.734375
702		-48.828125
703		-50.781250
704		-46.875000
705		-46.875000
706		-42.968750
707		-46.875000
708		-41.015625
709		-42.968750
710		-37.109375
711		-39.062500
712		-35.156250
713		-37.109375
714		-31.250000
715		-33.203125
716		-27.343750
717		-31.250000
718		-25.390625
719		-27.343750
720		-21.484375
721		-23.437500
722		-17.578125
723		-19.531250
724		-13.671875
725		-15.625000
726		-11.718750
727		-13.671875
728		-5.859375
729		-7.812500
730		-1.953125
731		-5.859375
732		0.000000
733		-1.953125
734		3.906250
735		1.953125
736		7.812500
737		5.859375
738		11.718750
739		9.765625
740		15.625000
741		13.671875
742		19.531250
743		17.578125
744		21.484375
745		19.531250
746		27.343750
747		23.437500
748		29.296875
749		27.343750
750		33.203125
751		31.250000
752		37.109375
753		33.203125
754		39.062500
755		37.109375
756		42.968750
757		41.015625
758		44.921875
759		42.968750
760		48.828125
761		46.875000
762		50.781250
763		48.828125
764		54.687500
765		52.734375
766		58.593750
767		54.687500
768		58.593750
769		56.640625
770		62.500000
771		60.546875
772		64.453125
773		62.500000
774		66.406250
775		64.453125
776		68.359375
777		66.406250
778		70.312500
779		68.359375
780		72.265625
781		70.312500
782		74.218750
783		72.265625
784		76.171875
785		74.218750
786		76.171875
787		74.218750
788		78.125000
789		74.218750
790		78.125000
791		76.171875
792		80.078125
793		76.171875
794		80.078125
795		78.125000
796		80.078125
797		78.125000
798		82.031250
799		78.125000
800		82.031250
801		78.125000
802		82.031250
803		78.125000
804		80.078125
805		76.171875
806		82.031250
807		76.171875
808		80.078125
809		78.125000
810		80.078125
811		76.171875
812		80.078125
813		76.171875
814		78.125000
815		74.218750
816		78.125000
817		72.265625
818		76.171875
819		72.265625
820		76.171875
821		68.359375
822		74.218750
823		68.359375
824		72.265625
825		66.406250
826		70.312500
827		64.453125
828		68.359375
829		62.500000
830		66.406250
831		60.546875
832		64.453125
833		54.687500
834		62.500000
835		54.687500
836		58.593750
837		52.734375
838		56.640625
839		48.828125
840		54.687500
841		46.875000
842		50.781250
843		42.968750
844		48.828125
845		39.062500
846		44.921875
847		37.109375
848		42.968750
849		33.203125
850		39.062500
851		29.296875
852		35.156250
853		27.343750
854		31.250000
855		23.437500
856		27.343750
857		19.531250
858		25.390625
859		15.625000
860		21.484375
861		11.718750
862		17.578125
863		9.765625
864		13.671875
865		3.906250
866		9.765625
867		1.953125
868		7.812500
869		-1.953125
870		3.906250
871		-5.859375
872		0.000000
873		-9.765625
874		-3.906250
875		-13.671875
876		-7.812500
877		-17.578125
878		-11.718750
879		-21.484375
880		-15.625000
881		-23.437500
882		-19.531250
883		-27.343750
884		-21.484375
885		-31.250000
886		-25.390625
887		-33.203125
888		-29.296875
889		-37.109375
890		-33.203125
891		-41.015625
892		-35.156250
893		-42.968750
894		-39.062500
895		-46.875000
896		-41.015625
897		-48.828125
898		-44.921875
899		-50.781250
900		-44.921875
901		-52.734375
902		-48.828125
903		-54.687500
904		-50.781250
905		-58.593750
906		-52.734375
907		-60.546875
908		-54.687500
909		-60.546875
910		-56.640625
911		-62.500000
912		-58.593750
913		-64.453125
914		-60.546875
915		-64.453125
916		-60.546875
917		-66.406250
918		-62.500000
919		-66.406250
920		-64.453125
921		-66.406250
922		-64.453125
923		-68.359375
924		-64.453125
925		-68.359375
926		-64.453125
927		-68.359375
928		-64.453125
929		-68.359375
930		-64.453125
931		-68.359375
932		-64.453125
933		-66.406250
934		-62.500000
935		-66.406250
936		-62.500000
937		-64.453125
938		-62.500000
939		-64.453125
940		-60.546875
941		-62.500000
942		-58.593750
943		-60.546875
944		-58.593750
945		-60.546875
946		-56.640625
947		-56.640625
948		-54.687500
949		-54.687500
950		-50.781250
951		-52.734375
952		-48.828125
953		-50.781250
954		-46.875000
955		-48.828125
956		-44.921875
957		-46.875000
958		-41.015625
959		-42.968750
960		-39.062500
961		-41.015625
962		-35.156250
963		-37.109375
964		-33.203125
965		-33.203125
966		-29.296875
967		-31.250000
968		-25.390625
969		-29.296875
970		-23.437500
971		-23.437500
972		-19.531250
973		-21.484375
974		-15.625000
975		-17.578125
976		-11.718750
977		-13.671875
978		-7.812500
979		-9.765625
980		-3.906250
981		-5.859375
982		-1.953125
983		-3.906250
984		1.953125
985		1.953125
986		5.859375
987		3.906250
988		9.765625
989		7.812500
990		13.671875
991		11.718750
992		17.578125
993		15.625000
994		21.484375
995		19.531250
996		25.390625
997		23.437500
998		27.343750
999		25.390625
1000		31.250000
1001		29.296875
1002		35.156250
1003		33.203125
1004		39.062500
1005		37.109375
1006		41.015625
1007		39.062500
1008		44.921875
1009		42.968750
1010		48.828125
1011		46.875000
1012		50.781250
1013		48.828125
1014		52.734375
1015		50.781250
1016		56.640625
1017		54.687500
1018		58.593750
1019		56.640625
1020		60.546875
1021		58.593750
1022		62.500000
1023		62.500000
1024		66.406250
1025		64.453125
1026		68.359375
1027		66.406250
1028		70.312500
1029		68.359375
1030		72.265625
1031		70.312500
1032		74.218750
1033		70.312500
1034		74.218750
1035		72.265625
1036		76.171875
1037		74.218750
1038		76.171875
1039		76.171875
1040		78.125000
1041		76.171875
1042		80.078125
1043		76.171875
1044		80.078125
1045		78.125000
1046		80.078125
1047		78.125000
1048		82.031250
1049		78.125000
1050		82.031250
1051		78.125000
1052		82.031250
1053		78.125000
1054		82.031250
1055		78.125000
1056		82.031250
1057		78.125000
1058		82.031250
1059		78.125000
1060		80.078125
1061		76.171875
1062		80.078125
1063		76.171875
1064		80.078125
1065		74.218750
1066		78.125000
1067		74.218750
1068		78.125000
1069		72.265625
1070		76.171875
1071		70.312500
1072		74.218750
1073		68.359375
1074		72.265625
1075		66.406250
1076		70.312500
1077		66.406250
1078		68.359375
1079		62.500000
1080		68.359375
1081		60.546875
1082		64.453125
1083		58.593750
1084		62.500000
1085		54.687500
1086		60.546875
1087		52.734375
1088		58.593750
1089		50.781250
1090		54.687500
1091		48.828125
1092		52.734375
1093		44.921875
1094		50.781250
1095		41.015625
1096		46.875000
1097		39.062500
1098		42.968750
1099		35.156250
1100		41.015625
1101		31.250000
1102		37.109375
1103		29.296875
1104		33.203125
1105		25.390625
1106		29.296875
1107		21.484375
1108		25.390625
1109		17.578125
1110		23.437500
1111		13.671875
1112		19.531250
1113		9.765625
1114		15.625000
1115		5.859375
1116		11.718750
1117		1.953125
1118		7.812500
1119		-1.953125
1120		3.906250
1121		-3.906250
1122		0.000000
1123		-7.812500
1124		-3.906250
1125		-11.718750
1126		-5.859375
1127		-15.625000
1128		-9.765625
1129		-19.531250
1130		-13.671875
1131		-23.437500
1132		-17.578125
1133		-25.390625
1134		-21.484375
1135		-29.296875
1136		-23.437500
1137		-33.203125
1138		-27.343750
1139		-37.109375
1140		-31.250000
1141		-39.062500
1142		-33.203125
1143		-42.968750
1144		-37.109375
1145		-44.921875
1146		-39.062500
1147		-46.875000
1148		-42.968750
1149		-50.781250
1150		-44.921875
1151		-52.734375
1152		-46.875000
1153		-54.687500
1154		-50.781250
1155		-56.640625
1156		-52.734375
1157		-60.546875
1158		-54.687500
1159		-60.546875
1160		-56.640625
1161		-62.500000
1162		-56.640625
1163		-62.500000
1164		-58.593750
1165		-64.453125
1166		-60.546875
1167		-66.406250
1168		-60.546875
1169		-66.406250
1170		-62.500000
1171		-66.406250
1172		-64.453125
1173		-68.359375
1174		-64.453125
1175		-68.359375
1176		-62.500000
1177		-70.312500
1178		-62.500000
1179		-70.312500
1180		-62.500000
1181		-66.406250
1182		-64.453125
1183		-66.406250
1184		-62.500000
1185		-66.406250
1186		-62.500000
1187		-66.406250
1188		-62.500000
1189		-64.453125
1190		-60.546875
1191		-62.500000
1192		-58.593750
1193		-62.500000
1194		-56.640625
1195		-62.500000
1196		-54.687500
1197		-58.593750
1198		-54.687500
1199		-56.640625
1200		-52.734375
1201		-54.687500
1202		-50.781250
1203		-52.734375
1204		-46.875000
1205		-48.828125
1206		-44.921875
1207		-46.875000
1208		-42.968750
1209		-44.921875
1210		-37.109375
1211		-42.968750
1212		-35.156250
1213		-41.015625
1214		-33.203125
1215		-37.109375
1216		-29.296875
1217		-33.203125
1218		-27.343750
1219		-29.296875
1220		-23.437500
1221		-25.390625
1222		-19.531250
1223		-21.484375
1224		-17.578125
1225		-19.531250
1226		-11.718750
1227		-17.578125
1228		-7.812500
1229		-13.671875
1230		-3.906250
1231		-9.765625
1232		-1.953125
1233		-5.859375
1234		1.953125
1235		-1.953125
1236		5.859375
1237		3.906250
1238		7.812500
1239		7.812500
1240		11.718750
1241		11.718750
1242		15.625000
1243		11.718750
1244		21.484375
1245		15.625000
1246		25.390625
1247		19.531250
1248		29.296875
1249		23.437500
1250		33.203125
1251		27.343750
1252		35.156250
1253		31.250000
1254		37.109375
1255		35.156250
1256		39.062500
1257		39.062500
1258		42.968750
1259		41.015625
1260		48.828125
1261		42.968750
1262		50.781250
1263		44.921875
1264		54.687500
1265		46.875000
1266		56.640625
1267		50.781250
1268		58.593750
1269		54.687500
1270		62.500000
1271		56.640625
1272		62.500000
1273		60.546875
1274		64.453125
1275		62.500000
1276		68.359375
1277		62.500000
1278		70.312500
1279		64.453125
1280		72.265625
1281		66.406250
1282		74.218750
1283		68.359375
1284		76.171875
1285		70.312500
1286		78.125000
1287		70.312500
1288		78.125000
1289		74.218750
1290		78.125000
1291		76.171875
1292		78.125000
1293		74.218750
1294		82.031250
1295		76.171875
1296		82.031250
1297		76.171875
1298		83.984375
1299		76.171875
1300		83.984375
1301		76.171875
1302		83.984375
1303		76.171875
1304		83.984375
1305		78.125000
1306		82.031250
1307		78.125000
1308		80.078125
1309		76.171875
1310		82.031250
1311		74.218750
1312		82.031250
1313		74.218750
1314		82.031250
1315		72.265625
1316		80.078125
1317		72.265625
1318		80.078125
1319		70.312500
1320		78.125000
1321		70.312500
1322		76.171875
1323		70.312500
1324		72.265625
1325		68.359375
1326		72.265625
1327		62.500000
1328		72.265625
1329		62.500000
1330		70.312500
1331		60.546875
1332		68.359375
1333		56.640625
1334		64.453125
1335		54.687500
1336		62.500000
1337		50.781250
1338		60.546875
1339		50.781250
1340		56.640625
1341		48.828125
1342		52.734375
1343		42.968750
1344		50.781250
1345		41.015625
1346		48.828125
1347		37.109375
1348		46.875000
1349		33.203125
1350		42.968750
1351		31.250000
1352		39.062500
1353		27.343750
1354		37.109375
1355		25.390625
1356		33.203125
1357		23.437500
1358		27.343750
1359		15.625000
1360		23.437500
1361		13.671875
1362		21.484375
1363		9.765625
1364		19.531250
1365		5.859375
1366		15.625000
1367		1.953125
1368		11.718750
1369		-1.953125
1370		7.812500
1371		-5.859375
1372		3.906250
1373		-7.812500
1374		-1.953125
1375		-9.765625
1376		-5.859375
1377		-17.578125
1378		-7.812500
1379		-19.531250
1380		-11.718750
1381		-23.437500
1382		-13.671875
1383		-27.343750
1384		-17.578125
1385		-29.296875
1386		-21.484375
1387		-33.203125
1388		-23.437500
1389		-35.156250
1390		-27.343750
1391		-39.062500
1392		-33.203125
1393		-42.968750
1394		-37.109375
1395		-46.875000
1396		-37.109375
1397		-48.828125
1398		-39.062500
1399		-50.781250
1400		-42.968750
1401		-52.734375
1402		-44.921875
1403		-56.640625
1404		-48.828125
1405		-58.593750
1406		-50.781250
1407		-58.593750
1408		-54.687500
1409		-60.546875
1410		-56.640625
1411		-64.453125
1412		-56.640625
1413		-66.406250
1414		-58.593750
1415		-66.406250
1416		-58.593750
1417		-68.359375
1418		-60.546875
1419		-68.359375
1420		-60.546875
1421		-70.312500
1422		-62.500000
1423		-68.359375
1424		-64.453125
1425		-68.359375
1426		-66.406250
1427		-72.265625
1428		-64.453125
1429		-70.312500
1430		-62.500000
1431		-70.312500
1432		-62.500000
1433		-70.312500
1434		-62.500000
1435		-70.312500
1436		-62.500000
1437		-68.359375
1438		-62.500000
1439		-68.359375
1440		-60.546875
1441		-64.453125
1442		-60.546875
1443		-64.453125
1444		-56.640625
1445		-64.453125
1446		-54.687500
1447		-62.500000
1448		-54.687500
1449		-60.546875
1450		-52.734375
1451		-56.640625
1452		-50.781250
1453		-56.640625
1454		-46.875000
1455		-52.734375
1456		-44.921875
1457		-48.828125
1458		-44.921875
1459		-46.875000
1460		-41.015625
1461		-44.921875
1462		-37.109375
1463		-42.968750
1464		-33.203125
1465		-39.062500
1466		-31.250000
1467		-37.109375
1468		-27.343750
1469		-33.203125
1470		-25.390625
1471		-29.296875
1472		-21.484375
1473		-27.343750
1474		-19.531250
1475		-21.484375
1476		-15.625000
1477		-17.578125
1478		-9.765625
1479		-15.625000
1480		-5.859375
1481		-11.718750
1482		-1.953125
1483		-9.765625
1484		1.953125
1485		-3.906250
1486		3.906250
1487		-1.953125
1488		7.812500
1489		1.953125
1490		9.765625
1491		7.812500
1492		13.671875
1493		11.718750
1494		17.578125
1495		13.671875
1496		23.437500
1497		17.578125
1498		27.343750
1499		19.531250
1500		31.250000
1501		23.437500
1502		33.203125
1503		27.343750
1504		37.109375
1505		31.250000
1506		39.062500
1507		35.156250
1508		41.015625
1509		39.062500
1510		44.921875
1511		42.968750
1512		48.828125
1513		42.968750
1514		52.734375
1515		44.921875
1516		54.687500
1517		48.828125
1518		58.593750
1519		52.734375
1520		60.546875
1521		54.687500
1522		62.500000
1523		56.640625
1524		62.500000
1525		60.546875
1526		66.406250
1527		64.453125
1528		68.359375
1529		62.500000
1530		72.265625
1531		64.453125
1532		74.218750
1533		66.406250
1534		74.218750
1535		68.359375
1536		76.171875
1537		70.312500
1538		78.125000
1539		70.312500
1540		78.125000
1541		74.218750
1542		78.125000
1543		76.171875
1544		78.125000
1545		74.218750
1546		82.031250
1547		74.218750
1548		82.031250
1549		76.171875
1550		82.031250
1551		76.171875
1552		82.031250
1553		76.171875
1554		82.031250
1555		76.171875
1556		82.031250
1557		76.171875
1558		82.031250
1559		76.171875
1560		80.078125
1561		74.218750
1562		82.031250
1563		74.218750
1564		80.078125
1565		72.265625
1566		80.078125
1567		70.312500
1568		80.078125
1569		70.312500
1570		78.125000
1571		68.359375
1572		76.171875
1573		68.359375
1574		76.171875
1575		68.359375
1576		72.265625
1577		66.406250
1578		70.312500
1579		62.500000
1580		70.312500
1581		60.546875
1582		68.359375
1583		58.593750
1584		66.406250
1585		54.687500
1586		64.453125
1587		52.734375
1588		60.546875
1589		48.828125
1590		58.593750
1591		48.828125
1592		54.687500
1593		46.875000
1594		50.781250
1595		41.015625
1596		48.828125
1597		37.109375
1598		46.875000
1599		35.156250
1600		44.921875
1601		31.250000
1602		41.015625
1603		27.343750
1604		37.109375
1605		25.390625
1606		35.156250
1607		23.437500
1608		31.250000
1609		19.531250
1610		25.390625
1611		13.671875
1612		21.484375
1613		9.765625
1614		19.531250
1615		5.859375
1616		15.625000
1617		3.906250
1618		13.671875
1619		0.000000
1620		7.812500
1621		-3.906250
1622		5.859375
1623		-7.812500
1624		1.953125
1625		-9.765625
1626		-3.906250
1627		-13.671875
1628		-7.812500
1629		-19.531250
1630		-11.718750
1631		-21.484375
1632		-13.671875
1633		-27.343750
1634		-17.578125
1635		-29.296875
1636		-19.531250
1637		-33.203125
1638		-23.437500
1639		-35.156250
1640		-27.343750
1641		-37.109375
1642		-31.250000
1643		-41.015625
1644		-35.156250
1645		-44.921875
1646		-39.062500
1647		-48.828125
1648		-39.062500
1649		-50.781250
1650		-41.015625
1651		-52.734375
1652		-44.921875
1653		-56.640625
1654		-46.875000
1655		-58.593750
1656		-48.828125
1657		-60.546875
1658		-50.781250
1659		-58.593750
1660		-56.640625
1661		-62.500000
1662		-58.593750
1663		-66.406250
1664		-56.640625
1665		-66.406250
1666		-58.593750
1667		-68.359375
1668		-60.546875
1669		-70.312500
1670		-62.500000
1671		-70.312500
1672		-62.500000
1673		-70.312500
1674		-62.500000
1675		-70.312500
1676		-64.453125
1677		-68.359375
1678		-66.406250
1679		-70.312500
1680		-64.453125
1681		-70.312500
1682		-64.453125
1683		-70.312500
1684		-64.453125
1685		-70.312500
1686		-62.500000
1687		-70.312500
1688		-62.500000
1689		-68.359375
1690		-60.546875
1691		-66.406250
1692		-60.546875
1693		-64.453125
1694		-60.546875
1695		-62.500000
1696		-58.593750
1697		-62.500000
1698		-54.687500
1699		-60.546875
1700		-52.734375
1701		-58.593750
1702		-50.781250
1703		-56.640625
1704		-48.828125
1705		-54.687500
1706		-46.875000
1707		-52.734375
1708		-44.921875
1709		-46.875000
1710		-42.968750
1711		-44.921875
1712		-41.015625
1713		-42.968750
1714		-35.156250
1715		-41.015625
1716		-33.203125
1717		-37.109375
1718		-29.296875
1719		-35.156250
1720		-25.390625
1721		-31.250000
1722		-21.484375
1723		-27.343750
1724		-19.531250
1725		-25.390625
1726		-17.578125
1727		-19.531250
1728		-13.671875
1729		-15.625000
1730		-7.812500
1731		-13.671875
1732		-3.906250
1733		-9.765625
1734		0.000000
1735		-5.859375
1736		3.906250
1737		-1.953125
1738		5.859375
1739		1.953125
1740		11.718750
1741		5.859375
1742		13.671875
1743		9.765625
1744		15.625000
1745		13.671875
1746		19.531250
1747		15.625000
1748		25.390625
1749		19.531250
1750		29.296875
1751		23.437500
1752		31.250000
1753		25.390625
1754		35.156250
1755		29.296875
1756		39.062500
1757		33.203125
1758		42.968750
1759		37.109375
1760		42.968750
1761		41.015625
1762		46.875000
1763		42.968750
1764		50.781250
1765		44.921875
1766		52.734375
1767		48.828125
1768		56.640625
1769		50.781250
1770		60.546875
1771		54.687500
1772		60.546875
1773		56.640625
1774		64.453125
1775		58.593750
1776		66.406250
1777		62.500000
1778		66.406250
1779		64.453125
1780		70.312500
1781		66.406250
1782		72.265625
1783		66.406250
1784		74.218750
1785		68.359375
1786		74.218750
1787		70.312500
1788		76.171875
1789		72.265625
1790		78.125000
1791		72.265625
1792		78.125000
1793		76.171875
1794		78.125000
1795		76.171875
1796		78.125000
1797		74.218750
1798		82.031250
1799		76.171875
1800		82.031250
1801		76.171875
1802		82.031250
1803		76.171875
1804		82.031250
1805		76.171875
1806		82.031250
1807		76.171875
1808		82.031250
1809		76.171875
1810		82.031250
1811		78.125000
1812		80.078125
1813		74.218750
1814		80.078125
1815		74.218750
1816		80.078125
1817		72.265625
1818		80.078125
1819		70.312500
1820		78.125000
1821		70.312500
1822		78.125000
1823		68.359375
1824		76.171875
1825		66.406250
1826		74.218750
1827		66.406250
1828		70.312500
1829		64.453125
1830		68.359375
1831		60.546875
1832		68.359375
1833		58.593750
1834		66.406250
1835		56.640625
1836		64.453125
1837		52.734375
1838		62.500000
1839		50.781250
1840		60.546875
1841		48.828125
1842		56.640625
1843		46.875000
1844		54.687500
1845		44.921875
1846		48.828125
1847		39.062500
1848		46.875000
1849		37.109375
1850		44.921875
1851		33.203125
1852		41.015625
1853		29.296875
1854		39.062500
1855		25.390625
1856		35.156250
1857		23.437500
1858		31.250000
1859		21.484375
1860		29.296875
1861		17.578125
1862		23.437500
1863		13.671875
1864		19.531250
1865		7.812500
1866		17.578125
1867		3.906250
1868		13.671875
1869		0.000000
1870		9.765625
1871		-3.906250
1872		5.859375
1873		-7.812500
1874		1.953125
1875		-9.765625
1876		-1.953125
1877		-11.718750
1878		-5.859375
1879		-15.625000
1880		-9.765625
1881		-21.484375
1882		-13.671875
1883		-25.390625
1884		-15.625000
1885		-27.343750
1886		-19.531250
1887		-31.250000
1888		-23.437500
1889		-37.109375
1890		-25.390625
1891		-39.062500
1892		-29.296875
1893		-39.062500
1894		-31.250000
1895		-41.015625
1896		-37.109375
1897		-46.875000
1898		-41.015625
1899		-50.781250
1900		-41.015625
1901		-52.734375
1902		-42.968750
1903		-54.687500
1904		-46.875000
1905		-56.640625
1906		-48.828125
1907		-58.593750
1908		-50.781250
1909		-60.546875
1910		-52.734375
1911		-60.546875
1912		-56.640625
1913		-62.500000
1914		-58.593750
1915		-66.406250
1916		-58.593750
1917		-68.359375
1918		-60.546875
1919		-68.359375
1920		-60.546875
1921		-70.312500
1922		-62.500000
1923		-72.265625
1924		-62.500000
1925		-70.312500
1926		-62.500000
1927		-70.312500
1928		-64.453125
1929		-68.359375
1930		-66.406250
1931		-70.312500
1932		-64.453125
1933		-70.312500
1934		-62.500000
1935		-70.312500
1936		-62.500000
1937		-70.312500
1938		-62.500000
1939		-68.359375
1940		-60.546875
1941		-68.359375
1942		-60.546875
1943		-66.406250
1944		-60.546875
1945		-64.453125
1946		-60.546875
1947		-60.546875
1948		-58.593750
1949		-62.500000
1950		-54.687500
1951		-60.546875
1952		-50.781250
1953		-56.640625
1954		-50.781250
1955		-54.687500
1956		-46.875000
1957		-54.687500
1958		-44.921875
1959		-52.734375
1960		-42.968750
1961		-46.875000
1962		-41.015625
1963		-42.968750
1964		-39.062500
1965		-41.015625
1966		-33.203125
1967		-39.062500
1968		-31.250000
1969		-37.109375
1970		-27.343750
1971		-33.203125
1972		-23.437500
1973		-29.296875
1974		-21.484375
1975		-25.390625
1976		-15.625000
1977		-23.437500
1978		-15.625000
1979		-15.625000
1980		-11.718750
1981		-13.671875
1982		-5.859375
1983		-11.718750
1984		-1.953125
1985		-7.812500
1986		1.953125
1987		-3.906250
1988		5.859375
1989		0.000000
1990		7.812500
1991		3.906250
1992		11.718750
1993		5.859375
1994		15.625000
1995		13.671875
1996		17.578125
1997		15.625000
1998		21.484375
1999		19.531250
2000		27.343750
2001		21.484375
2002		31.250000
2003		25.390625
2004		33.203125
2005		27.343750
2006		37.109375
2007		31.250000
2008		41.015625
2009		35.156250
2010		42.968750
2011		37.109375
2012		44.921875
2013		42.968750
2014		48.828125
2015		44.921875
2016		52.734375
2017		46.875000
2018		56.640625
2019		48.828125
2020		58.593750
2021		52.734375
2022		60.546875
2023		54.687500
2024		62.500000
2025		56.640625
2026		64.453125
2027		58.593750
2028		66.406250
2029		64.453125
2030		68.359375
2031		66.406250
2032		70.312500
2033		66.406250
2034		74.218750
2035		68.359375
2036		74.218750
2037		68.359375
2038		76.171875
2039		70.312500
2040		78.125000
2041		72.265625
2042		78.125000
2043		72.265625
2044		80.078125
2045		72.265625
2046		80.078125
2047		76.171875
2048		80.078125
2049		76.171875
2050		82.031250
2051		76.171875
2052		82.031250
2053		76.171875
2054		82.031250
2055		76.171875
2056		83.984375
2057		76.171875
2058		82.031250
2059		74.218750
2060		82.031250
2061		74.218750
2062		82.031250
2063		76.171875
2064		80.078125
2065		74.218750
2066		80.078125
2067		72.265625
2068		80.078125
2069		70.312500
2070		78.125000
2071		70.312500
2072		78.125000
2073		68.359375
2074		76.171875
2075		68.359375
2076		74.218750
2077		66.406250
2078		74.218750
2079		66.406250
2080		70.312500
2081		64.453125
2082		68.359375
2083		58.593750
2084		66.406250
2085		56.640625
2086		66.406250
2087		54.687500
2088		62.500000
2089		52.734375
2090		60.546875
2091		48.828125
2092		56.640625
2093		46.875000
2094		54.687500
2095		44.921875
2096		52.734375
2097		42.968750
2098		46.875000
2099		37.109375
2100		44.921875
2101		35.156250
2102		42.968750
2103		31.250000
2104		39.062500
2105		27.343750
2106		37.109375
2107		25.390625
2108		33.203125
2109		21.484375
2110		29.296875
2111		17.578125
2112		27.343750
2113		15.625000
2114		21.484375
2115		9.765625
2116		17.578125
2117		5.859375
2118		13.671875
2119		1.953125
2120		11.718750
2121		-1.953125
2122		7.812500
2123		-5.859375
2124		3.906250
2125		-9.765625
2126		0.000000
2127		-11.718750
2128		-3.906250
2129		-13.671875
2130		-7.812500
2131		-17.578125
2132		-11.718750
2133		-23.437500
2134		-15.625000
2135		-27.343750
2136		-17.578125
2137		-31.250000
2138		-21.484375
2139		-33.203125
2140		-25.390625
2141		-37.109375
2142		-29.296875
2143		-39.062500
2144		-31.250000
2145		-41.015625
2146		-35.156250
2147		-42.968750
2148		-39.062500
2149		-48.828125
2150		-42.968750
2151		-50.781250
2152		-42.968750
2153		-54.687500
2154		-44.921875
2155		-56.640625
2156		-48.828125
2157		-58.593750
2158		-50.781250
2159		-60.546875
2160		-52.734375
2161		-62.500000
2162		-54.687500
2163		-62.500000
2164		-58.593750
2165		-62.500000
2166		-60.546875
2167		-66.406250
2168		-60.546875
2169		-68.359375
2170		-60.546875
2171		-68.359375
2172		-62.500000
2173		-70.312500
2174		-62.500000
2175		-70.312500
2176		-62.500000
2177		-70.312500
2178		-64.453125
2179		-70.312500
2180		-64.453125
2181		-68.359375
2182		-66.406250
2183		-70.312500
2184		-62.500000
2185		-70.312500
2186		-62.500000
2187		-70.312500
2188		-62.500000
2189		-68.359375
2190		-60.546875
2191		-68.359375
2192		-60.546875
2193		-66.406250
2194		-58.593750
2195		-66.406250
2196		-58.593750
2197		-62.500000
2198		-58.593750
2199		-60.546875
2200		-56.640625
2201		-60.546875
2202		-52.734375
2203		-58.593750
2204		-50.781250
2205		-56.640625
2206		-48.828125
2207		-54.687500
2208		-44.921875
2209		-52.734375
2210		-42.968750
2211		-48.828125
2212		-41.015625
2213		-44.921875
2214		-39.062500
2215		-41.015625
2216		-37.109375
2217		-39.062500
2218		-31.250000
2219		-37.109375
2220		-27.343750
2221		-33.203125
2222		-25.390625
2223		-31.250000
2224		-21.484375
2225		-27.343750
2226		-17.578125
2227		-23.437500
2228		-15.625000
2229		-19.531250
2230		-13.671875
2231		-15.625000
2232		-9.765625
2233		-11.718750
2234		-3.906250
2235		-9.765625
2236		0.000000
2237		-5.859375
2238		3.906250
2239		-1.953125
2240		7.812500
2241		1.953125
2242		11.718750
2243		5.859375
2244		15.625000
2245		9.765625
2246		17.578125
2247		13.671875
2248		19.531250
2249		19.531250
2250		23.437500
2251		21.484375
2252		29.296875
2253		23.437500
2254		33.203125
2255		27.343750
2256		37.109375
2257		31.250000
2258		39.062500
2259		33.203125
2260		42.968750
2261		37.109375
2262		44.921875
2263		41.015625
2264		46.875000
2265		44.921875
2266		48.828125
2267		48.828125
2268		54.687500
2269		48.828125
2270		56.640625
2271		50.781250
2272		58.593750
2273		54.687500
2274		62.500000
2275		56.640625
2276		64.453125
2277		58.593750
2278		68.359375
2279		62.500000
2280		68.359375
2281		64.453125
2282		68.359375
2283		66.406250
2284		70.312500
2285		66.406250
2286		74.218750
2287		68.359375
2288		76.171875
2289		70.312500
2290		76.171875
2291		70.312500
2292		78.125000
2293		72.265625
2294		80.078125
2295		72.265625
2296		80.078125
2297		76.171875
2298		80.078125
2299		78.125000
2300		80.078125
2301		76.171875
2302		82.031250
2303		76.171875
2304		82.031250
2305		76.171875
2306		82.031250
2307		76.171875
2308		82.031250
2309		76.171875
2310		82.031250
2311		76.171875
2312		82.031250
2313		74.218750
2314		82.031250
2315		76.171875
2316		78.125000
2317		74.218750
2318		80.078125
2319		72.265625
2320		80.078125
2321		70.312500
2322		78.125000
2323		70.312500
2324		76.171875
2325		68.359375
2326		76.171875
2327		66.406250
2328		74.218750
2329		64.453125
2330		72.265625
2331		64.453125
2332		68.359375
2333		62.500000
2334		66.406250
2335		58.593750
2336		64.453125
2337		54.687500
2338		64.453125
2339		52.734375
2340		62.500000
2341		50.781250
2342		58.593750
2343		48.828125
2344		56.640625
2345		44.921875
2346		54.687500
2347		42.968750
2348		50.781250
2349		41.015625
2350		46.875000
2351		35.156250
2352		42.968750
2353		33.203125
2354		41.015625
2355		29.296875
2356		39.062500
2357		25.390625
2358		35.156250
2359		23.437500
2360		31.250000
2361		17.578125
2362		29.296875
2363		15.625000
2364		23.437500
2365		13.671875
2366		19.531250
2367		9.765625
2368		15.625000
2369		3.906250
2370		11.718750
2371		0.000000
2372		9.765625
2373		-3.906250
2374		5.859375
2375		-7.812500
2376		1.953125
2377		-11.718750
2378		-1.953125
2379		-13.671875
2380		-5.859375
2381		-15.625000
2382		-9.765625
2383		-19.531250
2384		-15.625000
2385		-25.390625
2386		-17.578125
2387		-27.343750
2388		-19.531250
2389		-31.250000
2390		-23.437500
2391		-35.156250
2392		-27.343750
2393		-39.062500
2394		-29.296875
2395		-41.015625
2396		-31.250000
2397		-44.921875
2398		-35.156250
2399		-44.921875
2400		-41.015625
2401		-48.828125
2402		-42.968750
2403		-52.734375
2404		-44.921875
2405		-54.687500
2406		-46.875000
2407		-58.593750
2408		-48.828125
2409		-58.593750
2410		-50.781250
2411		-62.500000
2412		-54.687500
2413		-62.500000
2414		-54.687500
2415		-62.500000
2416		-58.593750
2417		-64.453125
2418		-60.546875
2419		-66.406250
2420		-60.546875
2421		-68.359375
2422		-60.546875
2423		-70.312500
2424		-62.500000
2425		-70.312500
2426		-62.500000
2427		-70.312500
2428		-64.453125
2429		-70.312500
2430		-64.453125
2431		-70.312500
2432		-64.453125
2433		-68.359375
2434		-66.406250
2435		-70.312500
2436		-64.453125
2437		-70.312500
2438		-62.500000
2439		-70.312500
2440		-62.500000
2441		-68.359375
2442		-60.546875
2443		-68.359375
2444		-60.546875
2445		-66.406250
2446		-58.593750
2447		-64.453125
2448		-56.640625
2449		-60.546875
2450		-56.640625
2451		-58.593750
2452		-54.687500
2453		-58.593750
2454		-50.781250
2455		-56.640625
2456		-48.828125
2457		-54.687500
2458		-46.875000
2459		-52.734375
2460		-44.921875
2461		-50.781250
2462		-41.015625
2463		-48.828125
2464		-39.062500
2465		-44.921875
2466		-39.062500
2467		-39.062500
2468		-35.156250
2469		-37.109375
2470		-29.296875
2471		-35.156250
2472		-25.390625
2473		-33.203125
2474		-23.437500
2475		-29.296875
2476		-19.531250
2477		-25.390625
2478		-15.625000
2479		-21.484375
2480		-11.718750
2481		-17.578125
2482		-9.765625
2483		-11.718750
2484		-7.812500
2485		-7.812500
2486		-3.906250
2487		-5.859375
2488		1.953125
2489		-3.906250
2490		5.859375
2491		0.000000
2492		9.765625
2493		3.906250
2494		13.671875
2495		7.812500
2496		17.578125
2497		11.718750
2498		21.484375
2499		17.578125
2500		21.484375
2501		21.484375
2502		25.390625
2503		23.437500
2504		31.250000
2505		25.390625
2506		35.156250
2507		27.343750
2508		37.109375
2509		31.250000
2510		41.015625
2511		35.156250
2512		44.921875
2513		39.062500
2514		46.875000
2515		41.015625
2516		48.828125
2517		46.875000
2518		50.781250
2519		48.828125
2520		56.640625
2521		50.781250
2522		58.593750
2523		52.734375
2524		60.546875
2525		54.687500
2526		64.453125
2527		56.640625
2528		66.406250
2529		58.593750
2530		68.359375
2531		62.500000
2532		70.312500
2533		66.406250
2534		70.312500
2535		68.359375
2536		72.265625
2537		68.359375
2538		76.171875
2539		68.359375
2540		76.171875
2541		70.312500
2542		78.125000
2543		72.265625
2544		80.078125
2545		72.265625
2546		80.078125
2547		74.218750
2548		80.078125
2549		74.218750
2550		80.078125
2551		78.125000
2552		80.078125
2553		76.171875
2554		82.031250
2555		74.218750
2556		82.031250
2557		76.171875
2558		83.984375
2559		76.171875
2560		82.031250
2561		74.218750
2562		82.031250
2563		74.218750
2564		82.031250
2565		74.218750
2566		82.031250
2567		76.171875
2568		78.125000
2569		74.218750
2570		78.125000
2571		70.312500
2572		78.125000
2573		70.312500
2574		78.125000
2575		68.359375
2576		76.171875
2577		66.406250
2578		76.171875
2579		64.453125
2580		72.265625
2581		64.453125
2582		72.265625
2583		62.500000
2584		68.359375
2585		60.546875
2586		66.406250
2587		56.640625
2588		64.453125
2589		54.687500
2590		62.500000
2591		52.734375
2592		60.546875
2593		48.828125
2594		56.640625
2595		46.875000
2596		54.687500
2597		42.968750
2598		52.734375
2599		41.015625
2600		48.828125
2601		39.062500
2602		44.921875
2603		33.203125
2604		41.015625
2605		31.250000
2606		39.062500
2607		27.343750
2608		37.109375
2609		23.437500
2610		33.203125
2611		19.531250
2612		29.296875
2613		17.578125
2614		25.390625
2615		11.718750
2616		23.437500
2617		9.765625
2618		15.625000
2619		7.812500
2620		13.671875
2621		1.953125
2622		9.765625
2623		0.000000
2624		7.812500
2625		-5.859375
2626		3.906250
2627		-9.765625
2628		0.000000
2629		-13.671875
2630		-3.906250
2631		-17.578125
2632		-7.812500
2633		-17.578125
2634		-9.765625
2635		-21.484375
2636		-15.625000
2637		-27.343750
2638		-19.531250
2639		-31.250000
2640		-21.484375
2641		-35.156250
2642		-25.390625
2643		-37.109375
2644		-27.343750
2645		-39.062500
2646		-31.250000
2647		-42.968750
2648		-35.156250
2649		-44.921875
2650		-37.109375
2651		-46.875000
2652		-42.968750
2653		-48.828125
2654		-44.921875
2655		-52.734375
2656		-46.875000
2657		-56.640625
2658		-48.828125
2659		-58.593750
2660		-50.781250
2661		-60.546875
2662		-52.734375
2663		-62.500000
2664		-54.687500
2665		-64.453125
2666		-56.640625
2667		-62.500000
2668		-58.593750
2669		-64.453125
2670		-60.546875
2671		-68.359375
2672		-60.546875
2673		-68.359375
2674		-62.500000
2675		-68.359375
2676		-62.500000
2677		-70.312500
2678		-62.500000
2679		-70.312500
2680		-64.453125
2681		-70.312500
2682		-64.453125
2683		-70.312500
2684		-64.453125
2685		-68.359375
2686		-64.453125
2687		-68.359375
2688		-62.500000
2689		-70.312500
2690		-62.500000
2691		-68.359375
2692		-60.546875
2693		-68.359375
2694		-60.546875
2695		-66.406250
2696		-58.593750
2697		-66.406250
2698		-58.593750
2699		-64.453125
2700		-56.640625
2701		-60.546875
2702		-56.640625
2703		-58.593750
2704		-54.687500
2705		-58.593750
2706		-50.781250
2707		-56.640625
2708		-46.875000
2709		-52.734375
2710		-44.921875
2711		-50.781250
2712		-42.968750
2713		-46.875000
2714		-39.062500
2715		-44.921875
2716		-37.109375
2717		-42.968750
2718		-35.156250
2719		-37.109375
2720		-33.203125
2721		-35.156250
2722		-27.343750
2723		-33.203125
2724		-23.437500
2725		-29.296875
2726		-21.484375
2727		-27.343750
2728		-17.578125
2729		-23.437500
2730		-13.671875
2731		-19.531250
2732		-9.765625
2733		-15.625000
2734		-7.812500
2735		-9.765625
2736		-3.906250
2737		-5.859375
2738		0.000000
2739		-3.906250
2740		3.906250
2741		0.000000
2742		7.812500
2743		1.953125
2744		11.718750
2745		7.812500
2746		15.625000
2747		9.765625
2748		19.531250
2749		13.671875
2750		23.437500
2751		15.625000
2752		25.390625
2753		23.437500
2754		27.343750
2755		25.390625
2756		33.203125
2757		29.296875
2758		37.109375
2759		31.250000
2760		39.062500
2761		33.203125
2762		42.968750
2763		37.109375
2764		46.875000
2765		41.015625
2766		48.828125
2767		42.968750
2768		50.781250
2769		48.828125
2770		52.734375
2771		50.781250
2772		56.640625
2773		52.734375
2774		60.546875
2775		54.687500
2776		62.500000
2777		56.640625
2778		64.453125
2779		58.593750
2780		68.359375
2781		62.500000
2782		70.312500
2783		64.453125
2784		70.312500
2785		66.406250
2786		72.265625
2787		70.312500
2788		72.265625
2789		68.359375
2790		76.171875
2791		70.312500
2792		78.125000
2793		72.265625
2794		78.125000
2795		72.265625
2796		80.078125
2797		74.218750
2798		80.078125
2799		74.218750
2800		82.031250
2801		76.171875
2802		82.031250
2803		78.125000
2804		80.078125
2805		76.171875
2806		82.031250
2807		76.171875
2808		82.031250
2809		76.171875
2810		83.984375
2811		76.171875
2812		82.031250
2813		76.171875
2814		82.031250
2815		74.218750
2816		82.031250
2817		74.218750
2818		82.031250
2819		76.171875
2820		78.125000
2821		74.218750
2822		78.125000
2823		70.312500
2824		78.125000
2825		70.312500
2826		78.125000
2827		68.359375
2828		76.171875
2829		66.406250
2830		74.218750
2831		64.453125
2832		72.265625
2833		62.500000
2834		70.312500
2835		62.500000
2836		68.359375
2837		60.546875
2838		64.453125
2839		54.687500
2840		62.500000
2841		52.734375
2842		62.500000
2843		50.781250
2844		58.593750
2845		48.828125
2846		56.640625
2847		42.968750
2848		52.734375
2849		41.015625
2850		50.781250
2851		41.015625
2852		46.875000
2853		37.109375
2854		42.968750
2855		31.250000
2856		39.062500
2857		29.296875
2858		37.109375
2859		25.390625
2860		35.156250
2861		21.484375
2862		31.250000
2863		17.578125
2864		27.343750
2865		13.671875
2866		23.437500
2867		11.718750
2868		21.484375
2869		9.765625
2870		13.671875
2871		5.859375
2872		11.718750
2873		-1.953125
2874		7.812500
2875		-3.906250
2876		5.859375
2877		-7.812500
2878		1.953125
2879		-11.718750
2880		-1.953125
2881		-13.671875
2882		-5.859375
2883		-19.531250
2884		-9.765625
2885		-19.531250
2886		-11.718750
2887		-23.437500
2888		-17.578125
2889		-29.296875
2890		-21.484375
2891		-31.250000
2892		-23.437500
2893		-35.156250
2894		-27.343750
2895		-39.062500
2896		-29.296875
2897		-41.015625
2898		-33.203125
2899		-44.921875
2900		-35.156250
2901		-46.875000
2902		-39.062500
2903		-48.828125
2904		-42.968750
2905		-50.781250
2906		-46.875000
2907		-56.640625
2908		-46.875000
2909		-56.640625
2910		-48.828125
2911		-58.593750
2912		-50.781250
2913		-60.546875
2914		-52.734375
2915		-64.453125
2916		-54.687500
2917		-64.453125
2918		-56.640625
2919		-64.453125
2920		-58.593750
2921		-64.453125
2922		-62.500000
2923		-68.359375
2924		-60.546875
2925		-70.312500
2926		-62.500000
2927		-70.312500
2928		-62.500000
2929		-70.312500
2930		-62.500000
2931		-70.312500
2932		-62.500000
2933		-70.312500
2934		-62.500000
2935		-70.312500
2936		-62.500000
2937		-68.359375
2938		-64.453125
2939		-68.359375
2940		-62.500000
2941		-68.359375
2942		-62.500000
2943		-68.359375
2944		-60.546875
2945		-66.406250
2946		-60.546875
2947		-66.406250
2948		-58.593750
2949		-64.453125
2950		-56.640625
2951		-62.500000
2952		-54.687500
2953		-58.593750
2954		-54.687500
2955		-56.640625
2956		-52.734375
2957		-54.687500
2958		-48.828125
2959		-54.687500
2960		-44.921875
2961		-50.781250
2962		-42.968750
2963		-48.828125
2964		-41.015625
2965		-46.875000
2966		-39.062500
2967		-42.968750
2968		-35.156250
2969		-41.015625
2970		-33.203125
2971		-35.156250
2972		-31.250000
2973		-31.250000
2974		-25.390625
2975		-31.250000
2976		-21.484375
2977		-27.343750
2978		-17.578125
2979		-25.390625
2980		-15.625000
2981		-19.531250
2982		-11.718750
2983		-17.578125
2984		-7.812500
2985		-13.671875
2986		-3.906250
2987		-7.812500
2988		-1.953125
2989		-3.906250
2990		1.953125
2991		-1.953125
2992		7.812500
2993		1.953125
2994		9.765625
2995		5.859375
2996		13.671875
2997		9.765625
2998		17.578125
2999		11.718750
3000		21.484375
3001		15.625000
3002		25.390625
3003		19.531250
3004		27.343750
3005		25.390625
3006		29.296875
3007		27.343750
3008		35.156250
3009		29.296875
3010		39.062500
3011		33.203125
3012		42.968750
3013		35.156250
3014		44.921875
3015		39.062500
3016		48.828125
3017		42.968750
3018		50.781250
3019		44.921875
3020		52.734375
3021		50.781250
3022		54.687500
3023		52.734375
3024		58.593750
3025		52.734375
3026		62.500000
3027		56.640625
3028		64.453125
3029		58.593750
3030		66.406250
3031		60.546875
3032		68.359375
3033		62.500000
3034		70.312500
3035		64.453125
3036		72.265625
3037		68.359375
3038		72.265625
3039		70.312500
3040		74.218750
3041		70.312500
3042		78.125000
3043		72.265625
3044		80.078125
3045		72.265625
3046		80.078125
3047		74.218750
3048		82.031250
3049		74.218750
3050		82.031250
3051		76.171875
3052		82.031250
3053		76.171875
3054		82.031250
3055		78.125000
3056		80.078125
3057		76.171875
3058		82.031250
3059		76.171875
3060		83.984375
3061		76.171875
3062		83.984375
3063		76.171875
3064		82.031250
3065		74.218750
3066		82.031250
3067		74.218750
3068		82.031250
3069		74.218750
3070		80.078125
3071		74.218750
3072		78.125000
3073		74.218750
3074		76.171875
3075		70.312500
3076		78.125000
3077		68.359375
3078		76.171875
3079		66.406250
3080		74.218750
3081		64.453125
3082		72.265625
3083		64.453125
3084		72.265625
3085		62.500000
3086		70.312500
3087		60.546875
3088		66.406250
3089		58.593750
3090		62.500000
3091		54.687500
3092		62.500000
3093		50.781250
3094		60.546875
3095		48.828125
3096		56.640625
3097		46.875000
3098		54.687500
3099		42.968750
3100		52.734375
3101		41.015625
3102		48.828125
3103		39.062500
3104		44.921875
3105		35.156250
3106		41.015625
3107		33.203125
3108		37.109375
3109		27.343750
3110		37.109375
3111		23.437500
3112		33.203125
3113		19.531250
3114		29.296875
3115		15.625000
3116		25.390625
3117		13.671875
3118		21.484375
3119		7.812500
3120		17.578125
3121		7.812500
3122		11.718750
3123		3.906250
3124		7.812500
3125		-3.906250
3126		5.859375
3127		-5.859375
3128		3.906250
3129		-9.765625
3130		0.000000
3131		-13.671875
3132		-3.906250
3133		-17.578125
3134		-7.812500
3135		-21.484375
3136		-11.718750
3137		-21.484375
3138		-15.625000
3139		-25.390625
3140		-19.531250
3141		-31.250000
3142		-23.437500
3143		-35.156250
3144		-25.390625
3145		-37.109375
3146		-27.343750
3147		-41.015625
3148		-31.250000
3149		-42.968750
3150		-35.156250
3151		-46.875000
3152		-37.109375
3153		-48.828125
3154		-41.015625
3155		-48.828125
3156		-44.921875
3157		-52.734375
3158		-48.828125
3159		-56.640625
3160		-48.828125
3161		-58.593750
3162		-50.781250
3163		-60.546875
3164		-52.734375
3165		-62.500000
3166		-54.687500
3167		-64.453125
3168		-56.640625
3169		-64.453125
3170		-58.593750
3171		-64.453125
3172		-58.593750
3173		-64.453125
3174		-62.500000
3175		-68.359375
3176		-62.500000
3177		-70.312500
3178		-62.500000
3179		-68.359375
3180		-62.500000
3181		-70.312500
3182		-62.500000
3183		-70.312500
3184		-62.500000
3185		-70.312500
3186		-62.500000
3187		-70.312500
3188		-62.500000
3189		-66.406250
3190		-64.453125
3191		-68.359375
3192		-62.500000
3193		-68.359375
3194		-60.546875
3195		-66.406250
3196		-60.546875
3197		-66.406250
3198		-58.593750
3199		-64.453125
3200		-56.640625
3201		-62.500000
3202		-54.687500
3203		-60.546875
3204		-52.734375
3205		-58.593750
3206		-52.734375
3207		-54.687500
3208		-50.781250
3209		-54.687500
3210		-46.875000
3211		-52.734375
3212		-42.968750
3213		-50.781250
3214		-41.015625
3215		-46.875000
3216		-39.062500
3217		-44.921875
3218		-35.156250
3219		-42.968750
3220		-33.203125
3221		-37.109375
3222		-31.250000
3223		-33.203125
3224		-27.343750
3225		-29.296875
3226		-23.437500
3227		-29.296875
3228		-19.531250
3229		-25.390625
3230		-15.625000
3231		-21.484375
3232		-11.718750
3233		-19.531250
3234		-9.765625
3235		-13.671875
3236		-3.906250
3237		-9.765625
3238		-1.953125
3239		-5.859375
3240		0.000000
3241		-1.953125
3242		3.906250
3243		0.000000
3244		9.765625
3245		3.906250
3246		13.671875
3247		7.812500
3248		17.578125
3249		11.718750
3250		19.531250
3251		13.671875
3252		23.437500
3253		19.531250
3254		27.343750
3255		21.484375
3256		29.296875
3257		27.343750
3258		33.203125
3259		31.250000
3260		37.109375
3261		31.250000
3262		41.015625
3263		35.156250
3264		44.921875
3265		39.062500
3266		46.875000
3267		41.015625
3268		50.781250
3269		44.921875
3270		54.687500
3271		46.875000
3272		54.687500
3273		52.734375
3274		56.640625
3275		54.687500
3276		60.546875
3277		56.640625
3278		64.453125
3279		58.593750
3280		66.406250
3281		60.546875
3282		68.359375
3283		62.500000
3284		70.312500
3285		64.453125
3286		72.265625
3287		66.406250
3288		74.218750
3289		68.359375
3290		74.218750
3291		72.265625
3292		74.218750
3293		72.265625
3294		78.125000
3295		72.265625
3296		80.078125
3297		72.265625
3298		80.078125
3299		74.218750
3300		82.031250
3301		74.218750
3302		82.031250
3303		74.218750
3304		82.031250
3305		76.171875
3306		82.031250
3307		78.125000
3308		82.031250
3309		76.171875
3310		82.031250
3311		76.171875
3312		83.984375
3313		76.171875
3314		83.984375
3315		76.171875
3316		83.984375
3317		74.218750
3318		82.031250
3319		74.218750
3320		82.031250
3321		74.218750
3322		80.078125
3323		74.218750
3324		78.125000
3325		74.218750
3326		76.171875
3327		70.312500
3328		76.171875
3329		68.359375
3330		76.171875
3331		66.406250
3332		74.218750
3333		64.453125
3334		72.265625
3335		62.500000
3336		70.312500
3337		60.546875
3338		68.359375
3339		60.546875
3340		66.406250
3341		58.593750
3342		62.500000
3343		52.734375
3344		60.546875
3345		50.781250
3346		58.593750
3347		48.828125
3348		56.640625
3349		44.921875
3350		52.734375
3351		41.015625
3352		50.781250
3353		39.062500
3354		46.875000
3355		37.109375
3356		44.921875
3357		35.156250
3358		39.062500
3359		31.250000
3360		35.156250
3361		25.390625
3362		33.203125
3363		21.484375
3364		31.250000
3365		17.578125
3366		27.343750
3367		13.671875
3368		23.437500
3369		11.718750
3370		19.531250
3371		5.859375
3372		15.625000
3373		5.859375
3374		13.671875
3375		1.953125
3376		5.859375
3377		-3.906250
3378		3.906250
3379		-7.812500
3380		1.953125
3381		-9.765625
3382		-1.953125
3383		-13.671875
3384		-5.859375
3385		-19.531250
3386		-9.765625
3387		-21.484375
3388		-13.671875
3389		-25.390625
3390		-17.578125
3391		-27.343750
3392		-21.484375
3393		-31.250000
3394		-25.390625
3395		-37.109375
3396		-27.343750
3397		-39.062500
3398		-31.250000
3399		-41.015625
3400		-33.203125
3401		-44.921875
3402		-35.156250
3403		-48.828125
3404		-39.062500
3405		-50.781250
3406		-41.015625
3407		-50.781250
3408		-46.875000
3409		-52.734375
3410		-48.828125
3411		-56.640625
3412		-48.828125
3413		-58.593750
3414		-50.781250
3415		-60.546875
3416		-52.734375
3417		-62.500000
3418		-54.687500
3419		-64.453125
3420		-56.640625
3421		-66.406250
3422		-58.593750
3423		-66.406250
3424		-60.546875
3425		-66.406250
3426		-62.500000
3427		-68.359375
3428		-62.500000
3429		-68.359375
3430		-62.500000
3431		-70.312500
3432		-62.500000
3433		-70.312500
3434		-62.500000
3435		-70.312500
3436		-62.500000
3437		-70.312500
3438		-62.500000
3439		-70.312500
3440		-62.500000
3441		-66.406250
3442		-64.453125
3443		-66.406250
3444		-62.500000
3445		-68.359375
3446		-58.593750
3447		-66.406250
3448		-58.593750
3449		-64.453125
3450		-56.640625
3451		-62.500000
3452		-56.640625
3453		-60.546875
3454		-54.687500
3455		-60.546875
3456		-52.734375
3457		-58.593750
3458		-50.781250
3459		-52.734375
3460		-48.828125
3461		-50.781250
3462		-44.921875
3463		-50.781250
3464		-42.968750
3465		-46.875000
3466		-41.015625
3467		-44.921875
3468		-37.109375
3469		-42.968750
3470		-33.203125
3471		-39.062500
3472		-31.250000
3473		-35.156250
3474		-29.296875
3475		-31.250000
3476		-25.390625
3477		-27.343750
3478		-21.484375
3479		-27.343750
3480		-17.578125
3481		-23.437500
3482		-13.671875
3483		-19.531250
3484		-9.765625
3485		-15.625000
3486		-5.859375
3487		-11.718750
3488		-1.953125
3489		-7.812500
3490		1.953125
3491		-1.953125
3492		1.953125
3493		1.953125
3494		5.859375
3495		3.906250
3496		11.718750
3497		5.859375
3498		15.625000
3499		9.765625
3500		19.531250
3501		13.671875
3502		23.437500
3503		17.578125
3504		25.390625
3505		19.531250
3506		29.296875
3507		23.437500
3508		31.250000
3509		29.296875
3510		35.156250
3511		33.203125
3512		41.015625
3513		35.156250
3514		42.968750
3515		37.109375
3516		46.875000
3517		41.015625
3518		48.828125
3519		42.968750
3520		52.734375
3521		46.875000
3522		54.687500
3523		48.828125
3524		56.640625
3525		54.687500
3526		58.593750
3527		56.640625
3528		60.546875
3529		56.640625
3530		64.453125
3531		58.593750
3532		68.359375
3533		60.546875
3534		70.312500
3535		64.453125
3536		72.265625
3537		66.406250
3538		74.218750
3539		66.406250
3540		74.218750
3541		68.359375
3542		76.171875
3543		72.265625
3544		76.171875
3545		72.265625
3546		80.078125
3547		72.265625
3548		80.078125
3549		74.218750
3550		82.031250
3551		74.218750
3552		82.031250
3553		76.171875
3554		82.031250
3555		76.171875
3556		83.984375
3557		76.171875
3558		83.984375
3559		78.125000
3560		82.031250
3561		78.125000
3562		82.031250
3563		76.171875
3564		83.984375
3565		76.171875
3566		83.984375
3567		76.171875
3568		82.031250
3569		74.218750
3570		82.031250
3571		74.218750
3572		82.031250
3573		72.265625
3574		80.078125
3575		74.218750
3576		78.125000
3577		72.265625
3578		76.171875
3579		68.359375
3580		76.171875
3581		68.359375
3582		76.171875
3583		66.406250
3584		74.218750
3585		64.453125
3586		72.265625
3587		60.546875
3588		70.312500
3589		58.593750
3590		68.359375
3591		58.593750
3592		64.453125
3593		56.640625
3594		60.546875
3595		50.781250
3596		58.593750
3597		48.828125
3598		56.640625
3599		44.921875
3600		54.687500
3601		42.968750
3602		52.734375
3603		39.062500
3604		48.828125
3605		37.109375
3606		44.921875
3607		33.203125
3608		42.968750
3609		31.250000
3610		37.109375
3611		29.296875
3612		35.156250
3613		23.437500
3614		31.250000
3615		19.531250
3616		29.296875
3617		15.625000
3618		25.390625
3619		11.718750
3620		21.484375
3621		7.812500
3622		17.578125
3623		5.859375
3624		13.671875
3625		3.906250
3626		9.765625
3627		0.000000
3628		3.906250
3629		-5.859375
3630		1.953125
3631		-9.765625
3632		0.000000
3633		-13.671875
3634		-3.906250
3635		-17.578125
3636		-7.812500
3637		-19.531250
3638		-11.718750
3639		-23.437500
3640		-15.625000
3641		-25.390625
3642		-17.578125
3643		-29.296875
3644		-23.437500
3645		-33.203125
3646		-27.343750
3647		-37.109375
3648		-29.296875
3649		-41.015625
3650		-31.250000
3651		-44.921875
3652		-35.156250
3653		-46.875000
3654		-39.062500
3655		-48.828125
3656		-41.015625
3657		-50.781250
3658		-42.968750
3659		-52.734375
3660		-48.828125
3661		-54.687500
3662		-50.781250
3663		-58.593750
3664		-50.781250
3665		-60.546875
3666		-52.734375
3667		-62.500000
3668		-52.734375
3669		-64.453125
3670		-56.640625
3671		-64.453125
3672		-56.640625
3673		-66.406250
3674		-58.593750
3675		-66.406250
3676		-60.546875
3677		-66.406250
3678		-62.500000
3679		-66.406250
3680		-62.500000
3681		-68.359375
3682		-62.500000
3683		-70.312500
3684		-62.500000
3685		-70.312500
3686		-62.500000
3687		-70.312500
3688		-62.500000
3689		-70.312500
3690		-62.500000
3691		-70.312500
3692		-60.546875
3693		-66.406250
3694		-62.500000
3695		-64.453125
3696		-62.500000
3697		-66.406250
3698		-58.593750
3699		-64.453125
3700		-56.640625
3701		-62.500000
3702		-56.640625
3703		-62.500000
3704		-54.687500
3705		-58.593750
3706		-52.734375
3707		-58.593750
3708		-50.781250
3709		-56.640625
3710		-50.781250
3711		-50.781250
3712		-46.875000
3713		-48.828125
3714		-42.968750
3715		-48.828125
3716		-41.015625
3717		-46.875000
3718		-37.109375
3719		-42.968750
3720		-33.203125
3721		-41.015625
3722		-31.250000
3723		-37.109375
3724		-29.296875
3725		-33.203125
3726		-25.390625
3727		-29.296875
3728		-23.437500
3729		-25.390625
3730		-19.531250
3731		-23.437500
3732		-15.625000
3733		-19.531250
3734		-11.718750
3735		-17.578125
3736		-7.812500
3737		-11.718750
3738		-3.906250
3739		-9.765625
3740		-1.953125
3741		-5.859375
3742		3.906250
3743		0.000000
3744		5.859375
3745		3.906250
3746		9.765625
3747		7.812500
3748		13.671875
3749		9.765625
3750		17.578125
3751		11.718750
3752		21.484375
3753		17.578125
3754		25.390625
3755		19.531250
3756		29.296875
3757		23.437500
3758		31.250000
3759		27.343750
3760		33.203125
3761		31.250000
3762		37.109375
3763		35.156250
3764		41.015625
3765		37.109375
3766		44.921875
3767		41.015625
3768		46.875000
3769		42.968750
3770		50.781250
3771		46.875000
3772		54.687500
3773		48.828125
3774		58.593750
3775		50.781250
3776		60.546875
3777		56.640625
3778		60.546875
3779		58.593750
3780		62.500000
3781		60.546875
3782		64.453125
3783		62.500000
3784		66.406250
3785		64.453125
3786		68.359375
3787		66.406250
3788		72.265625
3789		68.359375
3790		76.171875
3791		68.359375
3792		76.171875
3793		72.265625
3794		78.125000
3795		74.218750
3796		76.171875
3797		76.171875
3798		78.125000
3799		76.171875
3800		80.078125
3801		76.171875
3802		80.078125
3803		78.125000
3804		82.031250
3805		78.125000
3806		83.984375
3807		76.171875
3808		83.984375
3809		78.125000
3810		83.984375
3811		80.078125
3812		82.031250
3813		80.078125
3814		82.031250
3815		78.125000
3816		82.031250
3817		78.125000
3818		82.031250
3819		78.125000
3820		80.078125
3821		76.171875
3822		80.078125
3823		76.171875
3824		78.125000
3825		74.218750
3826		80.078125
3827		74.218750
3828		78.125000
3829		72.265625
3830		76.171875
3831		70.312500
3832		74.218750
3833		68.359375
3834		72.265625
3835		66.406250
3836		70.312500
3837		64.453125
3838		70.312500
3839		62.500000
3840		66.406250
3841		58.593750
3842		66.406250
3843		58.593750
3844		62.500000
3845		54.687500
3846		58.593750
3847		50.781250
3848		56.640625
3849		48.828125
3850		54.687500
3851		46.875000
3852		50.781250
3853		42.968750
3854		48.828125
3855		41.015625
3856		46.875000
3857		35.156250
3858		42.968750
3859		33.203125
3860		39.062500
3861		31.250000
3862		35.156250
3863		27.343750
3864		31.250000
3865		23.437500
3866		29.296875
3867		19.531250
3868		25.390625
3869		15.625000
3870		21.484375
3871		13.671875
3872		17.578125
3873		9.765625
3874		13.671875
3875		3.906250
3876		11.718750
3877		1.953125
3878		7.812500
3879		-1.953125
3880		3.906250
3881		-5.859375
3882		0.000000
3883		-9.765625
3884		-3.906250
3885		-13.671875
3886		-7.812500
3887		-17.578125
3888		-11.718750
3889		-21.484375
3890		-15.625000
3891		-23.437500
3892		-17.578125
3893		-27.343750
3894		-21.484375
3895		-31.250000
3896		-25.390625
3897		-33.203125
3898		-29.296875
3899		-37.109375
3900		-31.250000
3901		-41.015625
3902		-35.156250
3903		-42.968750
3904		-37.109375
3905		-44.921875
3906		-41.015625
3907		-46.875000
3908		-42.968750
3909		-50.781250
3910		-44.921875
3911		-52.734375
3912		-46.875000
3913		-54.687500
3914		-50.781250
3915		-56.640625
3916		-52.734375
3917		-58.593750
3918		-54.687500
3919		-60.546875
3920		-56.640625
3921		-62.500000
3922		-56.640625
3923		-62.500000
3924		-58.593750
3925		-64.453125
3926		-60.546875
3927		-64.453125
3928		-60.546875
3929		-66.406250
3930		-62.500000
3931		-68.359375
3932		-62.500000
3933		-66.406250
3934		-64.453125
3935		-66.406250
3936		-64.453125
3937		-68.359375
3938		-64.453125
3939		-66.406250
3940		-64.453125
3941		-66.406250
3942		-62.500000
3943		-66.406250
3944		-62.500000
3945		-64.453125
3946		-62.500000
3947		-64.453125
3948		-60.546875
3949		-64.453125
3950		-58.593750
3951		-60.546875
3952		-58.593750
3953		-60.546875
3954		-56.640625
3955		-58.593750
3956		-54.687500
3957		-56.640625
3958		-52.734375
3959		-54.687500
3960		-50.781250
3961		-52.734375
3962		-48.828125
3963		-50.781250
3964		-44.921875
3965		-46.875000
3966		-42.968750
3967		-44.921875
3968		-41.015625
3969		-42.968750
3970		-37.109375
3971		-39.062500
3972		-35.156250
3973		-37.109375
3974		-31.250000
3975		-33.203125
3976		-27.343750
3977		-29.296875
3978		-25.390625
3979		-27.343750
3980		-21.484375
3981		-23.437500
3982		-17.578125
3983		-21.484375
3984		-13.671875
3985		-15.625000
3986		-9.765625
3987		-11.718750
3988		-7.812500
3989		-7.812500
3990		-3.906250
3991		-5.859375
3992		0.000000
3993		-1.953125
3994		3.906250
3995		1.953125
3996		7.812500
3997		5.859375
3998		11.718750
3999		9.765625
4000		15.625000
4001		13.671875
4002		19.531250
4003		17.578125
4004		21.484375
4005		21.484375
4006		25.390625
4007		23.437500
4008		29.296875
4009		27.343750
4010		33.203125
4011		31.250000
4012		35.156250
4013		35.156250
4014		39.062500
4015		37.109375
4016		42.968750
4017		41.015625
4018		46.875000
4019		44.921875
4020		48.828125
4021		46.875000
4022		50.781250
4023		48.828125
4024		54.687500
4025		52.734375
4026		56.640625
4027		54.687500
4028		60.546875
4029		58.593750
4030		62.500000
4031		60.546875
4032		64.453125
4033		62.500000
4034		68.359375
4035		64.453125
4036		68.359375
4037		66.406250
4038		70.312500
4039		68.359375
4040		72.265625
4041		70.312500
4042		74.218750
4043		72.265625
4044		76.171875
4045		72.265625
4046		78.125000
4047		74.218750
4048		78.125000
4049		76.171875
4050		80.078125
4051		76.171875
4052		80.078125
4053		78.125000
4054		82.031250
4055		78.125000
4056		82.031250
4057		78.125000
4058		82.031250
4059		80.078125
4060		82.031250
4061		80.078125
4062		82.031250
4063		80.078125
4064		82.031250
4065		80.078125
4066		82.031250
4067		78.125000
4068		82.031250
4069		78.125000
4070		82.031250
4071		76.171875
4072		80.078125
4073		76.171875
4074		80.078125
4075		74.218750
4076		78.125000
4077		74.218750
4078		78.125000
4079		72.265625
4080		76.171875
4081		72.265625
4082		74.218750
4083		68.359375
4084		72.265625
4085		66.406250
4086		72.265625
4087		66.406250
4088		70.312500
4089		62.500000
4090		68.359375
4091		60.546875
4092		64.453125
4093		58.593750
4094		62.500000
4095		56.640625
4096		60.546875
4097		52.734375
4098		58.593750
4099		50.781250
4100		54.687500
4101		46.875000
4102		52.734375
4103		44.921875
4104		50.781250
4105		41.015625
4106		46.875000
4107		39.062500
4108		42.968750
4109		35.156250
4110		41.015625
4111		31.250000
4112		37.109375
4113		29.296875
4114		33.203125
4115		25.390625
4116		29.296875
4117		21.484375
4118		27.343750
4119		17.578125
4120		23.437500
4121		13.671875
4122		19.531250
4123		9.765625
4124		15.625000
4125		5.859375
4126		11.718750
4127		3.906250
4128		7.812500
4129		0.000000
4130		3.906250
4131		-3.906250
4132		0.000000
4133		-7.812500
4134		-3.906250
4135		-11.718750
4136		-5.859375
4137		-15.625000
4138		-9.765625
4139		-19.531250
4140		-13.671875
4141		-23.437500
4142		-17.578125
4143		-25.390625
4144		-21.484375
4145		-29.296875
4146		-23.437500
4147		-33.203125
4148		-27.343750
4149		-35.156250
4150		-31.250000
4151		-39.062500
4152		-33.203125
4153		-42.968750
4154		-37.109375
4155		-44.921875
4156		-41.015625
4157		-46.875000
4158		-42.968750
4159		-48.828125
4160		-44.921875
4161		-52.734375
4162		-46.875000
4163		-54.687500
4164		-48.828125
4165		-56.640625
4166		-52.734375
4167		-58.593750
4168		-54.687500
4169		-60.546875
4170		-56.640625
4171		-62.500000
4172		-58.593750
4173		-64.453125
4174		-58.593750
4175		-64.453125
4176		-60.546875
4177		-64.453125
4178		-60.546875
4179		-66.406250
4180		-62.500000
4181		-66.406250
4182		-62.500000
4183		-68.359375
4184		-64.453125
4185		-66.406250
4186		-64.453125
4187		-66.406250
4188		-64.453125
4189		-66.406250
4190		-62.500000
4191		-66.406250
4192		-64.453125
4193		-66.406250
4194		-62.500000
4195		-66.406250
4196		-60.546875
4197		-64.453125
4198		-62.500000
4199		-62.500000
4200		-60.546875
4201		-62.500000
4202		-58.593750
4203		-60.546875
4204		-56.640625
4205		-58.593750
4206		-54.687500
4207		-58.593750
4208		-52.734375
4209		-56.640625
4210		-50.781250
4211		-52.734375
4212		-48.828125
4213		-50.781250
4214		-46.875000
4215		-48.828125
4216		-44.921875
4217		-46.875000
4218		-41.015625
4219		-44.921875
4220		-39.062500
4221		-41.015625
4222		-35.156250
4223		-37.109375
4224		-33.203125
4225		-35.156250
4226		-29.296875
4227		-31.250000
4228		-25.390625
4229		-27.343750
4230		-23.437500
4231		-23.437500
4232		-19.531250
4233		-21.484375
4234		-15.625000
4235		-17.578125
4236		-11.718750
4237		-13.671875
4238		-7.812500
4239		-11.718750
4240		-3.906250
4241		-5.859375
4242		0.000000
4243		-3.906250
4244		1.953125
4245		0.000000
4246		5.859375
4247		3.906250
4248		9.765625
4249		7.812500
4250		13.671875
4251		11.718750
4252		17.578125
4253		15.625000
4254		21.484375
4255		17.578125
4256		23.437500
4257		21.484375
4258		29.296875
4259		25.390625
4260		31.250000
4261		29.296875
4262		35.156250
4263		33.203125
4264		37.109375
4265		37.109375
4266		41.015625
4267		39.062500
4268		44.921875
4269		41.015625
4270		46.875000
4271		44.921875
4272		50.781250
4273		48.828125
4274		52.734375
4275		50.781250
4276		56.640625
4277		54.687500
4278		58.593750
4279		56.640625
4280		62.500000
4281		58.593750
4282		62.500000
4283		62.500000
4284		66.406250
4285		62.500000
4286		68.359375
4287		66.406250
4288		70.312500
4289		68.359375
4290		72.265625
4291		70.312500
4292		74.218750
4293		72.265625
4294		76.171875
4295		72.265625
4296		76.171875
4297		72.265625
4298		78.125000
4299		76.171875
4300		78.125000
4301		76.171875
4302		80.078125
4303		78.125000
4304		80.078125
4305		78.125000
4306		80.078125
4307		78.125000
4308		82.031250
4309		80.078125
4310		82.031250
4311		80.078125
4312		82.031250
4313		78.125000
4314		82.031250
4315		80.078125
4316		82.031250
4317		78.125000
4318		82.031250
4319		78.125000
4320		82.031250
4321		78.125000
4322		82.031250
4323		76.171875
4324		80.078125
4325		74.218750
4326		78.125000
4327		74.218750
4328		78.125000
4329		74.218750
4330		76.171875
4331		72.265625
4332		76.171875
4333		70.312500
4334		74.218750
4335		68.359375
4336		72.265625
4337		66.406250
4338		70.312500
4339		64.453125
4340		68.359375
4341		62.500000
4342		66.406250
4343		60.546875
4344		64.453125
4345		56.640625
4346		62.500000
4347		54.687500
4348		58.593750
4349		52.734375
4350		56.640625
4351		48.828125
4352		54.687500
4353		46.875000
4354		52.734375
4355		42.968750
4356		48.828125
4357		41.015625
4358		44.921875
4359		37.109375
4360		41.015625
4361		33.203125
4362		39.062500
4363		29.296875
4364		35.156250
4365		27.343750
4366		31.250000
4367		23.437500
4368		27.343750
4369		19.531250
4370		25.390625
4371		15.625000
4372		21.484375
4373		11.718750
4374		17.578125
4375		7.812500
4376		13.671875
4377		3.906250
4378		9.765625
4379		0.000000
4380		5.859375
4381		-1.953125
4382		1.953125
4383		-5.859375
4384		-1.953125
4385		-11.718750
4386		-3.906250
4387		-13.671875
4388		-7.812500
4389		-17.578125
4390		-11.718750
4391		-21.484375
4392		-15.625000
4393		-23.437500
4394		-19.531250
4395		-27.343750
4396		-21.484375
4397		-31.250000
4398		-25.390625
4399		-33.203125
4400		-29.296875
4401		-37.109375
4402		-33.203125
4403		-39.062500
4404		-35.156250
4405		-42.968750
4406		-39.062500
4407		-46.875000
4408		-41.015625
4409		-48.828125
4410		-42.968750
4411		-50.781250
4412		-46.875000
4413		-52.734375
4414		-48.828125
4415		-54.687500
4416		-50.781250
4417		-56.640625
4418		-52.734375
4419		-60.546875
4420		-54.687500
4421		-60.546875
4422		-56.640625
4423		-62.500000
4424		-58.593750
4425		-62.500000
4426		-60.546875
4427		-64.453125
4428		-60.546875
4429		-64.453125
4430		-62.500000
4431		-66.406250
4432		-62.500000
4433		-66.406250
4434		-64.453125
4435		-66.406250
4436		-64.453125
4437		-66.406250
4438		-62.500000
4439		-66.406250
4440		-64.453125
4441		-66.406250
4442		-62.500000
4443		-66.406250
4444		-62.500000
4445		-66.406250
4446		-62.500000
4447		-64.453125
4448		-60.546875
4449		-64.453125
4450		-60.546875
4451		-62.500000
4452		-58.593750
4453		-60.546875
4454		-56.640625
4455		-60.546875
4456		-56.640625
4457		-58.593750
4458		-54.687500
4459		-56.640625
4460		-50.781250
4461		-54.687500
4462		-50.781250
4463		-52.734375
4464		-46.875000
4465		-48.828125
4466		-44.921875
4467		-46.875000
4468		-42.968750
4469		-44.921875
4470		-39.062500
4471		-41.015625
4472		-35.156250
4473		-39.062500
4474		-33.203125
4475		-35.156250
4476		-29.296875
4477		-31.250000
4478		-27.343750
4479		-29.296875
4480		-23.437500
4481		-25.390625
4482		-19.531250
4483		-21.484375
4484		-17.578125
4485		-19.531250
4486		-13.671875
4487		-15.625000
4488		-9.765625
4489		-11.718750
4490		-5.859375
4491		-7.812500
4492		-1.953125
4493		-3.906250
4494		1.953125
4495		0.000000
4496		5.859375
4497		3.906250
4498		9.765625
4499		5.859375
4500		11.718750
4501		11.718750
4502		15.625000
4503		13.671875
4504		19.531250
4505		17.578125
4506		23.437500
4507		21.484375
4508		27.343750
4509		25.390625
4510		29.296875
4511		27.343750
4512		33.203125
4513		31.250000
4514		37.109375
4515		35.156250
4516		41.015625
4517		39.062500
4518		42.968750
4519		41.015625
4520		46.875000
4521		44.921875
4522		48.828125
4523		46.875000
4524		52.734375
4525		50.781250
4526		54.687500
4527		54.687500
4528		58.593750
4529		56.640625
4530		60.546875
4531		58.593750
4532		62.500000
4533		58.593750
4534		64.453125
4535		62.500000
4536		66.406250
4537		64.453125
4538		68.359375
4539		66.406250
4540		72.265625
4541		68.359375
4542		74.218750
4543		70.312500
4544		74.218750
4545		72.265625
4546		76.171875
4547		74.218750
4548		78.125000
4549		76.171875
4550		78.125000
4551		76.171875
4552		80.078125
4553		76.171875
4554		82.031250
4555		78.125000
4556		82.031250
4557		78.125000
4558		82.031250
4559		78.125000
4560		82.031250
4561		80.078125
4562		82.031250
4563		78.125000
4564		82.031250
4565		78.125000
4566		82.031250
4567		80.078125
4568		82.031250
4569		78.125000
4570		82.031250
4571		76.171875
4572		82.031250
4573		76.171875
4574		80.078125
4575		76.171875
4576		80.078125
4577		76.171875
4578		78.125000
4579		72.265625
4580		78.125000
4581		72.265625
4582		76.171875
4583		70.312500
4584		74.218750
4585		70.312500
4586		72.265625
4587		68.359375
4588		72.265625
4589		64.453125
4590		70.312500
4591		62.500000
4592		68.359375
4593		60.546875
4594		64.453125
4595		58.593750
4596		62.500000
4597		56.640625
4598		60.546875
4599		52.734375
4600		58.593750
4601		50.781250
4602		54.687500
4603		46.875000
4604		52.734375
4605		44.921875
4606		48.828125
4607		41.015625
4608		46.875000
4609		39.062500
4610		42.968750
4611		35.156250
4612		39.062500
4613		31.250000
4614		37.109375
4615		29.296875
4616		35.156250
4617		25.390625
4618		29.296875
4619		21.484375
4620		27.343750
4621		17.578125
4622		23.437500
4623		13.671875
4624		19.531250
4625		9.765625
4626		15.625000
4627		5.859375
4628		11.718750
4629		1.953125
4630		7.812500
4631		-1.953125
4632		5.859375
4633		-3.906250
4634		0.000000
4635		-7.812500
4636		-1.953125
4637		-11.718750
4638		-5.859375
4639		-15.625000
4640		-9.765625
4641		-19.531250
4642		-13.671875
4643		-23.437500
4644		-17.578125
4645		-25.390625
4646		-21.484375
4647		-29.296875
4648		-23.437500
4649		-33.203125
4650		-27.343750
4651		-35.156250
4652		-31.250000
4653		-39.062500
4654		-33.203125
4655		-42.968750
4656		-37.109375
4657		-44.921875
4658		-39.062500
4659		-46.875000
4660		-42.968750
4661		-48.828125
4662		-44.921875
4663		-52.734375
4664		-46.875000
4665		-54.687500
4666		-50.781250
4667		-56.640625
4668		-52.734375
4669		-58.593750
4670		-54.687500
4671		-60.546875
4672		-56.640625
4673		-60.546875
4674		-56.640625
4675		-62.500000
4676		-58.593750
4677		-64.453125
4678		-60.546875
4679		-64.453125
4680		-60.546875
4681		-66.406250
4682		-62.500000
4683		-66.406250
4684		-62.500000
4685		-66.406250
4686		-64.453125
4687		-66.406250
4688		-64.453125
4689		-68.359375
4690		-62.500000
4691		-66.406250
4692		-64.453125
4693		-66.406250
4694		-62.500000
4695		-66.406250
4696		-62.500000
4697		-66.406250
4698		-62.500000
4699		-64.453125
4700		-60.546875
4701		-62.500000
4702		-60.546875
4703		-60.546875
4704		-58.593750
4705		-60.546875
4706		-54.687500
4707		-58.593750
4708		-54.687500
4709		-56.640625
4710		-52.734375
4711		-54.687500
4712		-50.781250
4713		-52.734375
4714		-48.828125
4715		-50.781250
4716		-44.921875
4717		-48.828125
4718		-42.968750
4719		-44.921875
4720		-41.015625
4721		-42.968750
4722		-37.109375
4723		-39.062500
4724		-33.203125
4725		-37.109375
4726		-31.250000
4727		-33.203125
4728		-29.296875
4729		-29.296875
4730		-25.390625
4731		-27.343750
4732		-21.484375
4733		-23.437500
4734		-17.578125
4735		-19.531250
4736		-15.625000
4737		-15.625000
4738		-11.718750
4739		-13.671875
4740		-7.812500
4741		-9.765625
4742		-3.906250
4743		-5.859375
4744		0.000000
4745		-1.953125
4746		3.906250
4747		1.953125
4748		7.812500
4749		5.859375
4750		11.718750
4751		9.765625
4752		13.671875
4753		13.671875
4754		19.531250
4755		15.625000
4756		21.484375
4757		19.531250
4758		25.390625
4759		23.437500
4760		29.296875
4761		27.343750
4762		31.250000
4763		31.250000
4764		37.109375
4765		33.203125
4766		39.062500
4767		37.109375
4768		41.015625
4769		41.015625
4770		44.921875
4771		42.968750
4772		48.828125
4773		44.921875
4774		50.781250
4775		48.828125
4776		54.687500
4777		52.734375
4778		56.640625
4779		54.687500
4780		58.593750
4781		56.640625
4782		62.500000
4783		60.546875
4784		64.453125
4785		60.546875
4786		66.406250
4787		64.453125
4788		68.359375
4789		66.406250
4790		70.312500
4791		68.359375
4792		72.265625
4793		70.312500
4794		74.218750
4795		72.265625
4796		76.171875
4797		74.218750
4798		76.171875
4799		74.218750
4800		78.125000
4801		74.218750
4802		80.078125
4803		76.171875
4804		80.078125
4805		78.125000
4806		82.031250
4807		78.125000
4808		82.031250
4809		78.125000
4810		82.031250
4811		80.078125
4812		82.031250
4813		78.125000
4814		82.031250
4815		80.078125
4816		82.031250
4817		78.125000
4818		82.031250
4819		78.125000
4820		82.031250
4821		78.125000
4822		82.031250
4823		76.171875
4824		80.078125
4825		76.171875
4826		80.078125
4827		76.171875
4828		78.125000
4829		74.218750
4830		78.125000
4831		72.265625
4832		76.171875
4833		70.312500
4834		76.171875
4835		70.312500
4836		74.218750
4837		68.359375
4838		74.218750
4839		64.453125
4840		70.312500
4841		64.453125
4842		68.359375
4843		62.500000
4844		66.406250
4845		60.546875
4846		64.453125
4847		56.640625
4848		60.546875
4849		54.687500
4850		58.593750
4851		50.781250
4852		56.640625
4853		48.828125
4854		52.734375
4855		44.921875
4856		50.781250
4857		42.968750
4858		48.828125
4859		39.062500
4860		44.921875
4861		35.156250
4862		41.015625
4863		33.203125
4864		37.109375
4865		29.296875
4866		35.156250
4867		25.390625
4868		31.250000
4869		21.484375
4870		27.343750
4871		19.531250
4872		23.437500
4873		15.625000
4874		19.531250
4875		11.718750
4876		15.625000
4877		7.812500
4878		13.671875
4879		3.906250
4880		9.765625
4881		0.000000
4882		5.859375
4883		-3.906250
4884		1.953125
4885		-7.812500
4886		-1.953125
4887		-11.718750
4888		-5.859375
4889		-13.671875
4890		-9.765625
4891		-17.578125
4892		-11.718750
4893		-21.484375
4894		-15.625000
4895		-25.390625
4896		-19.531250
4897		-27.343750
4898		-23.437500
4899		-31.250000
4900		-27.343750
4901		-35.156250
4902		-29.296875
4903		-37.109375
4904		-33.203125
4905		-41.015625
4906		-35.156250
4907		-42.968750
4908		-39.062500
4909		-46.875000
4910		-41.015625
4911		-48.828125
4912		-44.921875
4913		-50.781250
4914		-46.875000
4915		-54.687500
4916		-48.828125
4917		-56.640625
4918		-50.781250
4919		-58.593750
4920		-52.734375
4921		-58.593750
4922		-54.687500
4923		-60.546875
4924		-56.640625
4925		-62.500000
4926		-58.593750
4927		-62.500000
4928		-60.546875
4929		-64.453125
4930		-60.546875
4931		-66.406250
4932		-62.500000
4933		-66.406250
4934		-62.500000
4935		-66.406250
4936		-62.500000
4937		-66.406250
4938		-64.453125
4939		-66.406250
4940		-64.453125
4941		-66.406250
4942		-62.500000
4943		-66.406250
4944		-62.500000
4945		-66.406250
4946		-62.500000
4947		-64.453125
4948		-62.500000
4949		-64.453125
4950		-60.546875
4951		-64.453125
4952		-60.546875
4953		-62.500000
4954		-58.593750
4955		-60.546875
4956		-56.640625
4957		-58.593750
4958		-54.687500
4959		-56.640625
4960		-52.734375
4961		-56.640625
4962		-50.781250
4963		-52.734375
4964		-48.828125
4965		-50.781250
4966		-46.875000
4967		-48.828125
4968		-44.921875
4969		-46.875000
4970		-41.015625
4971		-42.968750
4972		-39.062500
4973		-41.015625
4974		-35.156250
4975		-39.062500
4976		-33.203125
4977		-35.156250
4978		-29.296875
4979		-31.250000
4980		-25.390625
4981		-29.296875
4982		-21.484375
4983		-25.390625
4984		-19.531250
4985		-21.484375
4986		-15.625000
4987		-19.531250
4988		-11.718750
4989		-15.625000
4990		-9.765625
4991		-11.718750
4992		-5.859375
4993		-7.812500
4994		-1.953125
4995		-3.906250
4996		1.953125
4997		0.000000
4998		5.859375
4999		3.906250
5000		9.765625
5001		7.812500
5002		13.671875
5003		11.718750
5004		17.578125
5005		15.625000
5006		19.531250
5007		17.578125
5008		23.437500
5009		21.484375
5010		27.343750
5011		25.390625
5012		31.250000
5013		29.296875
5014		33.203125
5015		33.203125
5016		37.109375
5017		35.156250
5018		41.015625
5019		39.062500
5020		44.921875
5021		42.968750
5022		46.875000
5023		44.921875
5024		48.828125
5025		48.828125
5026		52.734375
5027		50.781250
5028		54.687500
5029		52.734375
5030		58.593750
5031		56.640625
5032		60.546875
5033		58.593750
5034		62.500000
5035		60.546875
5036		66.406250
5037		64.453125
5038		68.359375
5039		66.406250
5040		70.312500
5041		66.406250
5042		72.265625
5043		70.312500
5044		72.265625
5045		70.312500
5046		74.218750
5047		72.265625
5048		76.171875
5049		74.218750
5050		78.125000
5051		74.218750
5052		78.125000
5053		76.171875
5054		80.078125
5055		78.125000
5056		80.078125
5057		78.125000
5058		82.031250
5059		78.125000
5060		82.031250
5061		78.125000
5062		82.031250
5063		80.078125
5064		82.031250
5065		78.125000
5066		82.031250
5067		78.125000
5068		82.031250
5069		78.125000
5070		82.031250
5071		76.171875
5072		82.031250
5073		78.125000
5074		80.078125
5075		78.125000
5076		80.078125
5077		76.171875
5078		80.078125
5079		74.218750
5080		78.125000
5081		74.218750
5082		78.125000
5083		72.265625
5084		76.171875
5085		70.312500
5086		74.218750
5087		68.359375
5088		72.265625
5089		66.406250
5090		70.312500
5091		64.453125
5092		68.359375
5093		62.500000
5094		66.406250
5095		60.546875
5096		64.453125
5097		58.593750
5098		62.500000
5099		54.687500
5100		60.546875
5101		52.734375
5102		56.640625
5103		48.828125
5104		54.687500
5105		46.875000
5106		52.734375
5107		42.968750
5108		48.828125
5109		41.015625
5110		46.875000
5111		37.109375
5112		42.968750
5113		33.203125
5114		39.062500
5115		31.250000
5116		35.156250
5117		27.343750
5118		33.203125
5119		23.437500
5120		29.296875
5121		19.531250
5122		25.390625
5123		17.578125
5124		21.484375
5125		11.718750
5126		19.531250
5127		9.765625
5128		13.671875
5129		5.859375
5130		11.718750
5131		1.953125
5132		7.812500
5133		-1.953125
5134		3.906250
5135		-5.859375
5136		0.000000
5137		-9.765625
5138		-3.906250
5139		-13.671875
5140		-7.812500
5141		-15.625000
5142		-11.718750
5143		-19.531250
5144		-13.671875
5145		-23.437500
5146		-17.578125
5147		-27.343750
5148		-21.484375
5149		-29.296875
5150		-25.390625
5151		-33.203125
5152		-27.343750
5153		-37.109375
5154		-31.250000
5155		-39.062500
5156		-35.156250
5157		-42.968750
5158		-37.109375
5159		-44.921875
5160		-41.015625
5161		-48.828125
5162		-42.968750
5163		-50.781250
5164		-46.875000
5165		-52.734375
5166		-48.828125
5167		-54.687500
5168		-50.781250
5169		-56.640625
5170		-52.734375
5171		-58.593750
5172		-54.687500
5173		-60.546875
5174		-56.640625
5175		-62.500000
5176		-58.593750
5177		-62.500000
5178		-58.593750
5179		-64.453125
5180		-60.546875
5181		-64.453125
5182		-62.500000
5183		-66.406250
5184		-62.500000
5185		-66.406250
5186		-62.500000
5187		-66.406250
5188		-62.500000
5189		-66.406250
5190		-64.453125
5191		-66.406250
5192		-64.453125
5193		-68.359375
5194		-62.500000
5195		-66.406250
5196		-62.500000
5197		-66.406250
5198		-62.500000
5199		-64.453125
5200		-60.546875
5201		-64.453125
5202		-60.546875
5203		-62.500000
5204		-58.593750
5205		-62.500000
5206		-58.593750
5207		-58.593750
5208		-56.640625
5209		-58.593750
5210		-54.687500
5211		-56.640625
5212		-52.734375
5213		-54.687500
5214		-48.828125
5215		-52.734375
5216		-46.875000
5217		-48.828125
5218		-44.921875
5219		-46.875000
5220		-42.968750
5221		-44.921875
5222		-39.062500
5223		-41.015625
5224		-37.109375
5225		-39.062500
5226		-33.203125
5227		-35.156250
5228		-31.250000
5229		-33.203125
5230		-27.343750
5231		-29.296875
5232		-23.437500
5233		-25.390625
5234		-19.531250
5235		-23.437500
5236		-17.578125
5237		-19.531250
5238		-13.671875
5239		-15.625000
5240		-9.765625
5241		-11.718750
5242		-5.859375
5243		-7.812500
5244		-1.953125
5245		-3.906250
5246		1.953125
5247		0.000000
5248		3.906250
5249		1.953125
5250		7.812500
5251		5.859375
5252		11.718750
5253		9.765625
5254		15.625000
5255		13.671875
5256		19.531250
5257		17.578125
5258		23.437500
5259		21.484375
5260		27.343750
5261		25.390625
5262		29.296875
5263		27.343750
5264		33.203125
5265		31.250000
5266		37.109375
5267		35.156250
5268		39.062500
5269		37.109375
5270		42.968750
5271		41.015625
5272		46.875000
5273		44.921875
5274		48.828125
5275		46.875000
5276		52.734375
5277		50.781250
5278		54.687500
5279		52.734375
5280		56.640625
5281		54.687500
5282		60.546875
5283		58.593750
5284		62.500000
5285		58.593750
5286		66.406250
5287		62.500000
5288		66.406250
5289		64.453125
5290		68.359375
5291		68.359375
5292		70.312500
5293		70.312500
5294		74.218750
5295		70.312500
5296		76.171875
5297		72.265625
5298		76.171875
5299		74.218750
5300		78.125000
5301		76.171875
5302		80.078125
5303		76.171875
5304		80.078125
5305		76.171875
5306		80.078125
5307		78.125000
5308		80.078125
5309		78.125000
5310		82.031250
5311		78.125000
5312		82.031250
5313		80.078125
5314		83.984375
5315		80.078125
5316		83.984375
5317		80.078125
5318		82.031250
5319		80.078125
5320		82.031250
5321		78.125000
5322		82.031250
5323		78.125000
5324		82.031250
5325		78.125000
5326		80.078125
5327		76.171875
5328		80.078125
5329		76.171875
5330		80.078125
5331		74.218750
5332		78.125000
5333		72.265625
5334		78.125000
5335		72.265625
5336		76.171875
5337		70.312500
5338		74.218750
5339		66.406250
5340		72.265625
5341		66.406250
5342		70.312500
5343		64.453125
5344		68.359375
5345		60.546875
5346		66.406250
5347		58.593750
5348		64.453125
5349		56.640625
5350		62.500000
5351		54.687500
5352		58.593750
5353		50.781250
5354		56.640625
5355		48.828125
5356		52.734375
5357		44.921875
5358		50.781250
5359		42.968750
5360		46.875000
5361		39.062500
5362		44.921875
5363		35.156250
5364		41.015625
5365		31.250000
5366		37.109375
5367		29.296875
5368		35.156250
5369		25.390625
5370		31.250000
5371		21.484375
5372		27.343750
5373		17.578125
5374		23.437500
5375		15.625000
5376		19.531250
5377		11.718750
5378		15.625000
5379		7.812500
5380		13.671875
5381		3.906250
5382		9.765625
5383		0.000000
5384		5.859375
5385		-3.906250
5386		1.953125
5387		-7.812500
5388		-1.953125
5389		-11.718750
5390		-3.906250
5391		-13.671875
5392		-9.765625
5393		-17.578125
5394		-11.718750
5395		-21.484375
5396		-15.625000
5397		-25.390625
5398		-19.531250
5399		-27.343750
5400		-23.437500
5401		-31.250000
5402		-27.343750
5403		-35.156250
5404		-29.296875
5405		-37.109375
5406		-33.203125
5407		-41.015625
5408		-35.156250
5409		-42.968750
5410		-39.062500
5411		-46.875000
5412		-41.015625
5413		-48.828125
5414		-44.921875
5415		-50.781250
5416		-46.875000
5417		-52.734375
5418		-48.828125
5419		-54.687500
5420		-50.781250
5421		-56.640625
5422		-52.734375
5423		-60.546875
5424		-54.687500
5425		-60.546875
5426		-56.640625
5427		-62.500000
5428		-58.593750
5429		-62.500000
5430		-60.546875
5431		-64.453125
5432		-60.546875
5433		-64.453125
5434		-62.500000
5435		-66.406250
5436		-62.500000
5437		-66.406250
5438		-62.500000
5439		-66.406250
5440		-62.500000
5441		-66.406250
5442		-62.500000
5443		-66.406250
5444		-62.500000
5445		-66.406250
5446		-62.500000
5447		-66.406250
5448		-62.500000
5449		-64.453125
5450		-60.546875
5451		-64.453125
5452		-60.546875
5453		-62.500000
5454		-58.593750
5455		-60.546875
5456		-56.640625
5457		-60.546875
5458		-56.640625
5459		-58.593750
5460		-54.687500
5461		-56.640625
5462		-52.734375
5463		-54.687500
5464		-50.781250
5465		-52.734375
5466		-48.828125
5467		-50.781250
5468		-44.921875
5469		-48.828125
5470		-42.968750
5471		-44.921875
5472		-41.015625
5473		-42.968750
5474		-37.109375
5475		-39.062500
5476		-35.156250
5477		-37.109375
5478		-31.250000
5479		-33.203125
5480		-27.343750
5481		-29.296875
5482		-25.390625
5483		-27.343750
5484		-21.484375
5485		-23.437500
5486		-17.578125
5487		-19.531250
5488		-15.625000
5489		-15.625000
5490		-11.718750
5491		-13.671875
5492		-7.812500
5493		-9.765625
5494		-3.906250
5495		-5.859375
5496		0.000000
5497		-1.953125
5498		3.906250
5499		1.953125
5500		7.812500
5501		5.859375
5502		11.718750
5503		9.765625
5504		13.671875
5505		13.671875
5506		17.578125
5507		15.625000
5508		21.484375
5509		19.531250
5510		25.390625
5511		23.437500
5512		29.296875
5513		25.390625
5514		33.203125
5515		31.250000
5516		35.156250
5517		35.156250
5518		39.062500
5519		37.109375
5520		42.968750
5521		41.015625
5522		44.921875
5523		42.968750
5524		48.828125
5525		46.875000
5526		50.781250
5527		48.828125
5528		54.687500
5529		52.734375
5530		56.640625
5531		54.687500
5532		60.546875
5533		56.640625
5534		62.500000
5535		60.546875
5536		64.453125
5537		62.500000
5538		66.406250
5539		64.453125
5540		68.359375
5541		66.406250
5542		70.312500
5543		68.359375
5544		72.265625
5545		70.312500
5546		74.218750
5547		72.265625
5548		76.171875
5549		74.218750
5550		78.125000
5551		74.218750
5552		78.125000
5553		76.171875
5554		80.078125
5555		78.125000
5556		80.078125
5557		78.125000
5558		82.031250
5559		80.078125
5560		82.031250
5561		80.078125
5562		82.031250
5563		80.078125
5564		83.984375
5565		80.078125
5566		83.984375
5567		80.078125
5568		83.984375
5569		80.078125
5570		82.031250
5571		80.078125
5572		82.031250
5573		78.125000
5574		82.031250
5575		78.125000
5576		82.031250
5577		78.125000
5578		80.078125
5579		76.171875
5580		80.078125
5581		76.171875
5582		78.125000
5583		74.218750
5584		78.125000
5585		72.265625
5586		76.171875
5587		70.312500
5588		76.171875
5589		68.359375
5590		74.218750
5591		66.406250
5592		72.265625
5593		66.406250
5594		68.359375
5595		62.500000
5596		66.406250
5597		60.546875
5598		66.406250
5599		58.593750
5600		62.500000
5601		56.640625
5602		60.546875
5603		52.734375
5604		58.593750
5605		48.828125
5606		54.687500
5607		46.875000
5608		52.734375
5609		44.921875
5610		48.828125
5611		41.015625
5612		44.921875
5613		37.109375
5614		42.968750
5615		35.156250
5616		41.015625
5617		31.250000
5618		37.109375
5619		27.343750
5620		33.203125
5621		23.437500
5622		29.296875
5623		21.484375
5624		25.390625
5625		17.578125
5626		23.437500
5627		13.671875
5628		17.578125
5629		9.765625
5630		15.625000
5631		5.859375
5632		11.718750
5633		1.953125
5634		7.812500
5635		-1.953125
5636		3.906250
5637		-5.859375
5638		0.000000
5639		-9.765625
5640		-3.906250
5641		-13.671875
5642		-7.812500
5643		-15.625000
5644		-11.718750
5645		-19.531250
5646		-13.671875
5647		-23.437500
5648		-17.578125
5649		-27.343750
5650		-21.484375
5651		-29.296875
5652		-25.390625
5653		-33.203125
5654		-27.343750
5655		-37.109375
5656		-31.250000
5657		-39.062500
5658		-33.203125
5659		-41.015625
5660		-35.156250
5661		-44.921875
5662		-41.015625
5663		-46.875000
5664		-42.968750
5665		-48.828125
5666		-44.921875
5667		-50.781250
5668		-46.875000
5669		-54.687500
5670		-50.781250
5671		-56.640625
5672		-50.781250
5673		-58.593750
5674		-54.687500
5675		-60.546875
5676		-54.687500
5677		-60.546875
5678		-56.640625
5679		-62.500000
5680		-58.593750
5681		-62.500000
5682		-58.593750
5683		-64.453125
5684		-60.546875
5685		-64.453125
5686		-62.500000
5687		-64.453125
5688		-62.500000
5689		-66.406250
5690		-62.500000
5691		-66.406250
5692		-62.500000
5693		-66.406250
5694		-62.500000
5695		-64.453125
5696		-62.500000
5697		-64.453125
5698		-62.500000
5699		-64.453125
5700		-60.546875
5701		-64.453125
5702		-60.546875
5703		-62.500000
5704		-58.593750
5705		-60.546875
5706		-58.593750
5707		-60.546875
5708		-56.640625
5709		-58.593750
5710		-54.687500
5711		-56.640625
5712		-52.734375
5713		-54.687500
5714		-50.781250
5715		-52.734375
5716		-48.828125
5717		-50.781250
5718		-46.875000
5719		-48.828125
5720		-42.968750
5721		-44.921875
5722		-41.015625
5723		-42.968750
5724		-37.109375
5725		-41.015625
5726		-35.156250
5727		-37.109375
5728		-33.203125
5729		-33.203125
5730		-29.296875
5731		-31.250000
5732		-25.390625
5733		-27.343750
5734		-23.437500
5735		-25.390625
5736		-19.531250
5737		-21.484375
5738		-15.625000
5739		-17.578125
5740		-11.718750
5741		-13.671875
5742		-7.812500
5743		-11.718750
5744		-5.859375
5745		-7.812500
5746		-1.953125
5747		-3.906250
5748		1.953125
5749		0.000000
5750		5.859375
5751		3.906250
5752		9.765625
5753		7.812500
5754		13.671875
5755		9.765625
5756		17.578125
5757		15.625000
5758		19.531250
5759		17.578125
5760		23.437500
5761		21.484375
5762		27.343750
5763		25.390625
5764		31.250000
5765		29.296875
5766		35.156250
5767		33.203125
5768		39.062500
5769		35.156250
5770		41.015625
5771		39.062500
5772		44.921875
5773		42.968750
5774		46.875000
5775		44.921875
5776		50.781250
5777		46.875000
5778		52.734375
5779		50.781250
5780		56.640625
5781		54.687500
5782		58.593750
5783		56.640625
5784		60.546875
5785		58.593750
5786		64.453125
5787		60.546875
5788		66.406250
5789		64.453125
5790		68.359375
5791		66.406250
5792		70.312500
5793		68.359375
5794		72.265625
5795		70.312500
5796		74.218750
5797		72.265625
5798		76.171875
5799		72.265625
5800		78.125000
5801		74.218750
5802		78.125000
5803		76.171875
5804		80.078125
5805		78.125000
5806		80.078125
5807		78.125000
5808		82.031250
5809		78.125000
5810		82.031250
5811		80.078125
5812		82.031250
5813		80.078125
5814		82.031250
5815		80.078125
5816		83.984375
5817		80.078125
5818		83.984375
5819		80.078125
5820		83.984375
5821		80.078125
5822		83.984375
5823		80.078125
5824		83.984375
5825		80.078125
5826		82.031250
5827		78.125000
5828		82.031250
5829		78.125000
5830		80.078125
5831		76.171875
5832		80.078125
5833		74.218750
5834		78.125000
5835		74.218750
5836		78.125000
5837		72.265625
5838		76.171875
5839		70.312500
5840		74.218750
5841		68.359375
5842		72.265625
5843		66.406250
5844		70.312500
5845		64.453125
5846		68.359375
5847		62.500000
5848		66.406250
5849		60.546875
5850		64.453125
5851		56.640625
5852		62.500000
5853		54.687500
5854		58.593750
5855		50.781250
5856		56.640625
5857		48.828125
5858		52.734375
5859		44.921875
5860		50.781250
5861		42.968750
5862		48.828125
5863		39.062500
5864		44.921875
5865		35.156250
5866		41.015625
5867		31.250000
5868		39.062500
5869		29.296875
5870		35.156250
5871		25.390625
5872		31.250000
5873		21.484375
5874		27.343750
5875		17.578125
5876		25.390625
5877		15.625000
5878		19.531250
5879		11.718750
5880		15.625000
5881		5.859375
5882		13.671875
5883		3.906250
5884		9.765625
5885		0.000000
5886		5.859375
5887		-3.906250
5888		1.953125
5889		-7.812500
5890		-1.953125
5891		-11.718750
5892		-3.906250
5893		-15.625000
5894		-9.765625
5895		-17.578125
5896		-11.718750
5897		-21.484375
5898		-15.625000
5899		-25.390625
5900		-19.531250
5901		-27.343750
5902		-23.437500
5903		-31.250000
5904		-25.390625
5905		-35.156250
5906		-29.296875
5907		-39.062500
5908		-31.250000
5909		-41.015625
5910		-35.156250
5911		-42.968750
5912		-37.109375
5913		-46.875000
5914		-41.015625
5915		-48.828125
5916		-44.921875
5917		-50.781250
5918		-44.921875
5919		-52.734375
5920		-48.828125
5921		-54.687500
5922		-48.828125
5923		-56.640625
5924		-50.781250
5925		-58.593750
5926		-54.687500
5927		-60.546875
5928		-54.687500
5929		-60.546875
5930		-58.593750
5931		-62.500000
5932		-58.593750
5933		-64.453125
5934		-60.546875
5935		-64.453125
5936		-60.546875
5937		-66.406250
5938		-60.546875
5939		-66.406250
5940		-60.546875
5941		-66.406250
5942		-62.500000
5943		-66.406250
5944		-60.546875
5945		-64.453125
5946		-62.500000
5947		-64.453125
5948		-62.500000
5949		-64.453125
5950		-60.546875
5951		-64.453125
5952		-58.593750
5953		-64.453125
5954		-58.593750
5955		-62.500000
5956		-56.640625
5957		-60.546875
5958		-56.640625
5959		-60.546875
5960		-54.687500
5961		-58.593750
5962		-52.734375
5963		-54.687500
5964		-50.781250
5965		-52.734375
5966		-48.828125
5967		-52.734375
5968		-44.921875
5969		-48.828125
5970		-42.968750
5971		-48.828125
5972		-41.015625
5973		-44.921875
5974		-39.062500
5975		-41.015625
5976		-35.156250
5977		-39.062500
5978		-33.203125
5979		-35.156250
5980		-31.250000
5981		-31.250000
5982		-27.343750
5983		-29.296875
5984		-23.437500
5985		-25.390625
5986		-21.484375
5987		-21.484375
5988		-17.578125
5989		-19.531250
5990		-13.671875
5991		-15.625000
5992		-9.765625
5993		-11.718750
5994		-5.859375
5995		-7.812500
5996		-1.953125
5997		-3.906250
5998		0.000000
5999		0.000000
6000		3.906250
6001		3.906250
6002		7.812500
6003		5.859375
6004		11.718750
6005		9.765625
6006		15.625000
6007		13.671875
6008		19.531250
6009		17.578125
6010		23.437500
6011		21.484375
6012		27.343750
6013		25.390625
6014		29.296875
6015		29.296875
6016		33.203125
6017		31.250000
6018		37.109375
6019		35.156250
6020		39.062500
6021		39.062500
6022		42.968750
6023		41.015625
6024		46.875000
6025		44.921875
6026		48.828125
6027		48.828125
6028		52.734375
6029		50.781250
6030		54.687500
6031		52.734375
6032		58.593750
6033		56.640625
6034		60.546875
6035		58.593750
6036		62.500000
6037		60.546875
6038		64.453125
6039		62.500000
6040		68.359375
6041		66.406250
6042		70.312500
6043		68.359375
6044		72.265625
6045		70.312500
6046		74.218750
6047		72.265625
6048		74.218750
6049		72.265625
6050		76.171875
6051		74.218750
6052		78.125000
6053		76.171875
6054		78.125000
6055		78.125000
6056		80.078125
6057		78.125000
6058		82.031250
6059		78.125000
6060		82.031250
6061		80.078125
6062		82.031250
6063		80.078125
6064		82.031250
6065		80.078125
6066		83.984375
6067		80.078125
6068		83.984375
6069		80.078125
6070		83.984375
6071		80.078125
6072		83.984375
6073		80.078125
6074		82.031250
6075		78.125000
6076		83.984375
6077		78.125000
6078		82.031250
6079		78.125000
6080		80.078125
6081		76.171875
6082		80.078125
6083		72.265625
6084		82.031250
6085		72.265625
6086		80.078125
6087		70.312500
6088		80.078125
6089		70.312500
6090		78.125000
6091		68.359375
6092		72.265625
6093		68.359375
6094		70.312500
6095		64.453125
6096		70.312500
6097		62.500000
6098		66.406250
6099		60.546875
6100		64.453125
6101		56.640625
6102		64.453125
6103		52.734375
6104		62.500000
6105		50.781250
6106		60.546875
6107		50.781250
6108		54.687500
6109		46.875000
6110		52.734375
6111		42.968750
6112		48.828125
6113		41.015625
6114		44.921875
6115		37.109375
6116		42.968750
6117		31.250000
6118		41.015625
6119		27.343750
6120		37.109375
6121		23.437500
6122		35.156250
6123		23.437500
6124		31.250000
6125		19.531250
6126		25.390625
6127		15.625000
6128		21.484375
6129		13.671875
6130		17.578125
6131		9.765625
6132		13.671875
6133		5.859375
6134		9.765625
6135		-1.953125
6136		9.765625
6137		-5.859375
6138		7.812500
6139		-7.812500
6140		1.953125
6141		-9.765625
6142		-3.906250
6143		-13.671875
6144		-7.812500
6145		-15.625000
6146		-11.718750
6147		-19.531250
6148		-15.625000
6149		-23.437500
6150		-17.578125
6151		-31.250000
6152		-19.531250
6153		-33.203125
6154		-23.437500
6155		-37.109375
6156		-25.390625
6157		-37.109375
6158		-31.250000
6159		-39.062500
6160		-35.156250
6161		-42.968750
6162		-37.109375
6163		-44.921875
6164		-39.062500
6165		-46.875000
6166		-42.968750
6167		-52.734375
6168		-44.921875
6169		-54.687500
6170		-44.921875
6171		-58.593750
6172		-46.875000
6173		-58.593750
6174		-48.828125
6175		-58.593750
6176		-54.687500
6177		-58.593750
6178		-56.640625
6179		-60.546875
6180		-58.593750
6181		-62.500000
6182		-58.593750
6183		-62.500000
6184		-60.546875
6185		-68.359375
6186		-56.640625
6187		-68.359375
6188		-58.593750
6189		-68.359375
6190		-58.593750
6191		-66.406250
6192		-62.500000
6193		-66.406250
6194		-62.500000
6195		-64.453125
6196		-62.500000
6197		-64.453125
6198		-62.500000
6199		-64.453125
6200		-62.500000
6201		-66.406250
6202		-58.593750
6203		-66.406250
6204		-56.640625
6205		-66.406250
6206		-54.687500
6207		-64.453125
6208		-54.687500
6209		-60.546875
6210		-56.640625
6211		-58.593750
6212		-54.687500
6213		-56.640625
6214		-52.734375
6215		-54.687500
6216		-50.781250
6217		-52.734375
6218		-48.828125
6219		-54.687500
6220		-42.968750
6221		-50.781250
6222		-41.015625
6223		-48.828125
6224		-39.062500
6225		-42.968750
6226		-37.109375
6227		-39.062500
6228		-35.156250
6229		-37.109375
6230		-31.250000
6231		-33.203125
6232		-29.296875
6233		-31.250000
6234		-25.390625
6235		-29.296875
6236		-19.531250
6237		-25.390625
6238		-15.625000
6239		-21.484375
6240		-11.718750
6241		-17.578125
6242		-11.718750
6243		-13.671875
6244		-7.812500
6245		-9.765625
6246		-3.906250
6247		-5.859375
6248		0.000000
6249		-1.953125
6250		1.953125
6251		1.953125
6252		9.765625
6253		1.953125
6254		13.671875
6255		5.859375
6256		17.578125
6257		7.812500
6258		17.578125
6259		15.625000
6260		21.484375
6261		19.531250
6262		25.390625
6263		23.437500
6264		29.296875
6265		27.343750
6266		31.250000
6267		29.296875
6268		35.156250
6269		33.203125
6270		39.062500
6271		35.156250
6272		42.968750
6273		39.062500
6274		46.875000
6275		42.968750
6276		46.875000
6277		46.875000
6278		50.781250
6279		48.828125
6280		52.734375
6281		52.734375
6282		56.640625
6283		54.687500
6284		58.593750
6285		56.640625
6286		60.546875
6287		60.546875
6288		66.406250
6289		60.546875
6290		68.359375
6291		64.453125
6292		68.359375
6293		66.406250
6294		70.312500
6295		68.359375
6296		72.265625
6297		70.312500
6298		74.218750
6299		72.265625
6300		76.171875
6301		74.218750
6302		78.125000
6303		74.218750
6304		78.125000
6305		74.218750
6306		82.031250
6307		76.171875
6308		82.031250
6309		78.125000
6310		82.031250
6311		80.078125
6312		82.031250
6313		80.078125
6314		82.031250
6315		80.078125
6316		82.031250
6317		80.078125
6318		82.031250
6319		80.078125
6320		83.984375
6321		80.078125
6322		82.031250
6323		80.078125
6324		82.031250
6325		80.078125
6326		82.031250
6327		80.078125
6328		82.031250
6329		78.125000
6330		80.078125
6331		76.171875
6332		80.078125
6333		76.171875
6334		78.125000
6335		74.218750
6336		78.125000
6337		74.218750
6338		76.171875
6339		72.265625
6340		74.218750
6341		70.312500
6342		74.218750
6343		68.359375
6344		72.265625
6345		66.406250
6346		70.312500
6347		64.453125
6348		68.359375
6349		60.546875
6350		66.406250
6351		58.593750
6352		62.500000
6353		56.640625
6354		60.546875
6355		54.687500
6356		58.593750
6357		50.781250
6358		54.687500
6359		48.828125
6360		52.734375
6361		44.921875
6362		48.828125
6363		41.015625
6364		46.875000
6365		39.062500
6366		42.968750
6367		35.156250
6368		39.062500
6369		31.250000
6370		37.109375
6371		27.343750
6372		33.203125
6373		25.390625
6374		29.296875
6375		21.484375
6376		25.390625
6377		17.578125
6378		23.437500
6379		13.671875
6380		19.531250
6381		9.765625
6382		15.625000
6383		5.859375
6384		11.718750
6385		1.953125
6386		7.812500
6387		-1.953125
6388		3.906250
6389		-3.906250
6390		1.953125
6391		-7.812500
6392		-1.953125
6393		-13.671875
6394		-5.859375
6395		-15.625000
6396		-9.765625
6397		-19.531250
6398		-13.671875
6399		-21.484375
6400		-17.578125
6401		-25.390625
6402		-21.484375
6403		-29.296875
6404		-23.437500
6405		-33.203125
6406		-27.343750
6407		-35.156250
6408		-31.250000
6409		-39.062500
6410		-33.203125
6411		-41.015625
6412		-37.109375
6413		-44.921875
6414		-39.062500
6415		-46.875000
6416		-42.968750
6417		-48.828125
6418		-44.921875
6419		-52.734375
6420		-46.875000
6421		-54.687500
6422		-48.828125
6423		-54.687500
6424		-50.781250
6425		-56.640625
6426		-52.734375
6427		-60.546875
6428		-54.687500
6429		-60.546875
6430		-56.640625
6431		-62.500000
6432		-58.593750
6433		-62.500000
6434		-60.546875
6435		-64.453125
6436		-60.546875
6437		-66.406250
6438		-60.546875
6439		-66.406250
6440		-62.500000
6441		-66.406250
6442		-62.500000
6443		-66.406250
6444		-62.500000
6445		-66.406250
6446		-62.500000
6447		-66.406250
6448		-62.500000
6449		-64.453125
6450		-62.500000
6451		-64.453125
6452		-62.500000
6453		-66.406250
6454		-60.546875
6455		-64.453125
6456		-58.593750
6457		-62.500000
6458		-58.593750
6459		-60.546875
6460		-56.640625
6461		-60.546875
6462		-54.687500
6463		-56.640625
6464		-52.734375
6465		-54.687500
6466		-50.781250
6467		-52.734375
6468		-48.828125
6469		-50.781250
6470		-46.875000
6471		-50.781250
6472		-44.921875
6473		-46.875000
6474		-41.015625
6475		-42.968750
6476		-39.062500
6477		-41.015625
6478		-35.156250
6479		-39.062500
6480		-33.203125
6481		-35.156250
6482		-31.250000
6483		-31.250000
6484		-27.343750
6485		-29.296875
6486		-23.437500
6487		-25.390625
6488		-19.531250
6489		-21.484375
6490		-17.578125
6491		-17.578125
6492		-13.671875
6493		-15.625000
6494		-9.765625
6495		-11.718750
6496		-5.859375
6497		-7.812500
6498		-1.953125
6499		-3.906250
6500		1.953125
6501		0.000000
6502		3.906250
6503		3.906250
6504		9.765625
6505		5.859375
6506		13.671875
6507		9.765625
6508		15.625000
6509		13.671875
6510		19.531250
6511		17.578125
6512		23.437500
6513		21.484375
6514		27.343750
6515		25.390625
6516		29.296875
6517		29.296875
6518		33.203125
6519		31.250000
6520		37.109375
6521		33.203125
6522		39.062500
6523		37.109375
6524		42.968750
6525		41.015625
6526		46.875000
6527		44.921875
6528		48.828125
6529		46.875000
6530		52.734375
6531		50.781250
6532		54.687500
6533		52.734375
6534		56.640625
6535		56.640625
6536		60.546875
6537		58.593750
6538		64.453125
6539		60.546875
6540		66.406250
6541		64.453125
6542		68.359375
6543		66.406250
6544		70.312500
6545		66.406250
6546		72.265625
6547		68.359375
6548		74.218750
6549		72.265625
6550		74.218750
6551		72.265625
6552		76.171875
6553		74.218750
6554		78.125000
6555		74.218750
6556		78.125000
6557		76.171875
6558		80.078125
6559		78.125000
6560		80.078125
6561		78.125000
6562		82.031250
6563		80.078125
6564		82.031250
6565		80.078125
6566		82.031250
6567		80.078125
6568		82.031250
6569		80.078125
6570		82.031250
6571		80.078125
6572		83.984375
6573		80.078125
6574		82.031250
6575		78.125000
6576		82.031250
6577		80.078125
6578		82.031250
6579		78.125000
6580		82.031250
6581		78.125000
6582		80.078125
6583		76.171875
6584		80.078125
6585		74.218750
6586		78.125000
6587		74.218750
6588		78.125000
6589		72.265625
6590		76.171875
6591		70.312500
6592		74.218750
6593		68.359375
6594		72.265625
6595		66.406250
6596		70.312500
6597		64.453125
6598		68.359375
6599		62.500000
6600		66.406250
6601		60.546875
6602		64.453125
6603		56.640625
6604		62.500000
6605		54.687500
6606		58.593750
6607		52.734375
6608		56.640625
6609		48.828125
6610		54.687500
6611		46.875000
6612		50.781250
6613		42.968750
6614		46.875000
6615		39.062500
6616		44.921875
6617		37.109375
6618		41.015625
6619		33.203125
6620		39.062500
6621		29.296875
6622		35.156250
6623		25.390625
6624		31.250000
6625		21.484375
6626		27.343750
6627		19.531250
6628		23.437500
6629		15.625000
6630		21.484375
6631		11.718750
6632		17.578125
6633		7.812500
6634		13.671875
6635		3.906250
6636		9.765625
6637		0.000000
6638		5.859375
6639		-3.906250
6640		1.953125
6641		-5.859375
6642		-1.953125
6643		-9.765625
6644		-5.859375
6645		-13.671875
6646		-7.812500
6647		-17.578125
6648		-11.718750
6649		-21.484375
6650		-15.625000
6651		-25.390625
6652		-19.531250
6653		-27.343750
6654		-23.437500
6655		-31.250000
6656		-25.390625
6657		-33.203125
6658		-29.296875
6659		-37.109375
6660		-33.203125
6661		-39.062500
6662		-35.156250
6663		-42.968750
6664		-39.062500
6665		-44.921875
6666		-41.015625
6667		-48.828125
6668		-44.921875
6669		-50.781250
6670		-44.921875
6671		-52.734375
6672		-48.828125
6673		-54.687500
6674		-50.781250
6675		-56.640625
6676		-52.734375
6677		-58.593750
6678		-54.687500
6679		-60.546875
6680		-56.640625
6681		-60.546875
6682		-58.593750
6683		-62.500000
6684		-60.546875
6685		-62.500000
6686		-60.546875
6687		-64.453125
6688		-62.500000
6689		-64.453125
6690		-60.546875
6691		-64.453125
6692		-62.500000
6693		-66.406250
6694		-62.500000
6695		-66.406250
6696		-62.500000
6697		-66.406250
6698		-62.500000
6699		-64.453125
6700		-62.500000
6701		-64.453125
6702		-62.500000
6703		-64.453125
6704		-60.546875
6705		-64.453125
6706		-58.593750
6707		-62.500000
6708		-58.593750
6709		-60.546875
6710		-56.640625
6711		-60.546875
6712		-56.640625
6713		-58.593750
6714		-54.687500
6715		-56.640625
6716		-52.734375
6717		-54.687500
6718		-50.781250
6719		-52.734375
6720		-46.875000
6721		-48.828125
6722		-44.921875
6723		-48.828125
6724		-41.015625
6725		-44.921875
6726		-41.015625
6727		-41.015625
6728		-37.109375
6729		-39.062500
6730		-35.156250
6731		-35.156250
6732		-31.250000
6733		-33.203125
6734		-27.343750
6735		-29.296875
6736		-25.390625
6737		-27.343750
6738		-21.484375
6739		-23.437500
6740		-17.578125
6741		-19.531250
6742		-15.625000
6743		-15.625000
6744		-11.718750
6745		-11.718750
6746		-7.812500
6747		-9.765625
6748		-3.906250
6749		-5.859375
6750		0.000000
6751		-1.953125
6752		3.906250
6753		1.953125
6754		7.812500
6755		5.859375
6756		13.671875
6757		7.812500
6758		15.625000
6759		11.718750
6760		17.578125
6761		15.625000
6762		21.484375
6763		19.531250
6764		25.390625
6765		23.437500
6766		29.296875
6767		27.343750
6768		33.203125
6769		31.250000
6770		35.156250
6771		33.203125
6772		39.062500
6773		37.109375
6774		42.968750
6775		39.062500
6776		44.921875
6777		42.968750
6778		48.828125
6779		46.875000
6780		50.781250
6781		48.828125
6782		54.687500
6783		52.734375
6784		56.640625
6785		54.687500
6786		60.546875
6787		58.593750
6788		62.500000
6789		60.546875
6790		66.406250
6791		60.546875
6792		68.359375
6793		64.453125
6794		68.359375
6795		66.406250
6796		70.312500
6797		70.312500
6798		72.265625
6799		70.312500
6800		74.218750
6801		72.265625
6802		76.171875
6803		74.218750
6804		78.125000
6805		76.171875
6806		78.125000
6807		76.171875
6808		82.031250
6809		76.171875
6810		82.031250
6811		78.125000
6812		82.031250
6813		80.078125
6814		82.031250
6815		80.078125
6816		82.031250
6817		80.078125
6818		82.031250
6819		80.078125
6820		82.031250
6821		80.078125
6822		83.984375
6823		78.125000
6824		83.984375
6825		78.125000
6826		83.984375
6827		80.078125
6828		82.031250
6829		78.125000
6830		82.031250
6831		78.125000
6832		80.078125
6833		76.171875
6834		80.078125
6835		76.171875
6836		78.125000
6837		74.218750
6838		78.125000
6839		72.265625
6840		76.171875
6841		70.312500
6842		76.171875
6843		70.312500
6844		74.218750
6845		68.359375
6846		70.312500
6847		66.406250
6848		70.312500
6849		62.500000
6850		68.359375
6851		60.546875
6852		64.453125
6853		58.593750
6854		62.500000
6855		54.687500
6856		60.546875
6857		52.734375
6858		58.593750
6859		50.781250
6860		56.640625
6861		46.875000
6862		52.734375
6863		44.921875
6864		48.828125
6865		41.015625
6866		46.875000
6867		39.062500
6868		42.968750
6869		35.156250
6870		39.062500
6871		31.250000
6872		37.109375
6873		25.390625
6874		33.203125
6875		23.437500
6876		31.250000
6877		21.484375
6878		25.390625
6879		17.578125
6880		21.484375
6881		13.671875
6882		17.578125
6883		9.765625
6884		15.625000
6885		5.859375
6886		11.718750
6887		1.953125
6888		7.812500
6889		-1.953125
6890		3.906250
6891		-5.859375
6892		1.953125
6893		-9.765625
6894		-3.906250
6895		-11.718750
6896		-7.812500
6897		-15.625000
6898		-9.765625
6899		-19.531250
6900		-13.671875
6901		-23.437500
6902		-17.578125
6903		-25.390625
6904		-21.484375
6905		-29.296875
6906		-25.390625
6907		-33.203125
6908		-27.343750
6909		-35.156250
6910		-31.250000
6911		-39.062500
6912		-33.203125
6913		-41.015625
6914		-37.109375
6915		-44.921875
6916		-39.062500
6917		-46.875000
6918		-42.968750
6919		-48.828125
6920		-44.921875
6921		-50.781250
6922		-46.875000
6923		-54.687500
6924		-50.781250
6925		-56.640625
6926		-50.781250
6927		-56.640625
6928		-54.687500
6929		-58.593750
6930		-54.687500
6931		-60.546875
6932		-56.640625
6933		-62.500000
6934		-58.593750
6935		-62.500000
6936		-60.546875
6937		-64.453125
6938		-60.546875
6939		-64.453125
6940		-62.500000
6941		-64.453125
6942		-62.500000
6943		-66.406250
6944		-62.500000
6945		-66.406250
6946		-62.500000
6947		-66.406250
6948		-62.500000
6949		-64.453125
6950		-62.500000
6951		-64.453125
6952		-62.500000
6953		-64.453125
6954		-60.546875
6955		-64.453125
6956		-60.546875
6957		-62.500000
6958		-60.546875
6959		-60.546875
6960		-58.593750
6961		-60.546875
6962		-56.640625
6963		-58.593750
6964		-54.687500
6965		-56.640625
6966		-52.734375
6967		-54.687500
6968		-50.781250
6969		-52.734375
6970		-48.828125
6971		-50.781250
6972		-46.875000
6973		-48.828125
6974		-44.921875
6975		-44.921875
6976		-41.015625
6977		-42.968750
6978		-39.062500
6979		-41.015625
6980		-35.156250
6981		-37.109375
6982		-33.203125
6983		-35.156250
6984		-29.296875
6985		-31.250000
6986		-27.343750
6987		-27.343750
6988		-23.437500
6989		-25.390625
6990		-19.531250
6991		-21.484375
6992		-15.625000
6993		-17.578125
6994		-13.671875
6995		-13.671875
6996		-9.765625
6997		-11.718750
6998		-5.859375
6999		-7.812500
7000		-1.953125
7001		-3.906250
7002		1.953125
7003		0.000000
7004		5.859375
7005		3.906250
7006		9.765625
7007		7.812500
7008		13.671875
7009		11.718750
7010		15.625000
7011		15.625000
7012		19.531250
7013		17.578125
7014		23.437500
7015		21.484375
7016		27.343750
7017		25.390625
7018		31.250000
7019		29.296875
7020		33.203125
7021		33.203125
7022		37.109375
7023		35.156250
7024		41.015625
7025		39.062500
7026		42.968750
7027		42.968750
7028		46.875000
7029		44.921875
7030		50.781250
7031		48.828125
7032		52.734375
7033		50.781250
7034		54.687500
7035		54.687500
7036		58.593750
7037		56.640625
7038		60.546875
7039		58.593750
7040		64.453125
7041		62.500000
7042		66.406250
7043		64.453125
7044		68.359375
7045		66.406250
7046		70.312500
7047		68.359375
7048		72.265625
7049		70.312500
7050		74.218750
7051		72.265625
7052		74.218750
7053		74.218750
7054		76.171875
7055		74.218750
7056		78.125000
7057		76.171875
7058		78.125000
7059		76.171875
7060		80.078125
7061		78.125000
7062		80.078125
7063		78.125000
7064		82.031250
7065		80.078125
7066		82.031250
7067		80.078125
7068		82.031250
7069		80.078125
7070		82.031250
7071		80.078125
7072		82.031250
7073		80.078125
7074		82.031250
7075		80.078125
7076		82.031250
7077		80.078125
7078		82.031250
7079		80.078125
7080		82.031250
7081		78.125000
7082		80.078125
7083		78.125000
7084		80.078125
7085		76.171875
7086		80.078125
7087		74.218750
7088		78.125000
7089		74.218750
7090		76.171875
7091		72.265625
7092		76.171875
7093		70.312500
7094		74.218750
7095		68.359375
7096		72.265625
7097		66.406250
7098		70.312500
7099		64.453125
7100		68.359375
7101		62.500000
7102		66.406250
7103		60.546875
7104		64.453125
7105		56.640625
7106		60.546875
7107		54.687500
7108		58.593750
7109		50.781250
7110		56.640625
7111		48.828125
7112		52.734375
7113		44.921875
7114		50.781250
7115		42.968750
7116		46.875000
7117		39.062500
7118		42.968750
7119		35.156250
7120		41.015625
7121		33.203125
7122		37.109375
7123		29.296875
7124		35.156250
7125		25.390625
7126		31.250000
7127		21.484375
7128		27.343750
7129		17.578125
7130		23.437500
7131		13.671875
7132		19.531250
7133		11.718750
7134		15.625000
7135		7.812500
7136		11.718750
7137		3.906250
7138		7.812500
7139		0.000000
7140		5.859375
7141		-3.906250
7142		1.953125
7143		-7.812500
7144		-1.953125
7145		-11.718750
7146		-5.859375
7147		-13.671875
7148		-9.765625
7149		-17.578125
7150		-13.671875
7151		-21.484375
7152		-15.625000
7153		-25.390625
7154		-19.531250
7155		-27.343750
7156		-23.437500
7157		-31.250000
7158		-25.390625
7159		-35.156250
7160		-29.296875
7161		-37.109375
7162		-33.203125
7163		-41.015625
7164		-37.109375
7165		-42.968750
7166		-39.062500
7167		-46.875000
7168		-41.015625
7169		-48.828125
7170		-44.921875
7171		-50.781250
7172		-46.875000
7173		-52.734375
7174		-48.828125
7175		-54.687500
7176		-50.781250
7177		-56.640625
7178		-52.734375
7179		-58.593750
7180		-54.687500
7181		-60.546875
7182		-56.640625
7183		-60.546875
7184		-58.593750
7185		-62.500000
7186		-60.546875
7187		-64.453125
7188		-60.546875
7189		-64.453125
7190		-62.500000
7191		-64.453125
7192		-62.500000
7193		-64.453125
7194		-62.500000
7195		-64.453125
7196		-62.500000
7197		-66.406250
7198		-62.500000
7199		-64.453125
7200		-62.500000
7201		-64.453125
7202		-62.500000
7203		-64.453125
7204		-62.500000
7205		-64.453125
7206		-60.546875
7207		-62.500000
7208		-60.546875
7209		-62.500000
7210		-58.593750
7211		-60.546875
7212		-56.640625
7213		-58.593750
7214		-56.640625
7215		-56.640625
7216		-54.687500
7217		-56.640625
7218		-52.734375
7219		-54.687500
7220		-48.828125
7221		-50.781250
7222		-46.875000
7223		-48.828125
7224		-44.921875
7225		-46.875000
7226		-42.968750
7227		-44.921875
7228		-39.062500
7229		-41.015625
7230		-37.109375
7231		-39.062500
7232		-33.203125
7233		-35.156250
7234		-31.250000
7235		-33.203125
7236		-27.343750
7237		-29.296875
7238		-25.390625
7239		-25.390625
7240		-21.484375
7241		-23.437500
7242		-17.578125
7243		-19.531250
7244		-13.671875
7245		-15.625000
7246		-11.718750
7247		-11.718750
7248		-7.812500
7249		-7.812500
7250		-3.906250
7251		-3.906250
7252		0.000000
7253		-1.953125
7254		3.906250
7255		1.953125
7256		7.812500
7257		5.859375
7258		11.718750
7259		9.765625
7260		15.625000
7261		13.671875
7262		19.531250
7263		17.578125
7264		23.437500
7265		21.484375
7266		25.390625
7267		23.437500
7268		29.296875
7269		27.343750
7270		33.203125
7271		31.250000
7272		35.156250
7273		35.156250
7274		39.062500
7275		37.109375
7276		42.968750
7277		41.015625
7278		44.921875
7279		44.921875
7280		48.828125
7281		46.875000
7282		50.781250
7283		50.781250
7284		54.687500
7285		52.734375
7286		56.640625
7287		56.640625
7288		60.546875
7289		58.593750
7290		62.500000
7291		60.546875
7292		64.453125
7293		62.500000
7294		66.406250
7295		64.453125
7296		68.359375
7297		66.406250
7298		70.312500
7299		70.312500
7300		72.265625
7301		72.265625
7302		74.218750
7303		72.265625
7304		76.171875
7305		74.218750
7306		78.125000
7307		76.171875
7308		78.125000
7309		76.171875
7310		80.078125
7311		78.125000
7312		80.078125
7313		78.125000
7314		82.031250
7315		80.078125
7316		82.031250
7317		80.078125
7318		82.031250
7319		80.078125
7320		82.031250
7321		80.078125
7322		82.031250
7323		80.078125
7324		82.031250
7325		80.078125
7326		82.031250
7327		80.078125
7328		82.031250
7329		80.078125
7330		82.031250
7331		78.125000
7332		82.031250
7333		78.125000
7334		80.078125
7335		76.171875
7336		80.078125
7337		76.171875
7338		78.125000
7339		74.218750
7340		78.125000
7341		72.265625
7342		76.171875
7343		72.265625
7344		74.218750
7345		70.312500
7346		72.265625
7347		68.359375
7348		72.265625
7349		66.406250
7350		68.359375
7351		62.500000
7352		66.406250
7353		60.546875
7354		64.453125
7355		58.593750
7356		62.500000
7357		56.640625
7358		60.546875
7359		52.734375
7360		56.640625
7361		50.781250
7362		54.687500
7363		46.875000
7364		50.781250
7365		44.921875
7366		48.828125
7367		41.015625
7368		44.921875
7369		37.109375
7370		42.968750
7371		35.156250
7372		39.062500
7373		31.250000
7374		35.156250
7375		27.343750
7376		33.203125
7377		23.437500
7378		29.296875
7379		19.531250
7380		25.390625
7381		17.578125
7382		21.484375
7383		13.671875
7384		17.578125
7385		9.765625
7386		13.671875
7387		5.859375
7388		9.765625
7389		1.953125
7390		7.812500
7391		-1.953125
7392		3.906250
7393		-5.859375
7394		0.000000
7395		-9.765625
7396		-3.906250
7397		-13.671875
7398		-7.812500
7399		-15.625000
7400		-11.718750
7401		-19.531250
7402		-15.625000
7403		-23.437500
7404		-17.578125
7405		-27.343750
7406		-21.484375
7407		-31.250000
7408		-25.390625
7409		-33.203125
7410		-27.343750
7411		-35.156250
7412		-31.250000
7413		-39.062500
7414		-35.156250
7415		-41.015625
7416		-37.109375
7417		-44.921875
7418		-41.015625
7419		-46.875000
7420		-42.968750
7421		-48.828125
7422		-44.921875
7423		-52.734375
7424		-48.828125
7425		-54.687500
7426		-50.781250
7427		-56.640625
7428		-52.734375
7429		-58.593750
7430		-54.687500
7431		-58.593750
7432		-56.640625
7433		-60.546875
7434		-58.593750
7435		-62.500000
7436		-58.593750
7437		-62.500000
7438		-60.546875
7439		-64.453125
7440		-60.546875
7441		-64.453125
7442		-62.500000
7443		-64.453125
7444		-62.500000
7445		-64.453125
7446		-62.500000
7447		-64.453125
7448		-62.500000
7449		-64.453125
7450		-62.500000
7451		-64.453125
7452		-62.500000
7453		-64.453125
7454		-60.546875
7455		-64.453125
7456		-60.546875
7457		-62.500000
7458		-60.546875
7459		-62.500000
7460		-58.593750
7461		-60.546875
7462		-58.593750
7463		-58.593750
7464		-56.640625
7465		-58.593750
7466		-54.687500
7467		-56.640625
7468		-52.734375
7469		-54.687500
7470		-50.781250
7471		-52.734375
7472		-48.828125
7473		-50.781250
7474		-46.875000
7475		-46.875000
7476		-42.968750
7477		-44.921875
7478		-41.015625
7479		-42.968750
7480		-39.062500
7481		-39.062500
7482		-35.156250
7483		-37.109375
7484		-31.250000
7485		-33.203125
7486		-29.296875
7487		-31.250000
7488		-25.390625
7489		-27.343750
7490		-21.484375
7491		-23.437500
7492		-19.531250
7493		-19.531250
7494		-15.625000
7495		-17.578125
7496		-11.718750
7497		-13.671875
7498		-7.812500
7499		-9.765625
7500		-3.906250
7501		-5.859375
7502		-1.953125
7503		-1.953125
7504		1.953125
7505		0.000000
7506		5.859375
7507		5.859375
7508		9.765625
7509		7.812500
7510		13.671875
7511		11.718750
7512		17.578125
7513		15.625000
7514		21.484375
7515		19.531250
7516		23.437500
7517		23.437500
7518		27.343750
7519		27.343750
7520		31.250000
7521		29.296875
7522		35.156250
7523		33.203125
7524		37.109375
7525		37.109375
7526		41.015625
7527		39.062500
7528		44.921875
7529		42.968750
7530		46.875000
7531		46.875000
7532		50.781250
7533		48.828125
7534		52.734375
7535		52.734375
7536		56.640625
7537		54.687500
7538		58.593750
7539		56.640625
7540		60.546875
7541		60.546875
7542		64.453125
7543		62.500000
7544		66.406250
7545		64.453125
7546		68.359375
7547		66.406250
7548		70.312500
7549		68.359375
7550		72.265625
7551		70.312500
7552		74.218750
7553		72.265625
7554		76.171875
7555		74.218750
7556		76.171875
7557		74.218750
7558		78.125000
7559		76.171875
7560		80.078125
7561		76.171875
7562		80.078125
7563		78.125000
7564		80.078125
7565		80.078125
7566		82.031250
7567		80.078125
7568		82.031250
7569		80.078125
7570		82.031250
7571		80.078125
7572		82.031250
7573		80.078125
7574		82.031250
7575		80.078125
7576		82.031250
7577		80.078125
7578		82.031250
7579		80.078125
7580		82.031250
7581		78.125000
7582		82.031250
7583		78.125000
7584		82.031250
7585		78.125000
7586		80.078125
7587		76.171875
7588		80.078125
7589		74.218750
7590		78.125000
7591		74.218750
7592		76.171875
7593		72.265625
7594		76.171875
7595		70.312500
7596		74.218750
7597		68.359375
7598		72.265625
7599		66.406250
7600		70.312500
7601		64.453125
7602		68.359375
7603		62.500000
7604		66.406250
7605		58.593750
7606		64.453125
7607		56.640625
7608		60.546875
7609		54.687500
7610		58.593750
7611		50.781250
7612		56.640625
7613		48.828125
7614		52.734375
7615		44.921875
7616		50.781250
7617		41.015625
7618		46.875000
7619		39.062500
7620		42.968750
7621		35.156250
7622		41.015625
7623		33.203125
7624		37.109375
7625		29.296875
7626		33.203125
7627		25.390625
7628		31.250000
7629		21.484375
7630		27.343750
7631		17.578125
7632		23.437500
7633		13.671875
7634		19.531250
7635		11.718750
7636		15.625000
7637		7.812500
7638		11.718750
7639		3.906250
7640		7.812500
7641		0.000000
7642		3.906250
7643		-3.906250
7644		1.953125
7645		-7.812500
7646		-1.953125
7647		-11.718750
7648		-5.859375
7649		-15.625000
7650		-9.765625
7651		-17.578125
7652		-13.671875
7653		-21.484375
7654		-17.578125
7655		-25.390625
7656		-19.531250
7657		-29.296875
7658		-23.437500
7659		-31.250000
7660		-27.343750
7661		-35.156250
7662		-29.296875
7663		-37.109375
7664		-33.203125
7665		-41.015625
7666		-37.109375
7667		-42.968750
7668		-39.062500
7669		-46.875000
7670		-41.015625
7671		-48.828125
7672		-44.921875
7673		-50.781250
7674		-46.875000
7675		-52.734375
7676		-48.828125
7677		-54.687500
7678		-50.781250
7679		-56.640625
7680		-52.734375
7681		-58.593750
7682		-54.687500
7683		-60.546875
7684		-56.640625
7685		-60.546875
7686		-58.593750
7687		-62.500000
7688		-60.546875
7689		-64.453125
7690		-60.546875
7691		-64.453125
7692		-60.546875
7693		-64.453125
7694		-62.500000
7695		-64.453125
7696		-62.500000
7697		-66.406250
7698		-62.500000
7699		-64.453125
7700		-62.500000
7701		-64.453125
7702		-62.500000
7703		-64.453125
7704		-62.500000
7705		-64.453125
7706		-60.546875
7707		-64.453125
7708		-60.546875
7709		-62.500000
7710		-60.546875
7711		-60.546875
7712		-58.593750
7713		-60.546875
7714		-56.640625
7715		-58.593750
7716		-54.687500
7717		-56.640625
7718		-52.734375
7719		-54.687500
7720		-50.781250
7721		-52.734375
7722		-48.828125
7723		-50.781250
7724		-46.875000
7725		-48.828125
7726		-44.921875
7727		-46.875000
7728		-41.015625
7729		-42.968750
7730		-39.062500
7731		-41.015625
7732		-37.109375
7733		-37.109375
7734		-33.203125
7735		-37.109375
7736		-29.296875
7737		-31.250000
7738		-27.343750
7739		-29.296875
7740		-23.437500
7741		-25.390625
7742		-19.531250
7743		-21.484375
7744		-17.578125
7745		-17.578125
7746		-13.671875
7747		-13.671875
7748		-9.765625
7749		-11.718750
7750		-5.859375
7751		-7.812500
7752		-1.953125
7753		-3.906250
7754		1.953125
7755		0.000000
7756		5.859375
7757		1.953125
7758		7.812500
7759		7.812500
7760		13.671875
7761		11.718750
7762		15.625000
7763		13.671875
7764		19.531250
7765		17.578125
7766		23.437500
7767		21.484375
7768		27.343750
7769		23.437500
7770		29.296875
7771		29.296875
7772		33.203125
7773		31.250000
7774		37.109375
7775		35.156250
7776		41.015625
7777		37.109375
7778		44.921875
7779		42.968750
7780		46.875000
7781		44.921875
7782		50.781250
7783		46.875000
7784		52.734375
7785		50.781250
7786		56.640625
7787		54.687500
7788		58.593750
7789		56.640625
7790		62.500000
7791		58.593750
7792		62.500000
7793		60.546875
7794		66.406250
7795		64.453125
7796		68.359375
7797		66.406250
7798		70.312500
7799		66.406250
7800		72.265625
7801		66.406250
7802		74.218750
7803		72.265625
7804		74.218750
7805		72.265625
7806		78.125000
7807		74.218750
7808		78.125000
7809		76.171875
7810		80.078125
7811		76.171875
7812		80.078125
7813		78.125000
7814		80.078125
7815		78.125000
7816		82.031250
7817		78.125000
7818		85.937500
7819		78.125000
7820		83.984375
7821		80.078125
7822		83.984375
7823		78.125000
7824		85.937500
7825		78.125000
7826		85.937500
7827		76.171875
7828		85.937500
7829		78.125000
7830		82.031250
7831		80.078125
7832		82.031250
7833		76.171875
7834		83.984375
7835		76.171875
7836		82.031250
7837		76.171875
7838		80.078125
7839		76.171875
7840		78.125000
7841		72.265625
7842		80.078125
7843		68.359375
7844		78.125000
7845		70.312500
7846		74.218750
7847		68.359375
7848		72.265625
7849		66.406250
7850		70.312500
7851		62.500000
7852		70.312500
7853		62.500000
7854		68.359375
7855		58.593750
7856		64.453125
7857		54.687500
7858		62.500000
7859		54.687500
7860		60.546875
7861		50.781250
7862		60.546875
7863		48.828125
7864		54.687500
7865		44.921875
7866		50.781250
7867		39.062500
7868		48.828125
7869		39.062500
7870		44.921875
7871		37.109375
7872		41.015625
7873		33.203125
7874		39.062500
7875		27.343750
7876		37.109375
7877		23.437500
7878		33.203125
7879		23.437500
7880		27.343750
7881		19.531250
7882		25.390625
7883		13.671875
7884		21.484375
7885		11.718750
7886		19.531250
7887		7.812500
7888		15.625000
7889		3.906250
7890		9.765625
7891		-1.953125
7892		9.765625
7893		-5.859375
7894		1.953125
7895		-5.859375
7896		1.953125
7897		-9.765625
7898		-3.906250
7899		-15.625000
7900		-7.812500
7901		-19.531250
7902		-9.765625
7903		-21.484375
7904		-13.671875
7905		-23.437500
7906		-19.531250
7907		-29.296875
7908		-21.484375
7909		-33.203125
7910		-21.484375
7911		-37.109375
7912		-27.343750
7913		-37.109375
7914		-33.203125
7915		-39.062500
7916		-35.156250
7917		-42.968750
7918		-37.109375
7919		-46.875000
7920		-37.109375
7921		-46.875000
7922		-42.968750
7923		-50.781250
7924		-46.875000
7925		-56.640625
7926		-46.875000
7927		-58.593750
7928		-48.828125
7929		-56.640625
7930		-52.734375
7931		-58.593750
7932		-54.687500
7933		-60.546875
7934		-56.640625
7935		-64.453125
7936		-54.687500
7937		-62.500000
7938		-58.593750
7939		-62.500000
7940		-60.546875
7941		-66.406250
7942		-58.593750
7943		-66.406250
7944		-58.593750
7945		-66.406250
7946		-60.546875
7947		-64.453125
7948		-62.500000
7949		-66.406250
7950		-62.500000
7951		-68.359375
7952		-60.546875
7953		-68.359375
7954		-60.546875
7955		-64.453125
7956		-62.500000
7957		-66.406250
7958		-58.593750
7959		-66.406250
7960		-56.640625
7961		-64.453125
7962		-56.640625
7963		-60.546875
7964		-58.593750
7965		-58.593750
7966		-56.640625
7967		-58.593750
7968		-52.734375
7969		-58.593750
7970		-50.781250
7971		-56.640625
7972		-50.781250
7973		-52.734375
7974		-48.828125
7975		-50.781250
7976		-41.015625
7977		-46.875000
7978		-42.968750
7979		-46.875000
7980		-39.062500
7981		-42.968750
7982		-37.109375
7983		-39.062500
7984		-33.203125
7985		-37.109375
7986		-29.296875
7987		-33.203125
7988		-27.343750
7989		-29.296875
7990		-25.390625
7991		-27.343750
7992		-19.531250
7993		-27.343750
7994		-17.578125
7995		-21.484375
7996		-13.671875
7997		-15.625000
7998		-11.718750
7999		-11.718750
8000		-7.812500
8001		-9.765625
8002		-1.953125
8003		-7.812500
8004		0.000000
8005		-1.953125
8006		3.906250
8007		1.953125
8008		7.812500
8009		5.859375
8010		9.765625
8011		9.765625
8012		17.578125
8013		13.671875
8014		17.578125
8015		15.625000
8016		21.484375
8017		19.531250
8018		25.390625
8019		21.484375
8020		29.296875
8021		25.390625
8022		33.203125
8023		31.250000
8024		35.156250
8025		33.203125
8026		39.062500
8027		37.109375
8028		41.015625
8029		41.015625
8030		44.921875
8031		42.968750
8032		48.828125
8033		46.875000
8034		50.781250
8035		48.828125
8036		54.687500
8037		52.734375
8038		58.593750
8039		54.687500
8040		60.546875
8041		58.593750
8042		64.453125
8043		60.546875
8044		64.453125
8045		62.500000
8046		66.406250
8047		64.453125
8048		68.359375
8049		66.406250
8050		70.312500
8051		68.359375
8052		72.265625
8053		70.312500
8054		74.218750
8055		72.265625
8056		76.171875
8057		74.218750
8058		78.125000
8059		74.218750
8060		78.125000
8061		76.171875
8062		80.078125
8063		76.171875
8064		80.078125
8065		78.125000
8066		82.031250
8067		80.078125
8068		82.031250
8069		80.078125
8070		82.031250
8071		80.078125
8072		82.031250
8073		80.078125
8074		83.984375
8075		80.078125
8076		82.031250
8077		80.078125
8078		82.031250
8079		80.078125
8080		82.031250
8081		78.125000
8082		82.031250
8083		80.078125
8084		82.031250
8085		78.125000
8086		82.031250
8087		76.171875
8088		82.031250
8089		74.218750
8090		80.078125
8091		74.218750
8092		80.078125
8093		72.265625
8094		78.125000
8095		70.312500
8096		76.171875
8097		70.312500
8098		74.218750
8099		68.359375
8100		72.265625
8101		64.453125
8102		70.312500
8103		62.500000
8104		68.359375
8105		60.546875
8106		66.406250
8107		58.593750
8108		64.453125
8109		54.687500
8110		60.546875
8111		52.734375
8112		58.593750
8113		50.781250
8114		56.640625
8115		48.828125
8116		52.734375
8117		44.921875
8118		48.828125
8119		41.015625
8120		46.875000
8121		37.109375
8122		42.968750
8123		33.203125
8124		41.015625
8125		31.250000
8126		37.109375
8127		27.343750
8128		35.156250
8129		23.437500
8130		31.250000
8131		21.484375
8132		25.390625
8133		17.578125
8134		21.484375
8135		11.718750
8136		19.531250
8137		9.765625
8138		17.578125
8139		5.859375
8140		13.671875
8141		1.953125
8142		9.765625
8143		-1.953125
8144		5.859375
8145		-5.859375
8146		1.953125
8147		-7.812500
8148		-1.953125
8149		-11.718750
8150		-5.859375
8151		-15.625000
8152		-9.765625
8153		-19.531250
8154		-13.671875
8155		-23.437500
8156		-15.625000
8157		-27.343750
8158		-21.484375
8159		-31.250000
8160		-23.437500
8161		-33.203125
8162		-27.343750
8163		-35.156250
8164		-29.296875
8165		-39.062500
8166		-33.203125
8167		-41.015625
8168		-37.109375
8169		-44.921875
8170		-39.062500
8171		-48.828125
8172		-42.968750
8173		-48.828125
8174		-44.921875
8175		-50.781250
8176		-44.921875
8177		-52.734375
8178		-48.828125
8179		-56.640625
8180		-50.781250
8181		-56.640625
8182		-52.734375
8183		-58.593750
8184		-56.640625
8185		-60.546875
8186		-56.640625
8187		-62.500000
8188		-58.593750
8189		-64.453125
8190		-58.593750
8191		-66.406250
8192		-58.593750
8193		-64.453125
8194		-60.546875
8195		-66.406250
8196		-60.546875
8197		-66.406250
8198		-62.500000
8199		-64.453125
8200		-62.500000
8201		-66.406250
8202		-62.500000
8203		-66.406250
8204		-62.500000
8205		-66.406250
8206		-62.500000
8207		-66.406250
8208		-60.546875
8209		-64.453125
8210		-60.546875
8211		-62.500000
8212		-58.593750
8213		-62.500000
8214		-56.640625
8215		-60.546875
8216		-56.640625
8217		-58.593750
8218		-54.687500
8219		-56.640625
8220		-52.734375
8221		-54.687500
8222		-50.781250
8223		-52.734375
8224		-48.828125
8225		-52.734375
8226		-46.875000
8227		-48.828125
8228		-42.968750
8229		-44.921875
8230		-41.015625
8231		-44.921875
8232		-39.062500
8233		-41.015625
8234		-35.156250
8235		-37.109375
8236		-33.203125
8237		-35.156250
8238		-29.296875
8239		-31.250000
8240		-27.343750
8241		-27.343750
8242		-21.484375
8243		-25.390625
8244		-19.531250
8245		-21.484375
8246		-15.625000
8247		-17.578125
8248		-11.718750
8249		-13.671875
8250		-9.765625
8251		-11.718750
8252		-5.859375
8253		-7.812500
8254		-1.953125
8255		-3.906250
8256		1.953125
8257		0.000000
8258		5.859375
8259		1.953125
8260		9.765625
8261		7.812500
8262		13.671875
8263		9.765625
8264		15.625000
8265		13.671875
8266		19.531250
8267		19.531250
8268		23.437500
8269		21.484375
8270		27.343750
8271		25.390625
8272		31.250000
8273		29.296875
8274		35.156250
8275		31.250000
8276		37.109375
8277		35.156250
8278		41.015625
8279		39.062500
8280		42.968750
8281		42.968750
8282		46.875000
8283		44.921875
8284		50.781250
8285		48.828125
8286		52.734375
8287		50.781250
8288		56.640625
8289		54.687500
8290		58.593750
8291		56.640625
8292		62.500000
8293		58.593750
8294		62.500000
8295		60.546875
8296		66.406250
8297		64.453125
8298		68.359375
8299		66.406250
8300		70.312500
8301		68.359375
8302		72.265625
8303		68.359375
8304		74.218750
8305		72.265625
8306		74.218750
8307		72.265625
8308		76.171875
8309		74.218750
8310		78.125000
8311		76.171875
8312		80.078125
8313		76.171875
8314		80.078125
8315		78.125000
8316		82.031250
8317		78.125000
8318		82.031250
8319		80.078125
8320		83.984375
8321		80.078125
8322		83.984375
8323		80.078125
8324		83.984375
8325		78.125000
8326		83.984375
8327		80.078125
8328		83.984375
8329		80.078125
8330		83.984375
8331		78.125000
8332		83.984375
8333		80.078125
8334		82.031250
8335		78.125000
8336		82.031250
8337		78.125000
8338		80.078125
8339		76.171875
8340		80.078125
8341		74.218750
8342		78.125000
8343		72.265625
8344		76.171875
8345		72.265625
8346		76.171875
8347		70.312500
8348		74.218750
8349		68.359375
8350		72.265625
8351		66.406250
8352		70.312500
8353		64.453125
8354		68.359375
8355		60.546875
8356		66.406250
8357		60.546875
8358		64.453125
8359		56.640625
8360		62.500000
8361		54.687500
8362		58.593750
8363		50.781250
8364		56.640625
8365		48.828125
8366		52.734375
8367		44.921875
8368		50.781250
8369		41.015625
8370		46.875000
8371		39.062500
8372		44.921875
8373		35.156250
8374		41.015625
8375		33.203125
8376		37.109375
8377		29.296875
8378		35.156250
8379		25.390625
8380		31.250000
8381		21.484375
8382		27.343750
8383		17.578125
8384		23.437500
8385		13.671875
8386		19.531250
8387		9.765625
8388		17.578125
8389		7.812500
8390		13.671875
8391		3.906250
8392		9.765625
8393		0.000000
8394		5.859375
8395		-3.906250
8396		1.953125
8397		-7.812500
8398		-1.953125
8399		-9.765625
8400		-5.859375
8401		-13.671875
8402		-9.765625
8403		-17.578125
8404		-13.671875
8405		-21.484375
8406		-15.625000
8407		-25.390625
8408		-19.531250
8409		-27.343750
8410		-23.437500
8411		-31.250000
8412		-25.390625
8413		-35.156250
8414		-29.296875
8415		-37.109375
8416		-33.203125
8417		-41.015625
8418		-37.109375
8419		-42.968750
8420		-39.062500
8421		-46.875000
8422		-41.015625
8423		-48.828125
8424		-44.921875
8425		-52.734375
8426		-46.875000
8427		-52.734375
8428		-48.828125
8429		-54.687500
8430		-50.781250
8431		-56.640625
8432		-52.734375
8433		-58.593750
8434		-54.687500
8435		-60.546875
8436		-56.640625
8437		-62.500000
8438		-58.593750
8439		-62.500000
8440		-60.546875
8441		-64.453125
8442		-60.546875
8443		-64.453125
8444		-60.546875
8445		-66.406250
8446		-62.500000
8447		-66.406250
8448		-62.500000
8449		-66.406250
8450		-62.500000
8451		-66.406250
8452		-62.500000
8453		-66.406250
8454		-62.500000
8455		-66.406250
8456		-62.500000
8457		-64.453125
8458		-62.500000
8459		-64.453125
8460		-60.546875
8461		-64.453125
8462		-60.546875
8463		-62.500000
8464		-58.593750
8465		-60.546875
8466		-56.640625
8467		-60.546875
8468		-56.640625
8469		-58.593750
8470		-54.687500
8471		-56.640625
8472		-52.734375
8473		-54.687500
8474		-50.781250
8475		-52.734375
8476		-46.875000
8477		-50.781250
8478		-46.875000
8479		-48.828125
8480		-42.968750
8481		-44.921875
8482		-41.015625
8483		-42.968750
8484		-37.109375
8485		-39.062500
8486		-35.156250
8487		-37.109375
8488		-31.250000
8489		-33.203125
8490		-27.343750
8491		-29.296875
8492		-23.437500
8493		-27.343750
8494		-21.484375
8495		-23.437500
8496		-17.578125
8497		-19.531250
8498		-13.671875
8499		-17.578125
8500		-11.718750
8501		-13.671875
8502		-7.812500
8503		-9.765625
8504		-3.906250
8505		-5.859375
8506		0.000000
8507		-1.953125
8508		3.906250
8509		1.953125
8510		7.812500
8511		5.859375
8512		11.718750
8513		9.765625
8514		13.671875
8515		11.718750
8516		19.531250
8517		15.625000
8518		21.484375
8519		19.531250
8520		25.390625
8521		23.437500
8522		29.296875
8523		27.343750
8524		31.250000
8525		31.250000
8526		35.156250
8527		35.156250
8528		39.062500
8529		37.109375
8530		42.968750
8531		41.015625
8532		44.921875
8533		42.968750
8534		48.828125
8535		46.875000
8536		50.781250
8537		48.828125
8538		54.687500
8539		52.734375
8540		56.640625
8541		54.687500
8542		60.546875
8543		58.593750
8544		62.500000
8545		60.546875
8546		64.453125
8547		62.500000
8548		66.406250
8549		64.453125
8550		70.312500
8551		66.406250
8552		70.312500
8553		68.359375
8554		72.265625
8555		70.312500
8556		74.218750
8557		72.265625
8558		76.171875
8559		74.218750
8560		78.125000
8561		74.218750
8562		78.125000
8563		76.171875
8564		80.078125
8565		76.171875
8566		80.078125
8567		78.125000
8568		82.031250
8569		78.125000
8570		82.031250
8571		78.125000
8572		83.984375
8573		80.078125
8574		82.031250
8575		80.078125
8576		82.031250
8577		80.078125
8578		82.031250
8579		80.078125
8580		82.031250
8581		80.078125
8582		82.031250
8583		78.125000
8584		82.031250
8585		78.125000
8586		80.078125
8587		78.125000
8588		80.078125
8589		76.171875
8590		80.078125
8591		76.171875
8592		78.125000
8593		74.218750
8594		78.125000
8595		72.265625
8596		76.171875
8597		70.312500
8598		74.218750
8599		68.359375
8600		72.265625
8601		66.406250
8602		72.265625
8603		64.453125
8604		68.359375
8605		62.500000
8606		66.406250
8607		60.546875
8608		64.453125
8609		56.640625
8610		62.500000
8611		54.687500
8612		58.593750
8613		52.734375
8614		56.640625
8615		48.828125
8616		54.687500
8617		46.875000
8618		50.781250
8619		42.968750
8620		48.828125
8621		41.015625
8622		44.921875
8623		37.109375
8624		42.968750
8625		33.203125
8626		39.062500
8627		29.296875
8628		35.156250
8629		25.390625
8630		31.250000
8631		23.437500
8632		27.343750
8633		19.531250
8634		25.390625
8635		15.625000
8636		21.484375
8637		11.718750
8638		17.578125
8639		7.812500
8640		13.671875
8641		3.906250
8642		9.765625
8643		1.953125
8644		5.859375
8645		-1.953125
8646		3.906250
8647		-5.859375
8648		0.000000
8649		-9.765625
8650		-3.906250
8651		-13.671875
8652		-7.812500
8653		-17.578125
8654		-11.718750
8655		-21.484375
8656		-15.625000
8657		-23.437500
8658		-19.531250
8659		-27.343750
8660		-23.437500
8661		-31.250000
8662		-25.390625
8663		-35.156250
8664		-29.296875
8665		-37.109375
8666		-31.250000
8667		-41.015625
8668		-35.156250
8669		-42.968750
8670		-39.062500
8671		-44.921875
8672		-41.015625
8673		-48.828125
8674		-42.968750
8675		-50.781250
8676		-46.875000
8677		-52.734375
8678		-48.828125
8679		-54.687500
8680		-50.781250
8681		-56.640625
8682		-52.734375
8683		-58.593750
8684		-54.687500
8685		-60.546875
8686		-56.640625
8687		-62.500000
8688		-58.593750
8689		-64.453125
8690		-60.546875
8691		-64.453125
8692		-60.546875
8693		-64.453125
8694		-62.500000
8695		-66.406250
8696		-62.500000
8697		-66.406250
8698		-62.500000
8699		-66.406250
8700		-62.500000
8701		-66.406250
8702		-62.500000
8703		-66.406250
8704		-64.453125
8705		-66.406250
8706		-62.500000
8707		-66.406250
8708		-62.500000
8709		-64.453125
8710		-62.500000
8711		-64.453125
8712		-60.546875
8713		-62.500000
8714		-58.593750
8715		-62.500000
8716		-58.593750
8717		-60.546875
8718		-56.640625
8719		-60.546875
8720		-54.687500
8721		-56.640625
8722		-54.687500
8723		-56.640625
8724		-50.781250
8725		-54.687500
8726		-48.828125
8727		-50.781250
8728		-46.875000
8729		-48.828125
8730		-44.921875
8731		-46.875000
8732		-42.968750
8733		-44.921875
8734		-39.062500
8735		-41.015625
8736		-37.109375
8737		-37.109375
8738		-33.203125
8739		-35.156250
8740		-29.296875
8741		-31.250000
8742		-25.390625
8743		-29.296875
8744		-23.437500
8745		-25.390625
8746		-19.531250
8747		-21.484375
8748		-15.625000
8749		-19.531250
8750		-13.671875
8751		-13.671875
8752		-9.765625
8753		-9.765625
8754		-5.859375
8755		-7.812500
8756		-1.953125
8757		-3.906250
8758		1.953125
8759		0.000000
8760		5.859375
8761		3.906250
8762		9.765625
8763		7.812500
8764		11.718750
8765		9.765625
8766		17.578125
8767		15.625000
8768		19.531250
8769		17.578125
8770		23.437500
8771		21.484375
8772		27.343750
8773		25.390625
8774		31.250000
8775		29.296875
8776		33.203125
8777		31.250000
8778		37.109375
8779		35.156250
8780		41.015625
8781		39.062500
8782		42.968750
8783		42.968750
8784		46.875000
8785		44.921875
8786		50.781250
8787		48.828125
8788		52.734375
8789		50.781250
8790		54.687500
8791		52.734375
8792		58.593750
8793		56.640625
8794		60.546875
8795		58.593750
8796		62.500000
8797		60.546875
8798		66.406250
8799		64.453125
8800		68.359375
8801		66.406250
8802		70.312500
8803		66.406250
8804		70.312500
8805		70.312500
8806		72.265625
8807		70.312500
8808		74.218750
8809		72.265625
8810		76.171875
8811		74.218750
8812		78.125000
8813		76.171875
8814		80.078125
8815		76.171875
8816		80.078125
8817		76.171875
8818		80.078125
8819		76.171875
8820		82.031250
8821		78.125000
8822		82.031250
8823		78.125000
8824		82.031250
8825		80.078125
8826		82.031250
8827		80.078125
8828		82.031250
8829		80.078125
8830		82.031250
8831		78.125000
8832		82.031250
8833		78.125000
8834		82.031250
8835		78.125000
8836		82.031250
8837		78.125000
8838		80.078125
8839		76.171875
8840		78.125000
8841		74.218750
8842		80.078125
8843		74.218750
8844		78.125000
8845		72.265625
8846		76.171875
8847		70.312500
8848		74.218750
8849		68.359375
8850		72.265625
8851		66.406250
8852		70.312500
8853		64.453125
8854		70.312500
8855		62.500000
8856		66.406250
8857		60.546875
8858		64.453125
8859		58.593750
8860		62.500000
8861		54.687500
8862		60.546875
8863		52.734375
8864		56.640625
8865		50.781250
8866		54.687500
8867		46.875000
8868		52.734375
8869		42.968750
8870		48.828125
8871		41.015625
8872		44.921875
8873		37.109375
8874		42.968750
8875		35.156250
8876		39.062500
8877		31.250000
8878		37.109375
8879		27.343750
8880		33.203125
8881		23.437500
8882		29.296875
8883		21.484375
8884		25.390625
8885		15.625000
8886		21.484375
8887		13.671875
8888		19.531250
8889		9.765625
8890		15.625000
8891		5.859375
8892		11.718750
8893		0.000000
8894		7.812500
8895		-1.953125
8896		3.906250
8897		-5.859375
8898		0.000000
8899		-9.765625
8900		-3.906250
8901		-11.718750
8902		-7.812500
8903		-15.625000
8904		-11.718750
8905		-19.531250
8906		-13.671875
8907		-25.390625
8908		-17.578125
8909		-27.343750
8910		-21.484375
8911		-29.296875
8912		-25.390625
8913		-33.203125
8914		-27.343750
8915		-37.109375
8916		-31.250000
8917		-39.062500
8918		-33.203125
8919		-42.968750
8920		-37.109375
8921		-44.921875
8922		-41.015625
8923		-46.875000
8924		-42.968750
8925		-50.781250
8926		-44.921875
8927		-52.734375
8928		-48.828125
8929		-54.687500
8930		-50.781250
8931		-56.640625
8932		-52.734375
8933		-58.593750
8934		-54.687500
8935		-60.546875
8936		-56.640625
8937		-62.500000
8938		-58.593750
8939		-62.500000
8940		-60.546875
8941		-66.406250
8942		-60.546875
8943		-64.453125
8944		-62.500000
8945		-66.406250
8946		-62.500000
8947		-66.406250
8948		-64.453125
8949		-66.406250
8950		-64.453125
8951		-66.406250
8952		-64.453125
8953		-68.359375
8954		-64.453125
8955		-66.406250
8956		-64.453125
8957		-66.406250
8958		-64.453125
8959		-66.406250
8960		-62.500000
8961		-66.406250
8962		-62.500000
8963		-64.453125
8964		-60.546875
8965		-62.500000
8966		-58.593750
8967		-62.500000
8968		-58.593750
8969		-60.546875
8970		-56.640625
8971		-58.593750
8972		-54.687500
8973		-56.640625
8974		-52.734375
8975		-54.687500
8976		-50.781250
8977		-52.734375
8978		-48.828125
8979		-50.781250
8980		-44.921875
8981		-48.828125
8982		-42.968750
8983		-44.921875
8984		-41.015625
8985		-42.968750
8986		-37.109375
8987		-39.062500
8988		-35.156250
8989		-37.109375
8990		-31.250000
8991		-33.203125
8992		-27.343750
8993		-29.296875
8994		-23.437500
8995		-27.343750
8996		-21.484375
8997		-23.437500
8998		-19.531250
8999		-19.531250
9000		-13.671875
9001		-15.625000
9002		-11.718750
9003		-11.718750
9004		-7.812500
9005		-9.765625
9006		-3.906250
9007		-5.859375
9008		0.000000
9009		-1.953125
9010		3.906250
9011		1.953125
9012		7.812500
9013		5.859375
9014		11.718750
9015		9.765625
9016		13.671875
9017		13.671875
9018		19.531250
9019		15.625000
9020		21.484375
9021		19.531250
9022		25.390625
9023		23.437500
9024		29.296875
9025		27.343750
9026		31.250000
9027		31.250000
9028		35.156250
9029		33.203125
9030		39.062500
9031		37.109375
9032		41.015625
9033		41.015625
9034		44.921875
9035		42.968750
9036		48.828125
9037		46.875000
9038		50.781250
9039		48.828125
9040		54.687500
9041		52.734375
9042		56.640625
9043		52.734375
9044		58.593750
9045		56.640625
9046		62.500000
9047		60.546875
9048		64.453125
9049		62.500000
9050		66.406250
9051		64.453125
9052		68.359375
9053		66.406250
9054		70.312500
9055		68.359375
9056		72.265625
9057		70.312500
9058		74.218750
9059		70.312500
9060		76.171875
9061		72.265625
9062		76.171875
9063		74.218750
9064		78.125000
9065		76.171875
9066		80.078125
9067		76.171875
9068		80.078125
9069		78.125000
9070		80.078125
9071		78.125000
9072		82.031250
9073		78.125000
9074		82.031250
9075		80.078125
9076		82.031250
9077		78.125000
9078		82.031250
9079		78.125000
9080		82.031250
9081		78.125000
9082		82.031250
9083		78.125000
9084		82.031250
9085		78.125000
9086		82.031250
9087		76.171875
9088		80.078125
9089		76.171875
9090		80.078125
9091		76.171875
9092		78.125000
9093		74.218750
9094		78.125000
9095		72.265625
9096		76.171875
9097		70.312500
9098		74.218750
9099		68.359375
9100		74.218750
9101		68.359375
9102		72.265625
9103		66.406250
9104		70.312500
9105		64.453125
9106		68.359375
9107		60.546875
9108		64.453125
9109		58.593750
9110		62.500000
9111		56.640625
9112		60.546875
9113		52.734375
9114		58.593750
9115		50.781250
9116		54.687500
9117		46.875000
9118		52.734375
9119		44.921875
9120		48.828125
9121		42.968750
9122		46.875000
9123		39.062500
9124		44.921875
9125		35.156250
9126		41.015625
9127		31.250000
9128		37.109375
9129		29.296875
9130		33.203125
9131		25.390625
9132		31.250000
9133		21.484375
9134		27.343750
9135		17.578125
9136		23.437500
9137		13.671875
9138		19.531250
9139		9.765625
9140		15.625000
9141		7.812500
9142		11.718750
9143		1.953125
9144		7.812500
9145		0.000000
9146		3.906250
9147		-3.906250
9148		1.953125
9149		-7.812500
9150		-1.953125
9151		-11.718750
9152		-5.859375
9153		-15.625000
9154		-9.765625
9155		-19.531250
9156		-13.671875
9157		-21.484375
9158		-17.578125
9159		-25.390625
9160		-21.484375
9161		-29.296875
9162		-23.437500
9163		-31.250000
9164		-27.343750
9165		-35.156250
9166		-31.250000
9167		-39.062500
9168		-33.203125
9169		-42.968750
9170		-37.109375
9171		-46.875000
9172		-39.062500
9173		-46.875000
9174		-42.968750
9175		-48.828125
9176		-44.921875
9177		-52.734375
9178		-46.875000
9179		-54.687500
9180		-48.828125
9181		-56.640625
9182		-52.734375
9183		-58.593750
9184		-54.687500
9185		-60.546875
9186		-54.687500
9187		-62.500000
9188		-58.593750
9189		-62.500000
9190		-60.546875
9191		-64.453125
9192		-60.546875
9193		-66.406250
9194		-62.500000
9195		-66.406250
9196		-62.500000
9197		-66.406250
9198		-62.500000
9199		-66.406250
9200		-64.453125
9201		-68.359375
9202		-64.453125
9203		-66.406250
9204		-64.453125
9205		-68.359375
9206		-64.453125
9207		-66.406250
9208		-64.453125
9209		-66.406250
9210		-64.453125
9211		-66.406250
9212		-62.500000
9213		-66.406250
9214		-62.500000
9215		-64.453125
9216		-60.546875
9217		-62.500000
9218		-58.593750
9219		-62.500000
9220		-56.640625
9221		-60.546875
9222		-54.687500
9223		-58.593750
9224		-54.687500
9225		-56.640625
9226		-50.781250
9227		-54.687500
9228		-50.781250
9229		-52.734375
9230		-46.875000
9231		-48.828125
9232		-44.921875
9233		-46.875000
9234		-42.968750
9235		-44.921875
9236		-39.062500
9237		-41.015625
9238		-37.109375
9239		-39.062500
9240		-33.203125
9241		-35.156250
9242		-29.296875
9243		-31.250000
9244		-27.343750
9245		-29.296875
9246		-23.437500
9247		-25.390625
9248		-19.531250
9249		-21.484375
9250		-17.578125
9251		-17.578125
9252		-13.671875
9253		-15.625000
9254		-9.765625
9255		-11.718750
9256		-5.859375
9257		-7.812500
9258		-1.953125
9259		-3.906250
9260		1.953125
9261		0.000000
9262		5.859375
9263		3.906250
9264		9.765625
9265		7.812500
9266		11.718750
9267		9.765625
9268		15.625000
9269		13.671875
9270		19.531250
9271		17.578125
9272		23.437500
9273		21.484375
9274		27.343750
9275		25.390625
9276		29.296875
9277		29.296875
9278		33.203125
9279		31.250000
9280		37.109375
9281		35.156250
9282		41.015625
9283		39.062500
9284		42.968750
9285		41.015625
9286		46.875000
9287		44.921875
9288		48.828125
9289		48.828125
9290		52.734375
9291		50.781250
9292		54.687500
9293		52.734375
9294		58.593750
9295		56.640625
9296		60.546875
9297		58.593750
9298		62.500000
9299		60.546875
9300		64.453125
9301		62.500000
9302		68.359375
9303		64.453125
9304		70.312500
9305		66.406250
9306		72.265625
9307		68.359375
9308		72.265625
9309		70.312500
9310		74.218750
9311		72.265625
9312		76.171875
9313		74.218750
9314		78.125000
9315		74.218750
9316		78.125000
9317		76.171875
9318		78.125000
9319		76.171875
9320		80.078125
9321		78.125000
9322		80.078125
9323		78.125000
9324		82.031250
9325		78.125000
9326		82.031250
9327		80.078125
9328		82.031250
9329		78.125000
9330		82.031250
9331		78.125000
9332		82.031250
9333		78.125000
9334		82.031250
9335		78.125000
9336		82.031250
9337		78.125000
9338		80.078125
9339		76.171875
9340		80.078125
9341		76.171875
9342		80.078125
9343		74.218750
9344		78.125000
9345		72.265625
9346		76.171875
9347		72.265625
9348		76.171875
9349		70.312500
9350		74.218750
9351		68.359375
9352		72.265625
9353		66.406250
9354		70.312500
9355		64.453125
9356		68.359375
9357		60.546875
9358		66.406250
9359		60.546875
9360		64.453125
9361		56.640625
9362		60.546875
9363		54.687500
9364		58.593750
9365		52.734375
9366		56.640625
9367		48.828125
9368		54.687500
9369		46.875000
9370		50.781250
9371		42.968750
9372		48.828125
9373		39.062500
9374		44.921875
9375		37.109375
9376		41.015625
9377		33.203125
9378		39.062500
9379		29.296875
9380		35.156250
9381		27.343750
9382		31.250000
9383		21.484375
9384		27.343750
9385		19.531250
9386		23.437500
9387		15.625000
9388		21.484375
9389		11.718750
9390		17.578125
9391		7.812500
9392		13.671875
9393		3.906250
9394		9.765625
9395		0.000000
9396		5.859375
9397		-3.906250
9398		1.953125
9399		-5.859375
9400		0.000000
9401		-9.765625
9402		-5.859375
9403		-13.671875
9404		-7.812500
9405		-17.578125
9406		-11.718750
9407		-21.484375
9408		-15.625000
9409		-25.390625
9410		-19.531250
9411		-27.343750
9412		-23.437500
9413		-31.250000
9414		-25.390625
9415		-35.156250
9416		-29.296875
9417		-37.109375
9418		-33.203125
9419		-41.015625
9420		-35.156250
9421		-42.968750
9422		-39.062500
9423		-46.875000
9424		-41.015625
9425		-48.828125
9426		-42.968750
9427		-50.781250
9428		-46.875000
9429		-52.734375
9430		-48.828125
9431		-54.687500
9432		-50.781250
9433		-58.593750
9434		-54.687500
9435		-60.546875
9436		-54.687500
9437		-60.546875
9438		-56.640625
9439		-62.500000
9440		-58.593750
9441		-64.453125
9442		-60.546875
9443		-64.453125
9444		-62.500000
9445		-68.359375
9446		-62.500000
9447		-68.359375
9448		-62.500000
9449		-68.359375
9450		-64.453125
9451		-68.359375
9452		-64.453125
9453		-68.359375
9454		-64.453125
9455		-68.359375
9456		-64.453125
9457		-68.359375
9458		-64.453125
9459		-66.406250
9460		-64.453125
9461		-66.406250
9462		-64.453125
9463		-66.406250
9464		-62.500000
9465		-64.453125
9466		-60.546875
9467		-64.453125
9468		-60.546875
9469		-62.500000
9470		-58.593750
9471		-60.546875
9472		-56.640625
9473		-60.546875
9474		-54.687500
9475		-58.593750
9476		-52.734375
9477		-54.687500
9478		-50.781250
9479		-52.734375
9480		-48.828125
9481		-50.781250
9482		-46.875000
9483		-48.828125
9484		-44.921875
9485		-44.921875
9486		-41.015625
9487		-42.968750
9488		-39.062500
9489		-41.015625
9490		-35.156250
9491		-37.109375
9492		-31.250000
9493		-33.203125
9494		-27.343750
9495		-29.296875
9496		-25.390625
9497		-27.343750
9498		-21.484375
9499		-23.437500
9500		-17.578125
9501		-19.531250
9502		-15.625000
9503		-15.625000
9504		-11.718750
9505		-13.671875
9506		-7.812500
9507		-9.765625
9508		-3.906250
9509		-7.812500
9510		0.000000
9511		-1.953125
9512		3.906250
9513		1.953125
9514		7.812500
9515		5.859375
9516		11.718750
9517		9.765625
9518		13.671875
9519		11.718750
9520		19.531250
9521		15.625000
9522		21.484375
9523		19.531250
9524		25.390625
9525		23.437500
9526		29.296875
9527		27.343750
9528		31.250000
9529		31.250000
9530		37.109375
9531		33.203125
9532		39.062500
9533		37.109375
9534		41.015625
9535		41.015625
9536		44.921875
9537		42.968750
9538		48.828125
9539		44.921875
9540		50.781250
9541		48.828125
9542		54.687500
9543		52.734375
9544		56.640625
9545		54.687500
9546		58.593750
9547		56.640625
9548		62.500000
9549		58.593750
9550		64.453125
9551		62.500000
9552		66.406250
9553		64.453125
9554		68.359375
9555		66.406250
9556		70.312500
9557		68.359375
9558		72.265625
9559		68.359375
9560		74.218750
9561		72.265625
9562		74.218750
9563		72.265625
9564		76.171875
9565		74.218750
9566		78.125000
9567		74.218750
9568		78.125000
9569		76.171875
9570		80.078125
9571		76.171875
9572		80.078125
9573		78.125000
9574		80.078125
9575		78.125000
9576		82.031250
9577		78.125000
9578		82.031250
9579		78.125000
9580		82.031250
9581		78.125000
9582		82.031250
9583		78.125000
9584		82.031250
9585		78.125000
9586		82.031250
9587		76.171875
9588		80.078125
9589		76.171875
9590		80.078125
9591		76.171875
9592		80.078125
9593		74.218750
9594		78.125000
9595		74.218750
9596		76.171875
9597		72.265625
9598		76.171875
9599		70.312500
9600		74.218750
9601		68.359375
9602		72.265625
9603		66.406250
9604		70.312500
9605		64.453125
9606		68.359375
9607		62.500000
9608		66.406250
9609		60.546875
9610		64.453125
9611		58.593750
9612		62.500000
9613		54.687500
9614		58.593750
9615		52.734375
9616		56.640625
9617		50.781250
9618		54.687500
9619		46.875000
9620		50.781250
9621		44.921875
9622		48.828125
9623		41.015625
9624		44.921875
9625		35.156250
9626		42.968750
9627		35.156250
9628		39.062500
9629		31.250000
9630		35.156250
9631		27.343750
9632		33.203125
9633		23.437500
9634		29.296875
9635		19.531250
9636		25.390625
9637		15.625000
9638		21.484375
9639		13.671875
9640		19.531250
9641		9.765625
9642		13.671875
9643		5.859375
9644		11.718750
9645		1.953125
9646		7.812500
9647		-1.953125
9648		3.906250
9649		-5.859375
9650		0.000000
9651		-9.765625
9652		-3.906250
9653		-13.671875
9654		-7.812500
9655		-15.625000
9656		-9.765625
9657		-19.531250
9658		-13.671875
9659		-23.437500
9660		-17.578125
9661		-27.343750
9662		-21.484375
9663		-29.296875
9664		-25.390625
9665		-35.156250
9666		-29.296875
9667		-37.109375
9668		-31.250000
9669		-39.062500
9670		-35.156250
9671		-42.968750
9672		-37.109375
9673		-44.921875
9674		-41.015625
9675		-46.875000
9676		-42.968750
9677		-50.781250
9678		-44.921875
9679		-52.734375
9680		-48.828125
9681		-54.687500
9682		-50.781250
9683		-56.640625
9684		-52.734375
9685		-58.593750
9686		-54.687500
9687		-60.546875
9688		-56.640625
9689		-62.500000
9690		-58.593750
9691		-64.453125
9692		-60.546875
9693		-66.406250
9694		-60.546875
9695		-66.406250
9696		-62.500000
9697		-66.406250
9698		-62.500000
9699		-68.359375
9700		-64.453125
9701		-68.359375
9702		-64.453125
9703		-68.359375
9704		-64.453125
9705		-68.359375
9706		-64.453125
9707		-68.359375
9708		-64.453125
9709		-68.359375
9710		-64.453125
9711		-66.406250
9712		-64.453125
9713		-66.406250
9714		-64.453125
9715		-64.453125
9716		-62.500000
9717		-64.453125
9718		-60.546875
9719		-62.500000
9720		-58.593750
9721		-60.546875
9722		-58.593750
9723		-60.546875
9724		-56.640625
9725		-58.593750
9726		-54.687500
9727		-56.640625
9728		-52.734375
9729		-54.687500
9730		-50.781250
9731		-50.781250
9732		-46.875000
9733		-48.828125
9734		-44.921875
9735		-46.875000
9736		-41.015625
9737		-44.921875
9738		-39.062500
9739		-41.015625
9740		-35.156250
9741		-37.109375
9742		-33.203125
9743		-35.156250
9744		-29.296875
9745		-31.250000
9746		-27.343750
9747		-29.296875
9748		-23.437500
9749		-25.390625
9750		-19.531250
9751		-21.484375
9752		-15.625000
9753		-19.531250
9754		-13.671875
9755		-15.625000
9756		-7.812500
9757		-11.718750
9758		-5.859375
9759		-7.812500
9760		-1.953125
9761		-3.906250
9762		1.953125
9763		0.000000
9764		5.859375
9765		3.906250
9766		9.765625
9767		7.812500
9768		13.671875
9769		11.718750
9770		15.625000
9771		15.625000
9772		19.531250
9773		19.531250
9774		23.437500
9775		21.484375
9776		27.343750
9777		25.390625
9778		31.250000
9779		29.296875
9780		33.203125
9781		31.250000
9782		37.109375
9783		35.156250
9784		41.015625
9785		39.062500
9786		42.968750
9787		42.968750
9788		46.875000
9789		44.921875
9790		48.828125
9791		46.875000
9792		52.734375
9793		50.781250
9794		56.640625
9795		54.687500
9796		58.593750
9797		56.640625
9798		60.546875
9799		58.593750
9800		62.500000
9801		60.546875
9802		64.453125
9803		62.500000
9804		66.406250
9805		64.453125
9806		68.359375
9807		66.406250
9808		72.265625
9809		68.359375
9810		72.265625
9811		70.312500
9812		74.218750
9813		72.265625
9814		74.218750
9815		74.218750
9816		78.125000
9817		74.218750
9818		78.125000
9819		76.171875
9820		78.125000
9821		76.171875
9822		80.078125
9823		76.171875
9824		80.078125
9825		78.125000
9826		82.031250
9827		78.125000
9828		82.031250
9829		78.125000
9830		80.078125
9831		78.125000
9832		80.078125
9833		78.125000
9834		82.031250
9835		78.125000
9836		80.078125
9837		76.171875
9838		80.078125
9839		76.171875
9840		80.078125
9841		76.171875
9842		80.078125
9843		74.218750
9844		78.125000
9845		72.265625
9846		78.125000
9847		72.265625
9848		76.171875
9849		70.312500
9850		74.218750
9851		68.359375
9852		72.265625
9853		66.406250
9854		72.265625
9855		64.453125
9856		68.359375
9857		62.500000
9858		68.359375
9859		60.546875
9860		66.406250
9861		58.593750
9862		62.500000
9863		56.640625
9864		60.546875
9865		52.734375
9866		58.593750
9867		50.781250
9868		56.640625
9869		48.828125
9870		52.734375
9871		44.921875
9872		50.781250
9873		41.015625
9874		46.875000
9875		37.109375
9876		42.968750
9877		35.156250
9878		41.015625
9879		31.250000
9880		37.109375
9881		29.296875
9882		33.203125
9883		25.390625
9884		29.296875
9885		21.484375
9886		27.343750
9887		17.578125
9888		23.437500
9889		13.671875
9890		21.484375
9891		9.765625
9892		15.625000
9893		7.812500
9894		11.718750
9895		3.906250
9896		7.812500
9897		0.000000
9898		3.906250
9899		-5.859375
9900		1.953125
9901		-7.812500
9902		-1.953125
9903		-11.718750
9904		-5.859375
9905		-15.625000
9906		-9.765625
9907		-19.531250
9908		-13.671875
9909		-21.484375
9910		-15.625000
9911		-25.390625
9912		-21.484375
9913		-29.296875
9914		-23.437500
9915		-33.203125
9916		-27.343750
9917		-37.109375
9918		-29.296875
9919		-39.062500
9920		-33.203125
9921		-41.015625
9922		-37.109375
9923		-44.921875
9924		-39.062500
9925		-48.828125
9926		-42.968750
9927		-50.781250
9928		-44.921875
9929		-52.734375
9930		-46.875000
9931		-54.687500
9932		-50.781250
9933		-58.593750
9934		-52.734375
9935		-58.593750
9936		-54.687500
9937		-60.546875
9938		-56.640625
9939		-62.500000
9940		-58.593750
9941		-62.500000
9942		-60.546875
9943		-64.453125
9944		-60.546875
9945		-66.406250
9946		-62.500000
9947		-66.406250
9948		-64.453125
9949		-66.406250
9950		-64.453125
9951		-68.359375
9952		-64.453125
9953		-68.359375
9954		-64.453125
9955		-68.359375
9956		-64.453125
9957		-68.359375
9958		-64.453125
9959		-68.359375
9960		-64.453125
9961		-68.359375
9962		-64.453125
9963		-66.406250
9964		-64.453125
9965		-66.406250
9966		-62.500000
9967		-66.406250
9968		-60.546875
9969		-64.453125
9970		-60.546875
9971		-62.500000
9972		-58.593750
9973		-60.546875
9974		-56.640625
9975		-58.593750
9976		-54.687500
9977		-56.640625
9978		-52.734375
9979		-56.640625
9980		-50.781250
9981		-52.734375
9982		-48.828125
9983		-50.781250
9984		-44.921875
9985		-48.828125
9986		-42.968750
9987		-44.921875
9988		-41.015625
9989		-42.968750
9990		-37.109375
9991		-39.062500
9992		-35.156250
9993		-37.109375
9994		-31.250000
9995		-33.203125
9996		-27.343750
9997		-31.250000
9998		-25.390625
9999		-27.343750
10000		-21.484375
