Channel              :		CH1
Frequency            :		1.987kHz
Period               :		0.503ms
PK-PK                :		148.4mV
Probe attenuation    :		1X
Voltage per ADC value:		0.122070mV
Time interval        :		2.00000us

index		CH1_Voltage(mV)
1		54.687500
2		54.687500
3		58.593750
4		56.640625
5		60.546875
6		58.593750
7		62.500000
8		60.546875
9		64.453125
10		62.500000
11		66.406250
12		64.453125
13		66.406250
14		64.453125
15		68.359375
16		66.406250
17		70.312500
18		68.359375
19		70.312500
20		68.359375
21		72.265625
22		68.359375
23		72.265625
24		70.312500
25		74.218750
26		70.312500
27		74.218750
28		70.312500
29		74.218750
30		72.265625
31		74.218750
32		72.265625
33		74.218750
34		72.265625
35		74.218750
36		72.265625
37		74.218750
38		72.265625
39		74.218750
40		70.312500
41		74.218750
42		70.312500
43		74.218750
44		68.359375
45		72.265625
46		68.359375
47		70.312500
48		68.359375
49		70.312500
50		66.406250
51		70.312500
52		64.453125
53		68.359375
54		62.500000
55		66.406250
56		60.546875
57		64.453125
58		60.546875
59		62.500000
60		58.593750
61		62.500000
62		54.687500
63		60.546875
64		52.734375
65		56.640625
66		50.781250
67		54.687500
68		48.828125
69		52.734375
70		46.875000
71		50.781250
72		42.968750
73		48.828125
74		41.015625
75		44.921875
76		37.109375
77		42.968750
78		35.156250
79		39.062500
80		31.250000
81		37.109375
82		27.343750
83		33.203125
84		25.390625
85		31.250000
86		21.484375
87		27.343750
88		19.531250
89		23.437500
90		15.625000
91		21.484375
92		11.718750
93		17.578125
94		7.812500
95		13.671875
96		5.859375
97		9.765625
98		1.953125
99		7.812500
100		-1.953125
101		3.906250
102		-3.906250
103		0.000000
104		-7.812500
105		-3.906250
106		-11.718750
107		-7.812500
108		-15.625000
109		-9.765625
110		-17.578125
111		-13.671875
112		-21.484375
113		-15.625000
114		-25.390625
115		-19.531250
116		-27.343750
117		-23.437500
118		-31.250000
119		-25.390625
120		-35.156250
121		-29.296875
122		-37.109375
123		-31.250000
124		-39.062500
125		-35.156250
126		-42.968750
127		-37.109375
128		-44.921875
129		-39.062500
130		-46.875000
131		-42.968750
132		-48.828125
133		-44.921875
134		-50.781250
135		-46.875000
136		-54.687500
137		-48.828125
138		-54.687500
139		-50.781250
140		-56.640625
141		-52.734375
142		-58.593750
143		-54.687500
144		-60.546875
145		-56.640625
146		-60.546875
147		-56.640625
148		-60.546875
149		-58.593750
150		-62.500000
151		-58.593750
152		-62.500000
153		-60.546875
154		-64.453125
155		-60.546875
156		-64.453125
157		-60.546875
158		-64.453125
159		-60.546875
160		-64.453125
161		-60.546875
162		-64.453125
163		-60.546875
164		-62.500000
165		-60.546875
166		-62.500000
167		-58.593750
168		-62.500000
169		-58.593750
170		-60.546875
171		-56.640625
172		-58.593750
173		-56.640625
174		-58.593750
175		-54.687500
176		-56.640625
177		-52.734375
178		-54.687500
179		-50.781250
180		-52.734375
181		-50.781250
182		-50.781250
183		-48.828125
184		-50.781250
185		-44.921875
186		-46.875000
187		-42.968750
188		-44.921875
189		-41.015625
190		-42.968750
191		-37.109375
192		-41.015625
193		-35.156250
194		-37.109375
195		-33.203125
196		-35.156250
197		-29.296875
198		-31.250000
199		-27.343750
200		-27.343750
201		-21.484375
202		-25.390625
203		-21.484375
204		-21.484375
205		-17.578125
206		-19.531250
207		-13.671875
208		-15.625000
209		-9.765625
210		-11.718750
211		-7.812500
212		-9.765625
213		-3.906250
214		-5.859375
215		0.000000
216		-1.953125
217		1.953125
218		0.000000
219		5.859375
220		5.859375
221		9.765625
222		7.812500
223		13.671875
224		11.718750
225		15.625000
226		13.671875
227		19.531250
228		17.578125
229		23.437500
230		19.531250
231		25.390625
232		25.390625
233		29.296875
234		27.343750
235		33.203125
236		31.250000
237		35.156250
238		33.203125
239		39.062500
240		37.109375
241		42.968750
242		39.062500
243		44.921875
244		42.968750
245		46.875000
246		44.921875
247		48.828125
248		48.828125
249		52.734375
250		50.781250
251		54.687500
252		52.734375
253		56.640625
254		54.687500
255		58.593750
256		56.640625
257		60.546875
258		58.593750
259		62.500000
260		60.546875
261		64.453125
262		62.500000
263		66.406250
264		64.453125
265		68.359375
266		66.406250
267		68.359375
268		66.406250
269		70.312500
270		68.359375
271		72.265625
272		68.359375
273		72.265625
274		70.312500
275		74.218750
276		70.312500
277		74.218750
278		72.265625
279		74.218750
280		72.265625
281		74.218750
282		72.265625
283		74.218750
284		72.265625
285		76.171875
286		72.265625
287		74.218750
288		72.265625
289		76.171875
290		70.312500
291		74.218750
292		70.312500
293		74.218750
294		70.312500
295		74.218750
296		68.359375
297		72.265625
298		68.359375
299		72.265625
300		68.359375
301		70.312500
302		66.406250
303		70.312500
304		64.453125
305		68.359375
306		62.500000
307		66.406250
308		62.500000
309		64.453125
310		60.546875
311		62.500000
312		56.640625
313		62.500000
314		56.640625
315		60.546875
316		52.734375
317		56.640625
318		50.781250
319		54.687500
320		46.875000
321		52.734375
322		44.921875
323		50.781250
324		42.968750
325		48.828125
326		41.015625
327		44.921875
328		37.109375
329		42.968750
330		35.156250
331		39.062500
332		31.250000
333		37.109375
334		27.343750
335		33.203125
336		25.390625
337		31.250000
338		21.484375
339		27.343750
340		19.531250
341		23.437500
342		15.625000
343		19.531250
344		11.718750
345		17.578125
346		7.812500
347		13.671875
348		5.859375
349		9.765625
350		1.953125
351		5.859375
352		-1.953125
353		3.906250
354		-5.859375
355		0.000000
356		-7.812500
357		-1.953125
358		-11.718750
359		-7.812500
360		-15.625000
361		-9.765625
362		-17.578125
363		-13.671875
364		-21.484375
365		-17.578125
366		-25.390625
367		-19.531250
368		-29.296875
369		-23.437500
370		-31.250000
371		-25.390625
372		-35.156250
373		-29.296875
374		-37.109375
375		-33.203125
376		-39.062500
377		-35.156250
378		-41.015625
379		-37.109375
380		-46.875000
381		-41.015625
382		-46.875000
383		-42.968750
384		-48.828125
385		-44.921875
386		-50.781250
387		-46.875000
388		-52.734375
389		-48.828125
390		-54.687500
391		-50.781250
392		-56.640625
393		-52.734375
394		-58.593750
395		-54.687500
396		-58.593750
397		-54.687500
398		-60.546875
399		-56.640625
400		-60.546875
401		-58.593750
402		-62.500000
403		-58.593750
404		-62.500000
405		-60.546875
406		-62.500000
407		-60.546875
408		-64.453125
409		-60.546875
410		-62.500000
411		-60.546875
412		-64.453125
413		-60.546875
414		-62.500000
415		-58.593750
416		-62.500000
417		-60.546875
418		-60.546875
419		-58.593750
420		-62.500000
421		-56.640625
422		-60.546875
423		-56.640625
424		-58.593750
425		-54.687500
426		-58.593750
427		-54.687500
428		-56.640625
429		-52.734375
430		-54.687500
431		-50.781250
432		-52.734375
433		-48.828125
434		-50.781250
435		-46.875000
436		-48.828125
437		-44.921875
438		-46.875000
439		-41.015625
440		-44.921875
441		-39.062500
442		-41.015625
443		-37.109375
444		-39.062500
445		-33.203125
446		-35.156250
447		-31.250000
448		-33.203125
449		-29.296875
450		-29.296875
451		-25.390625
452		-27.343750
453		-21.484375
454		-23.437500
455		-19.531250
456		-21.484375
457		-15.625000
458		-17.578125
459		-11.718750
460		-13.671875
461		-9.765625
462		-11.718750
463		-5.859375
464		-7.812500
465		-1.953125
466		-3.906250
467		0.000000
468		0.000000
469		3.906250
470		1.953125
471		7.812500
472		5.859375
473		11.718750
474		9.765625
475		13.671875
476		11.718750
477		17.578125
478		15.625000
479		21.484375
480		19.531250
481		23.437500
482		21.484375
483		27.343750
484		25.390625
485		31.250000
486		29.296875
487		33.203125
488		31.250000
489		37.109375
490		35.156250
491		39.062500
492		37.109375
493		42.968750
494		41.015625
495		44.921875
496		42.968750
497		48.828125
498		46.875000
499		50.781250
500		48.828125
501		52.734375
502		50.781250
503		54.687500
504		52.734375
505		56.640625
506		54.687500
507		60.546875
508		58.593750
509		62.500000
510		58.593750
511		62.500000
512		62.500000
513		66.406250
514		64.453125
515		68.359375
516		64.453125
517		68.359375
518		66.406250
519		70.312500
520		68.359375
521		70.312500
522		68.359375
523		72.265625
524		70.312500
525		72.265625
526		70.312500
527		74.218750
528		70.312500
529		74.218750
530		72.265625
531		76.171875
532		72.265625
533		76.171875
534		72.265625
535		74.218750
536		72.265625
537		76.171875
538		72.265625
539		76.171875
540		72.265625
541		74.218750
542		72.265625
543		74.218750
544		70.312500
545		74.218750
546		70.312500
547		74.218750
548		70.312500
549		72.265625
550		68.359375
551		72.265625
552		68.359375
553		70.312500
554		66.406250
555		70.312500
556		64.453125
557		68.359375
558		62.500000
559		66.406250
560		62.500000
561		64.453125
562		60.546875
563		64.453125
564		56.640625
565		60.546875
566		54.687500
567		60.546875
568		52.734375
569		56.640625
570		50.781250
571		54.687500
572		48.828125
573		52.734375
574		44.921875
575		50.781250
576		42.968750
577		46.875000
578		41.015625
579		44.921875
580		37.109375
581		42.968750
582		35.156250
583		39.062500
584		31.250000
585		35.156250
586		27.343750
587		33.203125
588		25.390625
589		31.250000
590		21.484375
591		27.343750
592		17.578125
593		23.437500
594		15.625000
595		19.531250
596		9.765625
597		15.625000
598		7.812500
599		13.671875
600		3.906250
601		11.718750
602		1.953125
603		5.859375
604		-1.953125
605		1.953125
606		-5.859375
607		0.000000
608		-9.765625
609		-3.906250
610		-11.718750
611		-5.859375
612		-15.625000
613		-9.765625
614		-19.531250
615		-13.671875
616		-21.484375
617		-17.578125
618		-25.390625
619		-21.484375
620		-29.296875
621		-23.437500
622		-31.250000
623		-25.390625
624		-33.203125
625		-29.296875
626		-39.062500
627		-33.203125
628		-39.062500
629		-35.156250
630		-42.968750
631		-37.109375
632		-44.921875
633		-41.015625
634		-46.875000
635		-42.968750
636		-48.828125
637		-44.921875
638		-52.734375
639		-46.875000
640		-52.734375
641		-48.828125
642		-54.687500
643		-50.781250
644		-56.640625
645		-52.734375
646		-58.593750
647		-54.687500
648		-58.593750
649		-54.687500
650		-60.546875
651		-56.640625
652		-60.546875
653		-58.593750
654		-62.500000
655		-58.593750
656		-62.500000
657		-58.593750
658		-62.500000
659		-60.546875
660		-62.500000
661		-60.546875
662		-62.500000
663		-60.546875
664		-62.500000
665		-60.546875
666		-62.500000
667		-58.593750
668		-60.546875
669		-58.593750
670		-60.546875
671		-58.593750
672		-60.546875
673		-56.640625
674		-60.546875
675		-56.640625
676		-58.593750
677		-54.687500
678		-56.640625
679		-52.734375
680		-56.640625
681		-52.734375
682		-54.687500
683		-50.781250
684		-52.734375
685		-48.828125
686		-48.828125
687		-44.921875
688		-48.828125
689		-42.968750
690		-44.921875
691		-41.015625
692		-42.968750
693		-39.062500
694		-41.015625
695		-37.109375
696		-37.109375
697		-33.203125
698		-35.156250
699		-31.250000
700		-33.203125
701		-27.343750
702		-29.296875
703		-25.390625
704		-25.390625
705		-21.484375
706		-23.437500
707		-17.578125
708		-19.531250
709		-15.625000
710		-17.578125
711		-11.718750
712		-13.671875
713		-7.812500
714		-11.718750
715		-3.906250
716		-5.859375
717		0.000000
718		-3.906250
719		1.953125
720		0.000000
721		5.859375
722		3.906250
723		9.765625
724		7.812500
725		11.718750
726		9.765625
727		15.625000
728		13.671875
729		19.531250
730		17.578125
731		21.484375
732		21.484375
733		25.390625
734		23.437500
735		29.296875
736		27.343750
737		31.250000
738		29.296875
739		35.156250
740		33.203125
741		37.109375
742		35.156250
743		41.015625
744		39.062500
745		42.968750
746		41.015625
747		46.875000
748		44.921875
749		48.828125
750		46.875000
751		50.781250
752		50.781250
753		54.687500
754		52.734375
755		56.640625
756		52.734375
757		58.593750
758		56.640625
759		60.546875
760		58.593750
761		62.500000
762		60.546875
763		64.453125
764		62.500000
765		66.406250
766		64.453125
767		68.359375
768		64.453125
769		68.359375
770		66.406250
771		70.312500
772		68.359375
773		72.265625
774		70.312500
775		72.265625
776		70.312500
777		74.218750
778		72.265625
779		74.218750
780		72.265625
781		74.218750
782		72.265625
783		76.171875
784		72.265625
785		76.171875
786		72.265625
787		76.171875
788		74.218750
789		76.171875
790		72.265625
791		76.171875
792		72.265625
793		74.218750
794		72.265625
795		74.218750
796		72.265625
797		74.218750
798		70.312500
799		74.218750
800		68.359375
801		72.265625
802		68.359375
803		72.265625
804		68.359375
805		70.312500
806		64.453125
807		70.312500
808		64.453125
809		68.359375
810		62.500000
811		66.406250
812		60.546875
813		64.453125
814		58.593750
815		64.453125
816		56.640625
817		60.546875
818		54.687500
819		60.546875
820		52.734375
821		56.640625
822		48.828125
823		54.687500
824		46.875000
825		52.734375
826		44.921875
827		50.781250
828		42.968750
829		46.875000
830		39.062500
831		44.921875
832		37.109375
833		41.015625
834		33.203125
835		39.062500
836		31.250000
837		35.156250
838		27.343750
839		31.250000
840		23.437500
841		29.296875
842		19.531250
843		25.390625
844		17.578125
845		23.437500
846		13.671875
847		19.531250
848		11.718750
849		15.625000
850		7.812500
851		13.671875
852		3.906250
853		9.765625
854		0.000000
855		5.859375
856		-3.906250
857		1.953125
858		-5.859375
859		0.000000
860		-9.765625
861		-3.906250
862		-13.671875
863		-7.812500
864		-15.625000
865		-11.718750
866		-19.531250
867		-13.671875
868		-23.437500
869		-17.578125
870		-25.390625
871		-21.484375
872		-31.250000
873		-23.437500
874		-33.203125
875		-27.343750
876		-35.156250
877		-29.296875
878		-37.109375
879		-33.203125
880		-41.015625
881		-35.156250
882		-42.968750
883		-39.062500
884		-44.921875
885		-41.015625
886		-46.875000
887		-42.968750
888		-48.828125
889		-44.921875
890		-50.781250
891		-46.875000
892		-52.734375
893		-48.828125
894		-56.640625
895		-50.781250
896		-56.640625
897		-52.734375
898		-58.593750
899		-54.687500
900		-58.593750
901		-54.687500
902		-60.546875
903		-56.640625
904		-60.546875
905		-58.593750
906		-62.500000
907		-58.593750
908		-62.500000
909		-58.593750
910		-62.500000
911		-60.546875
912		-62.500000
913		-60.546875
914		-62.500000
915		-60.546875
916		-62.500000
917		-58.593750
918		-62.500000
919		-58.593750
920		-62.500000
921		-58.593750
922		-60.546875
923		-58.593750
924		-60.546875
925		-56.640625
926		-58.593750
927		-56.640625
928		-58.593750
929		-54.687500
930		-56.640625
931		-52.734375
932		-54.687500
933		-50.781250
934		-54.687500
935		-48.828125
936		-52.734375
937		-46.875000
938		-48.828125
939		-44.921875
940		-46.875000
941		-42.968750
942		-44.921875
943		-41.015625
944		-42.968750
945		-39.062500
946		-41.015625
947		-35.156250
948		-37.109375
949		-33.203125
950		-35.156250
951		-29.296875
952		-31.250000
953		-27.343750
954		-29.296875
955		-23.437500
956		-25.390625
957		-21.484375
958		-23.437500
959		-17.578125
960		-19.531250
961		-15.625000
962		-15.625000
963		-9.765625
964		-11.718750
965		-7.812500
966		-9.765625
967		-3.906250
968		-5.859375
969		0.000000
970		-1.953125
971		1.953125
972		0.000000
973		5.859375
974		3.906250
975		9.765625
976		7.812500
977		11.718750
978		9.765625
979		15.625000
980		13.671875
981		19.531250
982		17.578125
983		23.437500
984		21.484375
985		25.390625
986		23.437500
987		29.296875
988		27.343750
989		31.250000
990		31.250000
991		35.156250
992		33.203125
993		37.109375
994		37.109375
995		41.015625
996		39.062500
997		42.968750
998		42.968750
999		46.875000
1000		44.921875
1001		48.828125
1002		46.875000
1003		50.781250
1004		50.781250
1005		54.687500
1006		52.734375
1007		56.640625
1008		54.687500
1009		58.593750
1010		56.640625
1011		60.546875
1012		58.593750
1013		62.500000
1014		60.546875
1015		64.453125
1016		62.500000
1017		66.406250
1018		64.453125
1019		68.359375
1020		64.453125
1021		68.359375
1022		68.359375
1023		70.312500
1024		68.359375
1025		72.265625
1026		70.312500
1027		72.265625
1028		70.312500
1029		74.218750
1030		70.312500
1031		74.218750
1032		72.265625
1033		74.218750
1034		72.265625
1035		76.171875
1036		72.265625
1037		76.171875
1038		72.265625
1039		76.171875
1040		72.265625
1041		76.171875
1042		70.312500
1043		76.171875
1044		72.265625
1045		74.218750
1046		72.265625
1047		74.218750
1048		70.312500
1049		74.218750
1050		70.312500
1051		74.218750
1052		68.359375
1053		72.265625
1054		68.359375
1055		72.265625
1056		66.406250
1057		70.312500
1058		66.406250
1059		70.312500
1060		64.453125
1061		68.359375
1062		62.500000
1063		66.406250
1064		60.546875
1065		64.453125
1066		58.593750
1067		62.500000
1068		56.640625
1069		60.546875
1070		54.687500
1071		58.593750
1072		52.734375
1073		56.640625
1074		48.828125
1075		54.687500
1076		46.875000
1077		52.734375
1078		44.921875
1079		48.828125
1080		41.015625
1081		46.875000
1082		39.062500
1083		42.968750
1084		35.156250
1085		41.015625
1086		33.203125
1087		37.109375
1088		29.296875
1089		35.156250
1090		27.343750
1091		31.250000
1092		23.437500
1093		29.296875
1094		19.531250
1095		25.390625
1096		15.625000
1097		23.437500
1098		13.671875
1099		17.578125
1100		9.765625
1101		15.625000
1102		5.859375
1103		11.718750
1104		3.906250
1105		7.812500
1106		0.000000
1107		5.859375
1108		-3.906250
1109		1.953125
1110		-7.812500
1111		-1.953125
1112		-9.765625
1113		-5.859375
1114		-13.671875
1115		-9.765625
1116		-17.578125
1117		-11.718750
1118		-21.484375
1119		-15.625000
1120		-23.437500
1121		-19.531250
1122		-27.343750
1123		-21.484375
1124		-29.296875
1125		-25.390625
1126		-33.203125
1127		-27.343750
1128		-35.156250
1129		-31.250000
1130		-39.062500
1131		-33.203125
1132		-41.015625
1133		-37.109375
1134		-42.968750
1135		-39.062500
1136		-46.875000
1137		-41.015625
1138		-48.828125
1139		-42.968750
1140		-50.781250
1141		-44.921875
1142		-54.687500
1143		-48.828125
1144		-54.687500
1145		-48.828125
1146		-54.687500
1147		-52.734375
1148		-56.640625
1149		-52.734375
1150		-58.593750
1151		-54.687500
1152		-58.593750
1153		-56.640625
1154		-60.546875
1155		-56.640625
1156		-60.546875
1157		-58.593750
1158		-62.500000
1159		-58.593750
1160		-64.453125
1161		-58.593750
1162		-62.500000
1163		-58.593750
1164		-62.500000
1165		-60.546875
1166		-62.500000
1167		-60.546875
1168		-62.500000
1169		-60.546875
1170		-62.500000
1171		-58.593750
1172		-62.500000
1173		-58.593750
1174		-60.546875
1175		-58.593750
1176		-62.500000
1177		-54.687500
1178		-60.546875
1179		-54.687500
1180		-58.593750
1181		-54.687500
1182		-56.640625
1183		-52.734375
1184		-54.687500
1185		-50.781250
1186		-52.734375
1187		-46.875000
1188		-52.734375
1189		-46.875000
1190		-48.828125
1191		-44.921875
1192		-46.875000
1193		-41.015625
1194		-46.875000
1195		-37.109375
1196		-42.968750
1197		-37.109375
1198		-39.062500
1199		-35.156250
1200		-37.109375
1201		-33.203125
1202		-33.203125
1203		-27.343750
1204		-31.250000
1205		-25.390625
1206		-27.343750
1207		-23.437500
1208		-25.390625
1209		-19.531250
1210		-23.437500
1211		-15.625000
1212		-21.484375
1213		-11.718750
1214		-15.625000
1215		-9.765625
1216		-11.718750
1217		-7.812500
1218		-9.765625
1219		-3.906250
1220		-5.859375
1221		0.000000
1222		-3.906250
1223		3.906250
1224		1.953125
1225		5.859375
1226		3.906250
1227		11.718750
1228		7.812500
1229		15.625000
1230		9.765625
1231		17.578125
1232		15.625000
1233		19.531250
1234		17.578125
1235		25.390625
1236		21.484375
1237		27.343750
1238		21.484375
1239		29.296875
1240		29.296875
1241		33.203125
1242		31.250000
1243		39.062500
1244		33.203125
1245		41.015625
1246		35.156250
1247		44.921875
1248		39.062500
1249		46.875000
1250		41.015625
1251		48.828125
1252		42.968750
1253		50.781250
1254		46.875000
1255		54.687500
1256		50.781250
1257		54.687500
1258		52.734375
1259		56.640625
1260		54.687500
1261		60.546875
1262		56.640625
1263		62.500000
1264		58.593750
1265		64.453125
1266		60.546875
1267		66.406250
1268		60.546875
1269		68.359375
1270		62.500000
1271		68.359375
1272		64.453125
1273		70.312500
1274		68.359375
1275		70.312500
1276		68.359375
1277		74.218750
1278		68.359375
1279		76.171875
1280		68.359375
1281		76.171875
1282		68.359375
1283		76.171875
1284		70.312500
1285		76.171875
1286		70.312500
1287		78.125000
1288		70.312500
1289		78.125000
1290		74.218750
1291		76.171875
1292		72.265625
1293		76.171875
1294		70.312500
1295		78.125000
1296		70.312500
1297		78.125000
1298		70.312500
1299		76.171875
1300		68.359375
1301		76.171875
1302		68.359375
1303		76.171875
1304		66.406250
1305		74.218750
1306		68.359375
1307		72.265625
1308		66.406250
1309		70.312500
1310		64.453125
1311		70.312500
1312		62.500000
1313		68.359375
1314		60.546875
1315		68.359375
1316		58.593750
1317		66.406250
1318		56.640625
1319		64.453125
1320		54.687500
1321		62.500000
1322		54.687500
1323		60.546875
1324		50.781250
1325		56.640625
1326		46.875000
1327		52.734375
1328		44.921875
1329		52.734375
1330		41.015625
1331		50.781250
1332		39.062500
1333		48.828125
1334		37.109375
1335		44.921875
1336		33.203125
1337		42.968750
1338		31.250000
1339		39.062500
1340		29.296875
1341		33.203125
1342		25.390625
1343		31.250000
1344		19.531250
1345		29.296875
1346		17.578125
1347		25.390625
1348		13.671875
1349		23.437500
1350		11.718750
1351		19.531250
1352		7.812500
1353		17.578125
1354		3.906250
1355		13.671875
1356		1.953125
1357		9.765625
1358		0.000000
1359		3.906250
1360		-5.859375
1361		1.953125
1362		-9.765625
1363		0.000000
1364		-13.671875
1365		-3.906250
1366		-15.625000
1367		-7.812500
1368		-19.531250
1369		-11.718750
1370		-23.437500
1371		-13.671875
1372		-25.390625
1373		-17.578125
1374		-27.343750
1375		-21.484375
1376		-29.296875
1377		-25.390625
1378		-35.156250
1379		-27.343750
1380		-39.062500
1381		-29.296875
1382		-41.015625
1383		-31.250000
1384		-42.968750
1385		-35.156250
1386		-46.875000
1387		-37.109375
1388		-48.828125
1389		-39.062500
1390		-48.828125
1391		-44.921875
1392		-50.781250
1393		-46.875000
1394		-54.687500
1395		-46.875000
1396		-56.640625
1397		-48.828125
1398		-56.640625
1399		-50.781250
1400		-60.546875
1401		-50.781250
1402		-60.546875
1403		-52.734375
1404		-62.500000
1405		-54.687500
1406		-62.500000
1407		-56.640625
1408		-60.546875
1409		-58.593750
1410		-64.453125
1411		-56.640625
1412		-64.453125
1413		-56.640625
1414		-64.453125
1415		-58.593750
1416		-66.406250
1417		-58.593750
1418		-64.453125
1419		-58.593750
1420		-64.453125
1421		-56.640625
1422		-64.453125
1423		-56.640625
1424		-60.546875
1425		-58.593750
1426		-60.546875
1427		-58.593750
1428		-62.500000
1429		-54.687500
1430		-60.546875
1431		-52.734375
1432		-58.593750
1433		-50.781250
1434		-58.593750
1435		-50.781250
1436		-56.640625
1437		-48.828125
1438		-54.687500
1439		-46.875000
1440		-52.734375
1441		-46.875000
1442		-48.828125
1443		-44.921875
1444		-46.875000
1445		-41.015625
1446		-46.875000
1447		-37.109375
1448		-44.921875
1449		-35.156250
1450		-41.015625
1451		-33.203125
1452		-39.062500
1453		-31.250000
1454		-35.156250
1455		-27.343750
1456		-31.250000
1457		-25.390625
1458		-27.343750
1459		-23.437500
1460		-25.390625
1461		-19.531250
1462		-23.437500
1463		-13.671875
1464		-19.531250
1465		-11.718750
1466		-17.578125
1467		-7.812500
1468		-13.671875
1469		-3.906250
1470		-9.765625
1471		-1.953125
1472		-5.859375
1473		1.953125
1474		-1.953125
1475		3.906250
1476		1.953125
1477		7.812500
1478		5.859375
1479		11.718750
1480		7.812500
1481		15.625000
1482		9.765625
1483		19.531250
1484		13.671875
1485		23.437500
1486		17.578125
1487		25.390625
1488		19.531250
1489		29.296875
1490		23.437500
1491		29.296875
1492		29.296875
1493		33.203125
1494		31.250000
1495		39.062500
1496		33.203125
1497		41.015625
1498		35.156250
1499		44.921875
1500		39.062500
1501		46.875000
1502		41.015625
1503		50.781250
1504		44.921875
1505		52.734375
1506		46.875000
1507		54.687500
1508		50.781250
1509		54.687500
1510		52.734375
1511		56.640625
1512		54.687500
1513		60.546875
1514		54.687500
1515		64.453125
1516		56.640625
1517		64.453125
1518		58.593750
1519		68.359375
1520		60.546875
1521		68.359375
1522		62.500000
1523		70.312500
1524		64.453125
1525		70.312500
1526		68.359375
1527		70.312500
1528		68.359375
1529		74.218750
1530		68.359375
1531		76.171875
1532		68.359375
1533		76.171875
1534		68.359375
1535		76.171875
1536		68.359375
1537		78.125000
1538		70.312500
1539		78.125000
1540		70.312500
1541		78.125000
1542		72.265625
1543		76.171875
1544		72.265625
1545		76.171875
1546		70.312500
1547		78.125000
1548		70.312500
1549		78.125000
1550		68.359375
1551		76.171875
1552		68.359375
1553		76.171875
1554		68.359375
1555		74.218750
1556		66.406250
1557		74.218750
1558		66.406250
1559		72.265625
1560		66.406250
1561		70.312500
1562		62.500000
1563		70.312500
1564		60.546875
1565		68.359375
1566		60.546875
1567		66.406250
1568		58.593750
1569		66.406250
1570		54.687500
1571		64.453125
1572		54.687500
1573		62.500000
1574		52.734375
1575		58.593750
1576		50.781250
1577		54.687500
1578		46.875000
1579		52.734375
1580		44.921875
1581		52.734375
1582		41.015625
1583		48.828125
1584		37.109375
1585		46.875000
1586		35.156250
1587		44.921875
1588		31.250000
1589		41.015625
1590		29.296875
1591		37.109375
1592		29.296875
1593		33.203125
1594		25.390625
1595		29.296875
1596		19.531250
1597		27.343750
1598		15.625000
1599		25.390625
1600		13.671875
1601		23.437500
1602		9.765625
1603		19.531250
1604		5.859375
1605		15.625000
1606		3.906250
1607		11.718750
1608		1.953125
1609		7.812500
1610		-1.953125
1611		3.906250
1612		-7.812500
1613		0.000000
1614		-9.765625
1615		-1.953125
1616		-13.671875
1617		-3.906250
1618		-17.578125
1619		-7.812500
1620		-21.484375
1621		-11.718750
1622		-23.437500
1623		-13.671875
1624		-27.343750
1625		-17.578125
1626		-27.343750
1627		-23.437500
1628		-31.250000
1629		-27.343750
1630		-35.156250
1631		-29.296875
1632		-39.062500
1633		-31.250000
1634		-41.015625
1635		-33.203125
1636		-42.968750
1637		-37.109375
1638		-44.921875
1639		-39.062500
1640		-48.828125
1641		-42.968750
1642		-48.828125
1643		-44.921875
1644		-50.781250
1645		-46.875000
1646		-54.687500
1647		-46.875000
1648		-56.640625
1649		-48.828125
1650		-58.593750
1651		-50.781250
1652		-60.546875
1653		-52.734375
1654		-60.546875
1655		-54.687500
1656		-62.500000
1657		-54.687500
1658		-62.500000
1659		-56.640625
1660		-62.500000
1661		-58.593750
1662		-64.453125
1663		-58.593750
1664		-66.406250
1665		-58.593750
1666		-66.406250
1667		-58.593750
1668		-66.406250
1669		-58.593750
1670		-66.406250
1671		-58.593750
1672		-64.453125
1673		-58.593750
1674		-64.453125
1675		-58.593750
1676		-62.500000
1677		-58.593750
1678		-60.546875
1679		-58.593750
1680		-62.500000
1681		-54.687500
1682		-62.500000
1683		-52.734375
1684		-60.546875
1685		-52.734375
1686		-58.593750
1687		-50.781250
1688		-56.640625
1689		-48.828125
1690		-54.687500
1691		-46.875000
1692		-52.734375
1693		-46.875000
1694		-48.828125
1695		-44.921875
1696		-46.875000
1697		-39.062500
1698		-46.875000
1699		-37.109375
1700		-42.968750
1701		-35.156250
1702		-41.015625
1703		-33.203125
1704		-39.062500
1705		-29.296875
1706		-35.156250
1707		-27.343750
1708		-33.203125
1709		-23.437500
1710		-27.343750
1711		-21.484375
1712		-23.437500
1713		-19.531250
1714		-21.484375
1715		-13.671875
1716		-19.531250
1717		-11.718750
1718		-17.578125
1719		-7.812500
1720		-13.671875
1721		-3.906250
1722		-9.765625
1723		0.000000
1724		-5.859375
1725		1.953125
1726		-3.906250
1727		3.906250
1728		1.953125
1729		7.812500
1730		5.859375
1731		13.671875
1732		7.812500
1733		15.625000
1734		9.765625
1735		19.531250
1736		13.671875
1737		23.437500
1738		17.578125
1739		27.343750
1740		21.484375
1741		29.296875
1742		23.437500
1743		31.250000
1744		29.296875
1745		33.203125
1746		33.203125
1747		37.109375
1748		33.203125
1749		42.968750
1750		37.109375
1751		44.921875
1752		39.062500
1753		46.875000
1754		41.015625
1755		50.781250
1756		44.921875
1757		52.734375
1758		46.875000
1759		54.687500
1760		50.781250
1761		54.687500
1762		54.687500
1763		56.640625
1764		54.687500
1765		62.500000
1766		54.687500
1767		64.453125
1768		56.640625
1769		66.406250
1770		60.546875
1771		68.359375
1772		60.546875
1773		68.359375
1774		62.500000
1775		70.312500
1776		64.453125
1777		70.312500
1778		68.359375
1779		70.312500
1780		66.406250
1781		74.218750
1782		68.359375
1783		74.218750
1784		68.359375
1785		76.171875
1786		68.359375
1787		76.171875
1788		70.312500
1789		76.171875
1790		70.312500
1791		76.171875
1792		70.312500
1793		78.125000
1794		72.265625
1795		76.171875
1796		72.265625
1797		74.218750
1798		70.312500
1799		78.125000
1800		70.312500
1801		76.171875
1802		68.359375
1803		76.171875
1804		68.359375
1805		76.171875
1806		66.406250
1807		74.218750
1808		66.406250
1809		74.218750
1810		66.406250
1811		72.265625
1812		66.406250
1813		70.312500
1814		62.500000
1815		70.312500
1816		60.546875
1817		68.359375
1818		58.593750
1819		66.406250
1820		56.640625
1821		64.453125
1822		54.687500
1823		62.500000
1824		52.734375
1825		60.546875
1826		52.734375
1827		58.593750
1828		50.781250
1829		54.687500
1830		48.828125
1831		52.734375
1832		42.968750
1833		52.734375
1834		41.015625
1835		48.828125
1836		37.109375
1837		46.875000
1838		35.156250
1839		42.968750
1840		31.250000
1841		41.015625
1842		29.296875
1843		37.109375
1844		27.343750
1845		33.203125
1846		25.390625
1847		29.296875
1848		19.531250
1849		27.343750
1850		15.625000
1851		25.390625
1852		13.671875
1853		21.484375
1854		9.765625
1855		17.578125
1856		5.859375
1857		13.671875
1858		1.953125
1859		11.718750
1860		1.953125
1861		7.812500
1862		-1.953125
1863		1.953125
1864		-7.812500
1865		0.000000
1866		-11.718750
1867		-1.953125
1868		-15.625000
1869		-5.859375
1870		-19.531250
1871		-9.765625
1872		-21.484375
1873		-11.718750
1874		-23.437500
1875		-15.625000
1876		-27.343750
1877		-19.531250
1878		-29.296875
1879		-23.437500
1880		-31.250000
1881		-27.343750
1882		-37.109375
1883		-27.343750
1884		-39.062500
1885		-31.250000
1886		-42.968750
1887		-33.203125
1888		-44.921875
1889		-37.109375
1890		-46.875000
1891		-39.062500
1892		-48.828125
1893		-41.015625
1894		-50.781250
1895		-44.921875
1896		-50.781250
1897		-46.875000
1898		-56.640625
1899		-48.828125
1900		-56.640625
1901		-48.828125
1902		-58.593750
1903		-50.781250
1904		-60.546875
1905		-52.734375
1906		-60.546875
1907		-54.687500
1908		-62.500000
1909		-54.687500
1910		-62.500000
1911		-56.640625
1912		-62.500000
1913		-58.593750
1914		-62.500000
1915		-58.593750
1916		-64.453125
1917		-58.593750
1918		-64.453125
1919		-58.593750
1920		-66.406250
1921		-58.593750
1922		-66.406250
1923		-58.593750
1924		-64.453125
1925		-58.593750
1926		-64.453125
1927		-56.640625
1928		-62.500000
1929		-56.640625
1930		-60.546875
1931		-56.640625
1932		-60.546875
1933		-54.687500
1934		-60.546875
1935		-52.734375
1936		-58.593750
1937		-50.781250
1938		-58.593750
1939		-50.781250
1940		-56.640625
1941		-48.828125
1942		-54.687500
1943		-46.875000
1944		-52.734375
1945		-44.921875
1946		-48.828125
1947		-42.968750
1948		-44.921875
1949		-39.062500
1950		-44.921875
1951		-37.109375
1952		-42.968750
1953		-33.203125
1954		-39.062500
1955		-31.250000
1956		-37.109375
1957		-29.296875
1958		-33.203125
1959		-25.390625
1960		-31.250000
1961		-23.437500
1962		-25.390625
1963		-21.484375
1964		-23.437500
1965		-17.578125
1966		-21.484375
1967		-13.671875
1968		-17.578125
1969		-9.765625
1970		-15.625000
1971		-5.859375
1972		-11.718750
1973		-1.953125
1974		-7.812500
1975		0.000000
1976		-5.859375
1977		3.906250
1978		0.000000
1979		5.859375
1980		3.906250
1981		9.765625
1982		7.812500
1983		13.671875
1984		7.812500
1985		17.578125
1986		11.718750
1987		21.484375
1988		15.625000
1989		25.390625
1990		19.531250
1991		27.343750
1992		21.484375
1993		31.250000
1994		25.390625
1995		33.203125
1996		29.296875
1997		35.156250
1998		33.203125
1999		39.062500
2000		35.156250
2001		42.968750
2002		37.109375
2003		44.921875
2004		39.062500
2005		48.828125
2006		42.968750
2007		50.781250
2008		44.921875
2009		52.734375
2010		46.875000
2011		56.640625
2012		50.781250
2013		56.640625
2014		54.687500
2015		58.593750
2016		56.640625
2017		62.500000
2018		56.640625
2019		64.453125
2020		58.593750
2021		66.406250
2022		60.546875
2023		68.359375
2024		62.500000
2025		70.312500
2026		64.453125
2027		72.265625
2028		64.453125
2029		72.265625
2030		68.359375
2031		72.265625
2032		68.359375
2033		74.218750
2034		68.359375
2035		76.171875
2036		68.359375
2037		76.171875
2038		70.312500
2039		76.171875
2040		70.312500
2041		78.125000
2042		70.312500
2043		78.125000
2044		70.312500
2045		78.125000
2046		74.218750
2047		76.171875
2048		72.265625
2049		76.171875
2050		70.312500
2051		78.125000
2052		70.312500
2053		76.171875
2054		70.312500
2055		76.171875
2056		68.359375
2057		76.171875
2058		68.359375
2059		74.218750
2060		66.406250
2061		74.218750
2062		66.406250
2063		74.218750
2064		66.406250
2065		70.312500
2066		62.500000
2067		68.359375
2068		60.546875
2069		68.359375
2070		58.593750
2071		66.406250
2072		56.640625
2073		64.453125
2074		54.687500
2075		62.500000
2076		52.734375
2077		60.546875
2078		50.781250
2079		58.593750
2080		50.781250
2081		54.687500
2082		48.828125
2083		52.734375
2084		42.968750
2085		50.781250
2086		41.015625
2087		48.828125
2088		37.109375
2089		46.875000
2090		35.156250
2091		42.968750
2092		33.203125
2093		41.015625
2094		27.343750
2095		37.109375
2096		27.343750
2097		33.203125
2098		25.390625
2099		29.296875
2100		19.531250
2101		27.343750
2102		15.625000
2103		23.437500
2104		11.718750
2105		21.484375
2106		7.812500
2107		17.578125
2108		5.859375
2109		13.671875
2110		1.953125
2111		11.718750
2112		0.000000
2113		7.812500
2114		-1.953125
2115		1.953125
2116		-7.812500
2117		-1.953125
2118		-11.718750
2119		-1.953125
2120		-15.625000
2121		-5.859375
2122		-17.578125
2123		-9.765625
2124		-21.484375
2125		-13.671875
2126		-25.390625
2127		-15.625000
2128		-27.343750
2129		-19.531250
2130		-29.296875
2131		-23.437500
2132		-31.250000
2133		-27.343750
2134		-37.109375
2135		-29.296875
2136		-39.062500
2137		-31.250000
2138		-42.968750
2139		-33.203125
2140		-44.921875
2141		-35.156250
2142		-46.875000
2143		-39.062500
2144		-48.828125
2145		-41.015625
2146		-50.781250
2147		-42.968750
2148		-50.781250
2149		-48.828125
2150		-54.687500
2151		-48.828125
2152		-56.640625
2153		-48.828125
2154		-58.593750
2155		-50.781250
2156		-60.546875
2157		-52.734375
2158		-62.500000
2159		-54.687500
2160		-62.500000
2161		-54.687500
2162		-64.453125
2163		-56.640625
2164		-60.546875
2165		-58.593750
2166		-62.500000
2167		-60.546875
2168		-64.453125
2169		-58.593750
2170		-64.453125
2171		-58.593750
2172		-64.453125
2173		-58.593750
2174		-64.453125
2175		-58.593750
2176		-64.453125
2177		-56.640625
2178		-64.453125
2179		-56.640625
2180		-62.500000
2181		-56.640625
2182		-60.546875
2183		-56.640625
2184		-60.546875
2185		-54.687500
2186		-60.546875
2187		-52.734375
2188		-58.593750
2189		-50.781250
2190		-56.640625
2191		-48.828125
2192		-54.687500
2193		-46.875000
2194		-52.734375
2195		-44.921875
2196		-52.734375
2197		-44.921875
2198		-46.875000
2199		-42.968750
2200		-44.921875
2201		-39.062500
2202		-44.921875
2203		-35.156250
2204		-41.015625
2205		-33.203125
2206		-39.062500
2207		-31.250000
2208		-35.156250
2209		-27.343750
2210		-33.203125
2211		-25.390625
2212		-31.250000
2213		-21.484375
2214		-25.390625
2215		-21.484375
2216		-21.484375
2217		-17.578125
2218		-19.531250
2219		-11.718750
2220		-17.578125
2221		-7.812500
2222		-13.671875
2223		-5.859375
2224		-9.765625
2225		-1.953125
2226		-7.812500
2227		1.953125
2228		-5.859375
2229		5.859375
2230		0.000000
2231		5.859375
2232		3.906250
2233		9.765625
2234		7.812500
2235		15.625000
2236		9.765625
2237		17.578125
2238		13.671875
2239		21.484375
2240		15.625000
2241		25.390625
2242		19.531250
2243		27.343750
2244		23.437500
2245		31.250000
2246		25.390625
2247		35.156250
2248		31.250000
2249		35.156250
2250		33.203125
2251		39.062500
2252		35.156250
2253		42.968750
2254		39.062500
2255		46.875000
2256		41.015625
2257		48.828125
2258		42.968750
2259		52.734375
2260		46.875000
2261		54.687500
2262		48.828125
2263		56.640625
2264		50.781250
2265		56.640625
2266		54.687500
2267		58.593750
2268		56.640625
2269		62.500000
2270		56.640625
2271		64.453125
2272		58.593750
2273		66.406250
2274		60.546875
2275		68.359375
2276		62.500000
2277		70.312500
2278		64.453125
2279		72.265625
2280		66.406250
2281		72.265625
2282		68.359375
2283		72.265625
2284		70.312500
2285		74.218750
2286		68.359375
2287		76.171875
2288		70.312500
2289		76.171875
2290		70.312500
2291		76.171875
2292		70.312500
2293		78.125000
2294		70.312500
2295		78.125000
2296		70.312500
2297		78.125000
2298		74.218750
2299		76.171875
2300		72.265625
2301		76.171875
2302		70.312500
2303		78.125000
2304		70.312500
2305		76.171875
2306		68.359375
2307		76.171875
2308		68.359375
2309		76.171875
2310		68.359375
2311		74.218750
2312		66.406250
2313		72.265625
2314		66.406250
2315		72.265625
2316		66.406250
2317		68.359375
2318		62.500000
2319		68.359375
2320		60.546875
2321		68.359375
2322		58.593750
2323		66.406250
2324		56.640625
2325		64.453125
2326		54.687500
2327		62.500000
2328		52.734375
2329		60.546875
2330		50.781250
2331		58.593750
2332		50.781250
2333		54.687500
2334		46.875000
2335		50.781250
2336		41.015625
2337		50.781250
2338		39.062500
2339		48.828125
2340		37.109375
2341		44.921875
2342		33.203125
2343		42.968750
2344		31.250000
2345		39.062500
2346		27.343750
2347		37.109375
2348		27.343750
2349		33.203125
2350		23.437500
2351		27.343750
2352		17.578125
2353		25.390625
2354		15.625000
2355		23.437500
2356		11.718750
2357		19.531250
2358		7.812500
2359		17.578125
2360		3.906250
2361		13.671875
2362		0.000000
2363		9.765625
2364		0.000000
2365		7.812500
2366		-3.906250
2367		1.953125
2368		-7.812500
2369		-1.953125
2370		-11.718750
2371		-3.906250
2372		-15.625000
2373		-5.859375
2374		-19.531250
2375		-9.765625
2376		-23.437500
2377		-13.671875
2378		-25.390625
2379		-17.578125
2380		-29.296875
2381		-21.484375
2382		-29.296875
2383		-25.390625
2384		-33.203125
2385		-27.343750
2386		-37.109375
2387		-31.250000
2388		-39.062500
2389		-31.250000
2390		-42.968750
2391		-35.156250
2392		-46.875000
2393		-37.109375
2394		-48.828125
2395		-41.015625
2396		-50.781250
2397		-42.968750
2398		-50.781250
2399		-44.921875
2400		-52.734375
2401		-48.828125
2402		-56.640625
2403		-48.828125
2404		-58.593750
2405		-50.781250
2406		-58.593750
2407		-50.781250
2408		-60.546875
2409		-52.734375
2410		-62.500000
2411		-54.687500
2412		-62.500000
2413		-54.687500
2414		-64.453125
2415		-56.640625
2416		-62.500000
2417		-58.593750
2418		-62.500000
2419		-58.593750
2420		-64.453125
2421		-58.593750
2422		-64.453125
2423		-58.593750
2424		-66.406250
2425		-58.593750
2426		-64.453125
2427		-58.593750
2428		-64.453125
2429		-56.640625
2430		-62.500000
2431		-56.640625
2432		-62.500000
2433		-56.640625
2434		-60.546875
2435		-56.640625
2436		-60.546875
2437		-52.734375
2438		-60.546875
2439		-52.734375
2440		-58.593750
2441		-50.781250
2442		-56.640625
2443		-48.828125
2444		-54.687500
2445		-46.875000
2446		-52.734375
2447		-44.921875
2448		-50.781250
2449		-42.968750
2450		-46.875000
2451		-42.968750
2452		-44.921875
2453		-41.015625
2454		-42.968750
2455		-35.156250
2456		-41.015625
2457		-33.203125
2458		-39.062500
2459		-29.296875
2460		-35.156250
2461		-27.343750
2462		-33.203125
2463		-23.437500
2464		-29.296875
2465		-21.484375
2466		-25.390625
2467		-19.531250
2468		-21.484375
2469		-15.625000
2470		-17.578125
2471		-11.718750
2472		-17.578125
2473		-7.812500
2474		-13.671875
2475		-3.906250
2476		-11.718750
2477		-1.953125
2478		-7.812500
2479		1.953125
2480		-3.906250
2481		5.859375
2482		0.000000
2483		7.812500
2484		5.859375
2485		9.765625
2486		9.765625
2487		15.625000
2488		9.765625
2489		19.531250
2490		13.671875
2491		23.437500
2492		17.578125
2493		25.390625
2494		19.531250
2495		29.296875
2496		23.437500
2497		31.250000
2498		25.390625
2499		35.156250
2500		31.250000
2501		37.109375
2502		35.156250
2503		39.062500
2504		35.156250
2505		44.921875
2506		39.062500
2507		46.875000
2508		41.015625
2509		48.828125
2510		42.968750
2511		52.734375
2512		46.875000
2513		54.687500
2514		48.828125
2515		56.640625
2516		50.781250
2517		58.593750
2518		56.640625
2519		60.546875
2520		56.640625
2521		64.453125
2522		58.593750
2523		64.453125
2524		58.593750
2525		66.406250
2526		60.546875
2527		68.359375
2528		62.500000
2529		70.312500
2530		64.453125
2531		72.265625
2532		64.453125
2533		72.265625
2534		68.359375
2535		72.265625
2536		70.312500
2537		72.265625
2538		68.359375
2539		76.171875
2540		70.312500
2541		76.171875
2542		70.312500
2543		76.171875
2544		70.312500
2545		78.125000
2546		70.312500
2547		78.125000
2548		70.312500
2549		78.125000
2550		72.265625
2551		76.171875
2552		72.265625
2553		76.171875
2554		70.312500
2555		76.171875
2556		70.312500
2557		76.171875
2558		68.359375
2559		76.171875
2560		68.359375
2561		76.171875
2562		66.406250
2563		74.218750
2564		66.406250
2565		74.218750
2566		64.453125
2567		72.265625
2568		66.406250
2569		68.359375
2570		62.500000
2571		68.359375
2572		60.546875
2573		68.359375
2574		58.593750
2575		66.406250
2576		56.640625
2577		64.453125
2578		54.687500
2579		62.500000
2580		50.781250
2581		60.546875
2582		50.781250
2583		56.640625
2584		48.828125
2585		52.734375
2586		46.875000
2587		50.781250
2588		41.015625
2589		48.828125
2590		39.062500
2591		46.875000
2592		35.156250
2593		44.921875
2594		33.203125
2595		41.015625
2596		31.250000
2597		39.062500
2598		27.343750
2599		35.156250
2600		25.390625
2601		33.203125
2602		21.484375
2603		27.343750
2604		17.578125
2605		23.437500
2606		13.671875
2607		21.484375
2608		9.765625
2609		19.531250
2610		7.812500
2611		15.625000
2612		3.906250
2613		11.718750
2614		0.000000
2615		9.765625
2616		-1.953125
2617		5.859375
2618		-3.906250
2619		0.000000
2620		-7.812500
2621		-1.953125
2622		-13.671875
2623		-3.906250
2624		-17.578125
2625		-7.812500
2626		-19.531250
2627		-11.718750
2628		-23.437500
2629		-13.671875
2630		-27.343750
2631		-17.578125
2632		-29.296875
2633		-21.484375
2634		-31.250000
2635		-23.437500
2636		-33.203125
2637		-29.296875
2638		-39.062500
2639		-31.250000
2640		-41.015625
2641		-33.203125
2642		-42.968750
2643		-35.156250
2644		-46.875000
2645		-37.109375
2646		-48.828125
2647		-39.062500
2648		-50.781250
2649		-42.968750
2650		-50.781250
2651		-44.921875
2652		-52.734375
2653		-48.828125
2654		-56.640625
2655		-50.781250
2656		-58.593750
2657		-50.781250
2658		-60.546875
2659		-52.734375
2660		-60.546875
2661		-52.734375
2662		-62.500000
2663		-54.687500
2664		-64.453125
2665		-56.640625
2666		-64.453125
2667		-56.640625
2668		-62.500000
2669		-60.546875
2670		-62.500000
2671		-60.546875
2672		-64.453125
2673		-58.593750
2674		-64.453125
2675		-58.593750
2676		-64.453125
2677		-58.593750
2678		-64.453125
2679		-58.593750
2680		-64.453125
2681		-58.593750
2682		-64.453125
2683		-56.640625
2684		-62.500000
2685		-56.640625
2686		-60.546875
2687		-56.640625
2688		-60.546875
2689		-52.734375
2690		-60.546875
2691		-50.781250
2692		-58.593750
2693		-50.781250
2694		-56.640625
2695		-48.828125
2696		-54.687500
2697		-46.875000
2698		-52.734375
2699		-44.921875
2700		-50.781250
2701		-42.968750
2702		-46.875000
2703		-42.968750
2704		-44.921875
2705		-39.062500
2706		-42.968750
2707		-35.156250
2708		-41.015625
2709		-33.203125
2710		-39.062500
2711		-29.296875
2712		-35.156250
2713		-27.343750
2714		-31.250000
2715		-23.437500
2716		-29.296875
2717		-19.531250
2718		-25.390625
2719		-19.531250
2720		-21.484375
2721		-15.625000
2722		-17.578125
2723		-11.718750
2724		-15.625000
2725		-7.812500
2726		-13.671875
2727		-3.906250
2728		-9.765625
2729		0.000000
2730		-7.812500
2731		1.953125
2732		-3.906250
2733		5.859375
2734		0.000000
2735		7.812500
2736		5.859375
2737		11.718750
2738		9.765625
2739		17.578125
2740		11.718750
2741		19.531250
2742		13.671875
2743		23.437500
2744		17.578125
2745		25.390625
2746		21.484375
2747		29.296875
2748		23.437500
2749		33.203125
2750		27.343750
2751		35.156250
2752		31.250000
2753		37.109375
2754		35.156250
2755		39.062500
2756		37.109375
2757		44.921875
2758		39.062500
2759		46.875000
2760		41.015625
2761		48.828125
2762		42.968750
2763		52.734375
2764		46.875000
2765		54.687500
2766		48.828125
2767		56.640625
2768		50.781250
2769		58.593750
2770		56.640625
2771		60.546875
2772		56.640625
2773		64.453125
2774		56.640625
2775		66.406250
2776		60.546875
2777		66.406250
2778		60.546875
2779		68.359375
2780		62.500000
2781		70.312500
2782		64.453125
2783		72.265625
2784		66.406250
2785		74.218750
2786		70.312500
2787		72.265625
2788		70.312500
2789		72.265625
2790		68.359375
2791		76.171875
2792		70.312500
2793		76.171875
2794		70.312500
2795		76.171875
2796		70.312500
2797		78.125000
2798		70.312500
2799		78.125000
2800		70.312500
2801		78.125000
2802		72.265625
2803		78.125000
2804		72.265625
2805		74.218750
2806		70.312500
2807		76.171875
2808		70.312500
2809		76.171875
2810		68.359375
2811		76.171875
2812		68.359375
2813		74.218750
2814		66.406250
2815		74.218750
2816		66.406250
2817		74.218750
2818		64.453125
2819		72.265625
2820		64.453125
2821		68.359375
2822		62.500000
2823		66.406250
2824		58.593750
2825		66.406250
2826		56.640625
2827		64.453125
2828		54.687500
2829		64.453125
2830		52.734375
2831		60.546875
2832		50.781250
2833		58.593750
2834		48.828125
2835		56.640625
2836		48.828125
2837		52.734375
2838		44.921875
2839		50.781250
2840		41.015625
2841		48.828125
2842		37.109375
2843		46.875000
2844		35.156250
2845		44.921875
2846		33.203125
2847		41.015625
2848		29.296875
2849		37.109375
2850		25.390625
2851		35.156250
2852		23.437500
2853		31.250000
2854		21.484375
2855		27.343750
2856		15.625000
2857		23.437500
2858		11.718750
2859		21.484375
2860		9.765625
2861		17.578125
2862		5.859375
2863		15.625000
2864		3.906250
2865		11.718750
2866		0.000000
2867		7.812500
2868		-3.906250
2869		3.906250
2870		-5.859375
2871		0.000000
2872		-9.765625
2873		-3.906250
2874		-15.625000
2875		-5.859375
2876		-17.578125
2877		-7.812500
2878		-21.484375
2879		-11.718750
2880		-23.437500
2881		-15.625000
2882		-27.343750
2883		-17.578125
2884		-29.296875
2885		-21.484375
2886		-31.250000
2887		-23.437500
2888		-33.203125
2889		-29.296875
2890		-39.062500
2891		-33.203125
2892		-42.968750
2893		-33.203125
2894		-44.921875
2895		-35.156250
2896		-46.875000
2897		-39.062500
2898		-48.828125
2899		-41.015625
2900		-50.781250
2901		-42.968750
2902		-52.734375
2903		-44.921875
2904		-52.734375
2905		-48.828125
2906		-54.687500
2907		-50.781250
2908		-58.593750
2909		-50.781250
2910		-60.546875
2911		-52.734375
2912		-60.546875
2913		-54.687500
2914		-62.500000
2915		-54.687500
2916		-62.500000
2917		-56.640625
2918		-64.453125
2919		-56.640625
2920		-62.500000
2921		-60.546875
2922		-62.500000
2923		-60.546875
2924		-66.406250
2925		-58.593750
2926		-66.406250
2927		-58.593750
2928		-64.453125
2929		-58.593750
2930		-64.453125
2931		-58.593750
2932		-64.453125
2933		-56.640625
2934		-64.453125
2935		-56.640625
2936		-62.500000
2937		-56.640625
2938		-58.593750
2939		-56.640625
2940		-58.593750
2941		-54.687500
2942		-60.546875
2943		-52.734375
2944		-58.593750
2945		-50.781250
2946		-56.640625
2947		-48.828125
2948		-54.687500
2949		-46.875000
2950		-52.734375
2951		-44.921875
2952		-50.781250
2953		-41.015625
2954		-46.875000
2955		-42.968750
2956		-42.968750
2957		-39.062500
2958		-42.968750
2959		-35.156250
2960		-41.015625
2961		-31.250000
2962		-39.062500
2963		-29.296875
2964		-33.203125
2965		-25.390625
2966		-31.250000
2967		-23.437500
2968		-29.296875
2969		-19.531250
2970		-27.343750
2971		-19.531250
2972		-19.531250
2973		-15.625000
2974		-17.578125
2975		-9.765625
2976		-15.625000
2977		-7.812500
2978		-11.718750
2979		-3.906250
2980		-9.765625
2981		0.000000
2982		-5.859375
2983		3.906250
2984		-1.953125
2985		5.859375
2986		1.953125
2987		9.765625
2988		5.859375
2989		11.718750
2990		9.765625
2991		15.625000
2992		11.718750
2993		19.531250
2994		13.671875
2995		23.437500
2996		17.578125
2997		27.343750
2998		21.484375
2999		31.250000
3000		25.390625
3001		33.203125
3002		27.343750
3003		35.156250
3004		33.203125
3005		37.109375
3006		35.156250
3007		41.015625
3008		37.109375
3009		44.921875
3010		39.062500
3011		46.875000
3012		42.968750
3013		50.781250
3014		44.921875
3015		52.734375
3016		46.875000
3017		54.687500
3018		50.781250
3019		58.593750
3020		52.734375
3021		58.593750
3022		56.640625
3023		60.546875
3024		58.593750
3025		64.453125
3026		58.593750
3027		66.406250
3028		60.546875
3029		68.359375
3030		60.546875
3031		70.312500
3032		62.500000
3033		72.265625
3034		64.453125
3035		72.265625
3036		66.406250
3037		72.265625
3038		70.312500
3039		72.265625
3040		70.312500
3041		72.265625
3042		68.359375
3043		76.171875
3044		70.312500
3045		76.171875
3046		70.312500
3047		78.125000
3048		70.312500
3049		78.125000
3050		70.312500
3051		78.125000
3052		70.312500
3053		78.125000
3054		70.312500
3055		76.171875
3056		72.265625
3057		74.218750
3058		70.312500
3059		76.171875
3060		68.359375
3061		76.171875
3062		68.359375
3063		76.171875
3064		68.359375
3065		74.218750
3066		66.406250
3067		74.218750
3068		66.406250
3069		72.265625
3070		64.453125
3071		72.265625
3072		64.453125
3073		68.359375
3074		62.500000
3075		66.406250
3076		58.593750
3077		66.406250
3078		56.640625
3079		66.406250
3080		56.640625
3081		62.500000
3082		52.734375
3083		60.546875
3084		50.781250
3085		58.593750
3086		48.828125
3087		56.640625
3088		48.828125
3089		52.734375
3090		44.921875
3091		48.828125
3092		41.015625
3093		46.875000
3094		37.109375
3095		46.875000
3096		35.156250
3097		42.968750
3098		31.250000
3099		41.015625
3100		29.296875
3101		37.109375
3102		25.390625
3103		35.156250
3104		23.437500
3105		31.250000
3106		21.484375
3107		25.390625
3108		15.625000
3109		21.484375
3110		11.718750
3111		21.484375
3112		9.765625
3113		17.578125
3114		5.859375
3115		13.671875
3116		1.953125
3117		9.765625
3118		-1.953125
3119		7.812500
3120		-3.906250
3121		3.906250
3122		-5.859375
3123		-1.953125
3124		-9.765625
3125		-3.906250
3126		-15.625000
3127		-5.859375
3128		-19.531250
3129		-9.765625
3130		-21.484375
3131		-11.718750
3132		-25.390625
3133		-15.625000
3134		-27.343750
3135		-19.531250
3136		-31.250000
3137		-23.437500
3138		-31.250000
3139		-25.390625
3140		-35.156250
3141		-31.250000
3142		-39.062500
3143		-33.203125
3144		-42.968750
3145		-33.203125
3146		-44.921875
3147		-37.109375
3148		-46.875000
3149		-39.062500
3150		-48.828125
3151		-41.015625
3152		-52.734375
3153		-42.968750
3154		-52.734375
3155		-46.875000
3156		-52.734375
3157		-50.781250
3158		-56.640625
3159		-52.734375
3160		-58.593750
3161		-50.781250
3162		-60.546875
3163		-52.734375
3164		-62.500000
3165		-54.687500
3166		-62.500000
3167		-54.687500
3168		-62.500000
3169		-56.640625
3170		-64.453125
3171		-56.640625
3172		-62.500000
3173		-58.593750
3174		-62.500000
3175		-60.546875
3176		-66.406250
3177		-58.593750
3178		-66.406250
3179		-58.593750
3180		-64.453125
3181		-58.593750
3182		-64.453125
3183		-58.593750
3184		-64.453125
3185		-56.640625
3186		-64.453125
3187		-56.640625
3188		-62.500000
3189		-56.640625
3190		-58.593750
3191		-56.640625
3192		-58.593750
3193		-54.687500
3194		-58.593750
3195		-50.781250
3196		-56.640625
3197		-50.781250
3198		-56.640625
3199		-48.828125
3200		-54.687500
3201		-46.875000
3202		-52.734375
3203		-44.921875
3204		-50.781250
3205		-41.015625
3206		-44.921875
3207		-41.015625
3208		-42.968750
3209		-39.062500
3210		-42.968750
3211		-35.156250
3212		-39.062500
3213		-31.250000
3214		-37.109375
3215		-27.343750
3216		-33.203125
3217		-25.390625
3218		-31.250000
3219		-21.484375
3220		-29.296875
3221		-19.531250
3222		-25.390625
3223		-17.578125
3224		-19.531250
3225		-15.625000
3226		-15.625000
3227		-9.765625
3228		-15.625000
3229		-5.859375
3230		-11.718750
3231		-1.953125
3232		-9.765625
3233		0.000000
3234		-5.859375
3235		3.906250
3236		-1.953125
3237		7.812500
3238		1.953125
3239		9.765625
3240		7.812500
3241		11.718750
3242		11.718750
3243		15.625000
3244		13.671875
3245		21.484375
3246		15.625000
3247		25.390625
3248		17.578125
3249		27.343750
3250		21.484375
3251		31.250000
3252		23.437500
3253		33.203125
3254		27.343750
3255		37.109375
3256		31.250000
3257		39.062500
3258		37.109375
3259		41.015625
3260		39.062500
3261		44.921875
3262		39.062500
3263		48.828125
3264		42.968750
3265		50.781250
3266		44.921875
3267		54.687500
3268		48.828125
3269		56.640625
3270		50.781250
3271		58.593750
3272		52.734375
3273		60.546875
3274		56.640625
3275		60.546875
3276		58.593750
3277		64.453125
3278		58.593750
3279		66.406250
3280		60.546875
3281		68.359375
3282		62.500000
3283		70.312500
3284		62.500000
3285		72.265625
3286		64.453125
3287		72.265625
3288		66.406250
3289		74.218750
3290		68.359375
3291		72.265625
3292		70.312500
3293		72.265625
3294		68.359375
3295		76.171875
3296		70.312500
3297		76.171875
3298		70.312500
3299		76.171875
3300		70.312500
3301		76.171875
3302		70.312500
3303		78.125000
3304		70.312500
3305		78.125000
3306		70.312500
3307		76.171875
3308		72.265625
3309		74.218750
3310		70.312500
3311		76.171875
3312		70.312500
3313		76.171875
3314		68.359375
3315		74.218750
3316		68.359375
3317		74.218750
3318		66.406250
3319		72.265625
3320		66.406250
3321		72.265625
3322		64.453125
3323		70.312500
3324		64.453125
3325		68.359375
3326		62.500000
3327		66.406250
3328		58.593750
3329		66.406250
3330		56.640625
3331		64.453125
3332		54.687500
3333		62.500000
3334		52.734375
3335		60.546875
3336		50.781250
3337		58.593750
3338		48.828125
3339		56.640625
3340		46.875000
3341		52.734375
3342		44.921875
3343		48.828125
3344		39.062500
3345		46.875000
3346		37.109375
3347		44.921875
3348		33.203125
3349		42.968750
3350		31.250000
3351		39.062500
3352		27.343750
3353		37.109375
3354		25.390625
3355		33.203125
3356		23.437500
3357		31.250000
3358		19.531250
3359		25.390625
3360		15.625000
3361		21.484375
3362		11.718750
3363		19.531250
3364		7.812500
3365		17.578125
3366		3.906250
3367		13.671875
3368		1.953125
3369		9.765625
3370		-1.953125
3371		7.812500
3372		-5.859375
3373		3.906250
3374		-7.812500
3375		-1.953125
3376		-9.765625
3377		-5.859375
3378		-15.625000
3379		-9.765625
3380		-19.531250
3381		-11.718750
3382		-21.484375
3383		-13.671875
3384		-25.390625
3385		-17.578125
3386		-29.296875
3387		-19.531250
3388		-33.203125
3389		-23.437500
3390		-33.203125
3391		-25.390625
3392		-35.156250
3393		-31.250000
3394		-41.015625
3395		-33.203125
3396		-42.968750
3397		-35.156250
3398		-46.875000
3399		-37.109375
3400		-48.828125
3401		-39.062500
3402		-48.828125
3403		-41.015625
3404		-52.734375
3405		-44.921875
3406		-54.687500
3407		-46.875000
3408		-54.687500
3409		-50.781250
3410		-54.687500
3411		-52.734375
3412		-58.593750
3413		-52.734375
3414		-60.546875
3415		-54.687500
3416		-62.500000
3417		-54.687500
3418		-62.500000
3419		-54.687500
3420		-64.453125
3421		-56.640625
3422		-64.453125
3423		-56.640625
3424		-64.453125
3425		-58.593750
3426		-62.500000
3427		-60.546875
3428		-66.406250
3429		-58.593750
3430		-64.453125
3431		-58.593750
3432		-64.453125
3433		-58.593750
3434		-64.453125
3435		-58.593750
3436		-64.453125
3437		-56.640625
3438		-64.453125
3439		-56.640625
3440		-62.500000
3441		-56.640625
3442		-58.593750
3443		-56.640625
3444		-58.593750
3445		-54.687500
3446		-58.593750
3447		-50.781250
3448		-56.640625
3449		-48.828125
3450		-54.687500
3451		-46.875000
3452		-52.734375
3453		-44.921875
3454		-50.781250
3455		-42.968750
3456		-48.828125
3457		-41.015625
3458		-44.921875
3459		-41.015625
3460		-42.968750
3461		-39.062500
3462		-41.015625
3463		-33.203125
3464		-39.062500
3465		-31.250000
3466		-37.109375
3467		-27.343750
3468		-33.203125
3469		-25.390625
3470		-29.296875
3471		-21.484375
3472		-27.343750
3473		-19.531250
3474		-23.437500
3475		-17.578125
3476		-19.531250
3477		-13.671875
3478		-15.625000
3479		-9.765625
3480		-13.671875
3481		-5.859375
3482		-9.765625
3483		-1.953125
3484		-7.812500
3485		1.953125
3486		-3.906250
3487		5.859375
3488		0.000000
3489		7.812500
3490		1.953125
3491		11.718750
3492		7.812500
3493		13.671875
3494		11.718750
3495		15.625000
3496		15.625000
3497		19.531250
3498		17.578125
3499		25.390625
3500		21.484375
3501		29.296875
3502		23.437500
3503		31.250000
3504		25.390625
3505		33.203125
3506		29.296875
3507		37.109375
3508		33.203125
3509		39.062500
3510		37.109375
3511		41.015625
3512		39.062500
3513		44.921875
3514		42.968750
3515		48.828125
3516		42.968750
3517		50.781250
3518		46.875000
3519		54.687500
3520		48.828125
3521		56.640625
3522		50.781250
3523		58.593750
3524		52.734375
3525		58.593750
3526		58.593750
3527		60.546875
3528		60.546875
3529		62.500000
3530		60.546875
3531		64.453125
3532		62.500000
3533		66.406250
3534		64.453125
3535		68.359375
3536		64.453125
3537		72.265625
3538		66.406250
3539		70.312500
3540		68.359375
3541		74.218750
3542		70.312500
3543		72.265625
3544		70.312500
3545		74.218750
3546		70.312500
3547		74.218750
3548		72.265625
3549		74.218750
3550		72.265625
3551		76.171875
3552		72.265625
3553		76.171875
3554		70.312500
3555		78.125000
3556		70.312500
3557		76.171875
3558		72.265625
3559		76.171875
3560		72.265625
3561		74.218750
3562		70.312500
3563		76.171875
3564		70.312500
3565		74.218750
3566		70.312500
3567		74.218750
3568		70.312500
3569		72.265625
3570		68.359375
3571		72.265625
3572		66.406250
3573		70.312500
3574		64.453125
3575		68.359375
3576		62.500000
3577		66.406250
3578		62.500000
3579		66.406250
3580		58.593750
3581		64.453125
3582		58.593750
3583		62.500000
3584		56.640625
3585		60.546875
3586		52.734375
3587		58.593750
3588		52.734375
3589		56.640625
3590		48.828125
3591		52.734375
3592		46.875000
3593		52.734375
3594		44.921875
3595		48.828125
3596		41.015625
3597		44.921875
3598		39.062500
3599		42.968750
3600		35.156250
3601		41.015625
3602		33.203125
3603		37.109375
3604		29.296875
3605		33.203125
3606		25.390625
3607		31.250000
3608		23.437500
3609		27.343750
3610		19.531250
3611		23.437500
3612		15.625000
3613		21.484375
3614		13.671875
3615		19.531250
3616		7.812500
3617		13.671875
3618		5.859375
3619		11.718750
3620		1.953125
3621		7.812500
3622		-1.953125
3623		3.906250
3624		-5.859375
3625		0.000000
3626		-7.812500
3627		-1.953125
3628		-11.718750
3629		-5.859375
3630		-15.625000
3631		-9.765625
3632		-17.578125
3633		-11.718750
3634		-21.484375
3635		-15.625000
3636		-23.437500
3637		-19.531250
3638		-27.343750
3639		-23.437500
3640		-29.296875
3641		-25.390625
3642		-33.203125
3643		-29.296875
3644		-35.156250
3645		-31.250000
3646		-39.062500
3647		-35.156250
3648		-41.015625
3649		-37.109375
3650		-44.921875
3651		-39.062500
3652		-46.875000
3653		-41.015625
3654		-48.828125
3655		-44.921875
3656		-50.781250
3657		-46.875000
3658		-52.734375
3659		-48.828125
3660		-54.687500
3661		-50.781250
3662		-56.640625
3663		-52.734375
3664		-58.593750
3665		-52.734375
3666		-58.593750
3667		-54.687500
3668		-60.546875
3669		-56.640625
3670		-60.546875
3671		-58.593750
3672		-62.500000
3673		-58.593750
3674		-62.500000
3675		-58.593750
3676		-62.500000
3677		-60.546875
3678		-62.500000
3679		-60.546875
3680		-64.453125
3681		-60.546875
3682		-62.500000
3683		-60.546875
3684		-62.500000
3685		-60.546875
3686		-62.500000
3687		-58.593750
3688		-62.500000
3689		-58.593750
3690		-62.500000
3691		-58.593750
3692		-60.546875
3693		-56.640625
3694		-58.593750
3695		-56.640625
3696		-58.593750
3697		-54.687500
3698		-56.640625
3699		-52.734375
3700		-54.687500
3701		-50.781250
3702		-52.734375
3703		-48.828125
3704		-50.781250
3705		-46.875000
3706		-48.828125
3707		-44.921875
3708		-46.875000
3709		-42.968750
3710		-44.921875
3711		-39.062500
3712		-41.015625
3713		-37.109375
3714		-39.062500
3715		-35.156250
3716		-37.109375
3717		-31.250000
3718		-33.203125
3719		-29.296875
3720		-31.250000
3721		-25.390625
3722		-27.343750
3723		-23.437500
3724		-23.437500
3725		-19.531250
3726		-21.484375
3727		-15.625000
3728		-17.578125
3729		-13.671875
3730		-13.671875
3731		-7.812500
3732		-11.718750
3733		-5.859375
3734		-7.812500
3735		-3.906250
3736		-3.906250
3737		0.000000
3738		0.000000
3739		3.906250
3740		1.953125
3741		7.812500
3742		5.859375
3743		11.718750
3744		9.765625
3745		13.671875
3746		11.718750
3747		17.578125
3748		15.625000
3749		21.484375
3750		19.531250
3751		23.437500
3752		21.484375
3753		27.343750
3754		25.390625
3755		31.250000
3756		29.296875
3757		33.203125
3758		33.203125
3759		37.109375
3760		35.156250
3761		39.062500
3762		37.109375
3763		42.968750
3764		41.015625
3765		44.921875
3766		42.968750
3767		48.828125
3768		46.875000
3769		50.781250
3770		48.828125
3771		52.734375
3772		50.781250
3773		56.640625
3774		52.734375
3775		58.593750
3776		56.640625
3777		60.546875
3778		58.593750
3779		62.500000
3780		60.546875
3781		64.453125
3782		60.546875
3783		66.406250
3784		62.500000
3785		66.406250
3786		64.453125
3787		68.359375
3788		66.406250
3789		70.312500
3790		68.359375
3791		70.312500
3792		68.359375
3793		72.265625
3794		70.312500
3795		74.218750
3796		72.265625
3797		74.218750
3798		70.312500
3799		76.171875
3800		72.265625
3801		76.171875
3802		72.265625
3803		76.171875
3804		72.265625
3805		76.171875
3806		72.265625
3807		76.171875
3808		72.265625
3809		76.171875
3810		72.265625
3811		76.171875
3812		72.265625
3813		74.218750
3814		72.265625
3815		76.171875
3816		70.312500
3817		74.218750
3818		70.312500
3819		74.218750
3820		68.359375
3821		72.265625
3822		68.359375
3823		72.265625
3824		66.406250
3825		70.312500
3826		64.453125
3827		68.359375
3828		64.453125
3829		66.406250
3830		62.500000
3831		66.406250
3832		60.546875
3833		64.453125
3834		58.593750
3835		62.500000
3836		56.640625
3837		60.546875
3838		54.687500
3839		58.593750
3840		50.781250
3841		56.640625
3842		48.828125
3843		52.734375
3844		46.875000
3845		50.781250
3846		42.968750
3847		48.828125
3848		41.015625
3849		44.921875
3850		37.109375
3851		42.968750
3852		35.156250
3853		39.062500
3854		31.250000
3855		37.109375
3856		29.296875
3857		33.203125
3858		25.390625
3859		31.250000
3860		21.484375
3861		27.343750
3862		19.531250
3863		23.437500
3864		15.625000
3865		19.531250
3866		11.718750
3867		19.531250
3868		7.812500
3869		13.671875
3870		5.859375
3871		9.765625
3872		1.953125
3873		7.812500
3874		-1.953125
3875		3.906250
3876		-3.906250
3877		0.000000
3878		-7.812500
3879		-3.906250
3880		-11.718750
3881		-5.859375
3882		-15.625000
3883		-9.765625
3884		-19.531250
3885		-13.671875
3886		-21.484375
3887		-15.625000
3888		-25.390625
3889		-19.531250
3890		-27.343750
3891		-23.437500
3892		-31.250000
3893		-25.390625
3894		-33.203125
3895		-29.296875
3896		-37.109375
3897		-33.203125
3898		-41.015625
3899		-35.156250
3900		-42.968750
3901		-37.109375
3902		-44.921875
3903		-41.015625
3904		-46.875000
3905		-42.968750
3906		-48.828125
3907		-44.921875
3908		-50.781250
3909		-46.875000
3910		-54.687500
3911		-48.828125
3912		-54.687500
3913		-50.781250
3914		-56.640625
3915		-52.734375
3916		-58.593750
3917		-52.734375
3918		-58.593750
3919		-54.687500
3920		-60.546875
3921		-56.640625
3922		-60.546875
3923		-58.593750
3924		-62.500000
3925		-58.593750
3926		-62.500000
3927		-58.593750
3928		-62.500000
3929		-58.593750
3930		-62.500000
3931		-60.546875
3932		-64.453125
3933		-60.546875
3934		-62.500000
3935		-60.546875
3936		-62.500000
3937		-58.593750
3938		-62.500000
3939		-58.593750
3940		-60.546875
3941		-58.593750
3942		-60.546875
3943		-56.640625
3944		-60.546875
3945		-56.640625
3946		-58.593750
3947		-54.687500
3948		-56.640625
3949		-54.687500
3950		-56.640625
3951		-50.781250
3952		-52.734375
3953		-48.828125
3954		-52.734375
3955		-48.828125
3956		-48.828125
3957		-44.921875
3958		-48.828125
3959		-42.968750
3960		-44.921875
3961		-41.015625
3962		-44.921875
3963		-39.062500
3964		-41.015625
3965		-37.109375
3966		-39.062500
3967		-33.203125
3968		-35.156250
3969		-31.250000
3970		-33.203125
3971		-27.343750
3972		-29.296875
3973		-25.390625
3974		-25.390625
3975		-21.484375
3976		-23.437500
3977		-17.578125
3978		-19.531250
3979		-15.625000
3980		-17.578125
3981		-11.718750
3982		-13.671875
3983		-7.812500
3984		-11.718750
3985		-3.906250
3986		-7.812500
3987		-1.953125
3988		-3.906250
3989		1.953125
3990		0.000000
3991		5.859375
3992		3.906250
3993		7.812500
3994		5.859375
3995		11.718750
3996		9.765625
3997		15.625000
3998		13.671875
3999		19.531250
4000		17.578125
4001		21.484375
4002		19.531250
4003		25.390625
4004		23.437500
4005		29.296875
4006		27.343750
4007		31.250000
4008		29.296875
4009		35.156250
4010		33.203125
4011		37.109375
4012		35.156250
4013		41.015625
4014		39.062500
4015		42.968750
4016		42.968750
4017		46.875000
4018		42.968750
4019		48.828125
4020		46.875000
4021		52.734375
4022		50.781250
4023		54.687500
4024		52.734375
4025		56.640625
4026		54.687500
4027		58.593750
4028		56.640625
4029		60.546875
4030		58.593750
4031		62.500000
4032		60.546875
4033		64.453125
4034		62.500000
4035		66.406250
4036		64.453125
4037		68.359375
4038		66.406250
4039		68.359375
4040		66.406250
4041		70.312500
4042		68.359375
4043		72.265625
4044		68.359375
4045		74.218750
4046		70.312500
4047		74.218750
4048		72.265625
4049		74.218750
4050		72.265625
4051		76.171875
4052		72.265625
4053		76.171875
4054		72.265625
4055		76.171875
4056		72.265625
4057		76.171875
4058		74.218750
4059		76.171875
4060		72.265625
4061		76.171875
4062		72.265625
4063		76.171875
4064		72.265625
4065		76.171875
4066		72.265625
4067		74.218750
4068		72.265625
4069		74.218750
4070		70.312500
4071		74.218750
4072		68.359375
4073		72.265625
4074		68.359375
4075		72.265625
4076		66.406250
4077		70.312500
4078		64.453125
4079		68.359375
4080		64.453125
4081		66.406250
4082		62.500000
4083		66.406250
4084		60.546875
4085		64.453125
4086		58.593750
4087		62.500000
4088		54.687500
4089		60.546875
4090		52.734375
4091		58.593750
4092		50.781250
4093		56.640625
4094		48.828125
4095		52.734375
4096		46.875000
4097		50.781250
4098		42.968750
4099		46.875000
4100		39.062500
4101		44.921875
4102		37.109375
4103		42.968750
4104		33.203125
4105		39.062500
4106		31.250000
4107		37.109375
4108		27.343750
4109		33.203125
4110		25.390625
4111		29.296875
4112		19.531250
4113		27.343750
4114		19.531250
4115		23.437500
4116		15.625000
4117		19.531250
4118		11.718750
4119		17.578125
4120		7.812500
4121		13.671875
4122		5.859375
4123		11.718750
4124		1.953125
4125		5.859375
4126		-1.953125
4127		3.906250
4128		-5.859375
4129		0.000000
4130		-7.812500
4131		-1.953125
4132		-11.718750
4133		-7.812500
4134		-15.625000
4135		-9.765625
4136		-19.531250
4137		-13.671875
4138		-21.484375
4139		-17.578125
4140		-25.390625
4141		-19.531250
4142		-27.343750
4143		-23.437500
4144		-31.250000
4145		-27.343750
4146		-33.203125
4147		-29.296875
4148		-37.109375
4149		-33.203125
4150		-39.062500
4151		-35.156250
4152		-42.968750
4153		-37.109375
4154		-44.921875
4155		-41.015625
4156		-46.875000
4157		-42.968750
4158		-48.828125
4159		-44.921875
4160		-50.781250
4161		-46.875000
4162		-52.734375
4163		-48.828125
4164		-54.687500
4165		-50.781250
4166		-56.640625
4167		-52.734375
4168		-58.593750
4169		-54.687500
4170		-58.593750
4171		-54.687500
4172		-60.546875
4173		-56.640625
4174		-60.546875
4175		-58.593750
4176		-62.500000
4177		-58.593750
4178		-62.500000
4179		-58.593750
4180		-62.500000
4181		-58.593750
4182		-62.500000
4183		-60.546875
4184		-62.500000
4185		-58.593750
4186		-62.500000
4187		-58.593750
4188		-62.500000
4189		-58.593750
4190		-62.500000
4191		-58.593750
4192		-60.546875
4193		-56.640625
4194		-60.546875
4195		-56.640625
4196		-58.593750
4197		-54.687500
4198		-56.640625
4199		-54.687500
4200		-56.640625
4201		-52.734375
4202		-54.687500
4203		-50.781250
4204		-52.734375
4205		-48.828125
4206		-50.781250
4207		-46.875000
4208		-48.828125
4209		-44.921875
4210		-48.828125
4211		-42.968750
4212		-44.921875
4213		-41.015625
4214		-42.968750
4215		-37.109375
4216		-39.062500
4217		-35.156250
4218		-37.109375
4219		-31.250000
4220		-35.156250
4221		-29.296875
4222		-33.203125
4223		-27.343750
4224		-27.343750
4225		-23.437500
4226		-25.390625
4227		-19.531250
4228		-21.484375
4229		-17.578125
4230		-19.531250
4231		-13.671875
4232		-15.625000
4233		-11.718750
4234		-11.718750
4235		-7.812500
4236		-9.765625
4237		-3.906250
4238		-5.859375
4239		0.000000
4240		-1.953125
4241		1.953125
4242		1.953125
4243		5.859375
4244		3.906250
4245		9.765625
4246		7.812500
4247		13.671875
4248		9.765625
4249		17.578125
4250		15.625000
4251		19.531250
4252		17.578125
4253		23.437500
4254		21.484375
4255		25.390625
4256		25.390625
4257		29.296875
4258		27.343750
4259		33.203125
4260		31.250000
4261		37.109375
4262		33.203125
4263		39.062500
4264		37.109375
4265		41.015625
4266		39.062500
4267		44.921875
4268		42.968750
4269		46.875000
4270		44.921875
4271		50.781250
4272		48.828125
4273		52.734375
4274		50.781250
4275		54.687500
4276		52.734375
4277		56.640625
4278		54.687500
4279		58.593750
4280		56.640625
4281		62.500000
4282		60.546875
4283		64.453125
4284		62.500000
4285		64.453125
4286		62.500000
4287		66.406250
4288		64.453125
4289		68.359375
4290		66.406250
4291		70.312500
4292		68.359375
4293		72.265625
4294		68.359375
4295		72.265625
4296		70.312500
4297		74.218750
4298		70.312500
4299		74.218750
4300		72.265625
4301		74.218750
4302		72.265625
4303		76.171875
4304		72.265625
4305		76.171875
4306		72.265625
4307		76.171875
4308		74.218750
4309		76.171875
4310		74.218750
4311		76.171875
4312		74.218750
4313		76.171875
4314		72.265625
4315		76.171875
4316		72.265625
4317		76.171875
4318		72.265625
4319		74.218750
4320		70.312500
4321		76.171875
4322		70.312500
4323		74.218750
4324		70.312500
4325		72.265625
4326		68.359375
4327		72.265625
4328		66.406250
4329		70.312500
4330		64.453125
4331		70.312500
4332		64.453125
4333		68.359375
4334		62.500000
4335		64.453125
4336		60.546875
4337		64.453125
4338		56.640625
4339		60.546875
4340		54.687500
4341		60.546875
4342		52.734375
4343		58.593750
4344		50.781250
4345		54.687500
4346		48.828125
4347		52.734375
4348		44.921875
4349		50.781250
4350		42.968750
4351		46.875000
4352		39.062500
4353		44.921875
4354		37.109375
4355		41.015625
4356		33.203125
4357		39.062500
4358		31.250000
4359		37.109375
4360		27.343750
4361		33.203125
4362		25.390625
4363		31.250000
4364		19.531250
4365		25.390625
4366		17.578125
4367		23.437500
4368		15.625000
4369		19.531250
4370		11.718750
4371		15.625000
4372		7.812500
4373		11.718750
4374		3.906250
4375		9.765625
4376		0.000000
4377		5.859375
4378		-1.953125
4379		1.953125
4380		-5.859375
4381		0.000000
4382		-9.765625
4383		-3.906250
4384		-11.718750
4385		-7.812500
4386		-15.625000
4387		-11.718750
4388		-19.531250
4389		-13.671875
4390		-23.437500
4391		-17.578125
4392		-25.390625
4393		-21.484375
4394		-29.296875
4395		-23.437500
4396		-31.250000
4397		-27.343750
4398		-35.156250
4399		-29.296875
4400		-37.109375
4401		-33.203125
4402		-39.062500
4403		-35.156250
4404		-42.968750
4405		-37.109375
4406		-44.921875
4407		-41.015625
4408		-46.875000
4409		-42.968750
4410		-48.828125
4411		-46.875000
4412		-50.781250
4413		-46.875000
4414		-52.734375
4415		-48.828125
4416		-54.687500
4417		-50.781250
4418		-56.640625
4419		-52.734375
4420		-58.593750
4421		-54.687500
4422		-58.593750
4423		-56.640625
4424		-60.546875
4425		-56.640625
4426		-60.546875
4427		-56.640625
4428		-62.500000
4429		-58.593750
4430		-62.500000
4431		-58.593750
4432		-62.500000
4433		-58.593750
4434		-62.500000
4435		-60.546875
4436		-64.453125
4437		-58.593750
4438		-62.500000
4439		-58.593750
4440		-62.500000
4441		-58.593750
4442		-60.546875
4443		-58.593750
4444		-60.546875
4445		-58.593750
4446		-60.546875
4447		-56.640625
4448		-60.546875
4449		-54.687500
4450		-56.640625
4451		-54.687500
4452		-56.640625
4453		-52.734375
4454		-54.687500
4455		-50.781250
4456		-52.734375
4457		-48.828125
4458		-50.781250
4459		-46.875000
4460		-48.828125
4461		-44.921875
4462		-46.875000
4463		-42.968750
4464		-44.921875
4465		-41.015625
4466		-42.968750
4467		-37.109375
4468		-39.062500
4469		-35.156250
4470		-37.109375
4471		-31.250000
4472		-33.203125
4473		-29.296875
4474		-31.250000
4475		-25.390625
4476		-27.343750
4477		-23.437500
4478		-25.390625
4479		-19.531250
4480		-21.484375
4481		-15.625000
4482		-19.531250
4483		-13.671875
4484		-15.625000
4485		-9.765625
4486		-11.718750
4487		-7.812500
4488		-9.765625
4489		-3.906250
4490		-5.859375
4491		0.000000
4492		-1.953125
4493		3.906250
4494		1.953125
4495		7.812500
4496		5.859375
4497		9.765625
4498		7.812500
4499		13.671875
4500		11.718750
4501		17.578125
4502		15.625000
4503		19.531250
4504		19.531250
4505		23.437500
4506		21.484375
4507		27.343750
4508		25.390625
4509		29.296875
4510		27.343750
4511		33.203125
4512		31.250000
4513		35.156250
4514		33.203125
4515		39.062500
4516		37.109375
4517		41.015625
4518		41.015625
4519		44.921875
4520		42.968750
4521		48.828125
4522		44.921875
4523		50.781250
4524		48.828125
4525		52.734375
4526		50.781250
4527		54.687500
4528		52.734375
4529		56.640625
4530		54.687500
4531		60.546875
4532		58.593750
4533		62.500000
4534		60.546875
4535		62.500000
4536		60.546875
4537		64.453125
4538		64.453125
4539		68.359375
4540		64.453125
4541		68.359375
4542		66.406250
4543		70.312500
4544		68.359375
4545		72.265625
4546		68.359375
4547		72.265625
4548		70.312500
4549		74.218750
4550		70.312500
4551		74.218750
4552		72.265625
4553		74.218750
4554		72.265625
4555		76.171875
4556		72.265625
4557		76.171875
4558		74.218750
4559		76.171875
4560		72.265625
4561		78.125000
4562		74.218750
4563		76.171875
4564		74.218750
4565		76.171875
4566		72.265625
4567		76.171875
4568		72.265625
4569		76.171875
4570		72.265625
4571		74.218750
4572		70.312500
4573		76.171875
4574		70.312500
4575		74.218750
4576		68.359375
4577		72.265625
4578		68.359375
4579		70.312500
4580		66.406250
4581		70.312500
4582		64.453125
4583		68.359375
4584		64.453125
4585		66.406250
4586		60.546875
4587		64.453125
4588		58.593750
4589		62.500000
4590		56.640625
4591		60.546875
4592		54.687500
4593		60.546875
4594		52.734375
4595		56.640625
4596		50.781250
4597		54.687500
4598		48.828125
4599		52.734375
4600		44.921875
4601		48.828125
4602		42.968750
4603		46.875000
4604		39.062500
4605		44.921875
4606		35.156250
4607		41.015625
4608		33.203125
4609		39.062500
4610		31.250000
4611		35.156250
4612		27.343750
4613		31.250000
4614		23.437500
4615		29.296875
4616		19.531250
4617		25.390625
4618		17.578125
4619		23.437500
4620		13.671875
4621		19.531250
4622		11.718750
4623		15.625000
4624		7.812500
4625		13.671875
4626		3.906250
4627		9.765625
4628		0.000000
4629		5.859375
4630		-3.906250
4631		1.953125
4632		-5.859375
4633		-1.953125
4634		-9.765625
4635		-3.906250
4636		-13.671875
4637		-7.812500
4638		-17.578125
4639		-11.718750
4640		-19.531250
4641		-13.671875
4642		-23.437500
4643		-17.578125
4644		-25.390625
4645		-21.484375
4646		-29.296875
4647		-25.390625
4648		-31.250000
4649		-27.343750
4650		-35.156250
4651		-29.296875
4652		-37.109375
4653		-33.203125
4654		-41.015625
4655		-35.156250
4656		-42.968750
4657		-37.109375
4658		-46.875000
4659		-41.015625
4660		-46.875000
4661		-42.968750
4662		-48.828125
4663		-44.921875
4664		-50.781250
4665		-46.875000
4666		-54.687500
4667		-48.828125
4668		-54.687500
4669		-50.781250
4670		-56.640625
4671		-52.734375
4672		-58.593750
4673		-54.687500
4674		-58.593750
4675		-56.640625
4676		-60.546875
4677		-56.640625
4678		-60.546875
4679		-56.640625
4680		-60.546875
4681		-58.593750
4682		-62.500000
4683		-58.593750
4684		-62.500000
4685		-58.593750
4686		-62.500000
4687		-60.546875
4688		-62.500000
4689		-58.593750
4690		-62.500000
4691		-58.593750
4692		-62.500000
4693		-58.593750
4694		-60.546875
4695		-56.640625
4696		-60.546875
4697		-56.640625
4698		-58.593750
4699		-56.640625
4700		-58.593750
4701		-54.687500
4702		-56.640625
4703		-52.734375
4704		-54.687500
4705		-52.734375
4706		-54.687500
4707		-48.828125
4708		-50.781250
4709		-48.828125
4710		-50.781250
4711		-44.921875
4712		-46.875000
4713		-42.968750
4714		-44.921875
4715		-41.015625
4716		-42.968750
4717		-39.062500
4718		-41.015625
4719		-37.109375
4720		-37.109375
4721		-33.203125
4722		-35.156250
4723		-31.250000
4724		-33.203125
4725		-27.343750
4726		-29.296875
4727		-25.390625
4728		-27.343750
4729		-21.484375
4730		-23.437500
4731		-17.578125
4732		-21.484375
4733		-15.625000
4734		-17.578125
4735		-11.718750
4736		-13.671875
4737		-9.765625
4738		-9.765625
4739		-5.859375
4740		-7.812500
4741		-1.953125
4742		-3.906250
4743		0.000000
4744		0.000000
4745		3.906250
4746		3.906250
4747		7.812500
4748		5.859375
4749		11.718750
4750		9.765625
4751		15.625000
4752		11.718750
4753		17.578125
4754		15.625000
4755		21.484375
4756		19.531250
4757		25.390625
4758		23.437500
4759		27.343750
4760		25.390625
4761		31.250000
4762		29.296875
4763		35.156250
4764		33.203125
4765		37.109375
4766		35.156250
4767		41.015625
4768		39.062500
4769		42.968750
4770		41.015625
4771		46.875000
4772		44.921875
4773		48.828125
4774		46.875000
4775		50.781250
4776		48.828125
4777		54.687500
4778		52.734375
4779		56.640625
4780		54.687500
4781		58.593750
4782		56.640625
4783		60.546875
4784		58.593750
4785		64.453125
4786		60.546875
4787		64.453125
4788		62.500000
4789		66.406250
4790		64.453125
4791		68.359375
4792		66.406250
4793		70.312500
4794		68.359375
4795		70.312500
4796		68.359375
4797		72.265625
4798		70.312500
4799		74.218750
4800		70.312500
4801		74.218750
4802		72.265625
4803		76.171875
4804		72.265625
4805		74.218750
4806		74.218750
4807		76.171875
4808		74.218750
4809		76.171875
4810		74.218750
4811		76.171875
4812		74.218750
4813		78.125000
4814		74.218750
4815		76.171875
4816		74.218750
4817		76.171875
4818		72.265625
4819		76.171875
4820		72.265625
4821		76.171875
4822		72.265625
4823		74.218750
4824		70.312500
4825		74.218750
4826		70.312500
4827		74.218750
4828		68.359375
4829		72.265625
4830		68.359375
4831		72.265625
4832		66.406250
4833		70.312500
4834		64.453125
4835		68.359375
4836		62.500000
4837		66.406250
4838		60.546875
4839		64.453125
4840		58.593750
4841		62.500000
4842		56.640625
4843		60.546875
4844		54.687500
4845		58.593750
4846		52.734375
4847		56.640625
4848		48.828125
4849		54.687500
4850		46.875000
4851		50.781250
4852		44.921875
4853		48.828125
4854		42.968750
4855		46.875000
4856		39.062500
4857		42.968750
4858		35.156250
4859		41.015625
4860		33.203125
4861		37.109375
4862		29.296875
4863		35.156250
4864		27.343750
4865		31.250000
4866		23.437500
4867		27.343750
4868		19.531250
4869		25.390625
4870		17.578125
4871		23.437500
4872		13.671875
4873		17.578125
4874		9.765625
4875		15.625000
4876		5.859375
4877		11.718750
4878		3.906250
4879		7.812500
4880		0.000000
4881		3.906250
4882		-3.906250
4883		1.953125
4884		-7.812500
4885		-1.953125
4886		-9.765625
4887		-5.859375
4888		-13.671875
4889		-9.765625
4890		-17.578125
4891		-11.718750
4892		-21.484375
4893		-15.625000
4894		-23.437500
4895		-19.531250
4896		-27.343750
4897		-21.484375
4898		-29.296875
4899		-25.390625
4900		-33.203125
4901		-27.343750
4902		-35.156250
4903		-31.250000
4904		-39.062500
4905		-33.203125
4906		-41.015625
4907		-37.109375
4908		-42.968750
4909		-39.062500
4910		-44.921875
4911		-41.015625
4912		-48.828125
4913		-42.968750
4914		-48.828125
4915		-46.875000
4916		-52.734375
4917		-46.875000
4918		-54.687500
4919		-50.781250
4920		-54.687500
4921		-50.781250
4922		-56.640625
4923		-52.734375
4924		-58.593750
4925		-54.687500
4926		-58.593750
4927		-56.640625
4928		-60.546875
4929		-56.640625
4930		-60.546875
4931		-58.593750
4932		-62.500000
4933		-58.593750
4934		-62.500000
4935		-58.593750
4936		-64.453125
4937		-58.593750
4938		-62.500000
4939		-58.593750
4940		-62.500000
4941		-60.546875
4942		-62.500000
4943		-58.593750
4944		-60.546875
4945		-58.593750
4946		-60.546875
4947		-58.593750
4948		-60.546875
4949		-56.640625
4950		-58.593750
4951		-56.640625
4952		-58.593750
4953		-54.687500
4954		-58.593750
4955		-52.734375
4956		-54.687500
4957		-50.781250
4958		-52.734375
4959		-48.828125
4960		-50.781250
4961		-46.875000
4962		-48.828125
4963		-44.921875
4964		-48.828125
4965		-42.968750
4966		-44.921875
4967		-41.015625
4968		-42.968750
4969		-39.062500
4970		-41.015625
4971		-35.156250
4972		-37.109375
4973		-33.203125
4974		-35.156250
4975		-29.296875
4976		-33.203125
4977		-27.343750
4978		-29.296875
4979		-23.437500
4980		-25.390625
4981		-21.484375
4982		-23.437500
4983		-17.578125
4984		-21.484375
4985		-15.625000
4986		-15.625000
4987		-11.718750
4988		-13.671875
4989		-7.812500
4990		-9.765625
4991		-5.859375
4992		-7.812500
4993		-1.953125
4994		-3.906250
4995		1.953125
4996		0.000000
4997		5.859375
4998		3.906250
4999		7.812500
5000		7.812500
5001		11.718750
5002		11.718750
5003		15.625000
5004		13.671875
5005		19.531250
5006		17.578125
5007		23.437500
5008		21.484375
5009		25.390625
5010		23.437500
5011		29.296875
5012		27.343750
5013		33.203125
5014		31.250000
5015		35.156250
5016		33.203125
5017		39.062500
5018		37.109375
5019		41.015625
5020		39.062500
5021		44.921875
5022		42.968750
5023		46.875000
5024		44.921875
5025		48.828125
5026		46.875000
5027		50.781250
5028		50.781250
5029		54.687500
5030		52.734375
5031		56.640625
5032		54.687500
5033		60.546875
5034		56.640625
5035		60.546875
5036		58.593750
5037		62.500000
5038		60.546875
5039		64.453125
5040		62.500000
5041		66.406250
5042		64.453125
5043		68.359375
5044		66.406250
5045		70.312500
5046		68.359375
5047		70.312500
5048		68.359375
5049		72.265625
5050		70.312500
5051		74.218750
5052		70.312500
5053		74.218750
5054		72.265625
5055		76.171875
5056		72.265625
5057		76.171875
5058		72.265625
5059		76.171875
5060		74.218750
5061		76.171875
5062		74.218750
5063		76.171875
5064		74.218750
5065		78.125000
5066		74.218750
5067		78.125000
5068		74.218750
5069		76.171875
5070		72.265625
5071		76.171875
5072		72.265625
5073		76.171875
5074		72.265625
5075		74.218750
5076		70.312500
5077		76.171875
5078		70.312500
5079		74.218750
5080		68.359375
5081		72.265625
5082		66.406250
5083		70.312500
5084		66.406250
5085		70.312500
5086		64.453125
5087		68.359375
5088		62.500000
5089		66.406250
5090		60.546875
5091		64.453125
5092		58.593750
5093		62.500000
5094		56.640625
5095		60.546875
5096		54.687500
5097		58.593750
5098		52.734375
5099		56.640625
5100		48.828125
5101		54.687500
5102		46.875000
5103		52.734375
5104		44.921875
5105		48.828125
5106		42.968750
5107		46.875000
5108		39.062500
5109		42.968750
5110		35.156250
5111		41.015625
5112		33.203125
5113		37.109375
5114		29.296875
5115		35.156250
5116		25.390625
5117		31.250000
5118		23.437500
5119		27.343750
5120		19.531250
5121		25.390625
5122		17.578125
5123		23.437500
5124		13.671875
5125		17.578125
5126		9.765625
5127		15.625000
5128		5.859375
5129		11.718750
5130		1.953125
5131		7.812500
5132		-1.953125
5133		3.906250
5134		-3.906250
5135		1.953125
5136		-7.812500
5137		-1.953125
5138		-11.718750
5139		-5.859375
5140		-13.671875
5141		-9.765625
5142		-17.578125
5143		-11.718750
5144		-21.484375
5145		-15.625000
5146		-23.437500
5147		-19.531250
5148		-27.343750
5149		-21.484375
5150		-29.296875
5151		-25.390625
5152		-33.203125
5153		-27.343750
5154		-37.109375
5155		-31.250000
5156		-39.062500
5157		-33.203125
5158		-41.015625
5159		-37.109375
5160		-42.968750
5161		-39.062500
5162		-44.921875
5163		-42.968750
5164		-48.828125
5165		-44.921875
5166		-50.781250
5167		-44.921875
5168		-52.734375
5169		-48.828125
5170		-52.734375
5171		-50.781250
5172		-56.640625
5173		-50.781250
5174		-56.640625
5175		-52.734375
5176		-58.593750
5177		-54.687500
5178		-58.593750
5179		-54.687500
5180		-60.546875
5181		-56.640625
5182		-60.546875
5183		-58.593750
5184		-62.500000
5185		-58.593750
5186		-62.500000
5187		-58.593750
5188		-62.500000
5189		-58.593750
5190		-62.500000
5191		-58.593750
5192		-62.500000
5193		-58.593750
5194		-62.500000
5195		-56.640625
5196		-60.546875
5197		-56.640625
5198		-60.546875
5199		-56.640625
5200		-58.593750
5201		-56.640625
5202		-58.593750
5203		-54.687500
5204		-56.640625
5205		-52.734375
5206		-56.640625
5207		-52.734375
5208		-54.687500
5209		-50.781250
5210		-52.734375
5211		-48.828125
5212		-50.781250
5213		-46.875000
5214		-48.828125
5215		-44.921875
5216		-46.875000
5217		-42.968750
5218		-44.921875
5219		-41.015625
5220		-42.968750
5221		-37.109375
5222		-39.062500
5223		-35.156250
5224		-37.109375
5225		-33.203125
5226		-33.203125
5227		-27.343750
5228		-31.250000
5229		-27.343750
5230		-27.343750
5231		-23.437500
5232		-25.390625
5233		-19.531250
5234		-21.484375
5235		-17.578125
5236		-19.531250
5237		-13.671875
5238		-15.625000
5239		-9.765625
5240		-11.718750
5241		-7.812500
5242		-9.765625
5243		-3.906250
5244		-5.859375
5245		0.000000
5246		-1.953125
5247		3.906250
5248		0.000000
5249		7.812500
5250		3.906250
5251		9.765625
5252		7.812500
5253		13.671875
5254		11.718750
5255		15.625000
5256		15.625000
5257		19.531250
5258		17.578125
5259		23.437500
5260		21.484375
5261		27.343750
5262		23.437500
5263		29.296875
5264		27.343750
5265		33.203125
5266		31.250000
5267		35.156250
5268		33.203125
5269		39.062500
5270		37.109375
5271		41.015625
5272		39.062500
5273		44.921875
5274		42.968750
5275		46.875000
5276		44.921875
5277		50.781250
5278		48.828125
5279		52.734375
5280		50.781250
5281		56.640625
5282		52.734375
5283		56.640625
5284		54.687500
5285		60.546875
5286		58.593750
5287		62.500000
5288		60.546875
5289		64.453125
5290		60.546875
5291		66.406250
5292		64.453125
5293		68.359375
5294		66.406250
5295		70.312500
5296		66.406250
5297		70.312500
5298		68.359375
5299		72.265625
5300		70.312500
5301		72.265625
5302		70.312500
5303		74.218750
5304		72.265625
5305		74.218750
5306		72.265625
5307		76.171875
5308		74.218750
5309		76.171875
5310		74.218750
5311		76.171875
5312		74.218750
5313		76.171875
5314		74.218750
5315		78.125000
5316		74.218750
5317		78.125000
5318		74.218750
5319		78.125000
5320		74.218750
5321		78.125000
5322		74.218750
5323		76.171875
5324		72.265625
5325		76.171875
5326		72.265625
5327		74.218750
5328		70.312500
5329		74.218750
5330		70.312500
5331		74.218750
5332		68.359375
5333		72.265625
5334		66.406250
5335		72.265625
5336		66.406250
5337		70.312500
5338		64.453125
5339		68.359375
5340		62.500000
5341		66.406250
5342		60.546875
5343		64.453125
5344		58.593750
5345		62.500000
5346		56.640625
5347		60.546875
5348		54.687500
5349		58.593750
5350		52.734375
5351		56.640625
5352		48.828125
5353		54.687500
5354		46.875000
5355		50.781250
5356		42.968750
5357		48.828125
5358		41.015625
5359		44.921875
5360		39.062500
5361		42.968750
5362		35.156250
5363		41.015625
5364		33.203125
5365		37.109375
5366		29.296875
5367		35.156250
5368		25.390625
5369		31.250000
5370		21.484375
5371		27.343750
5372		19.531250
5373		23.437500
5374		15.625000
5375		21.484375
5376		11.718750
5377		17.578125
5378		9.765625
5379		13.671875
5380		5.859375
5381		11.718750
5382		1.953125
5383		7.812500
5384		-1.953125
5385		3.906250
5386		-5.859375
5387		0.000000
5388		-7.812500
5389		-3.906250
5390		-11.718750
5391		-5.859375
5392		-15.625000
5393		-9.765625
5394		-17.578125
5395		-13.671875
5396		-21.484375
5397		-15.625000
5398		-25.390625
5399		-19.531250
5400		-27.343750
5401		-23.437500
5402		-31.250000
5403		-25.390625
5404		-33.203125
5405		-29.296875
5406		-37.109375
5407		-31.250000
5408		-39.062500
5409		-35.156250
5410		-41.015625
5411		-37.109375
5412		-44.921875
5413		-39.062500
5414		-46.875000
5415		-41.015625
5416		-48.828125
5417		-42.968750
5418		-50.781250
5419		-46.875000
5420		-52.734375
5421		-48.828125
5422		-54.687500
5423		-50.781250
5424		-56.640625
5425		-52.734375
5426		-56.640625
5427		-54.687500
5428		-58.593750
5429		-54.687500
5430		-58.593750
5431		-56.640625
5432		-60.546875
5433		-56.640625
5434		-60.546875
5435		-56.640625
5436		-60.546875
5437		-58.593750
5438		-62.500000
5439		-58.593750
5440		-62.500000
5441		-58.593750
5442		-62.500000
5443		-58.593750
5444		-60.546875
5445		-58.593750
5446		-60.546875
5447		-56.640625
5448		-60.546875
5449		-56.640625
5450		-60.546875
5451		-56.640625
5452		-58.593750
5453		-56.640625
5454		-58.593750
5455		-54.687500
5456		-56.640625
5457		-52.734375
5458		-56.640625
5459		-50.781250
5460		-52.734375
5461		-50.781250
5462		-52.734375
5463		-48.828125
5464		-50.781250
5465		-46.875000
5466		-48.828125
5467		-44.921875
5468		-46.875000
5469		-41.015625
5470		-42.968750
5471		-39.062500
5472		-41.015625
5473		-37.109375
5474		-39.062500
5475		-35.156250
5476		-35.156250
5477		-31.250000
5478		-33.203125
5479		-29.296875
5480		-31.250000
5481		-25.390625
5482		-27.343750
5483		-21.484375
5484		-23.437500
5485		-19.531250
5486		-21.484375
5487		-15.625000
5488		-17.578125
5489		-13.671875
5490		-13.671875
5491		-9.765625
5492		-11.718750
5493		-5.859375
5494		-7.812500
5495		-3.906250
5496		-3.906250
5497		0.000000
5498		-1.953125
5499		3.906250
5500		1.953125
5501		5.859375
5502		5.859375
5503		11.718750
5504		9.765625
5505		13.671875
5506		11.718750
5507		17.578125
5508		15.625000
5509		21.484375
5510		19.531250
5511		23.437500
5512		21.484375
5513		27.343750
5514		25.390625
5515		31.250000
5516		29.296875
5517		33.203125
5518		31.250000
5519		37.109375
5520		35.156250
5521		39.062500
5522		37.109375
5523		42.968750
5524		41.015625
5525		46.875000
5526		42.968750
5527		48.828125
5528		46.875000
5529		50.781250
5530		46.875000
5531		52.734375
5532		50.781250
5533		54.687500
5534		54.687500
5535		58.593750
5536		56.640625
5537		60.546875
5538		58.593750
5539		62.500000
5540		60.546875
5541		64.453125
5542		62.500000
5543		66.406250
5544		64.453125
5545		68.359375
5546		66.406250
5547		70.312500
5548		66.406250
5549		70.312500
5550		68.359375
5551		72.265625
5552		70.312500
5553		72.265625
5554		70.312500
5555		74.218750
5556		72.265625
5557		74.218750
5558		72.265625
5559		76.171875
5560		74.218750
5561		76.171875
5562		74.218750
5563		76.171875
5564		74.218750
5565		78.125000
5566		74.218750
5567		78.125000
5568		74.218750
5569		78.125000
5570		74.218750
5571		78.125000
5572		74.218750
5573		76.171875
5574		74.218750
5575		76.171875
5576		72.265625
5577		76.171875
5578		72.265625
5579		74.218750
5580		70.312500
5581		74.218750
5582		70.312500
5583		72.265625
5584		68.359375
5585		72.265625
5586		66.406250
5587		72.265625
5588		66.406250
5589		70.312500
5590		64.453125
5591		68.359375
5592		62.500000
5593		66.406250
5594		60.546875
5595		64.453125
5596		56.640625
5597		62.500000
5598		56.640625
5599		60.546875
5600		54.687500
5601		58.593750
5602		50.781250
5603		56.640625
5604		48.828125
5605		52.734375
5606		46.875000
5607		50.781250
5608		42.968750
5609		48.828125
5610		41.015625
5611		44.921875
5612		37.109375
5613		42.968750
5614		35.156250
5615		39.062500
5616		31.250000
5617		37.109375
5618		27.343750
5619		33.203125
5620		25.390625
5621		29.296875
5622		21.484375
5623		27.343750
5624		17.578125
5625		23.437500
5626		15.625000
5627		21.484375
5628		11.718750
5629		15.625000
5630		7.812500
5631		13.671875
5632		5.859375
5633		9.765625
5634		1.953125
5635		5.859375
5636		-1.953125
5637		1.953125
5638		-5.859375
5639		0.000000
5640		-9.765625
5641		-3.906250
5642		-11.718750
5643		-7.812500
5644		-15.625000
5645		-9.765625
5646		-19.531250
5647		-13.671875
5648		-21.484375
5649		-17.578125
5650		-25.390625
5651		-19.531250
5652		-27.343750
5653		-23.437500
5654		-31.250000
5655		-27.343750
5656		-33.203125
5657		-29.296875
5658		-37.109375
5659		-31.250000
5660		-39.062500
5661		-35.156250
5662		-41.015625
5663		-37.109375
5664		-44.921875
5665		-41.015625
5666		-46.875000
5667		-42.968750
5668		-48.828125
5669		-44.921875
5670		-50.781250
5671		-46.875000
5672		-52.734375
5673		-48.828125
5674		-54.687500
5675		-50.781250
5676		-56.640625
5677		-52.734375
5678		-56.640625
5679		-54.687500
5680		-60.546875
5681		-54.687500
5682		-58.593750
5683		-56.640625
5684		-60.546875
5685		-56.640625
5686		-60.546875
5687		-56.640625
5688		-62.500000
5689		-58.593750
5690		-62.500000
5691		-58.593750
5692		-62.500000
5693		-58.593750
5694		-62.500000
5695		-58.593750
5696		-60.546875
5697		-58.593750
5698		-62.500000
5699		-56.640625
5700		-60.546875
5701		-58.593750
5702		-60.546875
5703		-56.640625
5704		-58.593750
5705		-54.687500
5706		-58.593750
5707		-54.687500
5708		-56.640625
5709		-52.734375
5710		-56.640625
5711		-50.781250
5712		-52.734375
5713		-50.781250
5714		-50.781250
5715		-46.875000
5716		-50.781250
5717		-44.921875
5718		-48.828125
5719		-42.968750
5720		-44.921875
5721		-41.015625
5722		-44.921875
5723		-39.062500
5724		-41.015625
5725		-35.156250
5726		-39.062500
5727		-33.203125
5728		-35.156250
5729		-31.250000
5730		-33.203125
5731		-27.343750
5732		-31.250000
5733		-25.390625
5734		-27.343750
5735		-21.484375
5736		-23.437500
5737		-17.578125
5738		-21.484375
5739		-15.625000
5740		-17.578125
5741		-11.718750
5742		-15.625000
5743		-7.812500
5744		-9.765625
5745		-5.859375
5746		-7.812500
5747		-1.953125
5748		-3.906250
5749		1.953125
5750		0.000000
5751		5.859375
5752		1.953125
5753		7.812500
5754		5.859375
5755		11.718750
5756		9.765625
5757		15.625000
5758		13.671875
5759		19.531250
5760		15.625000
5761		21.484375
5762		19.531250
5763		25.390625
5764		23.437500
5765		29.296875
5766		25.390625
5767		33.203125
5768		29.296875
5769		35.156250
5770		31.250000
5771		39.062500
5772		35.156250
5773		41.015625
5774		39.062500
5775		44.921875
5776		41.015625
5777		46.875000
5778		44.921875
5779		48.828125
5780		46.875000
5781		50.781250
5782		48.828125
5783		54.687500
5784		50.781250
5785		56.640625
5786		52.734375
5787		58.593750
5788		56.640625
5789		62.500000
5790		56.640625
5791		64.453125
5792		60.546875
5793		66.406250
5794		62.500000
5795		66.406250
5796		64.453125
5797		68.359375
5798		66.406250
5799		70.312500
5800		66.406250
5801		72.265625
5802		68.359375
5803		74.218750
5804		70.312500
5805		74.218750
5806		70.312500
5807		76.171875
5808		72.265625
5809		76.171875
5810		72.265625
5811		76.171875
5812		74.218750
5813		76.171875
5814		74.218750
5815		76.171875
5816		74.218750
5817		78.125000
5818		74.218750
5819		78.125000
5820		74.218750
5821		78.125000
5822		74.218750
5823		78.125000
5824		72.265625
5825		78.125000
5826		72.265625
5827		78.125000
5828		72.265625
5829		76.171875
5830		72.265625
5831		74.218750
5832		70.312500
5833		74.218750
5834		70.312500
5835		72.265625
5836		68.359375
5837		72.265625
5838		66.406250
5839		70.312500
5840		66.406250
5841		68.359375
5842		64.453125
5843		66.406250
5844		60.546875
5845		66.406250
5846		60.546875
5847		64.453125
5848		56.640625
5849		62.500000
5850		56.640625
5851		60.546875
5852		52.734375
5853		56.640625
5854		50.781250
5855		54.687500
5856		48.828125
5857		52.734375
5858		44.921875
5859		48.828125
5860		41.015625
5861		46.875000
5862		41.015625
5863		44.921875
5864		37.109375
5865		41.015625
5866		33.203125
5867		39.062500
5868		31.250000
5869		35.156250
5870		27.343750
5871		33.203125
5872		23.437500
5873		29.296875
5874		21.484375
5875		25.390625
5876		17.578125
5877		23.437500
5878		13.671875
5879		19.531250
5880		11.718750
5881		15.625000
5882		7.812500
5883		11.718750
5884		3.906250
5885		7.812500
5886		0.000000
5887		5.859375
5888		-1.953125
5889		1.953125
5890		-5.859375
5891		-1.953125
5892		-9.765625
5893		-3.906250
5894		-13.671875
5895		-7.812500
5896		-15.625000
5897		-11.718750
5898		-19.531250
5899		-15.625000
5900		-23.437500
5901		-17.578125
5902		-25.390625
5903		-21.484375
5904		-29.296875
5905		-23.437500
5906		-31.250000
5907		-27.343750
5908		-35.156250
5909		-29.296875
5910		-37.109375
5911		-33.203125
5912		-39.062500
5913		-35.156250
5914		-42.968750
5915		-39.062500
5916		-44.921875
5917		-41.015625
5918		-46.875000
5919		-42.968750
5920		-48.828125
5921		-44.921875
5922		-50.781250
5923		-46.875000
5924		-52.734375
5925		-48.828125
5926		-54.687500
5927		-50.781250
5928		-56.640625
5929		-52.734375
5930		-56.640625
5931		-54.687500
5932		-58.593750
5933		-54.687500
5934		-62.500000
5935		-54.687500
5936		-62.500000
5937		-54.687500
5938		-62.500000
5939		-54.687500
5940		-60.546875
5941		-58.593750
5942		-60.546875
5943		-58.593750
5944		-60.546875
5945		-58.593750
5946		-60.546875
5947		-58.593750
5948		-60.546875
5949		-58.593750
5950		-64.453125
5951		-54.687500
5952		-62.500000
5953		-54.687500
5954		-62.500000
5955		-54.687500
5956		-58.593750
5957		-56.640625
5958		-56.640625
5959		-54.687500
5960		-56.640625
5961		-52.734375
5962		-54.687500
5963		-50.781250
5964		-52.734375
5965		-50.781250
5966		-52.734375
5967		-44.921875
5968		-52.734375
5969		-42.968750
5970		-50.781250
5971		-41.015625
5972		-48.828125
5973		-39.062500
5974		-42.968750
5975		-39.062500
5976		-39.062500
5977		-35.156250
5978		-37.109375
5979		-33.203125
5980		-35.156250
5981		-29.296875
5982		-31.250000
5983		-27.343750
5984		-31.250000
5985		-21.484375
5986		-29.296875
5987		-19.531250
5988		-25.390625
5989		-15.625000
5990		-19.531250
5991		-15.625000
5992		-17.578125
5993		-11.718750
5994		-13.671875
5995		-7.812500
5996		-9.765625
5997		-5.859375
5998		-5.859375
5999		-1.953125
6000		-3.906250
6001		5.859375
6002		-3.906250
6003		7.812500
6004		0.000000
6005		11.718750
6006		5.859375
6007		11.718750
6008		9.765625
6009		15.625000
6010		13.671875
6011		19.531250
6012		17.578125
6013		21.484375
6014		21.484375
6015		25.390625
6016		23.437500
6017		29.296875
6018		23.437500
6019		35.156250
6020		27.343750
6021		37.109375
6022		31.250000
6023		39.062500
6024		35.156250
6025		41.015625
6026		39.062500
6027		42.968750
6028		42.968750
6029		46.875000
6030		44.921875
6031		48.828125
6032		46.875000
6033		50.781250
6034		46.875000
6035		56.640625
6036		50.781250
6037		60.546875
6038		52.734375
6039		62.500000
6040		56.640625
6041		60.546875
6042		58.593750
6043		62.500000
6044		62.500000
6045		64.453125
6046		62.500000
6047		66.406250
6048		64.453125
6049		68.359375
6050		64.453125
6051		74.218750
6052		64.453125
6053		76.171875
6054		66.406250
6055		76.171875
6056		66.406250
6057		76.171875
6058		72.265625
6059		74.218750
6060		72.265625
6061		74.218750
6062		74.218750
6063		76.171875
6064		74.218750
6065		76.171875
6066		74.218750
6067		76.171875
6068		70.312500
6069		80.078125
6070		70.312500
6071		82.031250
6072		72.265625
6073		80.078125
6074		74.218750
6075		76.171875
6076		74.218750
6077		76.171875
6078		74.218750
6079		76.171875
6080		72.265625
6081		76.171875
6082		72.265625
6083		74.218750
6084		66.406250
6085		76.171875
6086		66.406250
6087		76.171875
6088		64.453125
6089		76.171875
6090		66.406250
6091		72.265625
6092		66.406250
6093		68.359375
6094		64.453125
6095		66.406250
6096		62.500000
6097		64.453125
6098		58.593750
6099		64.453125
6100		56.640625
6101		60.546875
6102		52.734375
6103		62.500000
6104		48.828125
6105		60.546875
6106		48.828125
6107		58.593750
6108		48.828125
6109		52.734375
6110		44.921875
6111		48.828125
6112		42.968750
6113		46.875000
6114		39.062500
6115		44.921875
6116		37.109375
6117		41.015625
6118		33.203125
6119		39.062500
6120		27.343750
6121		35.156250
6122		25.390625
6123		33.203125
6124		23.437500
6125		27.343750
6126		21.484375
6127		25.390625
6128		17.578125
6129		21.484375
6130		13.671875
6131		17.578125
6132		9.765625
6133		15.625000
6134		7.812500
6135		11.718750
6136		1.953125
6137		9.765625
6138		-3.906250
6139		5.859375
6140		-3.906250
6141		1.953125
6142		-5.859375
6143		-1.953125
6144		-9.765625
6145		-5.859375
6146		-13.671875
6147		-7.812500
6148		-17.578125
6149		-11.718750
6150		-19.531250
6151		-15.625000
6152		-23.437500
6153		-17.578125
6154		-27.343750
6155		-19.531250
6156		-29.296875
6157		-23.437500
6158		-31.250000
6159		-27.343750
6160		-35.156250
6161		-31.250000
6162		-37.109375
6163		-33.203125
6164		-41.015625
6165		-37.109375
6166		-42.968750
6167		-39.062500
6168		-44.921875
6169		-41.015625
6170		-46.875000
6171		-42.968750
6172		-50.781250
6173		-44.921875
6174		-50.781250
6175		-46.875000
6176		-52.734375
6177		-50.781250
6178		-54.687500
6179		-50.781250
6180		-56.640625
6181		-52.734375
6182		-56.640625
6183		-54.687500
6184		-58.593750
6185		-56.640625
6186		-58.593750
6187		-56.640625
6188		-60.546875
6189		-56.640625
6190		-60.546875
6191		-58.593750
6192		-60.546875
6193		-58.593750
6194		-62.500000
6195		-58.593750
6196		-62.500000
6197		-58.593750
6198		-62.500000
6199		-58.593750
6200		-60.546875
6201		-58.593750
6202		-60.546875
6203		-58.593750
6204		-60.546875
6205		-56.640625
6206		-58.593750
6207		-56.640625
6208		-58.593750
6209		-54.687500
6210		-56.640625
6211		-54.687500
6212		-56.640625
6213		-52.734375
6214		-54.687500
6215		-50.781250
6216		-52.734375
6217		-48.828125
6218		-50.781250
6219		-46.875000
6220		-50.781250
6221		-44.921875
6222		-46.875000
6223		-42.968750
6224		-44.921875
6225		-41.015625
6226		-42.968750
6227		-37.109375
6228		-39.062500
6229		-35.156250
6230		-37.109375
6231		-33.203125
6232		-33.203125
6233		-29.296875
6234		-31.250000
6235		-27.343750
6236		-29.296875
6237		-23.437500
6238		-25.390625
6239		-21.484375
6240		-21.484375
6241		-17.578125
6242		-19.531250
6243		-13.671875
6244		-15.625000
6245		-11.718750
6246		-11.718750
6247		-7.812500
6248		-9.765625
6249		-3.906250
6250		-5.859375
6251		0.000000
6252		-1.953125
6253		1.953125
6254		0.000000
6255		5.859375
6256		3.906250
6257		9.765625
6258		7.812500
6259		13.671875
6260		9.765625
6261		15.625000
6262		15.625000
6263		19.531250
6264		17.578125
6265		23.437500
6266		21.484375
6267		25.390625
6268		25.390625
6269		31.250000
6270		25.390625
6271		33.203125
6272		29.296875
6273		35.156250
6274		35.156250
6275		39.062500
6276		37.109375
6277		42.968750
6278		39.062500
6279		44.921875
6280		42.968750
6281		46.875000
6282		44.921875
6283		48.828125
6284		48.828125
6285		52.734375
6286		50.781250
6287		54.687500
6288		52.734375
6289		56.640625
6290		56.640625
6291		58.593750
6292		58.593750
6293		62.500000
6294		60.546875
6295		64.453125
6296		62.500000
6297		66.406250
6298		64.453125
6299		66.406250
6300		64.453125
6301		68.359375
6302		66.406250
6303		72.265625
6304		66.406250
6305		72.265625
6306		68.359375
6307		72.265625
6308		70.312500
6309		74.218750
6310		72.265625
6311		74.218750
6312		72.265625
6313		76.171875
6314		74.218750
6315		76.171875
6316		74.218750
6317		76.171875
6318		74.218750
6319		76.171875
6320		72.265625
6321		78.125000
6322		74.218750
6323		76.171875
6324		74.218750
6325		76.171875
6326		74.218750
6327		76.171875
6328		72.265625
6329		76.171875
6330		72.265625
6331		76.171875
6332		72.265625
6333		74.218750
6334		70.312500
6335		74.218750
6336		68.359375
6337		74.218750
6338		68.359375
6339		72.265625
6340		68.359375
6341		70.312500
6342		66.406250
6343		68.359375
6344		64.453125
6345		68.359375
6346		62.500000
6347		66.406250
6348		60.546875
6349		64.453125
6350		58.593750
6351		62.500000
6352		56.640625
6353		60.546875
6354		54.687500
6355		60.546875
6356		52.734375
6357		56.640625
6358		48.828125
6359		52.734375
6360		46.875000
6361		50.781250
6362		44.921875
6363		48.828125
6364		41.015625
6365		46.875000
6366		39.062500
6367		42.968750
6368		35.156250
6369		41.015625
6370		31.250000
6371		37.109375
6372		29.296875
6373		33.203125
6374		25.390625
6375		31.250000
6376		21.484375
6377		27.343750
6378		19.531250
6379		25.390625
6380		15.625000
6381		21.484375
6382		11.718750
6383		17.578125
6384		9.765625
6385		13.671875
6386		3.906250
6387		11.718750
6388		1.953125
6389		7.812500
6390		-1.953125
6391		3.906250
6392		-3.906250
6393		0.000000
6394		-7.812500
6395		-1.953125
6396		-11.718750
6397		-5.859375
6398		-13.671875
6399		-9.765625
6400		-17.578125
6401		-13.671875
6402		-21.484375
6403		-15.625000
6404		-23.437500
6405		-19.531250
6406		-27.343750
6407		-23.437500
6408		-31.250000
6409		-25.390625
6410		-33.203125
6411		-29.296875
6412		-37.109375
6413		-31.250000
6414		-39.062500
6415		-35.156250
6416		-41.015625
6417		-37.109375
6418		-42.968750
6419		-39.062500
6420		-46.875000
6421		-42.968750
6422		-48.828125
6423		-44.921875
6424		-50.781250
6425		-46.875000
6426		-52.734375
6427		-48.828125
6428		-54.687500
6429		-50.781250
6430		-54.687500
6431		-52.734375
6432		-56.640625
6433		-54.687500
6434		-58.593750
6435		-54.687500
6436		-58.593750
6437		-56.640625
6438		-60.546875
6439		-56.640625
6440		-60.546875
6441		-58.593750
6442		-60.546875
6443		-58.593750
6444		-62.500000
6445		-58.593750
6446		-62.500000
6447		-58.593750
6448		-62.500000
6449		-58.593750
6450		-62.500000
6451		-58.593750
6452		-60.546875
6453		-58.593750
6454		-60.546875
6455		-58.593750
6456		-60.546875
6457		-58.593750
6458		-58.593750
6459		-56.640625
6460		-58.593750
6461		-54.687500
6462		-56.640625
6463		-54.687500
6464		-56.640625
6465		-52.734375
6466		-54.687500
6467		-50.781250
6468		-52.734375
6469		-48.828125
6470		-50.781250
6471		-46.875000
6472		-48.828125
6473		-44.921875
6474		-46.875000
6475		-42.968750
6476		-44.921875
6477		-41.015625
6478		-41.015625
6479		-37.109375
6480		-39.062500
6481		-35.156250
6482		-37.109375
6483		-33.203125
6484		-33.203125
6485		-29.296875
6486		-31.250000
6487		-27.343750
6488		-27.343750
6489		-23.437500
6490		-25.390625
6491		-21.484375
6492		-21.484375
6493		-17.578125
6494		-19.531250
6495		-13.671875
6496		-15.625000
6497		-11.718750
6498		-11.718750
6499		-7.812500
6500		-7.812500
6501		-3.906250
6502		-5.859375
6503		0.000000
6504		-1.953125
6505		1.953125
6506		1.953125
6507		5.859375
6508		3.906250
6509		9.765625
6510		7.812500
6511		13.671875
6512		11.718750
6513		15.625000
6514		15.625000
6515		19.531250
6516		17.578125
6517		23.437500
6518		21.484375
6519		27.343750
6520		25.390625
6521		29.296875
6522		27.343750
6523		33.203125
6524		31.250000
6525		35.156250
6526		35.156250
6527		39.062500
6528		37.109375
6529		41.015625
6530		41.015625
6531		44.921875
6532		42.968750
6533		46.875000
6534		44.921875
6535		50.781250
6536		48.828125
6537		52.734375
6538		50.781250
6539		54.687500
6540		52.734375
6541		56.640625
6542		56.640625
6543		58.593750
6544		58.593750
6545		60.546875
6546		60.546875
6547		64.453125
6548		62.500000
6549		64.453125
6550		64.453125
6551		66.406250
6552		64.453125
6553		68.359375
6554		66.406250
6555		70.312500
6556		66.406250
6557		72.265625
6558		68.359375
6559		74.218750
6560		70.312500
6561		74.218750
6562		72.265625
6563		74.218750
6564		72.265625
6565		74.218750
6566		74.218750
6567		76.171875
6568		74.218750
6569		76.171875
6570		74.218750
6571		76.171875
6572		74.218750
6573		78.125000
6574		72.265625
6575		78.125000
6576		74.218750
6577		76.171875
6578		74.218750
6579		76.171875
6580		74.218750
6581		76.171875
6582		72.265625
6583		76.171875
6584		72.265625
6585		74.218750
6586		70.312500
6587		74.218750
6588		68.359375
6589		74.218750
6590		66.406250
6591		72.265625
6592		68.359375
6593		70.312500
6594		66.406250
6595		68.359375
6596		64.453125
6597		66.406250
6598		62.500000
6599		66.406250
6600		60.546875
6601		64.453125
6602		58.593750
6603		62.500000
6604		56.640625
6605		60.546875
6606		52.734375
6607		60.546875
6608		50.781250
6609		56.640625
6610		48.828125
6611		52.734375
6612		46.875000
6613		50.781250
6614		42.968750
6615		46.875000
6616		41.015625
6617		44.921875
6618		37.109375
6619		42.968750
6620		35.156250
6621		39.062500
6622		29.296875
6623		37.109375
6624		27.343750
6625		33.203125
6626		25.390625
6627		29.296875
6628		21.484375
6629		27.343750
6630		19.531250
6631		23.437500
6632		15.625000
6633		19.531250
6634		11.718750
6635		17.578125
6636		7.812500
6637		13.671875
6638		1.953125
6639		9.765625
6640		0.000000
6641		7.812500
6642		-1.953125
6643		5.859375
6644		-5.859375
6645		0.000000
6646		-9.765625
6647		-3.906250
6648		-11.718750
6649		-7.812500
6650		-15.625000
6651		-11.718750
6652		-19.531250
6653		-13.671875
6654		-21.484375
6655		-17.578125
6656		-25.390625
6657		-19.531250
6658		-29.296875
6659		-21.484375
6660		-31.250000
6661		-27.343750
6662		-33.203125
6663		-29.296875
6664		-37.109375
6665		-33.203125
6666		-39.062500
6667		-35.156250
6668		-42.968750
6669		-37.109375
6670		-44.921875
6671		-39.062500
6672		-48.828125
6673		-42.968750
6674		-50.781250
6675		-42.968750
6676		-50.781250
6677		-46.875000
6678		-52.734375
6679		-48.828125
6680		-54.687500
6681		-50.781250
6682		-56.640625
6683		-52.734375
6684		-56.640625
6685		-54.687500
6686		-58.593750
6687		-56.640625
6688		-58.593750
6689		-56.640625
6690		-62.500000
6691		-56.640625
6692		-62.500000
6693		-56.640625
6694		-60.546875
6695		-58.593750
6696		-62.500000
6697		-58.593750
6698		-62.500000
6699		-58.593750
6700		-62.500000
6701		-60.546875
6702		-62.500000
6703		-58.593750
6704		-60.546875
6705		-58.593750
6706		-62.500000
6707		-56.640625
6708		-60.546875
6709		-56.640625
6710		-58.593750
6711		-56.640625
6712		-58.593750
6713		-54.687500
6714		-56.640625
6715		-54.687500
6716		-54.687500
6717		-52.734375
6718		-54.687500
6719		-50.781250
6720		-52.734375
6721		-48.828125
6722		-50.781250
6723		-44.921875
6724		-50.781250
6725		-42.968750
6726		-46.875000
6727		-42.968750
6728		-42.968750
6729		-39.062500
6730		-41.015625
6731		-37.109375
6732		-39.062500
6733		-35.156250
6734		-37.109375
6735		-31.250000
6736		-33.203125
6737		-29.296875
6738		-31.250000
6739		-25.390625
6740		-27.343750
6741		-23.437500
6742		-23.437500
6743		-19.531250
6744		-21.484375
6745		-15.625000
6746		-17.578125
6747		-13.671875
6748		-15.625000
6749		-9.765625
6750		-11.718750
6751		-5.859375
6752		-7.812500
6753		-3.906250
6754		-3.906250
6755		0.000000
6756		-1.953125
6757		3.906250
6758		1.953125
6759		7.812500
6760		5.859375
6761		9.765625
6762		9.765625
6763		13.671875
6764		11.718750
6765		17.578125
6766		15.625000
6767		21.484375
6768		19.531250
6769		23.437500
6770		23.437500
6771		27.343750
6772		25.390625
6773		29.296875
6774		27.343750
6775		33.203125
6776		31.250000
6777		37.109375
6778		35.156250
6779		39.062500
6780		39.062500
6781		42.968750
6782		41.015625
6783		44.921875
6784		42.968750
6785		48.828125
6786		46.875000
6787		50.781250
6788		48.828125
6789		52.734375
6790		50.781250
6791		56.640625
6792		54.687500
6793		58.593750
6794		56.640625
6795		60.546875
6796		58.593750
6797		62.500000
6798		60.546875
6799		64.453125
6800		62.500000
6801		66.406250
6802		64.453125
6803		68.359375
6804		66.406250
6805		68.359375
6806		66.406250
6807		70.312500
6808		68.359375
6809		72.265625
6810		70.312500
6811		72.265625
6812		70.312500
6813		74.218750
6814		72.265625
6815		74.218750
6816		72.265625
6817		74.218750
6818		74.218750
6819		76.171875
6820		74.218750
6821		76.171875
6822		74.218750
6823		76.171875
6824		74.218750
6825		76.171875
6826		74.218750
6827		76.171875
6828		74.218750
6829		76.171875
6830		74.218750
6831		76.171875
6832		74.218750
6833		76.171875
6834		72.265625
6835		74.218750
6836		72.265625
6837		74.218750
6838		70.312500
6839		74.218750
6840		70.312500
6841		72.265625
6842		68.359375
6843		72.265625
6844		66.406250
6845		70.312500
6846		66.406250
6847		68.359375
6848		64.453125
6849		66.406250
6850		62.500000
6851		64.453125
6852		60.546875
6853		64.453125
6854		58.593750
6855		62.500000
6856		54.687500
6857		58.593750
6858		52.734375
6859		56.640625
6860		50.781250
6861		54.687500
6862		48.828125
6863		52.734375
6864		46.875000
6865		50.781250
6866		42.968750
6867		46.875000
6868		41.015625
6869		44.921875
6870		37.109375
6871		41.015625
6872		33.203125
6873		39.062500
6874		31.250000
6875		35.156250
6876		27.343750
6877		33.203125
6878		25.390625
6879		29.296875
6880		21.484375
6881		25.390625
6882		17.578125
6883		23.437500
6884		13.671875
6885		19.531250
6886		11.718750
6887		15.625000
6888		7.812500
6889		11.718750
6890		3.906250
6891		9.765625
6892		0.000000
6893		5.859375
6894		-1.953125
6895		1.953125
6896		-5.859375
6897		-1.953125
6898		-9.765625
6899		-3.906250
6900		-13.671875
6901		-7.812500
6902		-15.625000
6903		-11.718750
6904		-19.531250
6905		-13.671875
6906		-23.437500
6907		-17.578125
6908		-25.390625
6909		-21.484375
6910		-29.296875
6911		-25.390625
6912		-31.250000
6913		-27.343750
6914		-35.156250
6915		-31.250000
6916		-37.109375
6917		-33.203125
6918		-41.015625
6919		-37.109375
6920		-42.968750
6921		-39.062500
6922		-44.921875
6923		-41.015625
6924		-46.875000
6925		-42.968750
6926		-48.828125
6927		-44.921875
6928		-50.781250
6929		-48.828125
6930		-52.734375
6931		-48.828125
6932		-54.687500
6933		-50.781250
6934		-56.640625
6935		-52.734375
6936		-58.593750
6937		-54.687500
6938		-58.593750
6939		-56.640625
6940		-60.546875
6941		-56.640625
6942		-60.546875
6943		-58.593750
6944		-60.546875
6945		-58.593750
6946		-62.500000
6947		-58.593750
6948		-62.500000
6949		-60.546875
6950		-62.500000
6951		-60.546875
6952		-62.500000
6953		-60.546875
6954		-62.500000
6955		-60.546875
6956		-62.500000
6957		-58.593750
6958		-60.546875
6959		-58.593750
6960		-60.546875
6961		-58.593750
6962		-58.593750
6963		-56.640625
6964		-58.593750
6965		-54.687500
6966		-56.640625
6967		-54.687500
6968		-54.687500
6969		-52.734375
6970		-54.687500
6971		-50.781250
6972		-52.734375
6973		-48.828125
6974		-50.781250
6975		-46.875000
6976		-48.828125
6977		-42.968750
6978		-46.875000
6979		-42.968750
6980		-42.968750
6981		-39.062500
6982		-41.015625
6983		-37.109375
6984		-39.062500
6985		-33.203125
6986		-35.156250
6987		-31.250000
6988		-33.203125
6989		-29.296875
6990		-29.296875
6991		-25.390625
6992		-27.343750
6993		-23.437500
6994		-23.437500
6995		-19.531250
6996		-21.484375
6997		-15.625000
6998		-17.578125
6999		-13.671875
7000		-13.671875
7001		-9.765625
7002		-11.718750
7003		-5.859375
7004		-7.812500
7005		-1.953125
7006		-3.906250
7007		0.000000
7008		-1.953125
7009		3.906250
7010		1.953125
7011		7.812500
7012		5.859375
7013		11.718750
7014		9.765625
7015		13.671875
7016		13.671875
7017		17.578125
7018		15.625000
7019		21.484375
7020		19.531250
7021		23.437500
7022		23.437500
7023		27.343750
7024		25.390625
7025		31.250000
7026		29.296875
7027		33.203125
7028		33.203125
7029		37.109375
7030		35.156250
7031		39.062500
7032		39.062500
7033		42.968750
7034		41.015625
7035		44.921875
7036		44.921875
7037		48.828125
7038		46.875000
7039		50.781250
7040		48.828125
7041		54.687500
7042		52.734375
7043		56.640625
7044		54.687500
7045		58.593750
7046		56.640625
7047		60.546875
7048		58.593750
7049		62.500000
7050		60.546875
7051		64.453125
7052		62.500000
7053		66.406250
7054		64.453125
7055		68.359375
7056		66.406250
7057		68.359375
7058		68.359375
7059		70.312500
7060		68.359375
7061		72.265625
7062		70.312500
7063		72.265625
7064		70.312500
7065		74.218750
7066		72.265625
7067		74.218750
7068		72.265625
7069		76.171875
7070		74.218750
7071		76.171875
7072		74.218750
7073		76.171875
7074		74.218750
7075		76.171875
7076		74.218750
7077		76.171875
7078		74.218750
7079		76.171875
7080		74.218750
7081		76.171875
7082		74.218750
7083		76.171875
7084		72.265625
7085		76.171875
7086		72.265625
7087		74.218750
7088		72.265625
7089		74.218750
7090		70.312500
7091		72.265625
7092		70.312500
7093		72.265625
7094		68.359375
7095		70.312500
7096		66.406250
7097		70.312500
7098		64.453125
7099		68.359375
7100		62.500000
7101		66.406250
7102		60.546875
7103		64.453125
7104		58.593750
7105		62.500000
7106		56.640625
7107		60.546875
7108		54.687500
7109		58.593750
7110		52.734375
7111		56.640625
7112		50.781250
7113		54.687500
7114		46.875000
7115		52.734375
7116		44.921875
7117		48.828125
7118		42.968750
7119		46.875000
7120		39.062500
7121		42.968750
7122		37.109375
7123		41.015625
7124		33.203125
7125		37.109375
7126		29.296875
7127		35.156250
7128		27.343750
7129		31.250000
7130		23.437500
7131		29.296875
7132		19.531250
7133		25.390625
7134		17.578125
7135		21.484375
7136		13.671875
7137		19.531250
7138		9.765625
7139		15.625000
7140		5.859375
7141		11.718750
7142		3.906250
7143		7.812500
7144		0.000000
7145		3.906250
7146		-3.906250
7147		1.953125
7148		-5.859375
7149		-1.953125
7150		-9.765625
7151		-5.859375
7152		-13.671875
7153		-9.765625
7154		-17.578125
7155		-11.718750
7156		-19.531250
7157		-15.625000
7158		-23.437500
7159		-19.531250
7160		-27.343750
7161		-21.484375
7162		-29.296875
7163		-25.390625
7164		-33.203125
7165		-27.343750
7166		-35.156250
7167		-31.250000
7168		-39.062500
7169		-33.203125
7170		-41.015625
7171		-37.109375
7172		-42.968750
7173		-39.062500
7174		-44.921875
7175		-41.015625
7176		-48.828125
7177		-44.921875
7178		-50.781250
7179		-46.875000
7180		-52.734375
7181		-48.828125
7182		-52.734375
7183		-50.781250
7184		-54.687500
7185		-52.734375
7186		-56.640625
7187		-54.687500
7188		-58.593750
7189		-54.687500
7190		-58.593750
7191		-56.640625
7192		-60.546875
7193		-56.640625
7194		-60.546875
7195		-58.593750
7196		-60.546875
7197		-58.593750
7198		-62.500000
7199		-58.593750
7200		-62.500000
7201		-60.546875
7202		-62.500000
7203		-60.546875
7204		-62.500000
7205		-60.546875
7206		-62.500000
7207		-58.593750
7208		-60.546875
7209		-58.593750
7210		-60.546875
7211		-58.593750
7212		-60.546875
7213		-56.640625
7214		-58.593750
7215		-56.640625
7216		-58.593750
7217		-54.687500
7218		-56.640625
7219		-52.734375
7220		-54.687500
7221		-52.734375
7222		-52.734375
7223		-50.781250
7224		-52.734375
7225		-48.828125
7226		-48.828125
7227		-46.875000
7228		-48.828125
7229		-44.921875
7230		-44.921875
7231		-41.015625
7232		-42.968750
7233		-39.062500
7234		-41.015625
7235		-37.109375
7236		-37.109375
7237		-33.203125
7238		-35.156250
7239		-31.250000
7240		-31.250000
7241		-27.343750
7242		-29.296875
7243		-25.390625
7244		-27.343750
7245		-21.484375
7246		-23.437500
7247		-17.578125
7248		-19.531250
7249		-15.625000
7250		-17.578125
7251		-11.718750
7252		-13.671875
7253		-7.812500
7254		-9.765625
7255		-5.859375
7256		-7.812500
7257		-1.953125
7258		-3.906250
7259		1.953125
7260		0.000000
7261		3.906250
7262		3.906250
7263		7.812500
7264		5.859375
7265		11.718750
7266		9.765625
7267		15.625000
7268		13.671875
7269		17.578125
7270		17.578125
7271		21.484375
7272		19.531250
7273		25.390625
7274		23.437500
7275		27.343750
7276		27.343750
7277		31.250000
7278		29.296875
7279		35.156250
7280		33.203125
7281		37.109375
7282		35.156250
7283		41.015625
7284		39.062500
7285		42.968750
7286		42.968750
7287		46.875000
7288		44.921875
7289		48.828125
7290		46.875000
7291		52.734375
7292		48.828125
7293		54.687500
7294		52.734375
7295		56.640625
7296		54.687500
7297		58.593750
7298		56.640625
7299		60.546875
7300		58.593750
7301		62.500000
7302		60.546875
7303		64.453125
7304		62.500000
7305		66.406250
7306		64.453125
7307		68.359375
7308		66.406250
7309		70.312500
7310		68.359375
7311		70.312500
7312		68.359375
7313		72.265625
7314		70.312500
7315		72.265625
7316		72.265625
7317		74.218750
7318		72.265625
7319		74.218750
7320		72.265625
7321		76.171875
7322		74.218750
7323		76.171875
7324		74.218750
7325		76.171875
7326		74.218750
7327		76.171875
7328		74.218750
7329		76.171875
7330		74.218750
7331		76.171875
7332		74.218750
7333		76.171875
7334		74.218750
7335		76.171875
7336		72.265625
7337		76.171875
7338		72.265625
7339		74.218750
7340		72.265625
7341		74.218750
7342		70.312500
7343		72.265625
7344		68.359375
7345		72.265625
7346		68.359375
7347		70.312500
7348		66.406250
7349		70.312500
7350		64.453125
7351		68.359375
7352		62.500000
7353		66.406250
7354		60.546875
7355		64.453125
7356		58.593750
7357		62.500000
7358		56.640625
7359		60.546875
7360		54.687500
7361		58.593750
7362		52.734375
7363		56.640625
7364		48.828125
7365		54.687500
7366		46.875000
7367		50.781250
7368		44.921875
7369		48.828125
7370		41.015625
7371		44.921875
7372		39.062500
7373		42.968750
7374		35.156250
7375		41.015625
7376		33.203125
7377		37.109375
7378		29.296875
7379		33.203125
7380		25.390625
7381		31.250000
7382		23.437500
7383		27.343750
7384		19.531250
7385		23.437500
7386		15.625000
7387		21.484375
7388		13.671875
7389		17.578125
7390		9.765625
7391		13.671875
7392		5.859375
7393		11.718750
7394		1.953125
7395		7.812500
7396		0.000000
7397		3.906250
7398		-3.906250
7399		0.000000
7400		-7.812500
7401		-1.953125
7402		-11.718750
7403		-5.859375
7404		-13.671875
7405		-9.765625
7406		-17.578125
7407		-13.671875
7408		-21.484375
7409		-15.625000
7410		-23.437500
7411		-19.531250
7412		-27.343750
7413		-23.437500
7414		-31.250000
7415		-25.390625
7416		-33.203125
7417		-29.296875
7418		-35.156250
7419		-31.250000
7420		-39.062500
7421		-35.156250
7422		-41.015625
7423		-37.109375
7424		-44.921875
7425		-41.015625
7426		-46.875000
7427		-42.968750
7428		-48.828125
7429		-44.921875
7430		-50.781250
7431		-46.875000
7432		-52.734375
7433		-48.828125
7434		-54.687500
7435		-50.781250
7436		-56.640625
7437		-52.734375
7438		-56.640625
7439		-54.687500
7440		-58.593750
7441		-54.687500
7442		-58.593750
7443		-56.640625
7444		-60.546875
7445		-58.593750
7446		-60.546875
7447		-58.593750
7448		-62.500000
7449		-58.593750
7450		-62.500000
7451		-60.546875
7452		-62.500000
7453		-60.546875
7454		-62.500000
7455		-60.546875
7456		-62.500000
7457		-60.546875
7458		-62.500000
7459		-60.546875
7460		-60.546875
7461		-58.593750
7462		-60.546875
7463		-58.593750
7464		-60.546875
7465		-56.640625
7466		-58.593750
7467		-56.640625
7468		-58.593750
7469		-54.687500
7470		-56.640625
7471		-52.734375
7472		-54.687500
7473		-52.734375
7474		-52.734375
7475		-50.781250
7476		-52.734375
7477		-48.828125
7478		-48.828125
7479		-46.875000
7480		-48.828125
7481		-42.968750
7482		-44.921875
7483		-41.015625
7484		-42.968750
7485		-39.062500
7486		-41.015625
7487		-35.156250
7488		-39.062500
7489		-33.203125
7490		-35.156250
7491		-31.250000
7492		-31.250000
7493		-27.343750
7494		-29.296875
7495		-25.390625
7496		-25.390625
7497		-21.484375
7498		-23.437500
7499		-17.578125
7500		-19.531250
7501		-15.625000
7502		-17.578125
7503		-11.718750
7504		-13.671875
7505		-7.812500
7506		-9.765625
7507		-5.859375
7508		-5.859375
7509		-1.953125
7510		-3.906250
7511		1.953125
7512		0.000000
7513		5.859375
7514		3.906250
7515		7.812500
7516		7.812500
7517		11.718750
7518		9.765625
7519		15.625000
7520		13.671875
7521		19.531250
7522		17.578125
7523		21.484375
7524		21.484375
7525		25.390625
7526		23.437500
7527		29.296875
7528		27.343750
7529		31.250000
7530		29.296875
7531		35.156250
7532		33.203125
7533		37.109375
7534		37.109375
7535		41.015625
7536		39.062500
7537		44.921875
7538		41.015625
7539		46.875000
7540		44.921875
7541		48.828125
7542		46.875000
7543		50.781250
7544		50.781250
7545		54.687500
7546		52.734375
7547		56.640625
7548		54.687500
7549		58.593750
7550		56.640625
7551		60.546875
7552		58.593750
7553		62.500000
7554		60.546875
7555		64.453125
7556		62.500000
7557		66.406250
7558		64.453125
7559		68.359375
7560		66.406250
7561		70.312500
7562		68.359375
7563		70.312500
7564		68.359375
7565		72.265625
7566		70.312500
7567		72.265625
7568		72.265625
7569		74.218750
7570		70.312500
7571		74.218750
7572		72.265625
7573		74.218750
7574		72.265625
7575		76.171875
7576		74.218750
7577		76.171875
7578		74.218750
7579		76.171875
7580		74.218750
7581		76.171875
7582		72.265625
7583		76.171875
7584		72.265625
7585		78.125000
7586		72.265625
7587		76.171875
7588		70.312500
7589		78.125000
7590		72.265625
7591		74.218750
7592		70.312500
7593		74.218750
7594		70.312500
7595		72.265625
7596		68.359375
7597		70.312500
7598		66.406250
7599		70.312500
7600		62.500000
7601		68.359375
7602		64.453125
7603		68.359375
7604		60.546875
7605		64.453125
7606		58.593750
7607		66.406250
7608		56.640625
7609		62.500000
7610		56.640625
7611		60.546875
7612		54.687500
7613		56.640625
7614		50.781250
7615		54.687500
7616		48.828125
7617		52.734375
7618		44.921875
7619		50.781250
7620		42.968750
7621		46.875000
7622		39.062500
7623		44.921875
7624		37.109375
7625		41.015625
7626		33.203125
7627		41.015625
7628		31.250000
7629		37.109375
7630		29.296875
7631		33.203125
7632		25.390625
7633		29.296875
7634		19.531250
7635		27.343750
7636		17.578125
7637		23.437500
7638		15.625000
7639		19.531250
7640		11.718750
7641		19.531250
7642		5.859375
7643		13.671875
7644		5.859375
7645		9.765625
7646		1.953125
7647		5.859375
7648		-1.953125
7649		1.953125
7650		-7.812500
7651		1.953125
7652		-9.765625
7653		-1.953125
7654		-11.718750
7655		-7.812500
7656		-15.625000
7657		-9.765625
7658		-19.531250
7659		-13.671875
7660		-23.437500
7661		-13.671875
7662		-25.390625
7663		-21.484375
7664		-29.296875
7665		-23.437500
7666		-33.203125
7667		-27.343750
7668		-35.156250
7669		-29.296875
7670		-37.109375
7671		-33.203125
7672		-41.015625
7673		-35.156250
7674		-44.921875
7675		-35.156250
7676		-48.828125
7677		-39.062500
7678		-46.875000
7679		-42.968750
7680		-48.828125
7681		-44.921875
7682		-52.734375
7683		-46.875000
7684		-56.640625
7685		-46.875000
7686		-54.687500
7687		-50.781250
7688		-56.640625
7689		-50.781250
7690		-60.546875
7691		-52.734375
7692		-62.500000
7693		-54.687500
7694		-64.453125
7695		-52.734375
7696		-60.546875
7697		-58.593750
7698		-62.500000
7699		-58.593750
7700		-66.406250
7701		-56.640625
7702		-64.453125
7703		-58.593750
7704		-62.500000
7705		-60.546875
7706		-66.406250
7707		-56.640625
7708		-66.406250
7709		-56.640625
7710		-66.406250
7711		-54.687500
7712		-62.500000
7713		-58.593750
7714		-60.546875
7715		-58.593750
7716		-62.500000
7717		-54.687500
7718		-62.500000
7719		-54.687500
7720		-58.593750
7721		-54.687500
7722		-56.640625
7723		-52.734375
7724		-58.593750
7725		-48.828125
7726		-54.687500
7727		-44.921875
7728		-50.781250
7729		-48.828125
7730		-50.781250
7731		-44.921875
7732		-48.828125
7733		-42.968750
7734		-48.828125
7735		-39.062500
7736		-42.968750
7737		-39.062500
7738		-41.015625
7739		-35.156250
7740		-39.062500
7741		-29.296875
7742		-39.062500
7743		-29.296875
7744		-33.203125
7745		-25.390625
7746		-29.296875
7747		-23.437500
7748		-25.390625
7749		-19.531250
7750		-23.437500
7751		-13.671875
7752		-19.531250
7753		-13.671875
7754		-15.625000
7755		-11.718750
7756		-11.718750
7757		-5.859375
7758		-11.718750
7759		-1.953125
7760		-7.812500
7761		0.000000
7762		-1.953125
7763		1.953125
7764		1.953125
7765		5.859375
7766		3.906250
7767		9.765625
7768		5.859375
7769		13.671875
7770		7.812500
7771		15.625000
7772		13.671875
7773		19.531250
7774		15.625000
7775		25.390625
7776		21.484375
7777		29.296875
7778		21.484375
7779		29.296875
7780		27.343750
7781		33.203125
7782		31.250000
7783		35.156250
7784		31.250000
7785		41.015625
7786		35.156250
7787		41.015625
7788		39.062500
7789		44.921875
7790		41.015625
7791		50.781250
7792		41.015625
7793		52.734375
7794		44.921875
7795		54.687500
7796		50.781250
7797		54.687500
7798		52.734375
7799		56.640625
7800		54.687500
7801		60.546875
7802		54.687500
7803		62.500000
7804		58.593750
7805		62.500000
7806		60.546875
7807		64.453125
7808		60.546875
7809		70.312500
7810		64.453125
7811		70.312500
7812		66.406250
7813		70.312500
7814		68.359375
7815		72.265625
7816		68.359375
7817		74.218750
7818		66.406250
7819		76.171875
7820		68.359375
7821		74.218750
7822		72.265625
7823		74.218750
7824		70.312500
7825		78.125000
7826		70.312500
7827		78.125000
7828		72.265625
7829		78.125000
7830		74.218750
7831		76.171875
7832		72.265625
7833		76.171875
7834		72.265625
7835		76.171875
7836		70.312500
7837		80.078125
7838		72.265625
7839		76.171875
7840		70.312500
7841		76.171875
7842		68.359375
7843		78.125000
7844		68.359375
7845		74.218750
7846		68.359375
7847		72.265625
7848		68.359375
7849		70.312500
7850		64.453125
7851		70.312500
7852		62.500000
7853		70.312500
7854		62.500000
7855		68.359375
7856		60.546875
7857		64.453125
7858		58.593750
7859		64.453125
7860		56.640625
7861		60.546875
7862		54.687500
7863		62.500000
7864		52.734375
7865		56.640625
7866		50.781250
7867		54.687500
7868		46.875000
7869		54.687500
7870		44.921875
7871		50.781250
7872		41.015625
7873		46.875000
7874		39.062500
7875		44.921875
7876		37.109375
7877		41.015625
7878		33.203125
7879		39.062500
7880		31.250000
7881		35.156250
7882		27.343750
7883		31.250000
7884		23.437500
7885		29.296875
7886		17.578125
7887		25.390625
7888		17.578125
7889		23.437500
7890		11.718750
7891		17.578125
7892		9.765625
7893		17.578125
7894		7.812500
7895		11.718750
7896		3.906250
7897		7.812500
7898		0.000000
7899		5.859375
7900		-3.906250
7901		1.953125
7902		-7.812500
7903		-1.953125
7904		-9.765625
7905		-5.859375
7906		-13.671875
7907		-7.812500
7908		-17.578125
7909		-11.718750
7910		-19.531250
7911		-15.625000
7912		-23.437500
7913		-19.531250
7914		-27.343750
7915		-21.484375
7916		-29.296875
7917		-25.390625
7918		-33.203125
7919		-27.343750
7920		-35.156250
7921		-31.250000
7922		-39.062500
7923		-33.203125
7924		-41.015625
7925		-37.109375
7926		-42.968750
7927		-39.062500
7928		-46.875000
7929		-42.968750
7930		-48.828125
7931		-44.921875
7932		-50.781250
7933		-46.875000
7934		-54.687500
7935		-48.828125
7936		-56.640625
7937		-48.828125
7938		-56.640625
7939		-50.781250
7940		-58.593750
7941		-52.734375
7942		-60.546875
7943		-54.687500
7944		-60.546875
7945		-54.687500
7946		-62.500000
7947		-56.640625
7948		-62.500000
7949		-58.593750
7950		-64.453125
7951		-58.593750
7952		-64.453125
7953		-58.593750
7954		-64.453125
7955		-60.546875
7956		-66.406250
7957		-60.546875
7958		-64.453125
7959		-60.546875
7960		-64.453125
7961		-58.593750
7962		-64.453125
7963		-58.593750
7964		-62.500000
7965		-60.546875
7966		-62.500000
7967		-58.593750
7968		-62.500000
7969		-56.640625
7970		-60.546875
7971		-54.687500
7972		-58.593750
7973		-54.687500
7974		-58.593750
7975		-52.734375
7976		-56.640625
7977		-50.781250
7978		-54.687500
7979		-48.828125
7980		-52.734375
7981		-48.828125
7982		-50.781250
7983		-44.921875
7984		-46.875000
7985		-42.968750
7986		-46.875000
7987		-41.015625
7988		-44.921875
7989		-37.109375
7990		-41.015625
7991		-35.156250
7992		-39.062500
7993		-31.250000
7994		-37.109375
7995		-29.296875
7996		-33.203125
7997		-27.343750
7998		-29.296875
7999		-25.390625
8000		-25.390625
8001		-19.531250
8002		-23.437500
8003		-17.578125
8004		-19.531250
8005		-13.671875
8006		-17.578125
8007		-9.765625
8008		-13.671875
8009		-7.812500
8010		-9.765625
8011		-3.906250
8012		-5.859375
8013		0.000000
8014		-1.953125
8015		1.953125
8016		0.000000
8017		5.859375
8018		3.906250
8019		9.765625
8020		7.812500
8021		13.671875
8022		9.765625
8023		17.578125
8024		13.671875
8025		19.531250
8026		15.625000
8027		23.437500
8028		21.484375
8029		27.343750
8030		23.437500
8031		29.296875
8032		27.343750
8033		33.203125
8034		31.250000
8035		37.109375
8036		33.203125
8037		39.062500
8038		35.156250
8039		41.015625
8040		39.062500
8041		44.921875
8042		42.968750
8043		48.828125
8044		44.921875
8045		48.828125
8046		46.875000
8047		50.781250
8048		50.781250
8049		54.687500
8050		52.734375
8051		56.640625
8052		52.734375
8053		58.593750
8054		56.640625
8055		62.500000
8056		58.593750
8057		62.500000
8058		58.593750
8059		64.453125
8060		62.500000
8061		66.406250
8062		64.453125
8063		68.359375
8064		64.453125
8065		68.359375
8066		66.406250
8067		70.312500
8068		68.359375
8069		72.265625
8070		70.312500
8071		72.265625
8072		70.312500
8073		74.218750
8074		70.312500
8075		76.171875
8076		72.265625
8077		76.171875
8078		72.265625
8079		76.171875
8080		72.265625
8081		76.171875
8082		72.265625
8083		74.218750
8084		72.265625
8085		76.171875
8086		72.265625
8087		76.171875
8088		72.265625
8089		76.171875
8090		70.312500
8091		76.171875
8092		70.312500
8093		74.218750
8094		70.312500
8095		74.218750
8096		68.359375
8097		72.265625
8098		68.359375
8099		70.312500
8100		66.406250
8101		70.312500
8102		66.406250
8103		70.312500
8104		64.453125
8105		68.359375
8106		62.500000
8107		66.406250
8108		58.593750
8109		66.406250
8110		58.593750
8111		62.500000
8112		56.640625
8113		60.546875
8114		54.687500
8115		58.593750
8116		50.781250
8117		54.687500
8118		48.828125
8119		52.734375
8120		46.875000
8121		50.781250
8122		44.921875
8123		48.828125
8124		41.015625
8125		46.875000
8126		39.062500
8127		42.968750
8128		35.156250
8129		39.062500
8130		31.250000
8131		37.109375
8132		29.296875
8133		33.203125
8134		25.390625
8135		31.250000
8136		23.437500
8137		27.343750
8138		19.531250
8139		23.437500
8140		15.625000
8141		21.484375
8142		13.671875
8143		19.531250
8144		9.765625
8145		13.671875
8146		5.859375
8147		11.718750
8148		1.953125
8149		7.812500
8150		0.000000
8151		3.906250
8152		-3.906250
8153		0.000000
8154		-7.812500
8155		-3.906250
8156		-11.718750
8157		-5.859375
8158		-15.625000
8159		-9.765625
8160		-17.578125
8161		-13.671875
8162		-21.484375
8163		-15.625000
8164		-25.390625
8165		-19.531250
8166		-27.343750
8167		-23.437500
8168		-31.250000
8169		-25.390625
8170		-35.156250
8171		-29.296875
8172		-37.109375
8173		-31.250000
8174		-41.015625
8175		-35.156250
8176		-42.968750
8177		-37.109375
8178		-44.921875
8179		-39.062500
8180		-48.828125
8181		-42.968750
8182		-48.828125
8183		-44.921875
8184		-50.781250
8185		-46.875000
8186		-54.687500
8187		-48.828125
8188		-54.687500
8189		-52.734375
8190		-56.640625
8191		-52.734375
8192		-58.593750
8193		-54.687500
8194		-60.546875
8195		-56.640625
8196		-60.546875
8197		-58.593750
8198		-62.500000
8199		-58.593750
8200		-62.500000
8201		-60.546875
8202		-64.453125
8203		-60.546875
8204		-64.453125
8205		-60.546875
8206		-64.453125
8207		-60.546875
8208		-64.453125
8209		-60.546875
8210		-64.453125
8211		-60.546875
8212		-64.453125
8213		-60.546875
8214		-64.453125
8215		-60.546875
8216		-62.500000
8217		-60.546875
8218		-62.500000
8219		-58.593750
8220		-62.500000
8221		-58.593750
8222		-60.546875
8223		-56.640625
8224		-58.593750
8225		-54.687500
8226		-56.640625
8227		-52.734375
8228		-56.640625
8229		-52.734375
8230		-54.687500
8231		-50.781250
8232		-52.734375
8233		-48.828125
8234		-50.781250
8235		-46.875000
8236		-48.828125
8237		-42.968750
8238		-44.921875
8239		-41.015625
8240		-42.968750
8241		-39.062500
8242		-41.015625
8243		-35.156250
8244		-37.109375
8245		-33.203125
8246		-35.156250
8247		-29.296875
8248		-31.250000
8249		-27.343750
8250		-29.296875
8251		-23.437500
8252		-25.390625
8253		-19.531250
8254		-21.484375
8255		-17.578125
8256		-19.531250
8257		-13.671875
8258		-15.625000
8259		-11.718750
8260		-11.718750
8261		-7.812500
8262		-9.765625
8263		-3.906250
8264		-5.859375
8265		0.000000
8266		-1.953125
8267		1.953125
8268		1.953125
8269		5.859375
8270		3.906250
8271		9.765625
8272		7.812500
8273		13.671875
8274		11.718750
8275		17.578125
8276		15.625000
8277		19.531250
8278		17.578125
8279		23.437500
8280		21.484375
8281		25.390625
8282		23.437500
8283		29.296875
8284		27.343750
8285		33.203125
8286		31.250000
8287		37.109375
8288		33.203125
8289		39.062500
8290		37.109375
8291		42.968750
8292		39.062500
8293		44.921875
8294		42.968750
8295		46.875000
8296		44.921875
8297		50.781250
8298		48.828125
8299		52.734375
8300		50.781250
8301		54.687500
8302		52.734375
8303		56.640625
8304		54.687500
8305		58.593750
8306		56.640625
8307		60.546875
8308		58.593750
8309		62.500000
8310		60.546875
8311		64.453125
8312		62.500000
8313		66.406250
8314		64.453125
8315		68.359375
8316		66.406250
8317		68.359375
8318		68.359375
8319		70.312500
8320		68.359375
8321		72.265625
8322		70.312500
8323		72.265625
8324		70.312500
8325		74.218750
8326		70.312500
8327		74.218750
8328		72.265625
8329		74.218750
8330		72.265625
8331		76.171875
8332		72.265625
8333		76.171875
8334		72.265625
8335		76.171875
8336		72.265625
8337		76.171875
8338		72.265625
8339		76.171875
8340		72.265625
8341		76.171875
8342		72.265625
8343		74.218750
8344		70.312500
8345		74.218750
8346		68.359375
8347		72.265625
8348		68.359375
8349		72.265625
8350		68.359375
8351		70.312500
8352		66.406250
8353		70.312500
8354		64.453125
8355		68.359375
8356		62.500000
8357		66.406250
8358		60.546875
8359		64.453125
8360		60.546875
8361		64.453125
8362		56.640625
8363		62.500000
8364		54.687500
8365		58.593750
8366		52.734375
8367		56.640625
8368		50.781250
8369		54.687500
8370		46.875000
8371		52.734375
8372		44.921875
8373		50.781250
8374		42.968750
8375		46.875000
8376		41.015625
8377		44.921875
8378		37.109375
8379		42.968750
8380		35.156250
8381		39.062500
8382		31.250000
8383		37.109375
8384		29.296875
8385		33.203125
8386		25.390625
8387		29.296875
8388		21.484375
8389		27.343750
8390		17.578125
8391		23.437500
8392		15.625000
8393		19.531250
8394		11.718750
8395		15.625000
8396		7.812500
8397		13.671875
8398		3.906250
8399		9.765625
8400		1.953125
8401		5.859375
8402		-1.953125
8403		1.953125
8404		-5.859375
8405		0.000000
8406		-9.765625
8407		-3.906250
8408		-11.718750
8409		-7.812500
8410		-15.625000
8411		-11.718750
8412		-19.531250
8413		-13.671875
8414		-23.437500
8415		-17.578125
8416		-25.390625
8417		-21.484375
8418		-29.296875
8419		-23.437500
8420		-31.250000
8421		-27.343750
8422		-35.156250
8423		-29.296875
8424		-37.109375
8425		-33.203125
8426		-41.015625
8427		-35.156250
8428		-42.968750
8429		-39.062500
8430		-46.875000
8431		-41.015625
8432		-48.828125
8433		-42.968750
8434		-50.781250
8435		-46.875000
8436		-52.734375
8437		-48.828125
8438		-54.687500
8439		-50.781250
8440		-56.640625
8441		-52.734375
8442		-56.640625
8443		-54.687500
8444		-58.593750
8445		-54.687500
8446		-60.546875
8447		-56.640625
8448		-60.546875
8449		-58.593750
8450		-62.500000
8451		-58.593750
8452		-62.500000
8453		-60.546875
8454		-64.453125
8455		-60.546875
8456		-64.453125
8457		-60.546875
8458		-64.453125
8459		-60.546875
8460		-64.453125
8461		-62.500000
8462		-64.453125
8463		-60.546875
8464		-64.453125
8465		-60.546875
8466		-64.453125
8467		-60.546875
8468		-62.500000
8469		-60.546875
8470		-62.500000
8471		-58.593750
8472		-62.500000
8473		-56.640625
8474		-60.546875
8475		-56.640625
8476		-58.593750
8477		-54.687500
8478		-56.640625
8479		-54.687500
8480		-54.687500
8481		-50.781250
8482		-54.687500
8483		-48.828125
8484		-52.734375
8485		-46.875000
8486		-48.828125
8487		-44.921875
8488		-46.875000
8489		-42.968750
8490		-44.921875
8491		-41.015625
8492		-42.968750
8493		-37.109375
8494		-39.062500
8495		-35.156250
8496		-37.109375
8497		-33.203125
8498		-33.203125
8499		-29.296875
8500		-31.250000
8501		-27.343750
8502		-27.343750
8503		-23.437500
8504		-25.390625
8505		-19.531250
8506		-23.437500
8507		-17.578125
8508		-19.531250
8509		-13.671875
8510		-15.625000
8511		-9.765625
8512		-11.718750
8513		-5.859375
8514		-9.765625
8515		-3.906250
8516		-5.859375
8517		0.000000
8518		-1.953125
8519		3.906250
8520		1.953125
8521		5.859375
8522		3.906250
8523		9.765625
8524		7.812500
8525		13.671875
8526		11.718750
8527		17.578125
8528		15.625000
8529		19.531250
8530		19.531250
8531		23.437500
8532		21.484375
8533		27.343750
8534		25.390625
8535		31.250000
8536		27.343750
8537		33.203125
8538		31.250000
8539		37.109375
8540		35.156250
8541		39.062500
8542		37.109375
8543		42.968750
8544		39.062500
8545		44.921875
8546		42.968750
8547		46.875000
8548		44.921875
8549		50.781250
8550		48.828125
8551		52.734375
8552		50.781250
8553		54.687500
8554		52.734375
8555		56.640625
8556		56.640625
8557		60.546875
8558		58.593750
8559		60.546875
8560		60.546875
8561		62.500000
8562		62.500000
8563		64.453125
8564		62.500000
8565		66.406250
8566		64.453125
8567		68.359375
8568		64.453125
8569		70.312500
8570		68.359375
8571		70.312500
8572		68.359375
8573		72.265625
8574		70.312500
8575		72.265625
8576		70.312500
8577		74.218750
8578		70.312500
8579		74.218750
8580		72.265625
8581		76.171875
8582		72.265625
8583		74.218750
8584		72.265625
8585		76.171875
8586		72.265625
8587		74.218750
8588		72.265625
8589		76.171875
8590		70.312500
8591		76.171875
8592		72.265625
8593		74.218750
8594		70.312500
8595		74.218750
8596		70.312500
8597		74.218750
8598		70.312500
8599		72.265625
8600		68.359375
8601		72.265625
8602		68.359375
8603		70.312500
8604		66.406250
8605		68.359375
8606		64.453125
8607		68.359375
8608		62.500000
8609		66.406250
8610		60.546875
8611		64.453125
8612		58.593750
8613		62.500000
8614		56.640625
8615		60.546875
8616		54.687500
8617		58.593750
8618		52.734375
8619		56.640625
8620		50.781250
8621		54.687500
8622		46.875000
8623		52.734375
8624		44.921875
8625		48.828125
8626		42.968750
8627		46.875000
8628		39.062500
8629		44.921875
8630		37.109375
8631		41.015625
8632		33.203125
8633		39.062500
8634		29.296875
8635		35.156250
8636		27.343750
8637		31.250000
8638		23.437500
8639		29.296875
8640		21.484375
8641		25.390625
8642		17.578125
8643		23.437500
8644		13.671875
8645		19.531250
8646		11.718750
8647		15.625000
8648		7.812500
8649		13.671875
8650		3.906250
8651		9.765625
8652		0.000000
8653		5.859375
8654		-3.906250
8655		1.953125
8656		-7.812500
8657		-1.953125
8658		-9.765625
8659		-5.859375
8660		-13.671875
8661		-7.812500
8662		-15.625000
8663		-11.718750
8664		-19.531250
8665		-15.625000
8666		-23.437500
8667		-17.578125
8668		-25.390625
8669		-19.531250
8670		-29.296875
8671		-25.390625
8672		-33.203125
8673		-27.343750
8674		-35.156250
8675		-29.296875
8676		-39.062500
8677		-33.203125
8678		-41.015625
8679		-37.109375
8680		-42.968750
8681		-39.062500
8682		-46.875000
8683		-41.015625
8684		-48.828125
8685		-42.968750
8686		-50.781250
8687		-46.875000
8688		-52.734375
8689		-48.828125
8690		-54.687500
8691		-50.781250
8692		-56.640625
8693		-52.734375
8694		-58.593750
8695		-54.687500
8696		-60.546875
8697		-54.687500
8698		-62.500000
8699		-56.640625
8700		-62.500000
8701		-58.593750
8702		-62.500000
8703		-58.593750
8704		-62.500000
8705		-60.546875
8706		-64.453125
8707		-60.546875
8708		-64.453125
8709		-60.546875
8710		-64.453125
8711		-60.546875
8712		-64.453125
8713		-62.500000
8714		-64.453125
8715		-60.546875
8716		-64.453125
8717		-60.546875
8718		-64.453125
8719		-60.546875
8720		-62.500000
8721		-60.546875
8722		-62.500000
8723		-58.593750
8724		-62.500000
8725		-56.640625
8726		-58.593750
8727		-56.640625
8728		-58.593750
8729		-54.687500
8730		-56.640625
8731		-52.734375
8732		-54.687500
8733		-50.781250
8734		-52.734375
8735		-48.828125
8736		-50.781250
8737		-46.875000
8738		-48.828125
8739		-44.921875
8740		-46.875000
8741		-41.015625
8742		-44.921875
8743		-39.062500
8744		-42.968750
8745		-37.109375
8746		-39.062500
8747		-35.156250
8748		-37.109375
8749		-31.250000
8750		-33.203125
8751		-29.296875
8752		-31.250000
8753		-25.390625
8754		-27.343750
8755		-23.437500
8756		-23.437500
8757		-19.531250
8758		-21.484375
8759		-15.625000
8760		-17.578125
8761		-11.718750
8762		-13.671875
8763		-9.765625
8764		-11.718750
8765		-5.859375
8766		-7.812500
8767		-1.953125
8768		-5.859375
8769		0.000000
8770		-1.953125
8771		3.906250
8772		1.953125
8773		7.812500
8774		5.859375
8775		11.718750
8776		9.765625
8777		13.671875
8778		13.671875
8779		17.578125
8780		15.625000
8781		21.484375
8782		19.531250
8783		23.437500
8784		23.437500
8785		27.343750
8786		27.343750
8787		31.250000
8788		29.296875
8789		33.203125
8790		33.203125
8791		37.109375
8792		35.156250
8793		41.015625
8794		39.062500
8795		42.968750
8796		41.015625
8797		44.921875
8798		44.921875
8799		48.828125
8800		46.875000
8801		50.781250
8802		48.828125
8803		54.687500
8804		50.781250
8805		54.687500
8806		52.734375
8807		58.593750
8808		54.687500
8809		60.546875
8810		58.593750
8811		62.500000
8812		58.593750
8813		64.453125
8814		62.500000
8815		66.406250
8816		64.453125
8817		68.359375
8818		66.406250
8819		68.359375
8820		66.406250
8821		70.312500
8822		68.359375
8823		70.312500
8824		68.359375
8825		72.265625
8826		70.312500
8827		74.218750
8828		70.312500
8829		74.218750
8830		72.265625
8831		74.218750
8832		72.265625
8833		74.218750
8834		72.265625
8835		76.171875
8836		72.265625
8837		76.171875
8838		72.265625
8839		76.171875
8840		72.265625
8841		76.171875
8842		72.265625
8843		76.171875
8844		72.265625
8845		76.171875
8846		70.312500
8847		74.218750
8848		70.312500
8849		74.218750
8850		70.312500
8851		72.265625
8852		68.359375
8853		72.265625
8854		68.359375
8855		70.312500
8856		66.406250
8857		68.359375
8858		64.453125
8859		68.359375
8860		62.500000
8861		66.406250
8862		60.546875
8863		64.453125
8864		58.593750
8865		62.500000
8866		56.640625
8867		60.546875
8868		54.687500
8869		58.593750
8870		50.781250
8871		56.640625
8872		50.781250
8873		54.687500
8874		46.875000
8875		50.781250
8876		44.921875
8877		48.828125
8878		41.015625
8879		46.875000
8880		39.062500
8881		44.921875
8882		37.109375
8883		41.015625
8884		33.203125
8885		39.062500
8886		29.296875
8887		35.156250
8888		27.343750
8889		31.250000
8890		23.437500
8891		29.296875
8892		19.531250
8893		25.390625
8894		17.578125
8895		23.437500
8896		13.671875
8897		19.531250
8898		9.765625
8899		15.625000
8900		5.859375
8901		11.718750
8902		3.906250
8903		7.812500
8904		0.000000
8905		5.859375
8906		-3.906250
8907		1.953125
8908		-7.812500
8909		-1.953125
8910		-9.765625
8911		-5.859375
8912		-13.671875
8913		-9.765625
8914		-17.578125
8915		-11.718750
8916		-21.484375
8917		-15.625000
8918		-23.437500
8919		-19.531250
8920		-27.343750
8921		-21.484375
8922		-29.296875
8923		-25.390625
8924		-33.203125
8925		-29.296875
8926		-35.156250
8927		-29.296875
8928		-39.062500
8929		-35.156250
8930		-41.015625
8931		-37.109375
8932		-44.921875
8933		-39.062500
8934		-46.875000
8935		-42.968750
8936		-48.828125
8937		-44.921875
8938		-50.781250
8939		-46.875000
8940		-52.734375
8941		-48.828125
8942		-54.687500
8943		-50.781250
8944		-56.640625
8945		-52.734375
8946		-58.593750
8947		-54.687500
8948		-58.593750
8949		-56.640625
8950		-60.546875
8951		-56.640625
8952		-62.500000
8953		-58.593750
8954		-64.453125
8955		-58.593750
8956		-64.453125
8957		-60.546875
8958		-64.453125
8959		-60.546875
8960		-64.453125
8961		-60.546875
8962		-64.453125
8963		-60.546875
8964		-64.453125
8965		-60.546875
8966		-64.453125
8967		-60.546875
8968		-64.453125
8969		-60.546875
8970		-64.453125
8971		-58.593750
8972		-62.500000
8973		-60.546875
8974		-60.546875
8975		-58.593750
8976		-60.546875
8977		-56.640625
8978		-58.593750
8979		-54.687500
8980		-58.593750
8981		-54.687500
8982		-56.640625
8983		-52.734375
8984		-54.687500
8985		-50.781250
8986		-52.734375
8987		-48.828125
8988		-50.781250
8989		-46.875000
8990		-48.828125
8991		-44.921875
8992		-46.875000
8993		-41.015625
8994		-42.968750
8995		-39.062500
8996		-41.015625
8997		-37.109375
8998		-39.062500
8999		-33.203125
9000		-37.109375
9001		-31.250000
9002		-33.203125
9003		-27.343750
9004		-29.296875
9005		-25.390625
9006		-25.390625
9007		-21.484375
9008		-23.437500
9009		-17.578125
9010		-21.484375
9011		-15.625000
9012		-17.578125
9013		-11.718750
9014		-13.671875
9015		-7.812500
9016		-9.765625
9017		-5.859375
9018		-5.859375
9019		-1.953125
9020		-3.906250
9021		1.953125
9022		-1.953125
9023		5.859375
9024		3.906250
9025		7.812500
9026		7.812500
9027		11.718750
9028		9.765625
9029		15.625000
9030		13.671875
9031		19.531250
9032		15.625000
9033		23.437500
9034		19.531250
9035		25.390625
9036		23.437500
9037		29.296875
9038		27.343750
9039		31.250000
9040		31.250000
9041		35.156250
9042		33.203125
9043		37.109375
9044		35.156250
9045		41.015625
9046		39.062500
9047		44.921875
9048		42.968750
9049		46.875000
9050		44.921875
9051		48.828125
9052		46.875000
9053		52.734375
9054		50.781250
9055		54.687500
9056		52.734375
9057		56.640625
9058		54.687500
9059		58.593750
9060		56.640625
9061		60.546875
9062		58.593750
9063		62.500000
9064		60.546875
9065		64.453125
9066		62.500000
9067		66.406250
9068		64.453125
9069		68.359375
9070		66.406250
9071		68.359375
9072		66.406250
9073		70.312500
9074		68.359375
9075		72.265625
9076		68.359375
9077		74.218750
9078		70.312500
9079		74.218750
9080		70.312500
9081		74.218750
9082		72.265625
9083		74.218750
9084		72.265625
9085		76.171875
9086		72.265625
9087		76.171875
9088		72.265625
9089		76.171875
9090		72.265625
9091		76.171875
9092		72.265625
9093		76.171875
9094		72.265625
9095		76.171875
9096		72.265625
9097		74.218750
9098		70.312500
9099		74.218750
9100		70.312500
9101		74.218750
9102		68.359375
9103		72.265625
9104		68.359375
9105		72.265625
9106		66.406250
9107		72.265625
9108		66.406250
9109		68.359375
9110		62.500000
9111		68.359375
9112		62.500000
9113		66.406250
9114		60.546875
9115		64.453125
9116		58.593750
9117		62.500000
9118		56.640625
9119		60.546875
9120		54.687500
9121		58.593750
9122		52.734375
9123		56.640625
9124		48.828125
9125		52.734375
9126		46.875000
9127		50.781250
9128		44.921875
9129		48.828125
9130		41.015625
9131		46.875000
9132		39.062500
9133		42.968750
9134		35.156250
9135		41.015625
9136		31.250000
9137		37.109375
9138		29.296875
9139		35.156250
9140		25.390625
9141		31.250000
9142		23.437500
9143		27.343750
9144		19.531250
9145		25.390625
9146		15.625000
9147		21.484375
9148		13.671875
9149		17.578125
9150		9.765625
9151		15.625000
9152		5.859375
9153		11.718750
9154		1.953125
9155		7.812500
9156		0.000000
9157		3.906250
9158		-3.906250
9159		0.000000
9160		-7.812500
9161		-1.953125
9162		-11.718750
9163		-5.859375
9164		-13.671875
9165		-9.765625
9166		-17.578125
9167		-11.718750
9168		-21.484375
9169		-15.625000
9170		-23.437500
9171		-19.531250
9172		-29.296875
9173		-23.437500
9174		-31.250000
9175		-25.390625
9176		-33.203125
9177		-29.296875
9178		-37.109375
9179		-31.250000
9180		-39.062500
9181		-35.156250
9182		-42.968750
9183		-37.109375
9184		-44.921875
9185		-41.015625
9186		-46.875000
9187		-42.968750
9188		-48.828125
9189		-44.921875
9190		-50.781250
9191		-46.875000
9192		-52.734375
9193		-48.828125
9194		-56.640625
9195		-50.781250
9196		-56.640625
9197		-52.734375
9198		-58.593750
9199		-54.687500
9200		-60.546875
9201		-56.640625
9202		-60.546875
9203		-58.593750
9204		-62.500000
9205		-58.593750
9206		-62.500000
9207		-60.546875
9208		-64.453125
9209		-60.546875
9210		-64.453125
9211		-62.500000
9212		-64.453125
9213		-60.546875
9214		-64.453125
9215		-60.546875
9216		-64.453125
9217		-62.500000
9218		-64.453125
9219		-60.546875
9220		-64.453125
9221		-60.546875
9222		-62.500000
9223		-60.546875
9224		-64.453125
9225		-60.546875
9226		-62.500000
9227		-58.593750
9228		-60.546875
9229		-56.640625
9230		-58.593750
9231		-56.640625
9232		-58.593750
9233		-54.687500
9234		-56.640625
9235		-52.734375
9236		-54.687500
9237		-50.781250
9238		-52.734375
9239		-48.828125
9240		-50.781250
9241		-44.921875
9242		-48.828125
9243		-44.921875
9244		-46.875000
9245		-41.015625
9246		-42.968750
9247		-39.062500
9248		-41.015625
9249		-37.109375
9250		-39.062500
9251		-33.203125
9252		-35.156250
9253		-31.250000
9254		-33.203125
9255		-27.343750
9256		-29.296875
9257		-23.437500
9258		-27.343750
9259		-21.484375
9260		-23.437500
9261		-17.578125
9262		-19.531250
9263		-15.625000
9264		-15.625000
9265		-11.718750
9266		-13.671875
9267		-7.812500
9268		-9.765625
9269		-5.859375
9270		-7.812500
9271		-1.953125
9272		-3.906250
9273		1.953125
9274		0.000000
9275		5.859375
9276		3.906250
9277		7.812500
9278		7.812500
9279		13.671875
9280		11.718750
9281		15.625000
9282		13.671875
9283		19.531250
9284		17.578125
9285		21.484375
9286		19.531250
9287		25.390625
9288		23.437500
9289		29.296875
9290		25.390625
9291		33.203125
9292		29.296875
9293		35.156250
9294		33.203125
9295		37.109375
9296		35.156250
9297		41.015625
9298		39.062500
9299		44.921875
9300		42.968750
9301		46.875000
9302		44.921875
9303		48.828125
9304		46.875000
9305		52.734375
9306		48.828125
9307		54.687500
9308		50.781250
9309		56.640625
9310		54.687500
9311		58.593750
9312		56.640625
9313		60.546875
9314		58.593750
9315		62.500000
9316		60.546875
9317		64.453125
9318		62.500000
9319		66.406250
9320		64.453125
9321		68.359375
9322		64.453125
9323		68.359375
9324		66.406250
9325		70.312500
9326		68.359375
9327		70.312500
9328		68.359375
9329		74.218750
9330		70.312500
9331		74.218750
9332		70.312500
9333		74.218750
9334		72.265625
9335		74.218750
9336		72.265625
9337		74.218750
9338		72.265625
9339		74.218750
9340		72.265625
9341		76.171875
9342		72.265625
9343		74.218750
9344		72.265625
9345		74.218750
9346		70.312500
9347		74.218750
9348		70.312500
9349		74.218750
9350		70.312500
9351		74.218750
9352		70.312500
9353		72.265625
9354		68.359375
9355		72.265625
9356		66.406250
9357		72.265625
9358		66.406250
9359		70.312500
9360		64.453125
9361		68.359375
9362		62.500000
9363		66.406250
9364		60.546875
9365		64.453125
9366		58.593750
9367		64.453125
9368		58.593750
9369		60.546875
9370		54.687500
9371		60.546875
9372		52.734375
9373		56.640625
9374		50.781250
9375		54.687500
9376		48.828125
9377		52.734375
9378		44.921875
9379		50.781250
9380		42.968750
9381		48.828125
9382		39.062500
9383		44.921875
9384		37.109375
9385		42.968750
9386		33.203125
9387		39.062500
9388		31.250000
9389		37.109375
9390		27.343750
9391		33.203125
9392		25.390625
9393		31.250000
9394		21.484375
9395		27.343750
9396		19.531250
9397		23.437500
9398		15.625000
9399		19.531250
9400		11.718750
9401		17.578125
9402		7.812500
9403		13.671875
9404		3.906250
9405		9.765625
9406		1.953125
9407		7.812500
9408		-1.953125
9409		1.953125
9410		-5.859375
9411		0.000000
9412		-9.765625
9413		-3.906250
9414		-13.671875
9415		-7.812500
9416		-15.625000
9417		-11.718750
9418		-19.531250
9419		-13.671875
9420		-21.484375
9421		-17.578125
9422		-25.390625
9423		-19.531250
9424		-29.296875
9425		-23.437500
9426		-31.250000
9427		-27.343750
9428		-35.156250
9429		-29.296875
9430		-39.062500
9431		-33.203125
9432		-41.015625
9433		-35.156250
9434		-42.968750
9435		-39.062500
9436		-44.921875
9437		-41.015625
9438		-48.828125
9439		-42.968750
9440		-50.781250
9441		-46.875000
9442		-52.734375
9443		-48.828125
9444		-54.687500
9445		-50.781250
9446		-56.640625
9447		-52.734375
9448		-58.593750
9449		-52.734375
9450		-60.546875
9451		-56.640625
9452		-60.546875
9453		-56.640625
9454		-62.500000
9455		-58.593750
9456		-62.500000
9457		-60.546875
9458		-64.453125
9459		-60.546875
9460		-64.453125
9461		-60.546875
9462		-64.453125
9463		-62.500000
9464		-64.453125
9465		-60.546875
9466		-66.406250
9467		-62.500000
9468		-64.453125
9469		-62.500000
9470		-64.453125
9471		-62.500000
9472		-64.453125
9473		-60.546875
9474		-64.453125
9475		-60.546875
9476		-62.500000
9477		-58.593750
9478		-62.500000
9479		-58.593750
9480		-62.500000
9481		-56.640625
9482		-60.546875
9483		-54.687500
9484		-58.593750
9485		-54.687500
9486		-56.640625
9487		-52.734375
9488		-54.687500
9489		-50.781250
9490		-52.734375
9491		-48.828125
9492		-50.781250
9493		-46.875000
9494		-48.828125
9495		-44.921875
9496		-46.875000
9497		-41.015625
9498		-42.968750
9499		-39.062500
9500		-41.015625
9501		-37.109375
9502		-39.062500
9503		-33.203125
9504		-35.156250
9505		-31.250000
9506		-33.203125
9507		-27.343750
9508		-29.296875
9509		-23.437500
9510		-25.390625
9511		-21.484375
9512		-23.437500
9513		-17.578125
9514		-19.531250
9515		-15.625000
9516		-17.578125
9517		-11.718750
9518		-13.671875
9519		-7.812500
9520		-9.765625
9521		-5.859375
9522		-5.859375
9523		0.000000
9524		-3.906250
9525		1.953125
9526		0.000000
9527		5.859375
9528		3.906250
9529		7.812500
9530		7.812500
9531		13.671875
9532		11.718750
9533		15.625000
9534		13.671875
9535		19.531250
9536		17.578125
9537		23.437500
9538		19.531250
9539		25.390625
9540		23.437500
9541		29.296875
9542		27.343750
9543		33.203125
9544		31.250000
9545		35.156250
9546		33.203125
9547		37.109375
9548		35.156250
9549		41.015625
9550		39.062500
9551		42.968750
9552		41.015625
9553		46.875000
9554		44.921875
9555		48.828125
9556		46.875000
9557		50.781250
9558		50.781250
9559		54.687500
9560		52.734375
9561		56.640625
9562		54.687500
9563		58.593750
9564		56.640625
9565		60.546875
9566		58.593750
9567		62.500000
9568		60.546875
9569		64.453125
9570		62.500000
9571		66.406250
9572		64.453125
9573		68.359375
9574		64.453125
9575		70.312500
9576		66.406250
9577		70.312500
9578		68.359375
9579		70.312500
9580		68.359375
9581		72.265625
9582		70.312500
9583		74.218750
9584		70.312500
9585		74.218750
9586		72.265625
9587		74.218750
9588		70.312500
9589		74.218750
9590		72.265625
9591		76.171875
9592		70.312500
9593		76.171875
9594		72.265625
9595		74.218750
9596		72.265625
9597		74.218750
9598		72.265625
9599		74.218750
9600		70.312500
9601		74.218750
9602		70.312500
9603		74.218750
9604		68.359375
9605		72.265625
9606		68.359375
9607		72.265625
9608		66.406250
9609		70.312500
9610		66.406250
9611		70.312500
9612		64.453125
9613		68.359375
9614		62.500000
9615		66.406250
9616		60.546875
9617		64.453125
9618		58.593750
9619		62.500000
9620		56.640625
9621		60.546875
9622		54.687500
9623		58.593750
9624		52.734375
9625		56.640625
9626		50.781250
9627		54.687500
9628		48.828125
9629		52.734375
9630		44.921875
9631		48.828125
9632		41.015625
9633		48.828125
9634		39.062500
9635		44.921875
9636		37.109375
9637		41.015625
9638		33.203125
9639		39.062500
9640		31.250000
9641		35.156250
9642		27.343750
9643		31.250000
9644		23.437500
9645		29.296875
9646		21.484375
9647		25.390625
9648		17.578125
9649		23.437500
9650		13.671875
9651		19.531250
9652		9.765625
9653		15.625000
9654		5.859375
9655		13.671875
9656		3.906250
9657		9.765625
9658		0.000000
9659		5.859375
9660		-1.953125
9661		1.953125
9662		-5.859375
9663		-1.953125
9664		-9.765625
9665		-5.859375
9666		-13.671875
9667		-7.812500
9668		-17.578125
9669		-9.765625
9670		-19.531250
9671		-15.625000
9672		-23.437500
9673		-17.578125
9674		-27.343750
9675		-21.484375
9676		-31.250000
9677		-25.390625
9678		-33.203125
9679		-27.343750
9680		-35.156250
9681		-31.250000
9682		-39.062500
9683		-33.203125
9684		-41.015625
9685		-37.109375
9686		-42.968750
9687		-39.062500
9688		-46.875000
9689		-41.015625
9690		-48.828125
9691		-44.921875
9692		-50.781250
9693		-46.875000
9694		-52.734375
9695		-48.828125
9696		-54.687500
9697		-50.781250
9698		-58.593750
9699		-52.734375
9700		-58.593750
9701		-54.687500
9702		-60.546875
9703		-56.640625
9704		-60.546875
9705		-58.593750
9706		-62.500000
9707		-58.593750
9708		-64.453125
9709		-60.546875
9710		-64.453125
9711		-60.546875
9712		-64.453125
9713		-62.500000
9714		-64.453125
9715		-62.500000
9716		-66.406250
9717		-62.500000
9718		-66.406250
9719		-62.500000
9720		-66.406250
9721		-62.500000
9722		-64.453125
9723		-62.500000
9724		-64.453125
9725		-60.546875
9726		-64.453125
9727		-60.546875
9728		-64.453125
9729		-60.546875
9730		-62.500000
9731		-58.593750
9732		-60.546875
9733		-56.640625
9734		-60.546875
9735		-56.640625
9736		-58.593750
9737		-54.687500
9738		-56.640625
9739		-52.734375
9740		-54.687500
9741		-50.781250
9742		-52.734375
9743		-46.875000
9744		-50.781250
9745		-46.875000
9746		-48.828125
9747		-42.968750
9748		-44.921875
9749		-41.015625
9750		-44.921875
9751		-39.062500
9752		-41.015625
9753		-35.156250
9754		-37.109375
9755		-33.203125
9756		-35.156250
9757		-31.250000
9758		-31.250000
9759		-27.343750
9760		-29.296875
9761		-23.437500
9762		-25.390625
9763		-21.484375
9764		-23.437500
9765		-17.578125
9766		-19.531250
9767		-13.671875
9768		-15.625000
9769		-9.765625
9770		-13.671875
9771		-7.812500
9772		-9.765625
9773		-3.906250
9774		-5.859375
9775		-1.953125
9776		-1.953125
9777		1.953125
9778		1.953125
9779		5.859375
9780		3.906250
9781		9.765625
9782		7.812500
9783		13.671875
9784		11.718750
9785		15.625000
9786		15.625000
9787		19.531250
9788		17.578125
9789		23.437500
9790		21.484375
9791		25.390625
9792		23.437500
9793		29.296875
9794		27.343750
9795		33.203125
9796		31.250000
9797		35.156250
9798		33.203125
9799		39.062500
9800		37.109375
9801		41.015625
9802		39.062500
9803		44.921875
9804		42.968750
9805		46.875000
9806		44.921875
9807		48.828125
9808		46.875000
9809		52.734375
9810		50.781250
9811		54.687500
9812		50.781250
9813		56.640625
9814		54.687500
9815		58.593750
9816		56.640625
9817		60.546875
9818		58.593750
9819		62.500000
9820		60.546875
9821		64.453125
9822		62.500000
9823		66.406250
9824		64.453125
9825		68.359375
9826		66.406250
9827		70.312500
9828		66.406250
9829		70.312500
9830		68.359375
9831		70.312500
9832		70.312500
9833		72.265625
9834		68.359375
9835		74.218750
9836		70.312500
9837		74.218750
9838		70.312500
9839		74.218750
9840		72.265625
9841		74.218750
9842		72.265625
9843		74.218750
9844		72.265625
9845		76.171875
9846		70.312500
9847		74.218750
9848		72.265625
9849		74.218750
9850		70.312500
9851		74.218750
9852		70.312500
9853		74.218750
9854		70.312500
9855		74.218750
9856		68.359375
9857		72.265625
9858		66.406250
9859		70.312500
9860		66.406250
9861		70.312500
9862		64.453125
9863		68.359375
9864		64.453125
9865		66.406250
9866		62.500000
9867		66.406250
9868		60.546875
9869		64.453125
9870		58.593750
9871		62.500000
9872		56.640625
9873		60.546875
9874		54.687500
9875		58.593750
9876		50.781250
9877		56.640625
9878		48.828125
9879		54.687500
9880		46.875000
9881		50.781250
9882		44.921875
9883		48.828125
9884		41.015625
9885		46.875000
9886		39.062500
9887		42.968750
9888		35.156250
9889		41.015625
9890		33.203125
9891		37.109375
9892		29.296875
9893		35.156250
9894		27.343750
9895		31.250000
9896		23.437500
9897		29.296875
9898		19.531250
9899		25.390625
9900		15.625000
9901		21.484375
9902		13.671875
9903		17.578125
9904		9.765625
9905		15.625000
9906		5.859375
9907		11.718750
9908		1.953125
9909		7.812500
9910		0.000000
9911		3.906250
9912		-3.906250
9913		1.953125
9914		-7.812500
9915		-1.953125
9916		-11.718750
9917		-5.859375
9918		-13.671875
9919		-7.812500
9920		-17.578125
9921		-11.718750
9922		-21.484375
9923		-15.625000
9924		-23.437500
9925		-19.531250
9926		-27.343750
9927		-21.484375
9928		-31.250000
9929		-25.390625
9930		-33.203125
9931		-27.343750
9932		-37.109375
9933		-31.250000
9934		-39.062500
9935		-35.156250
9936		-41.015625
9937		-37.109375
9938		-44.921875
9939		-41.015625
9940		-46.875000
9941		-42.968750
9942		-48.828125
9943		-44.921875
9944		-50.781250
9945		-46.875000
9946		-54.687500
9947		-48.828125
9948		-54.687500
9949		-52.734375
9950		-58.593750
9951		-54.687500
9952		-58.593750
9953		-54.687500
9954		-60.546875
9955		-56.640625
9956		-62.500000
9957		-58.593750
9958		-62.500000
9959		-60.546875
9960		-64.453125
9961		-60.546875
9962		-64.453125
9963		-60.546875
9964		-64.453125
9965		-62.500000
9966		-64.453125
9967		-62.500000
9968		-66.406250
9969		-62.500000
9970		-66.406250
9971		-62.500000
9972		-66.406250
9973		-62.500000
9974		-64.453125
9975		-62.500000
9976		-64.453125
9977		-60.546875
9978		-64.453125
9979		-60.546875
9980		-62.500000
9981		-58.593750
9982		-62.500000
9983		-58.593750
9984		-60.546875
9985		-56.640625
9986		-60.546875
9987		-54.687500
9988		-58.593750
9989		-54.687500
9990		-56.640625
9991		-52.734375
9992		-54.687500
9993		-50.781250
9994		-52.734375
9995		-48.828125
9996		-50.781250
9997		-44.921875
9998		-46.875000
9999		-42.968750
10000		-44.921875
