Channel              :		CH1
Frequency            :		1.982kHz
Period               :		0.505ms
PK-PK                :		216.8mV
Probe attenuation    :		1X
Voltage per ADC value:		0.122070mV
Time interval        :		2.00000us

index		CH1_Voltage(mV)
1		91.796875
2		91.796875
3		95.703125
4		93.750000
5		97.656250
6		95.703125
7		99.609375
8		97.656250
9		101.562500
10		99.609375
11		103.515625
12		101.562500
13		105.468750
14		101.562500
15		105.468750
16		103.515625
17		107.421875
18		105.468750
19		109.375000
20		105.468750
21		109.375000
22		105.468750
23		109.375000
24		107.421875
25		109.375000
26		105.468750
27		109.375000
28		107.421875
29		109.375000
30		105.468750
31		109.375000
32		105.468750
33		107.421875
34		105.468750
35		107.421875
36		103.515625
37		107.421875
38		101.562500
39		105.468750
40		101.562500
41		103.515625
42		99.609375
43		103.515625
44		97.656250
45		101.562500
46		95.703125
47		99.609375
48		93.750000
49		97.656250
50		91.796875
51		95.703125
52		87.890625
53		91.796875
54		85.937500
55		89.843750
56		82.031250
57		87.890625
58		78.125000
59		83.984375
60		76.171875
61		80.078125
62		72.265625
63		78.125000
64		68.359375
65		72.265625
66		64.453125
67		70.312500
68		58.593750
69		66.406250
70		56.640625
71		62.500000
72		50.781250
73		58.593750
74		46.875000
75		52.734375
76		42.968750
77		48.828125
78		37.109375
79		42.968750
80		31.250000
81		39.062500
82		27.343750
83		33.203125
84		21.484375
85		29.296875
86		17.578125
87		23.437500
88		11.718750
89		19.531250
90		5.859375
91		13.671875
92		1.953125
93		7.812500
94		-3.906250
95		3.906250
96		-7.812500
97		-1.953125
98		-13.671875
99		-7.812500
100		-19.531250
101		-11.718750
102		-23.437500
103		-17.578125
104		-29.296875
105		-21.484375
106		-33.203125
107		-27.343750
108		-39.062500
109		-31.250000
110		-42.968750
111		-37.109375
112		-48.828125
113		-42.968750
114		-52.734375
115		-46.875000
116		-56.640625
117		-50.781250
118		-60.546875
119		-54.687500
120		-64.453125
121		-58.593750
122		-68.359375
123		-64.453125
124		-72.265625
125		-66.406250
126		-76.171875
127		-70.312500
128		-78.125000
129		-74.218750
130		-82.031250
131		-78.125000
132		-83.984375
133		-80.078125
134		-85.937500
135		-83.984375
136		-89.843750
137		-85.937500
138		-91.796875
139		-87.890625
140		-91.796875
141		-87.890625
142		-93.750000
143		-89.843750
144		-95.703125
145		-91.796875
146		-95.703125
147		-93.750000
148		-97.656250
149		-93.750000
150		-97.656250
151		-93.750000
152		-97.656250
153		-95.703125
154		-97.656250
155		-93.750000
156		-97.656250
157		-93.750000
158		-95.703125
159		-91.796875
160		-95.703125
161		-91.796875
162		-93.750000
163		-89.843750
164		-91.796875
165		-87.890625
166		-89.843750
167		-85.937500
168		-87.890625
169		-83.984375
170		-85.937500
171		-82.031250
172		-83.984375
173		-78.125000
174		-80.078125
175		-76.171875
176		-78.125000
177		-72.265625
178		-74.218750
179		-68.359375
180		-70.312500
181		-66.406250
182		-68.359375
183		-62.500000
184		-62.500000
185		-58.593750
186		-58.593750
187		-52.734375
188		-54.687500
189		-48.828125
190		-50.781250
191		-44.921875
192		-46.875000
193		-41.015625
194		-41.015625
195		-35.156250
196		-37.109375
197		-31.250000
198		-31.250000
199		-25.390625
200		-27.343750
201		-21.484375
202		-21.484375
203		-15.625000
204		-17.578125
205		-9.765625
206		-11.718750
207		-5.859375
208		-7.812500
209		0.000000
210		-1.953125
211		5.859375
212		3.906250
213		9.765625
214		7.812500
215		15.625000
216		13.671875
217		19.531250
218		19.531250
219		25.390625
220		23.437500
221		29.296875
222		29.296875
223		35.156250
224		33.203125
225		41.015625
226		39.062500
227		44.921875
228		42.968750
229		48.828125
230		48.828125
231		54.687500
232		52.734375
233		58.593750
234		56.640625
235		62.500000
236		60.546875
237		66.406250
238		62.500000
239		70.312500
240		68.359375
241		74.218750
242		72.265625
243		78.125000
244		76.171875
245		80.078125
246		80.078125
247		83.984375
248		82.031250
249		87.890625
250		83.984375
251		89.843750
252		87.890625
253		91.796875
254		91.796875
255		95.703125
256		93.750000
257		97.656250
258		95.703125
259		99.609375
260		97.656250
261		101.562500
262		99.609375
263		103.515625
264		101.562500
265		105.468750
266		101.562500
267		105.468750
268		103.515625
269		107.421875
270		105.468750
271		109.375000
272		105.468750
273		109.375000
274		105.468750
275		109.375000
276		105.468750
277		109.375000
278		107.421875
279		109.375000
280		105.468750
281		109.375000
282		105.468750
283		109.375000
284		105.468750
285		107.421875
286		105.468750
287		107.421875
288		103.515625
289		107.421875
290		101.562500
291		105.468750
292		99.609375
293		105.468750
294		99.609375
295		103.515625
296		97.656250
297		101.562500
298		95.703125
299		99.609375
300		93.750000
301		97.656250
302		91.796875
303		95.703125
304		87.890625
305		91.796875
306		85.937500
307		89.843750
308		82.031250
309		87.890625
310		78.125000
311		83.984375
312		74.218750
313		80.078125
314		70.312500
315		76.171875
316		68.359375
317		74.218750
318		64.453125
319		70.312500
320		60.546875
321		64.453125
322		54.687500
323		62.500000
324		50.781250
325		56.640625
326		46.875000
327		52.734375
328		42.968750
329		48.828125
330		37.109375
331		42.968750
332		31.250000
333		39.062500
334		27.343750
335		35.156250
336		21.484375
337		29.296875
338		17.578125
339		23.437500
340		11.718750
341		19.531250
342		5.859375
343		13.671875
344		1.953125
345		7.812500
346		-3.906250
347		1.953125
348		-7.812500
349		-1.953125
350		-13.671875
351		-7.812500
352		-19.531250
353		-13.671875
354		-25.390625
355		-17.578125
356		-29.296875
357		-23.437500
358		-33.203125
359		-27.343750
360		-39.062500
361		-31.250000
362		-42.968750
363		-37.109375
364		-48.828125
365		-41.015625
366		-52.734375
367		-46.875000
368		-56.640625
369		-50.781250
370		-60.546875
371		-54.687500
372		-64.453125
373		-60.546875
374		-68.359375
375		-64.453125
376		-72.265625
377		-66.406250
378		-76.171875
379		-70.312500
380		-78.125000
381		-74.218750
382		-82.031250
383		-78.125000
384		-83.984375
385		-80.078125
386		-85.937500
387		-83.984375
388		-89.843750
389		-85.937500
390		-91.796875
391		-87.890625
392		-93.750000
393		-87.890625
394		-93.750000
395		-91.796875
396		-95.703125
397		-91.796875
398		-95.703125
399		-93.750000
400		-97.656250
401		-93.750000
402		-97.656250
403		-95.703125
404		-97.656250
405		-95.703125
406		-97.656250
407		-93.750000
408		-97.656250
409		-91.796875
410		-95.703125
411		-91.796875
412		-95.703125
413		-91.796875
414		-93.750000
415		-89.843750
416		-93.750000
417		-87.890625
418		-91.796875
419		-87.890625
420		-87.890625
421		-83.984375
422		-85.937500
423		-82.031250
424		-83.984375
425		-78.125000
426		-80.078125
427		-76.171875
428		-78.125000
429		-72.265625
430		-74.218750
431		-70.312500
432		-72.265625
433		-66.406250
434		-68.359375
435		-62.500000
436		-64.453125
437		-58.593750
438		-60.546875
439		-52.734375
440		-56.640625
441		-48.828125
442		-50.781250
443		-44.921875
444		-46.875000
445		-41.015625
446		-41.015625
447		-35.156250
448		-37.109375
449		-31.250000
450		-33.203125
451		-25.390625
452		-27.343750
453		-21.484375
454		-21.484375
455		-15.625000
456		-17.578125
457		-9.765625
458		-11.718750
459		-5.859375
460		-7.812500
461		0.000000
462		-1.953125
463		3.906250
464		1.953125
465		9.765625
466		7.812500
467		15.625000
468		13.671875
469		19.531250
470		17.578125
471		25.390625
472		23.437500
473		31.250000
474		29.296875
475		35.156250
476		33.203125
477		39.062500
478		39.062500
479		44.921875
480		42.968750
481		48.828125
482		46.875000
483		52.734375
484		52.734375
485		58.593750
486		56.640625
487		62.500000
488		60.546875
489		66.406250
490		64.453125
491		70.312500
492		68.359375
493		74.218750
494		72.265625
495		76.171875
496		76.171875
497		80.078125
498		78.125000
499		83.984375
500		82.031250
501		85.937500
502		83.984375
503		89.843750
504		87.890625
505		91.796875
506		89.843750
507		95.703125
508		93.750000
509		97.656250
510		95.703125
511		99.609375
512		97.656250
513		101.562500
514		99.609375
515		103.515625
516		101.562500
517		105.468750
518		101.562500
519		105.468750
520		103.515625
521		107.421875
522		103.515625
523		109.375000
524		105.468750
525		109.375000
526		105.468750
527		109.375000
528		107.421875
529		109.375000
530		105.468750
531		109.375000
532		107.421875
533		109.375000
534		105.468750
535		109.375000
536		105.468750
537		107.421875
538		105.468750
539		107.421875
540		103.515625
541		107.421875
542		101.562500
543		105.468750
544		101.562500
545		105.468750
546		99.609375
547		103.515625
548		97.656250
549		101.562500
550		95.703125
551		99.609375
552		93.750000
553		97.656250
554		89.843750
555		95.703125
556		87.890625
557		91.796875
558		83.984375
559		89.843750
560		82.031250
561		85.937500
562		80.078125
563		83.984375
564		76.171875
565		80.078125
566		72.265625
567		76.171875
568		66.406250
569		74.218750
570		64.453125
571		68.359375
572		60.546875
573		64.453125
574		54.687500
575		60.546875
576		50.781250
577		56.640625
578		46.875000
579		52.734375
580		41.015625
581		46.875000
582		37.109375
583		42.968750
584		31.250000
585		39.062500
586		27.343750
587		35.156250
588		21.484375
589		29.296875
590		17.578125
591		23.437500
592		11.718750
593		17.578125
594		7.812500
595		13.671875
596		1.953125
597		7.812500
598		-3.906250
599		1.953125
600		-9.765625
601		-1.953125
602		-13.671875
603		-7.812500
604		-19.531250
605		-11.718750
606		-25.390625
607		-17.578125
608		-29.296875
609		-23.437500
610		-33.203125
611		-27.343750
612		-39.062500
613		-33.203125
614		-42.968750
615		-37.109375
616		-48.828125
617		-41.015625
618		-54.687500
619		-46.875000
620		-56.640625
621		-50.781250
622		-60.546875
623		-54.687500
624		-64.453125
625		-60.546875
626		-68.359375
627		-62.500000
628		-72.265625
629		-68.359375
630		-76.171875
631		-70.312500
632		-80.078125
633		-72.265625
634		-82.031250
635		-78.125000
636		-83.984375
637		-80.078125
638		-87.890625
639		-83.984375
640		-89.843750
641		-85.937500
642		-91.796875
643		-87.890625
644		-93.750000
645		-89.843750
646		-93.750000
647		-91.796875
648		-95.703125
649		-91.796875
650		-97.656250
651		-93.750000
652		-97.656250
653		-93.750000
654		-97.656250
655		-93.750000
656		-97.656250
657		-95.703125
658		-97.656250
659		-93.750000
660		-99.609375
661		-91.796875
662		-97.656250
663		-91.796875
664		-95.703125
665		-89.843750
666		-95.703125
667		-89.843750
668		-91.796875
669		-87.890625
670		-89.843750
671		-85.937500
672		-87.890625
673		-83.984375
674		-85.937500
675		-82.031250
676		-85.937500
677		-78.125000
678		-83.984375
679		-74.218750
680		-78.125000
681		-72.265625
682		-76.171875
683		-68.359375
684		-72.265625
685		-64.453125
686		-68.359375
687		-62.500000
688		-62.500000
689		-58.593750
690		-60.546875
691		-52.734375
692		-58.593750
693		-48.828125
694		-52.734375
695		-42.968750
696		-48.828125
697		-39.062500
698		-44.921875
699		-35.156250
700		-39.062500
701		-31.250000
702		-33.203125
703		-25.390625
704		-27.343750
705		-21.484375
706		-21.484375
707		-15.625000
708		-17.578125
709		-9.765625
710		-13.671875
711		-3.906250
712		-7.812500
713		0.000000
714		-3.906250
715		5.859375
716		0.000000
717		11.718750
718		5.859375
719		15.625000
720		13.671875
721		19.531250
722		19.531250
723		25.390625
724		23.437500
725		31.250000
726		27.343750
727		37.109375
728		31.250000
729		41.015625
730		35.156250
731		46.875000
732		41.015625
733		50.781250
734		44.921875
735		56.640625
736		50.781250
737		58.593750
738		56.640625
739		62.500000
740		60.546875
741		66.406250
742		62.500000
743		70.312500
744		66.406250
745		74.218750
746		70.312500
747		78.125000
748		72.265625
749		82.031250
750		78.125000
751		85.937500
752		80.078125
753		87.890625
754		83.984375
755		89.843750
756		87.890625
757		91.796875
758		91.796875
759		95.703125
760		91.796875
761		99.609375
762		93.750000
763		101.562500
764		95.703125
765		103.515625
766		97.656250
767		105.468750
768		99.609375
769		105.468750
770		101.562500
771		107.421875
772		103.515625
773		107.421875
774		105.468750
775		107.421875
776		103.515625
777		109.375000
778		103.515625
779		111.328125
780		103.515625
781		111.328125
782		103.515625
783		111.328125
784		103.515625
785		111.328125
786		103.515625
787		111.328125
788		105.468750
789		107.421875
790		105.468750
791		107.421875
792		101.562500
793		107.421875
794		99.609375
795		109.375000
796		99.609375
797		105.468750
798		97.656250
799		105.468750
800		95.703125
801		103.515625
802		93.750000
803		101.562500
804		93.750000
805		99.609375
806		89.843750
807		93.750000
808		85.937500
809		91.796875
810		82.031250
811		91.796875
812		80.078125
813		87.890625
814		76.171875
815		85.937500
816		72.265625
817		82.031250
818		70.312500
819		78.125000
820		66.406250
821		76.171875
822		62.500000
823		68.359375
824		58.593750
825		64.453125
826		54.687500
827		60.546875
828		48.828125
829		58.593750
830		44.921875
831		54.687500
832		41.015625
833		48.828125
834		35.156250
835		44.921875
836		31.250000
837		39.062500
838		27.343750
839		35.156250
840		21.484375
841		27.343750
842		13.671875
843		23.437500
844		9.765625
845		19.531250
846		5.859375
847		13.671875
848		0.000000
849		9.765625
850		-5.859375
851		5.859375
852		-9.765625
853		0.000000
854		-13.671875
855		-3.906250
856		-19.531250
857		-13.671875
858		-25.390625
859		-17.578125
860		-31.250000
861		-21.484375
862		-37.109375
863		-27.343750
864		-41.015625
865		-31.250000
866		-46.875000
867		-35.156250
868		-50.781250
869		-41.015625
870		-54.687500
871		-44.921875
872		-56.640625
873		-50.781250
874		-60.546875
875		-56.640625
876		-68.359375
877		-60.546875
878		-70.312500
879		-62.500000
880		-74.218750
881		-66.406250
882		-78.125000
883		-68.359375
884		-82.031250
885		-72.265625
886		-83.984375
887		-76.171875
888		-85.937500
889		-78.125000
890		-87.890625
891		-83.984375
892		-91.796875
893		-83.984375
894		-93.750000
895		-85.937500
896		-95.703125
897		-87.890625
898		-97.656250
899		-89.843750
900		-97.656250
901		-89.843750
902		-99.609375
903		-91.796875
904		-99.609375
905		-91.796875
906		-97.656250
907		-95.703125
908		-97.656250
909		-95.703125
910		-99.609375
911		-93.750000
912		-99.609375
913		-91.796875
914		-99.609375
915		-89.843750
916		-97.656250
917		-89.843750
918		-95.703125
919		-89.843750
920		-95.703125
921		-85.937500
922		-93.750000
923		-85.937500
924		-87.890625
925		-83.984375
926		-87.890625
927		-80.078125
928		-85.937500
929		-76.171875
930		-83.984375
931		-74.218750
932		-80.078125
933		-72.265625
934		-76.171875
935		-68.359375
936		-74.218750
937		-64.453125
938		-70.312500
939		-62.500000
940		-64.453125
941		-58.593750
942		-58.593750
943		-54.687500
944		-56.640625
945		-46.875000
946		-52.734375
947		-42.968750
948		-48.828125
949		-39.062500
950		-42.968750
951		-33.203125
952		-39.062500
953		-29.296875
954		-35.156250
955		-23.437500
956		-29.296875
957		-21.484375
958		-21.484375
959		-15.625000
960		-17.578125
961		-7.812500
962		-13.671875
963		-3.906250
964		-9.765625
965		1.953125
966		-3.906250
967		5.859375
968		1.953125
969		11.718750
970		5.859375
971		15.625000
972		11.718750
973		19.531250
974		19.531250
975		25.390625
976		23.437500
977		31.250000
978		27.343750
979		37.109375
980		33.203125
981		42.968750
982		37.109375
983		44.921875
984		41.015625
985		50.781250
986		44.921875
987		54.687500
988		48.828125
989		58.593750
990		56.640625
991		62.500000
992		60.546875
993		66.406250
994		64.453125
995		72.265625
996		66.406250
997		76.171875
998		70.312500
999		80.078125
1000		74.218750
1001		82.031250
1002		76.171875
1003		85.937500
1004		80.078125
1005		89.843750
1006		83.984375
1007		89.843750
1008		87.890625
1009		91.796875
1010		89.843750
1011		97.656250
1012		91.796875
1013		99.609375
1014		93.750000
1015		101.562500
1016		95.703125
1017		103.515625
1018		97.656250
1019		103.515625
1020		97.656250
1021		105.468750
1022		99.609375
1023		107.421875
1024		103.515625
1025		107.421875
1026		105.468750
1027		107.421875
1028		103.515625
1029		109.375000
1030		103.515625
1031		111.328125
1032		103.515625
1033		111.328125
1034		103.515625
1035		111.328125
1036		103.515625
1037		111.328125
1038		103.515625
1039		111.328125
1040		105.468750
1041		109.375000
1042		105.468750
1043		107.421875
1044		101.562500
1045		107.421875
1046		99.609375
1047		107.421875
1048		97.656250
1049		105.468750
1050		97.656250
1051		105.468750
1052		95.703125
1053		103.515625
1054		93.750000
1055		101.562500
1056		91.796875
1057		97.656250
1058		89.843750
1059		93.750000
1060		85.937500
1061		91.796875
1062		82.031250
1063		91.796875
1064		80.078125
1065		87.890625
1066		76.171875
1067		85.937500
1068		72.265625
1069		82.031250
1070		68.359375
1071		78.125000
1072		66.406250
1073		74.218750
1074		62.500000
1075		68.359375
1076		58.593750
1077		64.453125
1078		52.734375
1079		60.546875
1080		48.828125
1081		58.593750
1082		42.968750
1083		52.734375
1084		39.062500
1085		48.828125
1086		35.156250
1087		44.921875
1088		29.296875
1089		39.062500
1090		27.343750
1091		35.156250
1092		21.484375
1093		27.343750
1094		13.671875
1095		23.437500
1096		7.812500
1097		19.531250
1098		3.906250
1099		15.625000
1100		0.000000
1101		9.765625
1102		-5.859375
1103		5.859375
1104		-11.718750
1105		-1.953125
1106		-15.625000
1107		-5.859375
1108		-19.531250
1109		-13.671875
1110		-25.390625
1111		-17.578125
1112		-31.250000
1113		-21.484375
1114		-37.109375
1115		-27.343750
1116		-42.968750
1117		-31.250000
1118		-46.875000
1119		-35.156250
1120		-50.781250
1121		-41.015625
1122		-54.687500
1123		-44.921875
1124		-56.640625
1125		-50.781250
1126		-62.500000
1127		-56.640625
1128		-68.359375
1129		-60.546875
1130		-72.265625
1131		-62.500000
1132		-76.171875
1133		-66.406250
1134		-78.125000
1135		-70.312500
1136		-82.031250
1137		-72.265625
1138		-83.984375
1139		-76.171875
1140		-85.937500
1141		-78.125000
1142		-87.890625
1143		-83.984375
1144		-91.796875
1145		-85.937500
1146		-93.750000
1147		-85.937500
1148		-95.703125
1149		-87.890625
1150		-97.656250
1151		-89.843750
1152		-99.609375
1153		-91.796875
1154		-99.609375
1155		-91.796875
1156		-99.609375
1157		-91.796875
1158		-97.656250
1159		-95.703125
1160		-97.656250
1161		-95.703125
1162		-99.609375
1163		-91.796875
1164		-99.609375
1165		-91.796875
1166		-99.609375
1167		-91.796875
1168		-97.656250
1169		-89.843750
1170		-95.703125
1171		-89.843750
1172		-95.703125
1173		-87.890625
1174		-93.750000
1175		-85.937500
1176		-89.843750
1177		-85.937500
1178		-85.937500
1179		-80.078125
1180		-85.937500
1181		-78.125000
1182		-83.984375
1183		-74.218750
1184		-80.078125
1185		-72.265625
1186		-76.171875
1187		-66.406250
1188		-74.218750
1189		-64.453125
1190		-70.312500
1191		-62.500000
1192		-64.453125
1193		-58.593750
1194		-60.546875
1195		-54.687500
1196		-56.640625
1197		-48.828125
1198		-52.734375
1199		-42.968750
1200		-48.828125
1201		-39.062500
1202		-44.921875
1203		-33.203125
1204		-39.062500
1205		-29.296875
1206		-33.203125
1207		-23.437500
1208		-27.343750
1209		-21.484375
1210		-23.437500
1211		-15.625000
1212		-17.578125
1213		-7.812500
1214		-15.625000
1215		-3.906250
1216		-9.765625
1217		1.953125
1218		-3.906250
1219		5.859375
1220		1.953125
1221		11.718750
1222		5.859375
1223		17.578125
1224		11.718750
1225		19.531250
1226		19.531250
1227		25.390625
1228		23.437500
1229		31.250000
1230		25.390625
1231		37.109375
1232		31.250000
1233		41.015625
1234		35.156250
1235		44.921875
1236		41.015625
1237		50.781250
1238		46.875000
1239		56.640625
1240		48.828125
1241		58.593750
1242		56.640625
1243		62.500000
1244		60.546875
1245		66.406250
1246		62.500000
1247		72.265625
1248		66.406250
1249		76.171875
1250		68.359375
1251		80.078125
1252		74.218750
1253		82.031250
1254		76.171875
1255		85.937500
1256		80.078125
1257		89.843750
1258		82.031250
1259		89.843750
1260		87.890625
1261		91.796875
1262		89.843750
1263		95.703125
1264		91.796875
1265		99.609375
1266		91.796875
1267		101.562500
1268		95.703125
1269		103.515625
1270		97.656250
1271		103.515625
1272		99.609375
1273		105.468750
1274		99.609375
1275		107.421875
1276		103.515625
1277		105.468750
1278		103.515625
1279		107.421875
1280		103.515625
1281		109.375000
1282		103.515625
1283		109.375000
1284		103.515625
1285		111.328125
1286		103.515625
1287		109.375000
1288		103.515625
1289		111.328125
1290		103.515625
1291		109.375000
1292		105.468750
1293		109.375000
1294		103.515625
1295		107.421875
1296		101.562500
1297		107.421875
1298		99.609375
1299		107.421875
1300		97.656250
1301		105.468750
1302		95.703125
1303		103.515625
1304		95.703125
1305		103.515625
1306		91.796875
1307		99.609375
1308		91.796875
1309		97.656250
1310		89.843750
1311		93.750000
1312		87.890625
1313		91.796875
1314		82.031250
1315		89.843750
1316		80.078125
1317		87.890625
1318		76.171875
1319		83.984375
1320		74.218750
1321		82.031250
1322		68.359375
1323		78.125000
1324		64.453125
1325		74.218750
1326		62.500000
1327		68.359375
1328		58.593750
1329		64.453125
1330		52.734375
1331		60.546875
1332		48.828125
1333		58.593750
1334		44.921875
1335		54.687500
1336		39.062500
1337		48.828125
1338		33.203125
1339		44.921875
1340		29.296875
1341		39.062500
1342		27.343750
1343		35.156250
1344		21.484375
1345		27.343750
1346		15.625000
1347		23.437500
1348		9.765625
1349		19.531250
1350		3.906250
1351		13.671875
1352		-1.953125
1353		9.765625
1354		-7.812500
1355		3.906250
1356		-11.718750
1357		-1.953125
1358		-15.625000
1359		-5.859375
1360		-19.531250
1361		-13.671875
1362		-25.390625
1363		-19.531250
1364		-33.203125
1365		-23.437500
1366		-37.109375
1367		-27.343750
1368		-41.015625
1369		-31.250000
1370		-46.875000
1371		-37.109375
1372		-50.781250
1373		-41.015625
1374		-54.687500
1375		-44.921875
1376		-58.593750
1377		-50.781250
1378		-62.500000
1379		-56.640625
1380		-68.359375
1381		-60.546875
1382		-72.265625
1383		-62.500000
1384		-74.218750
1385		-66.406250
1386		-78.125000
1387		-70.312500
1388		-82.031250
1389		-72.265625
1390		-85.937500
1391		-76.171875
1392		-85.937500
1393		-80.078125
1394		-87.890625
1395		-83.984375
1396		-89.843750
1397		-85.937500
1398		-93.750000
1399		-85.937500
1400		-95.703125
1401		-87.890625
1402		-97.656250
1403		-89.843750
1404		-99.609375
1405		-91.796875
1406		-99.609375
1407		-91.796875
1408		-99.609375
1409		-93.750000
1410		-97.656250
1411		-95.703125
1412		-97.656250
1413		-95.703125
1414		-99.609375
1415		-93.750000
1416		-99.609375
1417		-93.750000
1418		-99.609375
1419		-91.796875
1420		-97.656250
1421		-89.843750
1422		-97.656250
1423		-89.843750
1424		-95.703125
1425		-87.890625
1426		-93.750000
1427		-87.890625
1428		-89.843750
1429		-85.937500
1430		-87.890625
1431		-82.031250
1432		-87.890625
1433		-78.125000
1434		-83.984375
1435		-76.171875
1436		-80.078125
1437		-72.265625
1438		-78.125000
1439		-68.359375
1440		-74.218750
1441		-64.453125
1442		-70.312500
1443		-62.500000
1444		-64.453125
1445		-58.593750
1446		-60.546875
1447		-54.687500
1448		-58.593750
1449		-48.828125
1450		-54.687500
1451		-44.921875
1452		-48.828125
1453		-41.015625
1454		-44.921875
1455		-35.156250
1456		-41.015625
1457		-29.296875
1458		-35.156250
1459		-25.390625
1460		-29.296875
1461		-21.484375
1462		-23.437500
1463		-17.578125
1464		-17.578125
1465		-9.765625
1466		-15.625000
1467		-3.906250
1468		-9.765625
1469		0.000000
1470		-3.906250
1471		5.859375
1472		0.000000
1473		9.765625
1474		5.859375
1475		15.625000
1476		9.765625
1477		19.531250
1478		17.578125
1479		23.437500
1480		23.437500
1481		29.296875
1482		25.390625
1483		35.156250
1484		31.250000
1485		41.015625
1486		35.156250
1487		44.921875
1488		41.015625
1489		50.781250
1490		44.921875
1491		54.687500
1492		48.828125
1493		58.593750
1494		54.687500
1495		60.546875
1496		60.546875
1497		66.406250
1498		64.453125
1499		72.265625
1500		66.406250
1501		74.218750
1502		70.312500
1503		78.125000
1504		72.265625
1505		82.031250
1506		76.171875
1507		85.937500
1508		80.078125
1509		87.890625
1510		82.031250
1511		89.843750
1512		87.890625
1513		91.796875
1514		89.843750
1515		95.703125
1516		89.843750
1517		99.609375
1518		91.796875
1519		99.609375
1520		95.703125
1521		101.562500
1522		95.703125
1523		103.515625
1524		97.656250
1525		105.468750
1526		99.609375
1527		107.421875
1528		103.515625
1529		105.468750
1530		103.515625
1531		107.421875
1532		101.562500
1533		109.375000
1534		103.515625
1535		109.375000
1536		103.515625
1537		109.375000
1538		103.515625
1539		109.375000
1540		103.515625
1541		109.375000
1542		103.515625
1543		109.375000
1544		103.515625
1545		109.375000
1546		103.515625
1547		107.421875
1548		101.562500
1549		107.421875
1550		99.609375
1551		107.421875
1552		97.656250
1553		105.468750
1554		95.703125
1555		103.515625
1556		93.750000
1557		103.515625
1558		91.796875
1559		101.562500
1560		91.796875
1561		97.656250
1562		89.843750
1563		93.750000
1564		87.890625
1565		91.796875
1566		82.031250
1567		89.843750
1568		78.125000
1569		87.890625
1570		76.171875
1571		83.984375
1572		72.265625
1573		80.078125
1574		68.359375
1575		78.125000
1576		64.453125
1577		74.218750
1578		62.500000
1579		68.359375
1580		58.593750
1581		64.453125
1582		52.734375
1583		60.546875
1584		46.875000
1585		56.640625
1586		42.968750
1587		52.734375
1588		37.109375
1589		48.828125
1590		33.203125
1591		44.921875
1592		29.296875
1593		39.062500
1594		25.390625
1595		35.156250
1596		21.484375
1597		27.343750
1598		13.671875
1599		23.437500
1600		7.812500
1601		19.531250
1602		3.906250
1603		13.671875
1604		0.000000
1605		7.812500
1606		-5.859375
1607		3.906250
1608		-11.718750
1609		-1.953125
1610		-15.625000
1611		-5.859375
1612		-19.531250
1613		-13.671875
1614		-25.390625
1615		-19.531250
1616		-33.203125
1617		-23.437500
1618		-37.109375
1619		-27.343750
1620		-42.968750
1621		-31.250000
1622		-46.875000
1623		-37.109375
1624		-50.781250
1625		-41.015625
1626		-56.640625
1627		-46.875000
1628		-58.593750
1629		-50.781250
1630		-62.500000
1631		-56.640625
1632		-68.359375
1633		-60.546875
1634		-72.265625
1635		-62.500000
1636		-76.171875
1637		-66.406250
1638		-80.078125
1639		-70.312500
1640		-83.984375
1641		-74.218750
1642		-85.937500
1643		-76.171875
1644		-87.890625
1645		-80.078125
1646		-87.890625
1647		-83.984375
1648		-89.843750
1649		-85.937500
1650		-95.703125
1651		-87.890625
1652		-95.703125
1653		-87.890625
1654		-97.656250
1655		-89.843750
1656		-99.609375
1657		-91.796875
1658		-99.609375
1659		-91.796875
1660		-99.609375
1661		-93.750000
1662		-99.609375
1663		-95.703125
1664		-97.656250
1665		-95.703125
1666		-99.609375
1667		-93.750000
1668		-99.609375
1669		-93.750000
1670		-99.609375
1671		-91.796875
1672		-97.656250
1673		-91.796875
1674		-95.703125
1675		-89.843750
1676		-93.750000
1677		-87.890625
1678		-91.796875
1679		-87.890625
1680		-89.843750
1681		-85.937500
1682		-87.890625
1683		-82.031250
1684		-87.890625
1685		-78.125000
1686		-85.937500
1687		-76.171875
1688		-82.031250
1689		-72.265625
1690		-78.125000
1691		-68.359375
1692		-74.218750
1693		-64.453125
1694		-70.312500
1695		-62.500000
1696		-64.453125
1697		-58.593750
1698		-60.546875
1699		-54.687500
1700		-56.640625
1701		-48.828125
1702		-54.687500
1703		-44.921875
1704		-50.781250
1705		-39.062500
1706		-44.921875
1707		-35.156250
1708		-39.062500
1709		-29.296875
1710		-35.156250
1711		-25.390625
1712		-29.296875
1713		-21.484375
1714		-23.437500
1715		-17.578125
1716		-17.578125
1717		-9.765625
1718		-15.625000
1719		-5.859375
1720		-9.765625
1721		0.000000
1722		-3.906250
1723		5.859375
1724		0.000000
1725		9.765625
1726		3.906250
1727		15.625000
1728		9.765625
1729		19.531250
1730		17.578125
1731		23.437500
1732		23.437500
1733		29.296875
1734		25.390625
1735		35.156250
1736		31.250000
1737		41.015625
1738		35.156250
1739		46.875000
1740		39.062500
1741		50.781250
1742		44.921875
1743		54.687500
1744		48.828125
1745		58.593750
1746		52.734375
1747		60.546875
1748		60.546875
1749		64.453125
1750		62.500000
1751		70.312500
1752		64.453125
1753		74.218750
1754		70.312500
1755		78.125000
1756		72.265625
1757		82.031250
1758		76.171875
1759		85.937500
1760		80.078125
1761		87.890625
1762		82.031250
1763		89.843750
1764		87.890625
1765		91.796875
1766		89.843750
1767		95.703125
1768		89.843750
1769		97.656250
1770		91.796875
1771		101.562500
1772		93.750000
1773		103.515625
1774		95.703125
1775		103.515625
1776		97.656250
1777		105.468750
1778		99.609375
1779		105.468750
1780		103.515625
1781		105.468750
1782		103.515625
1783		107.421875
1784		103.515625
1785		109.375000
1786		103.515625
1787		109.375000
1788		103.515625
1789		109.375000
1790		103.515625
1791		109.375000
1792		103.515625
1793		109.375000
1794		101.562500
1795		109.375000
1796		103.515625
1797		109.375000
1798		103.515625
1799		105.468750
1800		99.609375
1801		107.421875
1802		97.656250
1803		107.421875
1804		97.656250
1805		105.468750
1806		95.703125
1807		103.515625
1808		93.750000
1809		101.562500
1810		91.796875
1811		99.609375
1812		89.843750
1813		97.656250
1814		89.843750
1815		93.750000
1816		85.937500
1817		91.796875
1818		82.031250
1819		89.843750
1820		78.125000
1821		87.890625
1822		76.171875
1823		83.984375
1824		72.265625
1825		80.078125
1826		68.359375
1827		76.171875
1828		64.453125
1829		74.218750
1830		62.500000
1831		70.312500
1832		58.593750
1833		64.453125
1834		50.781250
1835		60.546875
1836		46.875000
1837		56.640625
1838		42.968750
1839		52.734375
1840		39.062500
1841		48.828125
1842		33.203125
1843		42.968750
1844		27.343750
1845		39.062500
1846		25.390625
1847		33.203125
1848		21.484375
1849		27.343750
1850		13.671875
1851		21.484375
1852		7.812500
1853		19.531250
1854		3.906250
1855		13.671875
1856		-1.953125
1857		7.812500
1858		-7.812500
1859		3.906250
1860		-11.718750
1861		-1.953125
1862		-17.578125
1863		-7.812500
1864		-19.531250
1865		-13.671875
1866		-25.390625
1867		-19.531250
1868		-33.203125
1869		-23.437500
1870		-39.062500
1871		-27.343750
1872		-42.968750
1873		-33.203125
1874		-46.875000
1875		-37.109375
1876		-52.734375
1877		-42.968750
1878		-56.640625
1879		-46.875000
1880		-58.593750
1881		-50.781250
1882		-62.500000
1883		-56.640625
1884		-68.359375
1885		-60.546875
1886		-72.265625
1887		-64.453125
1888		-76.171875
1889		-66.406250
1890		-80.078125
1891		-70.312500
1892		-83.984375
1893		-74.218750
1894		-85.937500
1895		-78.125000
1896		-87.890625
1897		-80.078125
1898		-87.890625
1899		-83.984375
1900		-91.796875
1901		-85.937500
1902		-93.750000
1903		-87.890625
1904		-97.656250
1905		-89.843750
1906		-97.656250
1907		-89.843750
1908		-99.609375
1909		-91.796875
1910		-101.562500
1911		-91.796875
1912		-99.609375
1913		-93.750000
1914		-99.609375
1915		-93.750000
1916		-97.656250
1917		-95.703125
1918		-101.562500
1919		-93.750000
1920		-99.609375
1921		-93.750000
1922		-99.609375
1923		-91.796875
1924		-99.609375
1925		-91.796875
1926		-97.656250
1927		-89.843750
1928		-95.703125
1929		-87.890625
1930		-93.750000
1931		-85.937500
1932		-89.843750
1933		-85.937500
1934		-87.890625
1935		-82.031250
1936		-87.890625
1937		-78.125000
1938		-83.984375
1939		-76.171875
1940		-82.031250
1941		-72.265625
1942		-78.125000
1943		-68.359375
1944		-74.218750
1945		-64.453125
1946		-72.265625
1947		-60.546875
1948		-64.453125
1949		-58.593750
1950		-60.546875
1951		-54.687500
1952		-56.640625
1953		-48.828125
1954		-54.687500
1955		-44.921875
1956		-50.781250
1957		-39.062500
1958		-44.921875
1959		-35.156250
1960		-41.015625
1961		-29.296875
1962		-35.156250
1963		-25.390625
1964		-31.250000
1965		-21.484375
1966		-23.437500
1967		-17.578125
1968		-17.578125
1969		-9.765625
1970		-13.671875
1971		-5.859375
1972		-9.765625
1973		0.000000
1974		-5.859375
1975		5.859375
1976		0.000000
1977		11.718750
1978		3.906250
1979		15.625000
1980		9.765625
1981		19.531250
1982		17.578125
1983		23.437500
1984		23.437500
1985		29.296875
1986		27.343750
1987		35.156250
1988		31.250000
1989		41.015625
1990		35.156250
1991		44.921875
1992		39.062500
1993		48.828125
1994		44.921875
1995		54.687500
1996		48.828125
1997		58.593750
1998		52.734375
1999		60.546875
2000		60.546875
2001		64.453125
2002		62.500000
2003		70.312500
2004		66.406250
2005		74.218750
2006		68.359375
2007		78.125000
2008		72.265625
2009		82.031250
2010		76.171875
2011		83.984375
2012		78.125000
2013		87.890625
2014		82.031250
2015		89.843750
2016		87.890625
2017		91.796875
2018		89.843750
2019		93.750000
2020		89.843750
2021		97.656250
2022		91.796875
2023		99.609375
2024		93.750000
2025		101.562500
2026		95.703125
2027		103.515625
2028		97.656250
2029		105.468750
2030		99.609375
2031		107.421875
2032		101.562500
2033		105.468750
2034		103.515625
2035		105.468750
2036		103.515625
2037		109.375000
2038		103.515625
2039		109.375000
2040		103.515625
2041		109.375000
2042		103.515625
2043		109.375000
2044		103.515625
2045		109.375000
2046		103.515625
2047		109.375000
2048		103.515625
2049		109.375000
2050		103.515625
2051		105.468750
2052		101.562500
2053		105.468750
2054		99.609375
2055		105.468750
2056		97.656250
2057		105.468750
2058		95.703125
2059		103.515625
2060		93.750000
2061		101.562500
2062		91.796875
2063		99.609375
2064		89.843750
2065		97.656250
2066		89.843750
2067		93.750000
2068		85.937500
2069		89.843750
2070		82.031250
2071		89.843750
2072		78.125000
2073		87.890625
2074		76.171875
2075		83.984375
2076		72.265625
2077		80.078125
2078		66.406250
2079		78.125000
2080		64.453125
2081		74.218750
2082		62.500000
2083		68.359375
2084		58.593750
2085		62.500000
2086		52.734375
2087		58.593750
2088		46.875000
2089		56.640625
2090		41.015625
2091		52.734375
2092		39.062500
2093		46.875000
2094		33.203125
2095		44.921875
2096		27.343750
2097		39.062500
2098		25.390625
2099		35.156250
2100		21.484375
2101		27.343750
2102		15.625000
2103		21.484375
2104		7.812500
2105		17.578125
2106		3.906250
2107		13.671875
2108		-1.953125
2109		7.812500
2110		-5.859375
2111		3.906250
2112		-13.671875
2113		-1.953125
2114		-17.578125
2115		-7.812500
2116		-21.484375
2117		-13.671875
2118		-25.390625
2119		-19.531250
2120		-33.203125
2121		-25.390625
2122		-39.062500
2123		-29.296875
2124		-42.968750
2125		-33.203125
2126		-46.875000
2127		-37.109375
2128		-50.781250
2129		-41.015625
2130		-56.640625
2131		-46.875000
2132		-58.593750
2133		-50.781250
2134		-62.500000
2135		-58.593750
2136		-68.359375
2137		-62.500000
2138		-72.265625
2139		-64.453125
2140		-76.171875
2141		-68.359375
2142		-80.078125
2143		-72.265625
2144		-83.984375
2145		-74.218750
2146		-85.937500
2147		-78.125000
2148		-87.890625
2149		-80.078125
2150		-87.890625
2151		-83.984375
2152		-91.796875
2153		-87.890625
2154		-95.703125
2155		-87.890625
2156		-95.703125
2157		-89.843750
2158		-97.656250
2159		-89.843750
2160		-99.609375
2161		-91.796875
2162		-99.609375
2163		-93.750000
2164		-101.562500
2165		-93.750000
2166		-101.562500
2167		-93.750000
2168		-99.609375
2169		-95.703125
2170		-99.609375
2171		-93.750000
2172		-101.562500
2173		-93.750000
2174		-99.609375
2175		-91.796875
2176		-99.609375
2177		-91.796875
2178		-97.656250
2179		-89.843750
2180		-95.703125
2181		-87.890625
2182		-95.703125
2183		-87.890625
2184		-89.843750
2185		-85.937500
2186		-87.890625
2187		-82.031250
2188		-85.937500
2189		-80.078125
2190		-83.984375
2191		-76.171875
2192		-82.031250
2193		-72.265625
2194		-78.125000
2195		-70.312500
2196		-76.171875
2197		-66.406250
2198		-72.265625
2199		-62.500000
2200		-66.406250
2201		-60.546875
2202		-60.546875
2203		-54.687500
2204		-58.593750
2205		-48.828125
2206		-54.687500
2207		-42.968750
2208		-48.828125
2209		-39.062500
2210		-44.921875
2211		-35.156250
2212		-41.015625
2213		-31.250000
2214		-35.156250
2215		-25.390625
2216		-31.250000
2217		-23.437500
2218		-23.437500
2219		-17.578125
2220		-19.531250
2221		-9.765625
2222		-15.625000
2223		-5.859375
2224		-9.765625
2225		0.000000
2226		-5.859375
2227		5.859375
2228		0.000000
2229		9.765625
2230		5.859375
2231		15.625000
2232		9.765625
2233		19.531250
2234		17.578125
2235		23.437500
2236		23.437500
2237		29.296875
2238		27.343750
2239		35.156250
2240		31.250000
2241		41.015625
2242		35.156250
2243		44.921875
2244		41.015625
2245		50.781250
2246		44.921875
2247		54.687500
2248		48.828125
2249		58.593750
2250		52.734375
2251		60.546875
2252		58.593750
2253		64.453125
2254		62.500000
2255		70.312500
2256		64.453125
2257		74.218750
2258		68.359375
2259		78.125000
2260		72.265625
2261		82.031250
2262		76.171875
2263		83.984375
2264		80.078125
2265		87.890625
2266		82.031250
2267		89.843750
2268		85.937500
2269		91.796875
2270		89.843750
2271		93.750000
2272		89.843750
2273		97.656250
2274		91.796875
2275		99.609375
2276		93.750000
2277		101.562500
2278		95.703125
2279		103.515625
2280		97.656250
2281		105.468750
2282		97.656250
2283		107.421875
2284		99.609375
2285		105.468750
2286		103.515625
2287		105.468750
2288		101.562500
2289		109.375000
2290		101.562500
2291		109.375000
2292		101.562500
2293		109.375000
2294		103.515625
2295		109.375000
2296		101.562500
2297		109.375000
2298		101.562500
2299		109.375000
2300		101.562500
2301		109.375000
2302		103.515625
2303		105.468750
2304		99.609375
2305		105.468750
2306		97.656250
2307		105.468750
2308		97.656250
2309		105.468750
2310		95.703125
2311		103.515625
2312		93.750000
2313		101.562500
2314		91.796875
2315		99.609375
2316		89.843750
2317		97.656250
2318		87.890625
2319		93.750000
2320		85.937500
2321		89.843750
2322		80.078125
2323		87.890625
2324		78.125000
2325		85.937500
2326		74.218750
2327		83.984375
2328		70.312500
2329		80.078125
2330		66.406250
2331		76.171875
2332		62.500000
2333		72.265625
2334		62.500000
2335		68.359375
2336		58.593750
2337		62.500000
2338		50.781250
2339		58.593750
2340		46.875000
2341		56.640625
2342		42.968750
2343		52.734375
2344		37.109375
2345		46.875000
2346		33.203125
2347		42.968750
2348		27.343750
2349		37.109375
2350		23.437500
2351		33.203125
2352		19.531250
2353		25.390625
2354		15.625000
2355		21.484375
2356		7.812500
2357		17.578125
2358		1.953125
2359		13.671875
2360		-3.906250
2361		7.812500
2362		-7.812500
2363		3.906250
2364		-13.671875
2365		-1.953125
2366		-17.578125
2367		-7.812500
2368		-21.484375
2369		-13.671875
2370		-27.343750
2371		-19.531250
2372		-33.203125
2373		-25.390625
2374		-39.062500
2375		-29.296875
2376		-42.968750
2377		-33.203125
2378		-48.828125
2379		-39.062500
2380		-52.734375
2381		-42.968750
2382		-58.593750
2383		-48.828125
2384		-60.546875
2385		-52.734375
2386		-64.453125
2387		-58.593750
2388		-70.312500
2389		-62.500000
2390		-74.218750
2391		-64.453125
2392		-76.171875
2393		-68.359375
2394		-80.078125
2395		-72.265625
2396		-83.984375
2397		-74.218750
2398		-85.937500
2399		-78.125000
2400		-89.843750
2401		-80.078125
2402		-89.843750
2403		-85.937500
2404		-91.796875
2405		-87.890625
2406		-95.703125
2407		-87.890625
2408		-97.656250
2409		-89.843750
2410		-99.609375
2411		-91.796875
2412		-99.609375
2413		-93.750000
2414		-101.562500
2415		-93.750000
2416		-101.562500
2417		-93.750000
2418		-101.562500
2419		-95.703125
2420		-99.609375
2421		-97.656250
2422		-101.562500
2423		-93.750000
2424		-101.562500
2425		-93.750000
2426		-99.609375
2427		-93.750000
2428		-99.609375
2429		-91.796875
2430		-99.609375
2431		-89.843750
2432		-97.656250
2433		-89.843750
2434		-95.703125
2435		-87.890625
2436		-91.796875
2437		-85.937500
2438		-87.890625
2439		-83.984375
2440		-87.890625
2441		-80.078125
2442		-85.937500
2443		-76.171875
2444		-82.031250
2445		-72.265625
2446		-78.125000
2447		-70.312500
2448		-76.171875
2449		-66.406250
2450		-72.265625
2451		-62.500000
2452		-68.359375
2453		-60.546875
2454		-60.546875
2455		-56.640625
2456		-58.593750
2457		-48.828125
2458		-54.687500
2459		-44.921875
2460		-50.781250
2461		-41.015625
2462		-44.921875
2463		-35.156250
2464		-41.015625
2465		-31.250000
2466		-35.156250
2467		-25.390625
2468		-29.296875
2469		-23.437500
2470		-23.437500
2471		-17.578125
2472		-19.531250
2473		-9.765625
2474		-15.625000
2475		-5.859375
2476		-9.765625
2477		0.000000
2478		-3.906250
2479		5.859375
2480		0.000000
2481		9.765625
2482		3.906250
2483		15.625000
2484		9.765625
2485		21.484375
2486		17.578125
2487		23.437500
2488		21.484375
2489		29.296875
2490		27.343750
2491		35.156250
2492		29.296875
2493		39.062500
2494		35.156250
2495		44.921875
2496		39.062500
2497		48.828125
2498		44.921875
2499		54.687500
2500		48.828125
2501		58.593750
2502		52.734375
2503		60.546875
2504		58.593750
2505		64.453125
2506		62.500000
2507		70.312500
2508		66.406250
2509		74.218750
2510		68.359375
2511		76.171875
2512		72.265625
2513		80.078125
2514		74.218750
2515		83.984375
2516		78.125000
2517		87.890625
2518		82.031250
2519		89.843750
2520		85.937500
2521		89.843750
2522		89.843750
2523		93.750000
2524		89.843750
2525		97.656250
2526		91.796875
2527		99.609375
2528		93.750000
2529		101.562500
2530		95.703125
2531		103.515625
2532		97.656250
2533		105.468750
2534		99.609375
2535		105.468750
2536		99.609375
2537		105.468750
2538		103.515625
2539		105.468750
2540		101.562500
2541		109.375000
2542		101.562500
2543		109.375000
2544		101.562500
2545		109.375000
2546		103.515625
2547		109.375000
2548		101.562500
2549		109.375000
2550		101.562500
2551		109.375000
2552		101.562500
2553		109.375000
2554		103.515625
2555		105.468750
2556		101.562500
2557		103.515625
2558		97.656250
2559		105.468750
2560		97.656250
2561		105.468750
2562		95.703125
2563		101.562500
2564		93.750000
2565		101.562500
2566		91.796875
2567		99.609375
2568		87.890625
2569		97.656250
2570		87.890625
2571		93.750000
2572		85.937500
2573		89.843750
2574		80.078125
2575		87.890625
2576		78.125000
2577		85.937500
2578		74.218750
2579		83.984375
2580		70.312500
2581		80.078125
2582		68.359375
2583		76.171875
2584		64.453125
2585		72.265625
2586		60.546875
2587		68.359375
2588		56.640625
2589		64.453125
2590		50.781250
2591		58.593750
2592		46.875000
2593		56.640625
2594		41.015625
2595		52.734375
2596		37.109375
2597		46.875000
2598		31.250000
2599		42.968750
2600		27.343750
2601		37.109375
2602		23.437500
2603		33.203125
2604		19.531250
2605		25.390625
2606		15.625000
2607		21.484375
2608		7.812500
2609		17.578125
2610		1.953125
2611		11.718750
2612		-1.953125
2613		7.812500
2614		-7.812500
2615		1.953125
2616		-13.671875
2617		-3.906250
2618		-19.531250
2619		-7.812500
2620		-21.484375
2621		-13.671875
2622		-27.343750
2623		-21.484375
2624		-33.203125
2625		-25.390625
2626		-39.062500
2627		-29.296875
2628		-42.968750
2629		-33.203125
2630		-48.828125
2631		-39.062500
2632		-54.687500
2633		-42.968750
2634		-56.640625
2635		-46.875000
2636		-60.546875
2637		-52.734375
2638		-64.453125
2639		-58.593750
2640		-68.359375
2641		-62.500000
2642		-74.218750
2643		-64.453125
2644		-76.171875
2645		-68.359375
2646		-80.078125
2647		-72.265625
2648		-83.984375
2649		-74.218750
2650		-87.890625
2651		-78.125000
2652		-89.843750
2653		-80.078125
2654		-89.843750
2655		-85.937500
2656		-91.796875
2657		-87.890625
2658		-95.703125
2659		-87.890625
2660		-97.656250
2661		-89.843750
2662		-99.609375
2663		-91.796875
2664		-99.609375
2665		-93.750000
2666		-101.562500
2667		-93.750000
2668		-101.562500
2669		-93.750000
2670		-101.562500
2671		-93.750000
2672		-99.609375
2673		-97.656250
2674		-99.609375
2675		-95.703125
2676		-101.562500
2677		-93.750000
2678		-99.609375
2679		-93.750000
2680		-99.609375
2681		-91.796875
2682		-97.656250
2683		-89.843750
2684		-97.656250
2685		-89.843750
2686		-93.750000
2687		-87.890625
2688		-89.843750
2689		-85.937500
2690		-87.890625
2691		-83.984375
2692		-87.890625
2693		-78.125000
2694		-85.937500
2695		-76.171875
2696		-82.031250
2697		-74.218750
2698		-78.125000
2699		-70.312500
2700		-74.218750
2701		-64.453125
2702		-70.312500
2703		-60.546875
2704		-66.406250
2705		-60.546875
2706		-60.546875
2707		-56.640625
2708		-56.640625
2709		-48.828125
2710		-54.687500
2711		-44.921875
2712		-50.781250
2713		-41.015625
2714		-44.921875
2715		-35.156250
2716		-41.015625
2717		-31.250000
2718		-37.109375
2719		-25.390625
2720		-31.250000
2721		-23.437500
2722		-23.437500
2723		-17.578125
2724		-19.531250
2725		-11.718750
2726		-17.578125
2727		-5.859375
2728		-9.765625
2729		0.000000
2730		-5.859375
2731		3.906250
2732		0.000000
2733		9.765625
2734		5.859375
2735		15.625000
2736		9.765625
2737		19.531250
2738		15.625000
2739		23.437500
2740		21.484375
2741		27.343750
2742		27.343750
2743		35.156250
2744		29.296875
2745		41.015625
2746		33.203125
2747		44.921875
2748		39.062500
2749		48.828125
2750		42.968750
2751		52.734375
2752		46.875000
2753		56.640625
2754		52.734375
2755		60.546875
2756		58.593750
2757		64.453125
2758		62.500000
2759		68.359375
2760		64.453125
2761		74.218750
2762		68.359375
2763		78.125000
2764		72.265625
2765		80.078125
2766		76.171875
2767		83.984375
2768		78.125000
2769		87.890625
2770		80.078125
2771		89.843750
2772		85.937500
2773		89.843750
2774		89.843750
2775		93.750000
2776		89.843750
2777		97.656250
2778		91.796875
2779		99.609375
2780		93.750000
2781		101.562500
2782		95.703125
2783		103.515625
2784		95.703125
2785		105.468750
2786		99.609375
2787		105.468750
2788		99.609375
2789		105.468750
2790		103.515625
2791		105.468750
2792		101.562500
2793		109.375000
2794		101.562500
2795		109.375000
2796		101.562500
2797		109.375000
2798		101.562500
2799		109.375000
2800		101.562500
2801		109.375000
2802		101.562500
2803		109.375000
2804		101.562500
2805		107.421875
2806		101.562500
2807		105.468750
2808		101.562500
2809		105.468750
2810		97.656250
2811		105.468750
2812		97.656250
2813		103.515625
2814		95.703125
2815		103.515625
2816		93.750000
2817		101.562500
2818		89.843750
2819		99.609375
2820		89.843750
2821		95.703125
2822		87.890625
2823		93.750000
2824		85.937500
2825		89.843750
2826		80.078125
2827		87.890625
2828		78.125000
2829		85.937500
2830		74.218750
2831		83.984375
2832		70.312500
2833		80.078125
2834		66.406250
2835		76.171875
2836		62.500000
2837		72.265625
2838		60.546875
2839		68.359375
2840		56.640625
2841		62.500000
2842		50.781250
2843		58.593750
2844		46.875000
2845		56.640625
2846		41.015625
2847		52.734375
2848		37.109375
2849		46.875000
2850		33.203125
2851		42.968750
2852		27.343750
2853		37.109375
2854		23.437500
2855		33.203125
2856		19.531250
2857		25.390625
2858		13.671875
2859		21.484375
2860		5.859375
2861		15.625000
2862		1.953125
2863		11.718750
2864		-3.906250
2865		7.812500
2866		-7.812500
2867		1.953125
2868		-13.671875
2869		-3.906250
2870		-19.531250
2871		-9.765625
2872		-21.484375
2873		-13.671875
2874		-27.343750
2875		-21.484375
2876		-33.203125
2877		-25.390625
2878		-39.062500
2879		-29.296875
2880		-42.968750
2881		-33.203125
2882		-48.828125
2883		-39.062500
2884		-52.734375
2885		-42.968750
2886		-58.593750
2887		-48.828125
2888		-60.546875
2889		-52.734375
2890		-64.453125
2891		-58.593750
2892		-68.359375
2893		-62.500000
2894		-74.218750
2895		-64.453125
2896		-78.125000
2897		-68.359375
2898		-82.031250
2899		-72.265625
2900		-83.984375
2901		-76.171875
2902		-87.890625
2903		-78.125000
2904		-89.843750
2905		-82.031250
2906		-89.843750
2907		-83.984375
2908		-91.796875
2909		-87.890625
2910		-95.703125
2911		-87.890625
2912		-97.656250
2913		-89.843750
2914		-99.609375
2915		-91.796875
2916		-99.609375
2917		-93.750000
2918		-101.562500
2919		-93.750000
2920		-101.562500
2921		-95.703125
2922		-101.562500
2923		-95.703125
2924		-99.609375
2925		-97.656250
2926		-101.562500
2927		-93.750000
2928		-101.562500
2929		-93.750000
2930		-101.562500
2931		-93.750000
2932		-99.609375
2933		-91.796875
2934		-99.609375
2935		-89.843750
2936		-97.656250
2937		-89.843750
2938		-95.703125
2939		-87.890625
2940		-89.843750
2941		-85.937500
2942		-87.890625
2943		-83.984375
2944		-87.890625
2945		-80.078125
2946		-85.937500
2947		-76.171875
2948		-82.031250
2949		-72.265625
2950		-78.125000
2951		-70.312500
2952		-74.218750
2953		-66.406250
2954		-72.265625
2955		-62.500000
2956		-68.359375
2957		-60.546875
2958		-62.500000
2959		-56.640625
2960		-56.640625
2961		-48.828125
2962		-54.687500
2963		-44.921875
2964		-50.781250
2965		-39.062500
2966		-44.921875
2967		-35.156250
2968		-41.015625
2969		-31.250000
2970		-35.156250
2971		-25.390625
2972		-31.250000
2973		-23.437500
2974		-23.437500
2975		-17.578125
2976		-19.531250
2977		-11.718750
2978		-15.625000
2979		-5.859375
2980		-9.765625
2981		0.000000
2982		-3.906250
2983		5.859375
2984		0.000000
2985		9.765625
2986		3.906250
2987		15.625000
2988		9.765625
2989		19.531250
2990		13.671875
2991		23.437500
2992		21.484375
2993		27.343750
2994		27.343750
2995		35.156250
2996		29.296875
2997		41.015625
2998		35.156250
2999		44.921875
3000		39.062500
3001		48.828125
3002		44.921875
3003		52.734375
3004		48.828125
3005		58.593750
3006		52.734375
3007		60.546875
3008		58.593750
3009		64.453125
3010		62.500000
3011		68.359375
3012		64.453125
3013		74.218750
3014		68.359375
3015		78.125000
3016		72.265625
3017		80.078125
3018		74.218750
3019		83.984375
3020		78.125000
3021		87.890625
3022		80.078125
3023		89.843750
3024		85.937500
3025		89.843750
3026		89.843750
3027		93.750000
3028		89.843750
3029		97.656250
3030		91.796875
3031		99.609375
3032		93.750000
3033		101.562500
3034		95.703125
3035		103.515625
3036		97.656250
3037		105.468750
3038		97.656250
3039		105.468750
3040		99.609375
3041		105.468750
3042		103.515625
3043		105.468750
3044		101.562500
3045		107.421875
3046		101.562500
3047		109.375000
3048		101.562500
3049		109.375000
3050		101.562500
3051		109.375000
3052		101.562500
3053		109.375000
3054		101.562500
3055		109.375000
3056		101.562500
3057		107.421875
3058		103.515625
3059		105.468750
3060		101.562500
3061		103.515625
3062		97.656250
3063		105.468750
3064		97.656250
3065		103.515625
3066		95.703125
3067		101.562500
3068		93.750000
3069		99.609375
3070		91.796875
3071		99.609375
3072		89.843750
3073		95.703125
3074		87.890625
3075		93.750000
3076		83.984375
3077		89.843750
3078		80.078125
3079		87.890625
3080		78.125000
3081		85.937500
3082		74.218750
3083		82.031250
3084		70.312500
3085		80.078125
3086		66.406250
3087		76.171875
3088		62.500000
3089		72.265625
3090		60.546875
3091		68.359375
3092		56.640625
3093		62.500000
3094		50.781250
3095		58.593750
3096		44.921875
3097		54.687500
3098		41.015625
3099		50.781250
3100		37.109375
3101		46.875000
3102		31.250000
3103		42.968750
3104		27.343750
3105		37.109375
3106		23.437500
3107		33.203125
3108		19.531250
3109		25.390625
3110		13.671875
3111		21.484375
3112		7.812500
3113		15.625000
3114		1.953125
3115		11.718750
3116		-1.953125
3117		7.812500
3118		-7.812500
3119		1.953125
3120		-13.671875
3121		-3.906250
3122		-19.531250
3123		-7.812500
3124		-21.484375
3125		-13.671875
3126		-27.343750
3127		-21.484375
3128		-33.203125
3129		-25.390625
3130		-39.062500
3131		-29.296875
3132		-44.921875
3133		-35.156250
3134		-48.828125
3135		-39.062500
3136		-52.734375
3137		-42.968750
3138		-58.593750
3139		-46.875000
3140		-62.500000
3141		-52.734375
3142		-64.453125
3143		-58.593750
3144		-68.359375
3145		-62.500000
3146		-74.218750
3147		-66.406250
3148		-78.125000
3149		-68.359375
3150		-82.031250
3151		-72.265625
3152		-83.984375
3153		-76.171875
3154		-87.890625
3155		-78.125000
3156		-89.843750
3157		-82.031250
3158		-89.843750
3159		-83.984375
3160		-91.796875
3161		-87.890625
3162		-95.703125
3163		-89.843750
3164		-97.656250
3165		-89.843750
3166		-99.609375
3167		-91.796875
3168		-99.609375
3169		-91.796875
3170		-101.562500
3171		-93.750000
3172		-101.562500
3173		-93.750000
3174		-101.562500
3175		-93.750000
3176		-99.609375
3177		-97.656250
3178		-99.609375
3179		-95.703125
3180		-101.562500
3181		-93.750000
3182		-99.609375
3183		-93.750000
3184		-99.609375
3185		-91.796875
3186		-97.656250
3187		-89.843750
3188		-95.703125
3189		-87.890625
3190		-93.750000
3191		-87.890625
3192		-89.843750
3193		-85.937500
3194		-87.890625
3195		-83.984375
3196		-87.890625
3197		-80.078125
3198		-85.937500
3199		-76.171875
3200		-82.031250
3201		-72.265625
3202		-78.125000
3203		-68.359375
3204		-76.171875
3205		-66.406250
3206		-70.312500
3207		-62.500000
3208		-66.406250
3209		-60.546875
3210		-60.546875
3211		-56.640625
3212		-56.640625
3213		-50.781250
3214		-54.687500
3215		-44.921875
3216		-50.781250
3217		-39.062500
3218		-46.875000
3219		-35.156250
3220		-41.015625
3221		-31.250000
3222		-35.156250
3223		-25.390625
3224		-31.250000
3225		-21.484375
3226		-23.437500
3227		-17.578125
3228		-19.531250
3229		-11.718750
3230		-13.671875
3231		-5.859375
3232		-11.718750
3233		0.000000
3234		-5.859375
3235		5.859375
3236		0.000000
3237		9.765625
3238		5.859375
3239		15.625000
3240		11.718750
3241		19.531250
3242		15.625000
3243		23.437500
3244		21.484375
3245		29.296875
3246		27.343750
3247		35.156250
3248		29.296875
3249		39.062500
3250		35.156250
3251		44.921875
3252		39.062500
3253		48.828125
3254		44.921875
3255		54.687500
3256		48.828125
3257		58.593750
3258		52.734375
3259		60.546875
3260		58.593750
3261		64.453125
3262		62.500000
3263		68.359375
3264		64.453125
3265		74.218750
3266		68.359375
3267		78.125000
3268		72.265625
3269		82.031250
3270		76.171875
3271		83.984375
3272		78.125000
3273		87.890625
3274		82.031250
3275		89.843750
3276		85.937500
3277		89.843750
3278		89.843750
3279		93.750000
3280		89.843750
3281		97.656250
3282		91.796875
3283		99.609375
3284		93.750000
3285		101.562500
3286		95.703125
3287		103.515625
3288		97.656250
3289		103.515625
3290		97.656250
3291		105.468750
3292		99.609375
3293		105.468750
3294		103.515625
3295		105.468750
3296		103.515625
3297		107.421875
3298		101.562500
3299		109.375000
3300		101.562500
3301		109.375000
3302		101.562500
3303		109.375000
3304		101.562500
3305		109.375000
3306		101.562500
3307		109.375000
3308		101.562500
3309		107.421875
3310		103.515625
3311		105.468750
3312		101.562500
3313		103.515625
3314		97.656250
3315		105.468750
3316		97.656250
3317		103.515625
3318		95.703125
3319		103.515625
3320		91.796875
3321		101.562500
3322		89.843750
3323		99.609375
3324		87.890625
3325		95.703125
3326		87.890625
3327		93.750000
3328		85.937500
3329		89.843750
3330		80.078125
3331		85.937500
3332		78.125000
3333		85.937500
3334		74.218750
3335		83.984375
3336		70.312500
3337		80.078125
3338		66.406250
3339		76.171875
3340		62.500000
3341		72.265625
3342		60.546875
3343		68.359375
3344		56.640625
3345		62.500000
3346		52.734375
3347		58.593750
3348		46.875000
3349		54.687500
3350		42.968750
3351		50.781250
3352		37.109375
3353		46.875000
3354		33.203125
3355		41.015625
3356		27.343750
3357		37.109375
3358		23.437500
3359		31.250000
3360		19.531250
3361		25.390625
3362		13.671875
3363		19.531250
3364		5.859375
3365		15.625000
3366		1.953125
3367		11.718750
3368		-3.906250
3369		7.812500
3370		-9.765625
3371		1.953125
3372		-13.671875
3373		-3.906250
3374		-19.531250
3375		-7.812500
3376		-21.484375
3377		-13.671875
3378		-27.343750
3379		-21.484375
3380		-33.203125
3381		-25.390625
3382		-39.062500
3383		-29.296875
3384		-44.921875
3385		-33.203125
3386		-48.828125
3387		-39.062500
3388		-52.734375
3389		-42.968750
3390		-58.593750
3391		-46.875000
3392		-60.546875
3393		-52.734375
3394		-64.453125
3395		-58.593750
3396		-68.359375
3397		-62.500000
3398		-74.218750
3399		-66.406250
3400		-78.125000
3401		-68.359375
3402		-82.031250
3403		-72.265625
3404		-83.984375
3405		-74.218750
3406		-87.890625
3407		-78.125000
3408		-89.843750
3409		-82.031250
3410		-89.843750
3411		-83.984375
3412		-91.796875
3413		-87.890625
3414		-95.703125
3415		-89.843750
3416		-97.656250
3417		-89.843750
3418		-99.609375
3419		-91.796875
3420		-99.609375
3421		-93.750000
3422		-101.562500
3423		-93.750000
3424		-101.562500
3425		-93.750000
3426		-101.562500
3427		-95.703125
3428		-99.609375
3429		-97.656250
3430		-99.609375
3431		-97.656250
3432		-101.562500
3433		-93.750000
3434		-101.562500
3435		-93.750000
3436		-99.609375
3437		-91.796875
3438		-97.656250
3439		-91.796875
3440		-95.703125
3441		-87.890625
3442		-95.703125
3443		-87.890625
3444		-93.750000
3445		-85.937500
3446		-87.890625
3447		-83.984375
3448		-85.937500
3449		-80.078125
3450		-83.984375
3451		-76.171875
3452		-82.031250
3453		-74.218750
3454		-78.125000
3455		-70.312500
3456		-76.171875
3457		-66.406250
3458		-70.312500
3459		-62.500000
3460		-66.406250
3461		-60.546875
3462		-60.546875
3463		-56.640625
3464		-56.640625
3465		-50.781250
3466		-56.640625
3467		-44.921875
3468		-50.781250
3469		-41.015625
3470		-46.875000
3471		-37.109375
3472		-41.015625
3473		-29.296875
3474		-35.156250
3475		-25.390625
3476		-31.250000
3477		-21.484375
3478		-23.437500
3479		-17.578125
3480		-19.531250
3481		-11.718750
3482		-13.671875
3483		-5.859375
3484		-9.765625
3485		0.000000
3486		-5.859375
3487		3.906250
3488		0.000000
3489		11.718750
3490		3.906250
3491		15.625000
3492		9.765625
3493		21.484375
3494		15.625000
3495		23.437500
3496		21.484375
3497		27.343750
3498		27.343750
3499		35.156250
3500		29.296875
3501		39.062500
3502		35.156250
3503		44.921875
3504		39.062500
3505		48.828125
3506		44.921875
3507		52.734375
3508		46.875000
3509		58.593750
3510		52.734375
3511		62.500000
3512		58.593750
3513		64.453125
3514		62.500000
3515		68.359375
3516		64.453125
3517		74.218750
3518		68.359375
3519		78.125000
3520		72.265625
3521		80.078125
3522		74.218750
3523		83.984375
3524		78.125000
3525		87.890625
3526		82.031250
3527		89.843750
3528		85.937500
3529		89.843750
3530		89.843750
3531		93.750000
3532		89.843750
3533		97.656250
3534		91.796875
3535		99.609375
3536		93.750000
3537		101.562500
3538		95.703125
3539		103.515625
3540		97.656250
3541		105.468750
3542		97.656250
3543		107.421875
3544		99.609375
3545		105.468750
3546		103.515625
3547		105.468750
3548		103.515625
3549		107.421875
3550		101.562500
3551		109.375000
3552		101.562500
3553		109.375000
3554		101.562500
3555		109.375000
3556		101.562500
3557		109.375000
3558		101.562500
3559		109.375000
3560		101.562500
3561		107.421875
3562		103.515625
3563		105.468750
3564		101.562500
3565		103.515625
3566		97.656250
3567		105.468750
3568		95.703125
3569		105.468750
3570		95.703125
3571		103.515625
3572		93.750000
3573		101.562500
3574		89.843750
3575		99.609375
3576		87.890625
3577		97.656250
3578		87.890625
3579		93.750000
3580		85.937500
3581		89.843750
3582		80.078125
3583		87.890625
3584		78.125000
3585		85.937500
3586		74.218750
3587		82.031250
3588		70.312500
3589		80.078125
3590		66.406250
3591		76.171875
3592		62.500000
3593		72.265625
3594		60.546875
3595		68.359375
3596		56.640625
3597		62.500000
3598		52.734375
3599		58.593750
3600		46.875000
3601		54.687500
3602		41.015625
3603		50.781250
3604		37.109375
3605		46.875000
3606		31.250000
3607		41.015625
3608		27.343750
3609		37.109375
3610		21.484375
3611		33.203125
3612		17.578125
3613		27.343750
3614		13.671875
3615		19.531250
3616		5.859375
3617		15.625000
3618		1.953125
3619		11.718750
3620		-3.906250
3621		7.812500
3622		-7.812500
3623		1.953125
3624		-13.671875
3625		-3.906250
3626		-17.578125
3627		-7.812500
3628		-21.484375
3629		-13.671875
3630		-27.343750
3631		-21.484375
3632		-33.203125
3633		-25.390625
3634		-39.062500
3635		-29.296875
3636		-44.921875
3637		-33.203125
3638		-48.828125
3639		-39.062500
3640		-52.734375
3641		-42.968750
3642		-58.593750
3643		-48.828125
3644		-62.500000
3645		-52.734375
3646		-64.453125
3647		-58.593750
3648		-68.359375
3649		-62.500000
3650		-74.218750
3651		-66.406250
3652		-78.125000
3653		-68.359375
3654		-80.078125
3655		-72.265625
3656		-83.984375
3657		-74.218750
3658		-87.890625
3659		-78.125000
3660		-89.843750
3661		-82.031250
3662		-89.843750
3663		-83.984375
3664		-91.796875
3665		-87.890625
3666		-95.703125
3667		-89.843750
3668		-97.656250
3669		-89.843750
3670		-99.609375
3671		-91.796875
3672		-99.609375
3673		-91.796875
3674		-101.562500
3675		-93.750000
3676		-101.562500
3677		-93.750000
3678		-101.562500
3679		-95.703125
3680		-99.609375
3681		-97.656250
3682		-99.609375
3683		-97.656250
3684		-101.562500
3685		-93.750000
3686		-99.609375
3687		-93.750000
3688		-99.609375
3689		-91.796875
3690		-97.656250
3691		-89.843750
3692		-97.656250
3693		-89.843750
3694		-93.750000
3695		-87.890625
3696		-93.750000
3697		-85.937500
3698		-87.890625
3699		-83.984375
3700		-85.937500
3701		-78.125000
3702		-85.937500
3703		-76.171875
3704		-82.031250
3705		-72.265625
3706		-78.125000
3707		-70.312500
3708		-74.218750
3709		-66.406250
3710		-70.312500
3711		-62.500000
3712		-68.359375
3713		-58.593750
3714		-60.546875
3715		-56.640625
3716		-56.640625
3717		-50.781250
3718		-54.687500
3719		-44.921875
3720		-50.781250
3721		-39.062500
3722		-44.921875
3723		-35.156250
3724		-41.015625
3725		-29.296875
3726		-37.109375
3727		-25.390625
3728		-31.250000
3729		-21.484375
3730		-23.437500
3731		-17.578125
3732		-19.531250
3733		-11.718750
3734		-13.671875
3735		-5.859375
3736		-9.765625
3737		0.000000
3738		-5.859375
3739		3.906250
3740		0.000000
3741		9.765625
3742		5.859375
3743		15.625000
3744		9.765625
3745		19.531250
3746		15.625000
3747		23.437500
3748		21.484375
3749		27.343750
3750		27.343750
3751		35.156250
3752		31.250000
3753		41.015625
3754		35.156250
3755		44.921875
3756		39.062500
3757		50.781250
3758		44.921875
3759		54.687500
3760		48.828125
3761		58.593750
3762		52.734375
3763		60.546875
3764		58.593750
3765		64.453125
3766		62.500000
3767		68.359375
3768		66.406250
3769		74.218750
3770		68.359375
3771		78.125000
3772		72.265625
3773		82.031250
3774		74.218750
3775		83.984375
3776		78.125000
3777		87.890625
3778		82.031250
3779		89.843750
3780		83.984375
3781		91.796875
3782		89.843750
3783		93.750000
3784		89.843750
3785		97.656250
3786		91.796875
3787		99.609375
3788		93.750000
3789		101.562500
3790		95.703125
3791		103.515625
3792		97.656250
3793		105.468750
3794		97.656250
3795		105.468750
3796		99.609375
3797		107.421875
3798		103.515625
3799		105.468750
3800		103.515625
3801		105.468750
3802		101.562500
3803		109.375000
3804		101.562500
3805		109.375000
3806		101.562500
3807		109.375000
3808		101.562500
3809		109.375000
3810		101.562500
3811		109.375000
3812		101.562500
3813		107.421875
3814		103.515625
3815		105.468750
3816		101.562500
3817		103.515625
3818		97.656250
3819		105.468750
3820		95.703125
3821		103.515625
3822		93.750000
3823		101.562500
3824		91.796875
3825		101.562500
3826		89.843750
3827		99.609375
3828		87.890625
3829		95.703125
3830		85.937500
3831		93.750000
3832		85.937500
3833		89.843750
3834		80.078125
3835		87.890625
3836		76.171875
3837		85.937500
3838		72.265625
3839		83.984375
3840		70.312500
3841		80.078125
3842		66.406250
3843		76.171875
3844		62.500000
3845		72.265625
3846		58.593750
3847		68.359375
3848		56.640625
3849		62.500000
3850		52.734375
3851		58.593750
3852		44.921875
3853		54.687500
3854		41.015625
3855		50.781250
3856		35.156250
3857		46.875000
3858		31.250000
3859		41.015625
3860		25.390625
3861		37.109375
3862		21.484375
3863		31.250000
3864		19.531250
3865		27.343750
3866		13.671875
3867		19.531250
3868		7.812500
3869		15.625000
3870		1.953125
3871		11.718750
3872		-3.906250
3873		7.812500
3874		-9.765625
3875		1.953125
3876		-13.671875
3877		-3.906250
3878		-19.531250
3879		-9.765625
3880		-23.437500
3881		-13.671875
3882		-27.343750
3883		-21.484375
3884		-33.203125
3885		-25.390625
3886		-39.062500
3887		-29.296875
3888		-44.921875
3889		-35.156250
3890		-48.828125
3891		-39.062500
3892		-54.687500
3893		-42.968750
3894		-58.593750
3895		-48.828125
3896		-62.500000
3897		-52.734375
3898		-64.453125
3899		-58.593750
3900		-68.359375
3901		-62.500000
3902		-74.218750
3903		-66.406250
3904		-78.125000
3905		-68.359375
3906		-82.031250
3907		-72.265625
3908		-83.984375
3909		-74.218750
3910		-87.890625
3911		-80.078125
3912		-89.843750
3913		-82.031250
3914		-91.796875
3915		-83.984375
3916		-91.796875
3917		-87.890625
3918		-95.703125
3919		-89.843750
3920		-97.656250
3921		-89.843750
3922		-99.609375
3923		-91.796875
3924		-101.562500
3925		-91.796875
3926		-101.562500
3927		-93.750000
3928		-101.562500
3929		-95.703125
3930		-101.562500
3931		-95.703125
3932		-99.609375
3933		-97.656250
3934		-99.609375
3935		-97.656250
3936		-101.562500
3937		-93.750000
3938		-101.562500
3939		-93.750000
3940		-99.609375
3941		-91.796875
3942		-97.656250
3943		-89.843750
3944		-95.703125
3945		-89.843750
3946		-95.703125
3947		-87.890625
3948		-91.796875
3949		-85.937500
3950		-87.890625
3951		-83.984375
3952		-85.937500
3953		-80.078125
3954		-85.937500
3955		-76.171875
3956		-82.031250
3957		-72.265625
3958		-80.078125
3959		-70.312500
3960		-76.171875
3961		-66.406250
3962		-72.265625
3963		-62.500000
3964		-68.359375
3965		-60.546875
3966		-62.500000
3967		-56.640625
3968		-58.593750
3969		-50.781250
3970		-54.687500
3971		-44.921875
3972		-50.781250
3973		-41.015625
3974		-44.921875
3975		-35.156250
3976		-41.015625
3977		-31.250000
3978		-37.109375
3979		-25.390625
3980		-31.250000
3981		-21.484375
3982		-25.390625
3983		-17.578125
3984		-19.531250
3985		-11.718750
3986		-13.671875
3987		-5.859375
3988		-11.718750
3989		0.000000
3990		-5.859375
3991		3.906250
3992		-1.953125
3993		9.765625
3994		3.906250
3995		15.625000
3996		9.765625
3997		19.531250
3998		15.625000
3999		23.437500
4000		21.484375
4001		27.343750
4002		27.343750
4003		33.203125
4004		29.296875
4005		39.062500
4006		35.156250
4007		44.921875
4008		37.109375
4009		48.828125
4010		42.968750
4011		54.687500
4012		46.875000
4013		58.593750
4014		52.734375
4015		60.546875
4016		58.593750
4017		64.453125
4018		62.500000
4019		68.359375
4020		66.406250
4021		74.218750
4022		68.359375
4023		78.125000
4024		72.265625
4025		82.031250
4026		76.171875
4027		83.984375
4028		78.125000
4029		87.890625
4030		82.031250
4031		89.843750
4032		83.984375
4033		89.843750
4034		87.890625
4035		93.750000
4036		89.843750
4037		95.703125
4038		91.796875
4039		99.609375
4040		93.750000
4041		101.562500
4042		95.703125
4043		101.562500
4044		95.703125
4045		103.515625
4046		97.656250
4047		105.468750
4048		99.609375
4049		107.421875
4050		101.562500
4051		105.468750
4052		103.515625
4053		105.468750
4054		101.562500
4055		109.375000
4056		101.562500
4057		109.375000
4058		101.562500
4059		109.375000
4060		101.562500
4061		109.375000
4062		101.562500
4063		109.375000
4064		101.562500
4065		107.421875
4066		101.562500
4067		105.468750
4068		101.562500
4069		103.515625
4070		97.656250
4071		103.515625
4072		95.703125
4073		103.515625
4074		93.750000
4075		101.562500
4076		93.750000
4077		101.562500
4078		89.843750
4079		97.656250
4080		87.890625
4081		95.703125
4082		85.937500
4083		93.750000
4084		83.984375
4085		89.843750
4086		82.031250
4087		85.937500
4088		78.125000
4089		85.937500
4090		74.218750
4091		82.031250
4092		70.312500
4093		80.078125
4094		66.406250
4095		76.171875
4096		62.500000
4097		72.265625
4098		58.593750
4099		68.359375
4100		56.640625
4101		62.500000
4102		52.734375
4103		58.593750
4104		46.875000
4105		52.734375
4106		42.968750
4107		50.781250
4108		37.109375
4109		46.875000
4110		31.250000
4111		41.015625
4112		27.343750
4113		37.109375
4114		21.484375
4115		33.203125
4116		19.531250
4117		27.343750
4118		13.671875
4119		21.484375
4120		5.859375
4121		13.671875
4122		1.953125
4123		11.718750
4124		-3.906250
4125		5.859375
4126		-7.812500
4127		0.000000
4128		-13.671875
4129		-3.906250
4130		-19.531250
4131		-9.765625
4132		-23.437500
4133		-13.671875
4134		-27.343750
4135		-21.484375
4136		-33.203125
4137		-27.343750
4138		-39.062500
4139		-31.250000
4140		-44.921875
4141		-35.156250
4142		-48.828125
4143		-39.062500
4144		-54.687500
4145		-42.968750
4146		-58.593750
4147		-48.828125
4148		-62.500000
4149		-52.734375
4150		-64.453125
4151		-56.640625
4152		-68.359375
4153		-62.500000
4154		-74.218750
4155		-66.406250
4156		-78.125000
4157		-68.359375
4158		-80.078125
4159		-72.265625
4160		-83.984375
4161		-76.171875
4162		-87.890625
4163		-78.125000
4164		-89.843750
4165		-82.031250
4166		-91.796875
4167		-83.984375
4168		-91.796875
4169		-87.890625
4170		-95.703125
4171		-91.796875
4172		-99.609375
4173		-89.843750
4174		-99.609375
4175		-91.796875
4176		-101.562500
4177		-93.750000
4178		-101.562500
4179		-93.750000
4180		-101.562500
4181		-95.703125
4182		-103.515625
4183		-95.703125
4184		-99.609375
4185		-97.656250
4186		-99.609375
4187		-97.656250
4188		-101.562500
4189		-95.703125
4190		-99.609375
4191		-95.703125
4192		-99.609375
4193		-93.750000
4194		-97.656250
4195		-91.796875
4196		-97.656250
4197		-91.796875
4198		-95.703125
4199		-89.843750
4200		-91.796875
4201		-87.890625
4202		-89.843750
4203		-85.937500
4204		-85.937500
4205		-80.078125
4206		-85.937500
4207		-78.125000
4208		-82.031250
4209		-74.218750
4210		-78.125000
4211		-70.312500
4212		-76.171875
4213		-68.359375
4214		-74.218750
4215		-64.453125
4216		-68.359375
4217		-60.546875
4218		-62.500000
4219		-56.640625
4220		-58.593750
4221		-52.734375
4222		-54.687500
4223		-46.875000
4224		-50.781250
4225		-41.015625
4226		-46.875000
4227		-37.109375
4228		-41.015625
4229		-33.203125
4230		-35.156250
4231		-29.296875
4232		-31.250000
4233		-21.484375
4234		-27.343750
4235		-19.531250
4236		-19.531250
4237		-13.671875
4238		-15.625000
4239		-7.812500
4240		-11.718750
4241		-1.953125
4242		-5.859375
4243		3.906250
4244		-1.953125
4245		7.812500
4246		3.906250
4247		11.718750
4248		11.718750
4249		17.578125
4250		13.671875
4251		23.437500
4252		21.484375
4253		27.343750
4254		25.390625
4255		33.203125
4256		29.296875
4257		39.062500
4258		35.156250
4259		42.968750
4260		39.062500
4261		46.875000
4262		44.921875
4263		52.734375
4264		48.828125
4265		54.687500
4266		52.734375
4267		60.546875
4268		58.593750
4269		62.500000
4270		62.500000
4271		66.406250
4272		64.453125
4273		74.218750
4274		68.359375
4275		76.171875
4276		70.312500
4277		80.078125
4278		76.171875
4279		82.031250
4280		78.125000
4281		85.937500
4282		82.031250
4283		87.890625
4284		83.984375
4285		89.843750
4286		87.890625
4287		91.796875
4288		89.843750
4289		95.703125
4290		91.796875
4291		95.703125
4292		93.750000
4293		99.609375
4294		95.703125
4295		99.609375
4296		97.656250
4297		101.562500
4298		97.656250
4299		103.515625
4300		99.609375
4301		105.468750
4302		101.562500
4303		103.515625
4304		101.562500
4305		105.468750
4306		103.515625
4307		107.421875
4308		103.515625
4309		105.468750
4310		103.515625
4311		105.468750
4312		101.562500
4313		105.468750
4314		103.515625
4315		105.468750
4316		99.609375
4317		105.468750
4318		101.562500
4319		105.468750
4320		99.609375
4321		103.515625
4322		97.656250
4323		101.562500
4324		95.703125
4325		101.562500
4326		95.703125
4327		99.609375
4328		93.750000
4329		97.656250
4330		91.796875
4331		95.703125
4332		87.890625
4333		93.750000
4334		85.937500
4335		91.796875
4336		83.984375
4337		87.890625
4338		80.078125
4339		85.937500
4340		78.125000
4341		82.031250
4342		74.218750
4343		80.078125
4344		70.312500
4345		76.171875
4346		66.406250
4347		72.265625
4348		62.500000
4349		70.312500
4350		58.593750
4351		64.453125
4352		54.687500
4353		60.546875
4354		50.781250
4355		56.640625
4356		46.875000
4357		52.734375
4358		41.015625
4359		48.828125
4360		37.109375
4361		42.968750
4362		31.250000
4363		39.062500
4364		27.343750
4365		33.203125
4366		21.484375
4367		29.296875
4368		17.578125
4369		23.437500
4370		11.718750
4371		17.578125
4372		5.859375
4373		13.671875
4374		1.953125
4375		9.765625
4376		-3.906250
4377		1.953125
4378		-9.765625
4379		-1.953125
4380		-13.671875
4381		-7.812500
4382		-19.531250
4383		-13.671875
4384		-25.390625
4385		-17.578125
4386		-29.296875
4387		-21.484375
4388		-35.156250
4389		-27.343750
4390		-39.062500
4391		-33.203125
4392		-44.921875
4393		-37.109375
4394		-48.828125
4395		-41.015625
4396		-54.687500
4397		-46.875000
4398		-58.593750
4399		-52.734375
4400		-62.500000
4401		-56.640625
4402		-66.406250
4403		-60.546875
4404		-70.312500
4405		-64.453125
4406		-74.218750
4407		-68.359375
4408		-78.125000
4409		-72.265625
4410		-80.078125
4411		-76.171875
4412		-85.937500
4413		-80.078125
4414		-87.890625
4415		-82.031250
4416		-89.843750
4417		-85.937500
4418		-93.750000
4419		-87.890625
4420		-93.750000
4421		-89.843750
4422		-95.703125
4423		-91.796875
4424		-97.656250
4425		-93.750000
4426		-99.609375
4427		-95.703125
4428		-99.609375
4429		-97.656250
4430		-101.562500
4431		-97.656250
4432		-101.562500
4433		-99.609375
4434		-103.515625
4435		-97.656250
4436		-101.562500
4437		-99.609375
4438		-101.562500
4439		-99.609375
4440		-101.562500
4441		-97.656250
4442		-101.562500
4443		-95.703125
4444		-99.609375
4445		-95.703125
4446		-97.656250
4447		-95.703125
4448		-97.656250
4449		-91.796875
4450		-95.703125
4451		-91.796875
4452		-93.750000
4453		-89.843750
4454		-89.843750
4455		-85.937500
4456		-87.890625
4457		-82.031250
4458		-85.937500
4459		-80.078125
4460		-82.031250
4461		-78.125000
4462		-80.078125
4463		-74.218750
4464		-76.171875
4465		-70.312500
4466		-72.265625
4467		-66.406250
4468		-68.359375
4469		-62.500000
4470		-64.453125
4471		-58.593750
4472		-58.593750
4473		-54.687500
4474		-56.640625
4475		-48.828125
4476		-50.781250
4477		-44.921875
4478		-46.875000
4479		-39.062500
4480		-41.015625
4481		-33.203125
4482		-37.109375
4483		-29.296875
4484		-31.250000
4485		-25.390625
4486		-27.343750
4487		-19.531250
4488		-21.484375
4489		-15.625000
4490		-15.625000
4491		-9.765625
4492		-9.765625
4493		-3.906250
4494		-5.859375
4495		1.953125
4496		0.000000
4497		5.859375
4498		3.906250
4499		11.718750
4500		9.765625
4501		17.578125
4502		15.625000
4503		21.484375
4504		19.531250
4505		27.343750
4506		25.390625
4507		31.250000
4508		29.296875
4509		35.156250
4510		35.156250
4511		41.015625
4512		39.062500
4513		44.921875
4514		44.921875
4515		50.781250
4516		48.828125
4517		54.687500
4518		52.734375
4519		60.546875
4520		56.640625
4521		62.500000
4522		60.546875
4523		66.406250
4524		64.453125
4525		70.312500
4526		68.359375
4527		74.218750
4528		72.265625
4529		78.125000
4530		76.171875
4531		80.078125
4532		78.125000
4533		83.984375
4534		82.031250
4535		85.937500
4536		83.984375
4537		89.843750
4538		87.890625
4539		91.796875
4540		89.843750
4541		93.750000
4542		91.796875
4543		95.703125
4544		93.750000
4545		97.656250
4546		95.703125
4547		99.609375
4548		97.656250
4549		101.562500
4550		97.656250
4551		101.562500
4552		99.609375
4553		103.515625
4554		101.562500
4555		103.515625
4556		101.562500
4557		105.468750
4558		101.562500
4559		105.468750
4560		103.515625
4561		105.468750
4562		101.562500
4563		105.468750
4564		101.562500
4565		105.468750
4566		101.562500
4567		105.468750
4568		101.562500
4569		105.468750
4570		99.609375
4571		105.468750
4572		99.609375
4573		103.515625
4574		97.656250
4575		101.562500
4576		97.656250
4577		99.609375
4578		95.703125
4579		99.609375
4580		93.750000
4581		97.656250
4582		91.796875
4583		95.703125
4584		87.890625
4585		91.796875
4586		85.937500
4587		91.796875
4588		83.984375
4589		87.890625
4590		80.078125
4591		83.984375
4592		78.125000
4593		82.031250
4594		74.218750
4595		80.078125
4596		70.312500
4597		76.171875
4598		66.406250
4599		72.265625
4600		62.500000
4601		68.359375
4602		58.593750
4603		64.453125
4604		54.687500
4605		60.546875
4606		50.781250
4607		56.640625
4608		44.921875
4609		50.781250
4610		41.015625
4611		46.875000
4612		37.109375
4613		42.968750
4614		31.250000
4615		39.062500
4616		27.343750
4617		33.203125
4618		21.484375
4619		29.296875
4620		15.625000
4621		23.437500
4622		11.718750
4623		17.578125
4624		3.906250
4625		13.671875
4626		1.953125
4627		7.812500
4628		-3.906250
4629		1.953125
4630		-9.765625
4631		-1.953125
4632		-13.671875
4633		-7.812500
4634		-19.531250
4635		-11.718750
4636		-25.390625
4637		-17.578125
4638		-29.296875
4639		-23.437500
4640		-35.156250
4641		-29.296875
4642		-41.015625
4643		-33.203125
4644		-44.921875
4645		-39.062500
4646		-48.828125
4647		-42.968750
4648		-52.734375
4649		-48.828125
4650		-58.593750
4651		-52.734375
4652		-62.500000
4653		-56.640625
4654		-66.406250
4655		-60.546875
4656		-70.312500
4657		-64.453125
4658		-74.218750
4659		-70.312500
4660		-78.125000
4661		-72.265625
4662		-82.031250
4663		-76.171875
4664		-83.984375
4665		-80.078125
4666		-87.890625
4667		-82.031250
4668		-89.843750
4669		-85.937500
4670		-91.796875
4671		-87.890625
4672		-95.703125
4673		-91.796875
4674		-95.703125
4675		-93.750000
4676		-97.656250
4677		-93.750000
4678		-99.609375
4679		-95.703125
4680		-99.609375
4681		-97.656250
4682		-101.562500
4683		-97.656250
4684		-101.562500
4685		-99.609375
4686		-103.515625
4687		-99.609375
4688		-103.515625
4689		-99.609375
4690		-101.562500
4691		-99.609375
4692		-101.562500
4693		-97.656250
4694		-101.562500
4695		-97.656250
4696		-99.609375
4697		-95.703125
4698		-99.609375
4699		-93.750000
4700		-97.656250
4701		-93.750000
4702		-95.703125
4703		-91.796875
4704		-93.750000
4705		-89.843750
4706		-91.796875
4707		-87.890625
4708		-87.890625
4709		-82.031250
4710		-85.937500
4711		-80.078125
4712		-83.984375
4713		-78.125000
4714		-80.078125
4715		-74.218750
4716		-76.171875
4717		-70.312500
4718		-72.265625
4719		-66.406250
4720		-68.359375
4721		-60.546875
4722		-64.453125
4723		-58.593750
4724		-60.546875
4725		-54.687500
4726		-54.687500
4727		-48.828125
4728		-50.781250
4729		-44.921875
4730		-44.921875
4731		-39.062500
4732		-41.015625
4733		-35.156250
4734		-37.109375
4735		-29.296875
4736		-31.250000
4737		-25.390625
4738		-27.343750
4739		-19.531250
4740		-21.484375
4741		-15.625000
4742		-15.625000
4743		-9.765625
4744		-9.765625
4745		-3.906250
4746		-5.859375
4747		1.953125
4748		0.000000
4749		5.859375
4750		3.906250
4751		11.718750
4752		9.765625
4753		15.625000
4754		13.671875
4755		21.484375
4756		19.531250
4757		27.343750
4758		25.390625
4759		31.250000
4760		29.296875
4761		35.156250
4762		35.156250
4763		41.015625
4764		39.062500
4765		44.921875
4766		44.921875
4767		48.828125
4768		48.828125
4769		54.687500
4770		52.734375
4771		58.593750
4772		54.687500
4773		62.500000
4774		60.546875
4775		66.406250
4776		64.453125
4777		70.312500
4778		68.359375
4779		74.218750
4780		72.265625
4781		76.171875
4782		76.171875
4783		80.078125
4784		78.125000
4785		83.984375
4786		82.031250
4787		85.937500
4788		83.984375
4789		87.890625
4790		87.890625
4791		91.796875
4792		89.843750
4793		93.750000
4794		91.796875
4795		95.703125
4796		93.750000
4797		97.656250
4798		95.703125
4799		99.609375
4800		97.656250
4801		101.562500
4802		97.656250
4803		101.562500
4804		99.609375
4805		103.515625
4806		101.562500
4807		103.515625
4808		101.562500
4809		105.468750
4810		101.562500
4811		105.468750
4812		101.562500
4813		105.468750
4814		101.562500
4815		105.468750
4816		101.562500
4817		105.468750
4818		101.562500
4819		105.468750
4820		101.562500
4821		105.468750
4822		99.609375
4823		103.515625
4824		99.609375
4825		101.562500
4826		97.656250
4827		101.562500
4828		95.703125
4829		99.609375
4830		95.703125
4831		99.609375
4832		93.750000
4833		97.656250
4834		89.843750
4835		95.703125
4836		87.890625
4837		91.796875
4838		85.937500
4839		91.796875
4840		83.984375
4841		87.890625
4842		80.078125
4843		83.984375
4844		76.171875
4845		82.031250
4846		72.265625
4847		78.125000
4848		70.312500
4849		74.218750
4850		66.406250
4851		72.265625
4852		62.500000
4853		68.359375
4854		58.593750
4855		64.453125
4856		54.687500
4857		60.546875
4858		50.781250
4859		54.687500
4860		44.921875
4861		50.781250
4862		39.062500
4863		46.875000
4864		37.109375
4865		42.968750
4866		31.250000
4867		37.109375
4868		25.390625
4869		33.203125
4870		21.484375
4871		27.343750
4872		17.578125
4873		23.437500
4874		11.718750
4875		17.578125
4876		3.906250
4877		11.718750
4878		0.000000
4879		7.812500
4880		-3.906250
4881		1.953125
4882		-9.765625
4883		-1.953125
4884		-15.625000
4885		-7.812500
4886		-19.531250
4887		-13.671875
4888		-25.390625
4889		-17.578125
4890		-29.296875
4891		-23.437500
4892		-35.156250
4893		-29.296875
4894		-39.062500
4895		-33.203125
4896		-44.921875
4897		-37.109375
4898		-50.781250
4899		-42.968750
4900		-54.687500
4901		-48.828125
4902		-58.593750
4903		-52.734375
4904		-62.500000
4905		-56.640625
4906		-66.406250
4907		-60.546875
4908		-70.312500
4909		-66.406250
4910		-74.218750
4911		-70.312500
4912		-78.125000
4913		-72.265625
4914		-82.031250
4915		-76.171875
4916		-83.984375
4917		-80.078125
4918		-87.890625
4919		-82.031250
4920		-89.843750
4921		-85.937500
4922		-93.750000
4923		-87.890625
4924		-95.703125
4925		-91.796875
4926		-97.656250
4927		-93.750000
4928		-97.656250
4929		-95.703125
4930		-99.609375
4931		-95.703125
4932		-101.562500
4933		-97.656250
4934		-103.515625
4935		-99.609375
4936		-103.515625
4937		-99.609375
4938		-103.515625
4939		-99.609375
4940		-103.515625
4941		-99.609375
4942		-101.562500
4943		-99.609375
4944		-103.515625
4945		-99.609375
4946		-101.562500
4947		-97.656250
4948		-101.562500
4949		-97.656250
4950		-99.609375
4951		-95.703125
4952		-97.656250
4953		-93.750000
4954		-95.703125
4955		-91.796875
4956		-93.750000
4957		-89.843750
4958		-91.796875
4959		-87.890625
4960		-87.890625
4961		-83.984375
4962		-85.937500
4963		-82.031250
4964		-83.984375
4965		-78.125000
4966		-80.078125
4967		-74.218750
4968		-76.171875
4969		-70.312500
4970		-72.265625
4971		-66.406250
4972		-68.359375
4973		-62.500000
4974		-64.453125
4975		-58.593750
4976		-60.546875
4977		-54.687500
4978		-56.640625
4979		-50.781250
4980		-52.734375
4981		-44.921875
4982		-46.875000
4983		-41.015625
4984		-41.015625
4985		-35.156250
4986		-37.109375
4987		-29.296875
4988		-31.250000
4989		-25.390625
4990		-27.343750
4991		-21.484375
4992		-21.484375
4993		-15.625000
4994		-15.625000
4995		-9.765625
4996		-11.718750
4997		-5.859375
4998		-5.859375
4999		0.000000
5000		-1.953125
5001		5.859375
5002		3.906250
5003		11.718750
5004		9.765625
5005		15.625000
5006		13.671875
5007		19.531250
5008		19.531250
5009		25.390625
5010		23.437500
5011		31.250000
5012		29.296875
5013		35.156250
5014		33.203125
5015		41.015625
5016		39.062500
5017		44.921875
5018		42.968750
5019		50.781250
5020		46.875000
5021		52.734375
5022		52.734375
5023		58.593750
5024		56.640625
5025		62.500000
5026		60.546875
5027		66.406250
5028		64.453125
5029		70.312500
5030		68.359375
5031		72.265625
5032		72.265625
5033		76.171875
5034		74.218750
5035		80.078125
5036		78.125000
5037		82.031250
5038		82.031250
5039		85.937500
5040		83.984375
5041		87.890625
5042		85.937500
5043		89.843750
5044		89.843750
5045		93.750000
5046		89.843750
5047		95.703125
5048		93.750000
5049		97.656250
5050		95.703125
5051		97.656250
5052		97.656250
5053		99.609375
5054		97.656250
5055		101.562500
5056		99.609375
5057		103.515625
5058		99.609375
5059		103.515625
5060		101.562500
5061		103.515625
5062		101.562500
5063		105.468750
5064		101.562500
5065		105.468750
5066		101.562500
5067		105.468750
5068		101.562500
5069		105.468750
5070		101.562500
5071		103.515625
5072		99.609375
5073		103.515625
5074		99.609375
5075		103.515625
5076		99.609375
5077		101.562500
5078		95.703125
5079		101.562500
5080		95.703125
5081		99.609375
5082		93.750000
5083		97.656250
5084		91.796875
5085		97.656250
5086		89.843750
5087		93.750000
5088		87.890625
5089		91.796875
5090		85.937500
5091		89.843750
5092		82.031250
5093		85.937500
5094		80.078125
5095		83.984375
5096		76.171875
5097		82.031250
5098		72.265625
5099		78.125000
5100		70.312500
5101		74.218750
5102		66.406250
5103		70.312500
5104		62.500000
5105		66.406250
5106		56.640625
5107		62.500000
5108		52.734375
5109		58.593750
5110		48.828125
5111		54.687500
5112		44.921875
5113		50.781250
5114		41.015625
5115		44.921875
5116		35.156250
5117		41.015625
5118		31.250000
5119		37.109375
5120		25.390625
5121		33.203125
5122		19.531250
5123		27.343750
5124		15.625000
5125		21.484375
5126		9.765625
5127		17.578125
5128		5.859375
5129		11.718750
5130		0.000000
5131		7.812500
5132		-5.859375
5133		1.953125
5134		-9.765625
5135		-3.906250
5136		-15.625000
5137		-9.765625
5138		-21.484375
5139		-13.671875
5140		-27.343750
5141		-19.531250
5142		-31.250000
5143		-23.437500
5144		-35.156250
5145		-29.296875
5146		-41.015625
5147		-35.156250
5148		-46.875000
5149		-39.062500
5150		-50.781250
5151		-44.921875
5152		-54.687500
5153		-48.828125
5154		-60.546875
5155		-54.687500
5156		-64.453125
5157		-58.593750
5158		-68.359375
5159		-62.500000
5160		-72.265625
5161		-66.406250
5162		-76.171875
5163		-70.312500
5164		-80.078125
5165		-74.218750
5166		-82.031250
5167		-78.125000
5168		-85.937500
5169		-80.078125
5170		-87.890625
5171		-83.984375
5172		-91.796875
5173		-85.937500
5174		-93.750000
5175		-89.843750
5176		-95.703125
5177		-91.796875
5178		-97.656250
5179		-93.750000
5180		-99.609375
5181		-95.703125
5182		-99.609375
5183		-97.656250
5184		-101.562500
5185		-97.656250
5186		-103.515625
5187		-99.609375
5188		-103.515625
5189		-99.609375
5190		-103.515625
5191		-99.609375
5192		-105.468750
5193		-101.562500
5194		-103.515625
5195		-101.562500
5196		-103.515625
5197		-99.609375
5198		-101.562500
5199		-99.609375
5200		-101.562500
5201		-97.656250
5202		-99.609375
5203		-95.703125
5204		-97.656250
5205		-93.750000
5206		-97.656250
5207		-91.796875
5208		-93.750000
5209		-89.843750
5210		-91.796875
5211		-87.890625
5212		-89.843750
5213		-85.937500
5214		-87.890625
5215		-82.031250
5216		-83.984375
5217		-78.125000
5218		-80.078125
5219		-76.171875
5220		-76.171875
5221		-72.265625
5222		-72.265625
5223		-68.359375
5224		-70.312500
5225		-64.453125
5226		-64.453125
5227		-58.593750
5228		-60.546875
5229		-54.687500
5230		-56.640625
5231		-50.781250
5232		-52.734375
5233		-44.921875
5234		-46.875000
5235		-41.015625
5236		-42.968750
5237		-35.156250
5238		-37.109375
5239		-31.250000
5240		-33.203125
5241		-25.390625
5242		-27.343750
5243		-21.484375
5244		-21.484375
5245		-15.625000
5246		-17.578125
5247		-9.765625
5248		-11.718750
5249		-5.859375
5250		-7.812500
5251		0.000000
5252		-1.953125
5253		3.906250
5254		3.906250
5255		9.765625
5256		7.812500
5257		15.625000
5258		13.671875
5259		21.484375
5260		19.531250
5261		25.390625
5262		23.437500
5263		29.296875
5264		29.296875
5265		35.156250
5266		33.203125
5267		39.062500
5268		39.062500
5269		44.921875
5270		42.968750
5271		48.828125
5272		46.875000
5273		52.734375
5274		50.781250
5275		56.640625
5276		54.687500
5277		60.546875
5278		60.546875
5279		64.453125
5280		64.453125
5281		70.312500
5282		68.359375
5283		72.265625
5284		70.312500
5285		76.171875
5286		74.218750
5287		80.078125
5288		78.125000
5289		82.031250
5290		80.078125
5291		85.937500
5292		82.031250
5293		87.890625
5294		85.937500
5295		89.843750
5296		87.890625
5297		93.750000
5298		89.843750
5299		95.703125
5300		93.750000
5301		97.656250
5302		95.703125
5303		97.656250
5304		97.656250
5305		99.609375
5306		97.656250
5307		101.562500
5308		99.609375
5309		101.562500
5310		99.609375
5311		103.515625
5312		101.562500
5313		103.515625
5314		101.562500
5315		105.468750
5316		101.562500
5317		105.468750
5318		101.562500
5319		105.468750
5320		101.562500
5321		103.515625
5322		101.562500
5323		103.515625
5324		99.609375
5325		103.515625
5326		99.609375
5327		103.515625
5328		97.656250
5329		101.562500
5330		97.656250
5331		99.609375
5332		95.703125
5333		99.609375
5334		93.750000
5335		97.656250
5336		91.796875
5337		95.703125
5338		89.843750
5339		93.750000
5340		87.890625
5341		91.796875
5342		83.984375
5343		89.843750
5344		82.031250
5345		85.937500
5346		80.078125
5347		83.984375
5348		76.171875
5349		80.078125
5350		72.265625
5351		78.125000
5352		68.359375
5353		74.218750
5354		64.453125
5355		70.312500
5356		62.500000
5357		66.406250
5358		56.640625
5359		62.500000
5360		52.734375
5361		58.593750
5362		48.828125
5363		54.687500
5364		42.968750
5365		50.781250
5366		39.062500
5367		44.921875
5368		35.156250
5369		41.015625
5370		29.296875
5371		37.109375
5372		25.390625
5373		31.250000
5374		21.484375
5375		27.343750
5376		15.625000
5377		21.484375
5378		9.765625
5379		15.625000
5380		5.859375
5381		11.718750
5382		0.000000
5383		5.859375
5384		-5.859375
5385		0.000000
5386		-11.718750
5387		-3.906250
5388		-15.625000
5389		-9.765625
5390		-21.484375
5391		-13.671875
5392		-27.343750
5393		-19.531250
5394		-31.250000
5395		-25.390625
5396		-37.109375
5397		-29.296875
5398		-41.015625
5399		-35.156250
5400		-46.875000
5401		-41.015625
5402		-50.781250
5403		-44.921875
5404		-56.640625
5405		-48.828125
5406		-60.546875
5407		-54.687500
5408		-64.453125
5409		-58.593750
5410		-68.359375
5411		-62.500000
5412		-72.265625
5413		-66.406250
5414		-78.125000
5415		-70.312500
5416		-80.078125
5417		-74.218750
5418		-82.031250
5419		-78.125000
5420		-85.937500
5421		-82.031250
5422		-89.843750
5423		-83.984375
5424		-91.796875
5425		-87.890625
5426		-93.750000
5427		-89.843750
5428		-95.703125
5429		-91.796875
5430		-97.656250
5431		-93.750000
5432		-99.609375
5433		-95.703125
5434		-101.562500
5435		-97.656250
5436		-103.515625
5437		-99.609375
5438		-103.515625
5439		-99.609375
5440		-103.515625
5441		-101.562500
5442		-103.515625
5443		-101.562500
5444		-103.515625
5445		-101.562500
5446		-103.515625
5447		-101.562500
5448		-103.515625
5449		-99.609375
5450		-103.515625
5451		-99.609375
5452		-101.562500
5453		-97.656250
5454		-99.609375
5455		-97.656250
5456		-97.656250
5457		-93.750000
5458		-95.703125
5459		-93.750000
5460		-95.703125
5461		-89.843750
5462		-91.796875
5463		-87.890625
5464		-89.843750
5465		-85.937500
5466		-85.937500
5467		-82.031250
5468		-83.984375
5469		-78.125000
5470		-80.078125
5471		-76.171875
5472		-76.171875
5473		-72.265625
5474		-72.265625
5475		-68.359375
5476		-70.312500
5477		-64.453125
5478		-66.406250
5479		-58.593750
5480		-60.546875
5481		-54.687500
5482		-56.640625
5483		-50.781250
5484		-50.781250
5485		-44.921875
5486		-46.875000
5487		-41.015625
5488		-42.968750
5489		-35.156250
5490		-37.109375
5491		-31.250000
5492		-31.250000
5493		-25.390625
5494		-27.343750
5495		-21.484375
5496		-21.484375
5497		-15.625000
5498		-17.578125
5499		-9.765625
5500		-11.718750
5501		-3.906250
5502		-5.859375
5503		0.000000
5504		-1.953125
5505		5.859375
5506		3.906250
5507		9.765625
5508		7.812500
5509		15.625000
5510		13.671875
5511		21.484375
5512		19.531250
5513		25.390625
5514		23.437500
5515		29.296875
5516		29.296875
5517		35.156250
5518		33.203125
5519		39.062500
5520		39.062500
5521		44.921875
5522		42.968750
5523		48.828125
5524		46.875000
5525		54.687500
5526		52.734375
5527		58.593750
5528		54.687500
5529		62.500000
5530		60.546875
5531		66.406250
5532		64.453125
5533		70.312500
5534		68.359375
5535		72.265625
5536		72.265625
5537		78.125000
5538		74.218750
5539		80.078125
5540		78.125000
5541		82.031250
5542		80.078125
5543		85.937500
5544		83.984375
5545		87.890625
5546		85.937500
5547		89.843750
5548		89.843750
5549		91.796875
5550		91.796875
5551		95.703125
5552		93.750000
5553		97.656250
5554		95.703125
5555		97.656250
5556		95.703125
5557		99.609375
5558		97.656250
5559		101.562500
5560		97.656250
5561		103.515625
5562		99.609375
5563		103.515625
5564		101.562500
5565		103.515625
5566		101.562500
5567		103.515625
5568		101.562500
5569		105.468750
5570		101.562500
5571		103.515625
5572		101.562500
5573		103.515625
5574		99.609375
5575		103.515625
5576		99.609375
5577		103.515625
5578		99.609375
5579		103.515625
5580		97.656250
5581		101.562500
5582		95.703125
5583		99.609375
5584		95.703125
5585		99.609375
5586		93.750000
5587		97.656250
5588		91.796875
5589		95.703125
5590		89.843750
5591		93.750000
5592		85.937500
5593		91.796875
5594		83.984375
5595		89.843750
5596		82.031250
5597		85.937500
5598		78.125000
5599		83.984375
5600		76.171875
5601		80.078125
5602		72.265625
5603		78.125000
5604		68.359375
5605		74.218750
5606		64.453125
5607		70.312500
5608		60.546875
5609		66.406250
5610		56.640625
5611		62.500000
5612		52.734375
5613		58.593750
5614		48.828125
5615		54.687500
5616		44.921875
5617		50.781250
5618		39.062500
5619		46.875000
5620		35.156250
5621		41.015625
5622		29.296875
5623		37.109375
5624		25.390625
5625		31.250000
5626		19.531250
5627		25.390625
5628		15.625000
5629		21.484375
5630		9.765625
5631		15.625000
5632		3.906250
5633		11.718750
5634		0.000000
5635		5.859375
5636		-5.859375
5637		0.000000
5638		-11.718750
5639		-3.906250
5640		-17.578125
5641		-9.765625
5642		-21.484375
5643		-15.625000
5644		-27.343750
5645		-19.531250
5646		-31.250000
5647		-25.390625
5648		-37.109375
5649		-31.250000
5650		-41.015625
5651		-35.156250
5652		-46.875000
5653		-41.015625
5654		-50.781250
5655		-42.968750
5656		-56.640625
5657		-48.828125
5658		-60.546875
5659		-54.687500
5660		-64.453125
5661		-58.593750
5662		-68.359375
5663		-62.500000
5664		-72.265625
5665		-66.406250
5666		-76.171875
5667		-70.312500
5668		-80.078125
5669		-74.218750
5670		-83.984375
5671		-78.125000
5672		-85.937500
5673		-82.031250
5674		-89.843750
5675		-83.984375
5676		-91.796875
5677		-87.890625
5678		-95.703125
5679		-89.843750
5680		-95.703125
5681		-91.796875
5682		-97.656250
5683		-93.750000
5684		-99.609375
5685		-95.703125
5686		-101.562500
5687		-97.656250
5688		-101.562500
5689		-99.609375
5690		-103.515625
5691		-99.609375
5692		-103.515625
5693		-99.609375
5694		-103.515625
5695		-101.562500
5696		-103.515625
5697		-99.609375
5698		-103.515625
5699		-101.562500
5700		-103.515625
5701		-99.609375
5702		-103.515625
5703		-99.609375
5704		-101.562500
5705		-97.656250
5706		-99.609375
5707		-95.703125
5708		-97.656250
5709		-93.750000
5710		-95.703125
5711		-93.750000
5712		-95.703125
5713		-89.843750
5714		-91.796875
5715		-87.890625
5716		-89.843750
5717		-85.937500
5718		-87.890625
5719		-82.031250
5720		-83.984375
5721		-78.125000
5722		-82.031250
5723		-74.218750
5724		-76.171875
5725		-70.312500
5726		-74.218750
5727		-68.359375
5728		-68.359375
5729		-62.500000
5730		-66.406250
5731		-58.593750
5732		-60.546875
5733		-54.687500
5734		-56.640625
5735		-50.781250
5736		-52.734375
5737		-44.921875
5738		-46.875000
5739		-41.015625
5740		-42.968750
5741		-35.156250
5742		-39.062500
5743		-31.250000
5744		-33.203125
5745		-25.390625
5746		-27.343750
5747		-21.484375
5748		-21.484375
5749		-15.625000
5750		-17.578125
5751		-9.765625
5752		-11.718750
5753		-5.859375
5754		-7.812500
5755		0.000000
5756		-1.953125
5757		5.859375
5758		3.906250
5759		9.765625
5760		9.765625
5761		17.578125
5762		13.671875
5763		21.484375
5764		17.578125
5765		25.390625
5766		23.437500
5767		29.296875
5768		29.296875
5769		35.156250
5770		33.203125
5771		41.015625
5772		39.062500
5773		44.921875
5774		41.015625
5775		48.828125
5776		46.875000
5777		54.687500
5778		50.781250
5779		56.640625
5780		56.640625
5781		62.500000
5782		60.546875
5783		66.406250
5784		64.453125
5785		70.312500
5786		66.406250
5787		74.218750
5788		70.312500
5789		76.171875
5790		74.218750
5791		80.078125
5792		78.125000
5793		82.031250
5794		80.078125
5795		85.937500
5796		83.984375
5797		87.890625
5798		85.937500
5799		89.843750
5800		87.890625
5801		91.796875
5802		89.843750
5803		95.703125
5804		91.796875
5805		97.656250
5806		93.750000
5807		99.609375
5808		95.703125
5809		101.562500
5810		97.656250
5811		101.562500
5812		97.656250
5813		103.515625
5814		97.656250
5815		103.515625
5816		101.562500
5817		103.515625
5818		101.562500
5819		105.468750
5820		101.562500
5821		105.468750
5822		101.562500
5823		105.468750
5824		101.562500
5825		105.468750
5826		99.609375
5827		105.468750
5828		99.609375
5829		103.515625
5830		97.656250
5831		103.515625
5832		97.656250
5833		101.562500
5834		97.656250
5835		99.609375
5836		93.750000
5837		99.609375
5838		93.750000
5839		97.656250
5840		89.843750
5841		97.656250
5842		87.890625
5843		93.750000
5844		85.937500
5845		91.796875
5846		83.984375
5847		89.843750
5848		82.031250
5849		87.890625
5850		78.125000
5851		83.984375
5852		74.218750
5853		80.078125
5854		70.312500
5855		78.125000
5856		68.359375
5857		74.218750
5858		64.453125
5859		70.312500
5860		60.546875
5861		66.406250
5862		56.640625
5863		62.500000
5864		52.734375
5865		60.546875
5866		48.828125
5867		54.687500
5868		44.921875
5869		48.828125
5870		39.062500
5871		44.921875
5872		35.156250
5873		41.015625
5874		29.296875
5875		35.156250
5876		25.390625
5877		31.250000
5878		19.531250
5879		25.390625
5880		13.671875
5881		21.484375
5882		9.765625
5883		15.625000
5884		3.906250
5885		11.718750
5886		0.000000
5887		5.859375
5888		-5.859375
5889		0.000000
5890		-11.718750
5891		-3.906250
5892		-15.625000
5893		-9.765625
5894		-21.484375
5895		-15.625000
5896		-27.343750
5897		-19.531250
5898		-31.250000
5899		-25.390625
5900		-37.109375
5901		-31.250000
5902		-42.968750
5903		-35.156250
5904		-46.875000
5905		-39.062500
5906		-50.781250
5907		-44.921875
5908		-54.687500
5909		-48.828125
5910		-60.546875
5911		-54.687500
5912		-64.453125
5913		-58.593750
5914		-68.359375
5915		-62.500000
5916		-72.265625
5917		-68.359375
5918		-76.171875
5919		-72.265625
5920		-80.078125
5921		-74.218750
5922		-83.984375
5923		-78.125000
5924		-85.937500
5925		-82.031250
5926		-89.843750
5927		-83.984375
5928		-91.796875
5929		-87.890625
5930		-93.750000
5931		-89.843750
5932		-95.703125
5933		-93.750000
5934		-97.656250
5935		-93.750000
5936		-99.609375
5937		-95.703125
5938		-101.562500
5939		-97.656250
5940		-101.562500
5941		-99.609375
5942		-103.515625
5943		-99.609375
5944		-103.515625
5945		-101.562500
5946		-103.515625
5947		-101.562500
5948		-103.515625
5949		-101.562500
5950		-103.515625
5951		-101.562500
5952		-103.515625
5953		-99.609375
5954		-101.562500
5955		-99.609375
5956		-101.562500
5957		-97.656250
5958		-99.609375
5959		-97.656250
5960		-97.656250
5961		-95.703125
5962		-95.703125
5963		-91.796875
5964		-93.750000
5965		-89.843750
5966		-91.796875
5967		-87.890625
5968		-89.843750
5969		-85.937500
5970		-87.890625
5971		-80.078125
5972		-85.937500
5973		-76.171875
5974		-82.031250
5975		-72.265625
5976		-76.171875
5977		-72.265625
5978		-72.265625
5979		-68.359375
5980		-68.359375
5981		-64.453125
5982		-64.453125
5983		-60.546875
5984		-60.546875
5985		-54.687500
5986		-56.640625
5987		-46.875000
5988		-54.687500
5989		-42.968750
5990		-48.828125
5991		-37.109375
5992		-46.875000
5993		-35.156250
5994		-37.109375
5995		-31.250000
5996		-33.203125
5997		-25.390625
5998		-27.343750
5999		-21.484375
6000		-21.484375
6001		-15.625000
6002		-17.578125
6003		-9.765625
6004		-13.671875
6005		-5.859375
6006		-9.765625
6007		1.953125
6008		-3.906250
6009		5.859375
6010		3.906250
6011		9.765625
6012		9.765625
6013		15.625000
6014		13.671875
6015		21.484375
6016		19.531250
6017		25.390625
6018		23.437500
6019		31.250000
6020		29.296875
6021		39.062500
6022		33.203125
6023		42.968750
6024		37.109375
6025		48.828125
6026		42.968750
6027		48.828125
6028		46.875000
6029		52.734375
6030		52.734375
6031		56.640625
6032		56.640625
6033		62.500000
6034		60.546875
6035		64.453125
6036		64.453125
6037		72.265625
6038		64.453125
6039		76.171875
6040		68.359375
6041		78.125000
6042		70.312500
6043		82.031250
6044		78.125000
6045		82.031250
6046		82.031250
6047		85.937500
6048		83.984375
6049		87.890625
6050		85.937500
6051		89.843750
6052		89.843750
6053		93.750000
6054		87.890625
6055		97.656250
6056		89.843750
6057		99.609375
6058		91.796875
6059		101.562500
6060		95.703125
6061		99.609375
6062		97.656250
6063		101.562500
6064		99.609375
6065		101.562500
6066		99.609375
6067		103.515625
6068		101.562500
6069		103.515625
6070		97.656250
6071		107.421875
6072		97.656250
6073		107.421875
6074		99.609375
6075		107.421875
6076		99.609375
6077		107.421875
6078		101.562500
6079		103.515625
6080		99.609375
6081		103.515625
6082		99.609375
6083		101.562500
6084		97.656250
6085		101.562500
6086		97.656250
6087		99.609375
6088		91.796875
6089		103.515625
6090		91.796875
6091		101.562500
6092		89.843750
6093		99.609375
6094		89.843750
6095		93.750000
6096		85.937500
6097		91.796875
6098		83.984375
6099		87.890625
6100		82.031250
6101		85.937500
6102		80.078125
6103		83.984375
6104		72.265625
6105		82.031250
6106		68.359375
6107		80.078125
6108		64.453125
6109		76.171875
6110		64.453125
6111		70.312500
6112		60.546875
6113		66.406250
6114		56.640625
6115		62.500000
6116		52.734375
6117		58.593750
6118		48.828125
6119		54.687500
6120		41.015625
6121		50.781250
6122		37.109375
6123		48.828125
6124		31.250000
6125		42.968750
6126		29.296875
6127		41.015625
6128		25.390625
6129		31.250000
6130		19.531250
6131		25.390625
6132		15.625000
6133		21.484375
6134		9.765625
6135		15.625000
6136		3.906250
6137		11.718750
6138		-1.953125
6139		7.812500
6140		-9.765625
6141		1.953125
6142		-13.671875
6143		-3.906250
6144		-15.625000
6145		-9.765625
6146		-21.484375
6147		-15.625000
6148		-27.343750
6149		-19.531250
6150		-31.250000
6151		-25.390625
6152		-37.109375
6153		-31.250000
6154		-41.015625
6155		-35.156250
6156		-48.828125
6157		-41.015625
6158		-52.734375
6159		-42.968750
6160		-56.640625
6161		-50.781250
6162		-60.546875
6163		-54.687500
6164		-64.453125
6165		-58.593750
6166		-68.359375
6167		-62.500000
6168		-72.265625
6169		-66.406250
6170		-76.171875
6171		-70.312500
6172		-80.078125
6173		-74.218750
6174		-83.984375
6175		-76.171875
6176		-85.937500
6177		-78.125000
6178		-87.890625
6179		-83.984375
6180		-91.796875
6181		-87.890625
6182		-93.750000
6183		-89.843750
6184		-95.703125
6185		-91.796875
6186		-97.656250
6187		-93.750000
6188		-99.609375
6189		-95.703125
6190		-101.562500
6191		-95.703125
6192		-101.562500
6193		-97.656250
6194		-101.562500
6195		-99.609375
6196		-103.515625
6197		-101.562500
6198		-103.515625
6199		-101.562500
6200		-103.515625
6201		-101.562500
6202		-103.515625
6203		-101.562500
6204		-101.562500
6205		-99.609375
6206		-101.562500
6207		-99.609375
6208		-101.562500
6209		-97.656250
6210		-99.609375
6211		-95.703125
6212		-97.656250
6213		-93.750000
6214		-95.703125
6215		-91.796875
6216		-93.750000
6217		-89.843750
6218		-91.796875
6219		-87.890625
6220		-89.843750
6221		-83.984375
6222		-85.937500
6223		-82.031250
6224		-83.984375
6225		-78.125000
6226		-80.078125
6227		-74.218750
6228		-76.171875
6229		-70.312500
6230		-72.265625
6231		-68.359375
6232		-68.359375
6233		-62.500000
6234		-64.453125
6235		-58.593750
6236		-60.546875
6237		-54.687500
6238		-54.687500
6239		-50.781250
6240		-50.781250
6241		-44.921875
6242		-46.875000
6243		-41.015625
6244		-41.015625
6245		-35.156250
6246		-37.109375
6247		-31.250000
6248		-31.250000
6249		-25.390625
6250		-27.343750
6251		-19.531250
6252		-21.484375
6253		-15.625000
6254		-15.625000
6255		-9.765625
6256		-11.718750
6257		-3.906250
6258		-5.859375
6259		0.000000
6260		0.000000
6261		5.859375
6262		3.906250
6263		11.718750
6264		9.765625
6265		15.625000
6266		13.671875
6267		21.484375
6268		19.531250
6269		25.390625
6270		23.437500
6271		31.250000
6272		29.296875
6273		37.109375
6274		33.203125
6275		41.015625
6276		39.062500
6277		44.921875
6278		42.968750
6279		48.828125
6280		46.875000
6281		52.734375
6282		52.734375
6283		58.593750
6284		56.640625
6285		62.500000
6286		60.546875
6287		66.406250
6288		64.453125
6289		70.312500
6290		68.359375
6291		74.218750
6292		70.312500
6293		76.171875
6294		76.171875
6295		80.078125
6296		78.125000
6297		83.984375
6298		80.078125
6299		85.937500
6300		83.984375
6301		87.890625
6302		85.937500
6303		89.843750
6304		89.843750
6305		93.750000
6306		89.843750
6307		95.703125
6308		93.750000
6309		97.656250
6310		95.703125
6311		97.656250
6312		95.703125
6313		101.562500
6314		97.656250
6315		101.562500
6316		99.609375
6317		101.562500
6318		99.609375
6319		103.515625
6320		99.609375
6321		103.515625
6322		101.562500
6323		105.468750
6324		101.562500
6325		105.468750
6326		101.562500
6327		103.515625
6328		101.562500
6329		103.515625
6330		99.609375
6331		103.515625
6332		101.562500
6333		103.515625
6334		99.609375
6335		101.562500
6336		97.656250
6337		101.562500
6338		97.656250
6339		99.609375
6340		93.750000
6341		101.562500
6342		93.750000
6343		97.656250
6344		91.796875
6345		95.703125
6346		89.843750
6347		93.750000
6348		87.890625
6349		91.796875
6350		83.984375
6351		87.890625
6352		82.031250
6353		85.937500
6354		78.125000
6355		83.984375
6356		74.218750
6357		80.078125
6358		72.265625
6359		78.125000
6360		68.359375
6361		74.218750
6362		64.453125
6363		70.312500
6364		60.546875
6365		68.359375
6366		56.640625
6367		62.500000
6368		52.734375
6369		58.593750
6370		48.828125
6371		54.687500
6372		42.968750
6373		48.828125
6374		39.062500
6375		44.921875
6376		35.156250
6377		41.015625
6378		29.296875
6379		35.156250
6380		25.390625
6381		31.250000
6382		19.531250
6383		27.343750
6384		15.625000
6385		21.484375
6386		9.765625
6387		15.625000
6388		3.906250
6389		11.718750
6390		0.000000
6391		5.859375
6392		-5.859375
6393		0.000000
6394		-11.718750
6395		-3.906250
6396		-15.625000
6397		-9.765625
6398		-21.484375
6399		-15.625000
6400		-27.343750
6401		-19.531250
6402		-31.250000
6403		-25.390625
6404		-37.109375
6405		-31.250000
6406		-42.968750
6407		-35.156250
6408		-46.875000
6409		-39.062500
6410		-50.781250
6411		-44.921875
6412		-56.640625
6413		-48.828125
6414		-60.546875
6415		-52.734375
6416		-64.453125
6417		-58.593750
6418		-68.359375
6419		-62.500000
6420		-72.265625
6421		-66.406250
6422		-76.171875
6423		-70.312500
6424		-80.078125
6425		-74.218750
6426		-82.031250
6427		-78.125000
6428		-85.937500
6429		-80.078125
6430		-89.843750
6431		-83.984375
6432		-91.796875
6433		-87.890625
6434		-93.750000
6435		-89.843750
6436		-95.703125
6437		-91.796875
6438		-97.656250
6439		-93.750000
6440		-99.609375
6441		-95.703125
6442		-99.609375
6443		-97.656250
6444		-101.562500
6445		-99.609375
6446		-101.562500
6447		-99.609375
6448		-103.515625
6449		-99.609375
6450		-103.515625
6451		-101.562500
6452		-103.515625
6453		-101.562500
6454		-103.515625
6455		-101.562500
6456		-101.562500
6457		-99.609375
6458		-101.562500
6459		-99.609375
6460		-101.562500
6461		-97.656250
6462		-99.609375
6463		-95.703125
6464		-97.656250
6465		-93.750000
6466		-95.703125
6467		-91.796875
6468		-93.750000
6469		-89.843750
6470		-91.796875
6471		-87.890625
6472		-89.843750
6473		-83.984375
6474		-85.937500
6475		-82.031250
6476		-83.984375
6477		-78.125000
6478		-80.078125
6479		-74.218750
6480		-76.171875
6481		-70.312500
6482		-72.265625
6483		-66.406250
6484		-68.359375
6485		-62.500000
6486		-64.453125
6487		-58.593750
6488		-60.546875
6489		-54.687500
6490		-56.640625
6491		-50.781250
6492		-50.781250
6493		-44.921875
6494		-46.875000
6495		-41.015625
6496		-41.015625
6497		-35.156250
6498		-37.109375
6499		-31.250000
6500		-31.250000
6501		-25.390625
6502		-27.343750
6503		-19.531250
6504		-21.484375
6505		-15.625000
6506		-15.625000
6507		-9.765625
6508		-11.718750
6509		-3.906250
6510		-5.859375
6511		0.000000
6512		0.000000
6513		5.859375
6514		3.906250
6515		11.718750
6516		9.765625
6517		15.625000
6518		15.625000
6519		21.484375
6520		19.531250
6521		25.390625
6522		25.390625
6523		31.250000
6524		29.296875
6525		35.156250
6526		35.156250
6527		41.015625
6528		39.062500
6529		44.921875
6530		42.968750
6531		48.828125
6532		48.828125
6533		54.687500
6534		52.734375
6535		58.593750
6536		56.640625
6537		62.500000
6538		60.546875
6539		66.406250
6540		64.453125
6541		70.312500
6542		68.359375
6543		74.218750
6544		72.265625
6545		76.171875
6546		76.171875
6547		80.078125
6548		78.125000
6549		82.031250
6550		82.031250
6551		85.937500
6552		83.984375
6553		87.890625
6554		87.890625
6555		89.843750
6556		89.843750
6557		93.750000
6558		91.796875
6559		95.703125
6560		93.750000
6561		97.656250
6562		95.703125
6563		97.656250
6564		97.656250
6565		99.609375
6566		97.656250
6567		101.562500
6568		99.609375
6569		101.562500
6570		99.609375
6571		103.515625
6572		101.562500
6573		103.515625
6574		99.609375
6575		105.468750
6576		101.562500
6577		103.515625
6578		101.562500
6579		103.515625
6580		101.562500
6581		103.515625
6582		101.562500
6583		103.515625
6584		99.609375
6585		103.515625
6586		99.609375
6587		103.515625
6588		99.609375
6589		101.562500
6590		97.656250
6591		99.609375
6592		95.703125
6593		99.609375
6594		93.750000
6595		99.609375
6596		91.796875
6597		95.703125
6598		89.843750
6599		93.750000
6600		87.890625
6601		91.796875
6602		83.984375
6603		89.843750
6604		82.031250
6605		85.937500
6606		78.125000
6607		83.984375
6608		74.218750
6609		80.078125
6610		72.265625
6611		78.125000
6612		70.312500
6613		74.218750
6614		66.406250
6615		70.312500
6616		62.500000
6617		66.406250
6618		56.640625
6619		62.500000
6620		52.734375
6621		58.593750
6622		48.828125
6623		54.687500
6624		44.921875
6625		50.781250
6626		39.062500
6627		48.828125
6628		35.156250
6629		42.968750
6630		29.296875
6631		37.109375
6632		25.390625
6633		31.250000
6634		19.531250
6635		25.390625
6636		15.625000
6637		21.484375
6638		9.765625
6639		15.625000
6640		5.859375
6641		11.718750
6642		-1.953125
6643		5.859375
6644		-5.859375
6645		1.953125
6646		-9.765625
6647		-3.906250
6648		-15.625000
6649		-9.765625
6650		-21.484375
6651		-15.625000
6652		-27.343750
6653		-19.531250
6654		-31.250000
6655		-25.390625
6656		-35.156250
6657		-29.296875
6658		-42.968750
6659		-35.156250
6660		-46.875000
6661		-37.109375
6662		-50.781250
6663		-42.968750
6664		-54.687500
6665		-48.828125
6666		-58.593750
6667		-54.687500
6668		-64.453125
6669		-58.593750
6670		-68.359375
6671		-62.500000
6672		-72.265625
6673		-66.406250
6674		-76.171875
6675		-70.312500
6676		-80.078125
6677		-72.265625
6678		-82.031250
6679		-76.171875
6680		-85.937500
6681		-82.031250
6682		-87.890625
6683		-83.984375
6684		-89.843750
6685		-87.890625
6686		-93.750000
6687		-89.843750
6688		-95.703125
6689		-91.796875
6690		-97.656250
6691		-93.750000
6692		-101.562500
6693		-95.703125
6694		-101.562500
6695		-95.703125
6696		-101.562500
6697		-97.656250
6698		-101.562500
6699		-99.609375
6700		-101.562500
6701		-99.609375
6702		-103.515625
6703		-99.609375
6704		-103.515625
6705		-99.609375
6706		-101.562500
6707		-99.609375
6708		-101.562500
6709		-99.609375
6710		-103.515625
6711		-97.656250
6712		-101.562500
6713		-95.703125
6714		-99.609375
6715		-95.703125
6716		-97.656250
6717		-93.750000
6718		-95.703125
6719		-91.796875
6720		-93.750000
6721		-89.843750
6722		-91.796875
6723		-87.890625
6724		-87.890625
6725		-83.984375
6726		-85.937500
6727		-80.078125
6728		-83.984375
6729		-78.125000
6730		-80.078125
6731		-74.218750
6732		-76.171875
6733		-70.312500
6734		-72.265625
6735		-66.406250
6736		-68.359375
6737		-62.500000
6738		-64.453125
6739		-58.593750
6740		-60.546875
6741		-54.687500
6742		-54.687500
6743		-46.875000
6744		-52.734375
6745		-42.968750
6746		-46.875000
6747		-39.062500
6748		-41.015625
6749		-35.156250
6750		-35.156250
6751		-29.296875
6752		-31.250000
6753		-25.390625
6754		-25.390625
6755		-19.531250
6756		-21.484375
6757		-13.671875
6758		-15.625000
6759		-9.765625
6760		-11.718750
6761		-3.906250
6762		-5.859375
6763		1.953125
6764		0.000000
6765		5.859375
6766		5.859375
6767		11.718750
6768		9.765625
6769		15.625000
6770		15.625000
6771		21.484375
6772		19.531250
6773		27.343750
6774		25.390625
6775		31.250000
6776		29.296875
6777		37.109375
6778		35.156250
6779		41.015625
6780		39.062500
6781		44.921875
6782		42.968750
6783		48.828125
6784		48.828125
6785		54.687500
6786		52.734375
6787		58.593750
6788		56.640625
6789		62.500000
6790		60.546875
6791		66.406250
6792		64.453125
6793		70.312500
6794		68.359375
6795		74.218750
6796		72.265625
6797		76.171875
6798		76.171875
6799		80.078125
6800		78.125000
6801		83.984375
6802		82.031250
6803		85.937500
6804		83.984375
6805		87.890625
6806		87.890625
6807		91.796875
6808		89.843750
6809		93.750000
6810		91.796875
6811		95.703125
6812		93.750000
6813		97.656250
6814		95.703125
6815		99.609375
6816		97.656250
6817		99.609375
6818		97.656250
6819		101.562500
6820		99.609375
6821		101.562500
6822		101.562500
6823		103.515625
6824		101.562500
6825		103.515625
6826		101.562500
6827		103.515625
6828		101.562500
6829		105.468750
6830		103.515625
6831		103.515625
6832		101.562500
6833		105.468750
6834		101.562500
6835		103.515625
6836		101.562500
6837		103.515625
6838		99.609375
6839		103.515625
6840		99.609375
6841		101.562500
6842		97.656250
6843		101.562500
6844		95.703125
6845		99.609375
6846		95.703125
6847		97.656250
6848		91.796875
6849		95.703125
6850		89.843750
6851		93.750000
6852		87.890625
6853		91.796875
6854		85.937500
6855		89.843750
6856		82.031250
6857		87.890625
6858		80.078125
6859		83.984375
6860		76.171875
6861		82.031250
6862		72.265625
6863		78.125000
6864		70.312500
6865		74.218750
6866		66.406250
6867		70.312500
6868		62.500000
6869		68.359375
6870		58.593750
6871		64.453125
6872		54.687500
6873		60.546875
6874		48.828125
6875		54.687500
6876		44.921875
6877		50.781250
6878		41.015625
6879		46.875000
6880		35.156250
6881		41.015625
6882		31.250000
6883		37.109375
6884		25.390625
6885		31.250000
6886		21.484375
6887		27.343750
6888		15.625000
6889		21.484375
6890		11.718750
6891		17.578125
6892		5.859375
6893		11.718750
6894		0.000000
6895		7.812500
6896		-3.906250
6897		1.953125
6898		-9.765625
6899		-3.906250
6900		-15.625000
6901		-9.765625
6902		-19.531250
6903		-13.671875
6904		-25.390625
6905		-19.531250
6906		-31.250000
6907		-23.437500
6908		-35.156250
6909		-29.296875
6910		-41.015625
6911		-35.156250
6912		-44.921875
6913		-39.062500
6914		-50.781250
6915		-44.921875
6916		-54.687500
6917		-48.828125
6918		-58.593750
6919		-52.734375
6920		-62.500000
6921		-56.640625
6922		-66.406250
6923		-62.500000
6924		-72.265625
6925		-66.406250
6926		-74.218750
6927		-70.312500
6928		-78.125000
6929		-74.218750
6930		-82.031250
6931		-78.125000
6932		-83.984375
6933		-80.078125
6934		-87.890625
6935		-83.984375
6936		-89.843750
6937		-85.937500
6938		-93.750000
6939		-89.843750
6940		-95.703125
6941		-91.796875
6942		-95.703125
6943		-93.750000
6944		-99.609375
6945		-95.703125
6946		-99.609375
6947		-97.656250
6948		-101.562500
6949		-97.656250
6950		-101.562500
6951		-99.609375
6952		-101.562500
6953		-99.609375
6954		-101.562500
6955		-99.609375
6956		-103.515625
6957		-99.609375
6958		-101.562500
6959		-99.609375
6960		-101.562500
6961		-99.609375
6962		-99.609375
6963		-97.656250
6964		-99.609375
6965		-97.656250
6966		-97.656250
6967		-95.703125
6968		-95.703125
6969		-93.750000
6970		-95.703125
6971		-91.796875
6972		-93.750000
6973		-89.843750
6974		-89.843750
6975		-85.937500
6976		-87.890625
6977		-83.984375
6978		-85.937500
6979		-80.078125
6980		-82.031250
6981		-78.125000
6982		-78.125000
6983		-74.218750
6984		-76.171875
6985		-70.312500
6986		-70.312500
6987		-66.406250
6988		-66.406250
6989		-62.500000
6990		-62.500000
6991		-58.593750
6992		-58.593750
6993		-52.734375
6994		-54.687500
6995		-48.828125
6996		-50.781250
6997		-44.921875
6998		-44.921875
6999		-39.062500
7000		-41.015625
7001		-35.156250
7002		-35.156250
7003		-29.296875
7004		-31.250000
7005		-25.390625
7006		-25.390625
7007		-19.531250
7008		-21.484375
7009		-13.671875
7010		-15.625000
7011		-9.765625
7012		-9.765625
7013		-3.906250
7014		-5.859375
7015		1.953125
7016		0.000000
7017		5.859375
7018		5.859375
7019		11.718750
7020		9.765625
7021		17.578125
7022		15.625000
7023		21.484375
7024		21.484375
7025		27.343750
7026		25.390625
7027		31.250000
7028		31.250000
7029		37.109375
7030		35.156250
7031		42.968750
7032		39.062500
7033		44.921875
7034		44.921875
7035		50.781250
7036		48.828125
7037		54.687500
7038		52.734375
7039		58.593750
7040		56.640625
7041		62.500000
7042		60.546875
7043		66.406250
7044		64.453125
7045		70.312500
7046		68.359375
7047		74.218750
7048		72.265625
7049		76.171875
7050		76.171875
7051		80.078125
7052		78.125000
7053		83.984375
7054		82.031250
7055		85.937500
7056		83.984375
7057		89.843750
7058		87.890625
7059		91.796875
7060		89.843750
7061		93.750000
7062		91.796875
7063		95.703125
7064		93.750000
7065		97.656250
7066		95.703125
7067		99.609375
7068		97.656250
7069		99.609375
7070		99.609375
7071		101.562500
7072		99.609375
7073		103.515625
7074		101.562500
7075		103.515625
7076		101.562500
7077		103.515625
7078		101.562500
7079		105.468750
7080		103.515625
7081		105.468750
7082		103.515625
7083		105.468750
7084		103.515625
7085		105.468750
7086		101.562500
7087		105.468750
7088		101.562500
7089		103.515625
7090		99.609375
7091		103.515625
7092		99.609375
7093		101.562500
7094		97.656250
7095		101.562500
7096		95.703125
7097		99.609375
7098		93.750000
7099		97.656250
7100		93.750000
7101		95.703125
7102		89.843750
7103		93.750000
7104		87.890625
7105		91.796875
7106		83.984375
7107		89.843750
7108		82.031250
7109		87.890625
7110		80.078125
7111		83.984375
7112		76.171875
7113		80.078125
7114		74.218750
7115		78.125000
7116		70.312500
7117		74.218750
7118		66.406250
7119		70.312500
7120		62.500000
7121		66.406250
7122		58.593750
7123		62.500000
7124		54.687500
7125		58.593750
7126		48.828125
7127		54.687500
7128		44.921875
7129		50.781250
7130		41.015625
7131		46.875000
7132		35.156250
7133		41.015625
7134		31.250000
7135		37.109375
7136		25.390625
7137		31.250000
7138		21.484375
7139		27.343750
7140		15.625000
7141		21.484375
7142		9.765625
7143		17.578125
7144		5.859375
7145		11.718750
7146		0.000000
7147		5.859375
7148		-5.859375
7149		1.953125
7150		-9.765625
7151		-3.906250
7152		-15.625000
7153		-9.765625
7154		-19.531250
7155		-13.671875
7156		-25.390625
7157		-19.531250
7158		-31.250000
7159		-23.437500
7160		-35.156250
7161		-29.296875
7162		-41.015625
7163		-33.203125
7164		-44.921875
7165		-39.062500
7166		-50.781250
7167		-44.921875
7168		-54.687500
7169		-48.828125
7170		-58.593750
7171		-52.734375
7172		-62.500000
7173		-58.593750
7174		-66.406250
7175		-62.500000
7176		-70.312500
7177		-66.406250
7178		-74.218750
7179		-70.312500
7180		-78.125000
7181		-74.218750
7182		-82.031250
7183		-76.171875
7184		-83.984375
7185		-80.078125
7186		-87.890625
7187		-83.984375
7188		-89.843750
7189		-85.937500
7190		-91.796875
7191		-89.843750
7192		-95.703125
7193		-91.796875
7194		-95.703125
7195		-93.750000
7196		-97.656250
7197		-95.703125
7198		-99.609375
7199		-95.703125
7200		-101.562500
7201		-97.656250
7202		-101.562500
7203		-99.609375
7204		-101.562500
7205		-99.609375
7206		-101.562500
7207		-99.609375
7208		-101.562500
7209		-99.609375
7210		-101.562500
7211		-99.609375
7212		-101.562500
7213		-99.609375
7214		-99.609375
7215		-97.656250
7216		-99.609375
7217		-97.656250
7218		-97.656250
7219		-95.703125
7220		-95.703125
7221		-93.750000
7222		-95.703125
7223		-91.796875
7224		-91.796875
7225		-87.890625
7226		-89.843750
7227		-85.937500
7228		-87.890625
7229		-83.984375
7230		-85.937500
7231		-80.078125
7232		-82.031250
7233		-76.171875
7234		-78.125000
7235		-74.218750
7236		-74.218750
7237		-70.312500
7238		-70.312500
7239		-66.406250
7240		-66.406250
7241		-62.500000
7242		-62.500000
7243		-58.593750
7244		-58.593750
7245		-52.734375
7246		-54.687500
7247		-48.828125
7248		-50.781250
7249		-42.968750
7250		-44.921875
7251		-39.062500
7252		-41.015625
7253		-35.156250
7254		-35.156250
7255		-29.296875
7256		-31.250000
7257		-23.437500
7258		-25.390625
7259		-19.531250
7260		-19.531250
7261		-13.671875
7262		-15.625000
7263		-9.765625
7264		-9.765625
7265		-3.906250
7266		-5.859375
7267		1.953125
7268		0.000000
7269		5.859375
7270		5.859375
7271		11.718750
7272		9.765625
7273		17.578125
7274		15.625000
7275		21.484375
7276		21.484375
7277		27.343750
7278		25.390625
7279		31.250000
7280		31.250000
7281		37.109375
7282		35.156250
7283		41.015625
7284		39.062500
7285		44.921875
7286		44.921875
7287		50.781250
7288		48.828125
7289		54.687500
7290		52.734375
7291		58.593750
7292		56.640625
7293		62.500000
7294		60.546875
7295		66.406250
7296		66.406250
7297		70.312500
7298		68.359375
7299		74.218750
7300		72.265625
7301		78.125000
7302		76.171875
7303		80.078125
7304		80.078125
7305		83.984375
7306		82.031250
7307		85.937500
7308		85.937500
7309		89.843750
7310		87.890625
7311		91.796875
7312		89.843750
7313		93.750000
7314		91.796875
7315		95.703125
7316		93.750000
7317		97.656250
7318		95.703125
7319		99.609375
7320		97.656250
7321		101.562500
7322		99.609375
7323		101.562500
7324		101.562500
7325		103.515625
7326		99.609375
7327		103.515625
7328		101.562500
7329		105.468750
7330		103.515625
7331		105.468750
7332		103.515625
7333		105.468750
7334		103.515625
7335		105.468750
7336		103.515625
7337		105.468750
7338		101.562500
7339		105.468750
7340		101.562500
7341		103.515625
7342		101.562500
7343		103.515625
7344		99.609375
7345		101.562500
7346		97.656250
7347		101.562500
7348		97.656250
7349		99.609375
7350		95.703125
7351		97.656250
7352		93.750000
7353		95.703125
7354		91.796875
7355		93.750000
7356		87.890625
7357		91.796875
7358		85.937500
7359		89.843750
7360		82.031250
7361		87.890625
7362		80.078125
7363		83.984375
7364		76.171875
7365		82.031250
7366		74.218750
7367		78.125000
7368		70.312500
7369		74.218750
7370		66.406250
7371		72.265625
7372		62.500000
7373		68.359375
7374		58.593750
7375		64.453125
7376		54.687500
7377		60.546875
7378		50.781250
7379		54.687500
7380		44.921875
7381		50.781250
7382		41.015625
7383		46.875000
7384		37.109375
7385		41.015625
7386		31.250000
7387		37.109375
7388		25.390625
7389		33.203125
7390		21.484375
7391		27.343750
7392		15.625000
7393		21.484375
7394		11.718750
7395		17.578125
7396		5.859375
7397		11.718750
7398		0.000000
7399		7.812500
7400		-3.906250
7401		1.953125
7402		-9.765625
7403		-3.906250
7404		-15.625000
7405		-7.812500
7406		-19.531250
7407		-13.671875
7408		-25.390625
7409		-19.531250
7410		-31.250000
7411		-23.437500
7412		-35.156250
7413		-29.296875
7414		-39.062500
7415		-33.203125
7416		-44.921875
7417		-39.062500
7418		-48.828125
7419		-42.968750
7420		-54.687500
7421		-48.828125
7422		-58.593750
7423		-52.734375
7424		-62.500000
7425		-56.640625
7426		-66.406250
7427		-60.546875
7428		-70.312500
7429		-66.406250
7430		-74.218750
7431		-70.312500
7432		-78.125000
7433		-74.218750
7434		-82.031250
7435		-76.171875
7436		-83.984375
7437		-80.078125
7438		-87.890625
7439		-83.984375
7440		-89.843750
7441		-85.937500
7442		-91.796875
7443		-87.890625
7444		-93.750000
7445		-89.843750
7446		-95.703125
7447		-93.750000
7448		-97.656250
7449		-93.750000
7450		-99.609375
7451		-95.703125
7452		-99.609375
7453		-97.656250
7454		-101.562500
7455		-97.656250
7456		-101.562500
7457		-99.609375
7458		-103.515625
7459		-99.609375
7460		-101.562500
7461		-99.609375
7462		-101.562500
7463		-99.609375
7464		-101.562500
7465		-97.656250
7466		-99.609375
7467		-97.656250
7468		-99.609375
7469		-95.703125
7470		-97.656250
7471		-95.703125
7472		-95.703125
7473		-93.750000
7474		-93.750000
7475		-91.796875
7476		-91.796875
7477		-87.890625
7478		-89.843750
7479		-85.937500
7480		-87.890625
7481		-82.031250
7482		-83.984375
7483		-80.078125
7484		-82.031250
7485		-76.171875
7486		-78.125000
7487		-74.218750
7488		-74.218750
7489		-68.359375
7490		-70.312500
7491		-66.406250
7492		-66.406250
7493		-62.500000
7494		-62.500000
7495		-56.640625
7496		-58.593750
7497		-52.734375
7498		-54.687500
7499		-48.828125
7500		-48.828125
7501		-42.968750
7502		-44.921875
7503		-39.062500
7504		-41.015625
7505		-33.203125
7506		-35.156250
7507		-29.296875
7508		-29.296875
7509		-23.437500
7510		-25.390625
7511		-19.531250
7512		-19.531250
7513		-13.671875
7514		-15.625000
7515		-7.812500
7516		-9.765625
7517		-3.906250
7518		-3.906250
7519		1.953125
7520		0.000000
7521		7.812500
7522		5.859375
7523		11.718750
7524		11.718750
7525		17.578125
7526		15.625000
7527		21.484375
7528		21.484375
7529		27.343750
7530		25.390625
7531		31.250000
7532		31.250000
7533		37.109375
7534		35.156250
7535		41.015625
7536		41.015625
7537		46.875000
7538		44.921875
7539		50.781250
7540		48.828125
7541		54.687500
7542		52.734375
7543		58.593750
7544		58.593750
7545		62.500000
7546		62.500000
7547		66.406250
7548		66.406250
7549		70.312500
7550		70.312500
7551		74.218750
7552		72.265625
7553		78.125000
7554		76.171875
7555		80.078125
7556		80.078125
7557		83.984375
7558		82.031250
7559		85.937500
7560		85.937500
7561		89.843750
7562		87.890625
7563		91.796875
7564		89.843750
7565		93.750000
7566		91.796875
7567		95.703125
7568		93.750000
7569		97.656250
7570		95.703125
7571		99.609375
7572		97.656250
7573		101.562500
7574		99.609375
7575		101.562500
7576		99.609375
7577		103.515625
7578		101.562500
7579		103.515625
7580		101.562500
7581		105.468750
7582		101.562500
7583		105.468750
7584		103.515625
7585		105.468750
7586		103.515625
7587		105.468750
7588		103.515625
7589		105.468750
7590		101.562500
7591		105.468750
7592		101.562500
7593		103.515625
7594		101.562500
7595		103.515625
7596		99.609375
7597		101.562500
7598		97.656250
7599		101.562500
7600		97.656250
7601		99.609375
7602		95.703125
7603		99.609375
7604		91.796875
7605		97.656250
7606		91.796875
7607		93.750000
7608		87.890625
7609		91.796875
7610		85.937500
7611		89.843750
7612		83.984375
7613		87.890625
7614		80.078125
7615		83.984375
7616		76.171875
7617		82.031250
7618		74.218750
7619		78.125000
7620		68.359375
7621		74.218750
7622		66.406250
7623		72.265625
7624		62.500000
7625		68.359375
7626		58.593750
7627		66.406250
7628		54.687500
7629		60.546875
7630		48.828125
7631		54.687500
7632		44.921875
7633		50.781250
7634		41.015625
7635		46.875000
7636		35.156250
7637		41.015625
7638		31.250000
7639		37.109375
7640		25.390625
7641		33.203125
7642		21.484375
7643		27.343750
7644		15.625000
7645		23.437500
7646		11.718750
7647		19.531250
7648		5.859375
7649		11.718750
7650		0.000000
7651		7.812500
7652		-3.906250
7653		1.953125
7654		-11.718750
7655		-3.906250
7656		-15.625000
7657		-7.812500
7658		-19.531250
7659		-13.671875
7660		-25.390625
7661		-17.578125
7662		-31.250000
7663		-23.437500
7664		-35.156250
7665		-29.296875
7666		-39.062500
7667		-33.203125
7668		-46.875000
7669		-39.062500
7670		-48.828125
7671		-42.968750
7672		-54.687500
7673		-46.875000
7674		-58.593750
7675		-52.734375
7676		-62.500000
7677		-56.640625
7678		-66.406250
7679		-60.546875
7680		-70.312500
7681		-62.500000
7682		-74.218750
7683		-70.312500
7684		-78.125000
7685		-72.265625
7686		-83.984375
7687		-76.171875
7688		-85.937500
7689		-80.078125
7690		-87.890625
7691		-83.984375
7692		-91.796875
7693		-85.937500
7694		-91.796875
7695		-87.890625
7696		-95.703125
7697		-87.890625
7698		-95.703125
7699		-93.750000
7700		-97.656250
7701		-95.703125
7702		-101.562500
7703		-95.703125
7704		-103.515625
7705		-93.750000
7706		-101.562500
7707		-97.656250
7708		-103.515625
7709		-99.609375
7710		-105.468750
7711		-95.703125
7712		-105.468750
7713		-97.656250
7714		-101.562500
7715		-99.609375
7716		-101.562500
7717		-99.609375
7718		-101.562500
7719		-95.703125
7720		-101.562500
7721		-93.750000
7722		-99.609375
7723		-93.750000
7724		-95.703125
7725		-93.750000
7726		-95.703125
7727		-87.890625
7728		-95.703125
7729		-87.890625
7730		-93.750000
7731		-85.937500
7732		-87.890625
7733		-83.984375
7734		-83.984375
7735		-78.125000
7736		-83.984375
7737		-74.218750
7738		-82.031250
7739		-72.265625
7740		-76.171875
7741		-70.312500
7742		-70.312500
7743		-66.406250
7744		-70.312500
7745		-60.546875
7746		-64.453125
7747		-54.687500
7748		-58.593750
7749		-52.734375
7750		-54.687500
7751		-48.828125
7752		-50.781250
7753		-42.968750
7754		-46.875000
7755		-39.062500
7756		-41.015625
7757		-35.156250
7758		-35.156250
7759		-29.296875
7760		-31.250000
7761		-19.531250
7762		-29.296875
7763		-19.531250
7764		-23.437500
7765		-13.671875
7766		-15.625000
7767		-9.765625
7768		-9.765625
7769		-3.906250
7770		-5.859375
7771		5.859375
7772		0.000000
7773		5.859375
7774		5.859375
7775		11.718750
7776		9.765625
7777		19.531250
7778		13.671875
7779		23.437500
7780		21.484375
7781		27.343750
7782		25.390625
7783		31.250000
7784		31.250000
7785		37.109375
7786		35.156250
7787		42.968750
7788		37.109375
7789		46.875000
7790		44.921875
7791		50.781250
7792		48.828125
7793		54.687500
7794		50.781250
7795		60.546875
7796		56.640625
7797		64.453125
7798		60.546875
7799		66.406250
7800		64.453125
7801		70.312500
7802		68.359375
7803		74.218750
7804		70.312500
7805		80.078125
7806		74.218750
7807		80.078125
7808		80.078125
7809		83.984375
7810		82.031250
7811		89.843750
7812		80.078125
7813		89.843750
7814		83.984375
7815		91.796875
7816		89.843750
7817		93.750000
7818		91.796875
7819		95.703125
7820		91.796875
7821		99.609375
7822		91.796875
7823		101.562500
7824		95.703125
7825		99.609375
7826		97.656250
7827		101.562500
7828		95.703125
7829		105.468750
7830		97.656250
7831		105.468750
7832		101.562500
7833		103.515625
7834		101.562500
7835		105.468750
7836		101.562500
7837		105.468750
7838		99.609375
7839		107.421875
7840		101.562500
7841		105.468750
7842		101.562500
7843		105.468750
7844		97.656250
7845		107.421875
7846		97.656250
7847		105.468750
7848		99.609375
7849		103.515625
7850		97.656250
7851		101.562500
7852		95.703125
7853		99.609375
7854		91.796875
7855		99.609375
7856		91.796875
7857		95.703125
7858		89.843750
7859		93.750000
7860		85.937500
7861		91.796875
7862		82.031250
7863		91.796875
7864		82.031250
7865		87.890625
7866		80.078125
7867		83.984375
7868		76.171875
7869		82.031250
7870		72.265625
7871		78.125000
7872		66.406250
7873		76.171875
7874		66.406250
7875		72.265625
7876		60.546875
7877		66.406250
7878		54.687500
7879		64.453125
7880		50.781250
7881		58.593750
7882		48.828125
7883		54.687500
7884		44.921875
7885		50.781250
7886		39.062500
7887		46.875000
7888		33.203125
7889		42.968750
7890		29.296875
7891		37.109375
7892		25.390625
7893		31.250000
7894		19.531250
7895		27.343750
7896		15.625000
7897		21.484375
7898		9.765625
7899		19.531250
7900		5.859375
7901		11.718750
7902		0.000000
7903		5.859375
7904		-3.906250
7905		1.953125
7906		-11.718750
7907		0.000000
7908		-15.625000
7909		-7.812500
7910		-19.531250
7911		-13.671875
7912		-25.390625
7913		-17.578125
7914		-31.250000
7915		-25.390625
7916		-35.156250
7917		-29.296875
7918		-41.015625
7919		-33.203125
7920		-44.921875
7921		-39.062500
7922		-48.828125
7923		-44.921875
7924		-54.687500
7925		-48.828125
7926		-58.593750
7927		-52.734375
7928		-64.453125
7929		-56.640625
7930		-68.359375
7931		-62.500000
7932		-70.312500
7933		-66.406250
7934		-74.218750
7935		-70.312500
7936		-80.078125
7937		-74.218750
7938		-82.031250
7939		-76.171875
7940		-83.984375
7941		-80.078125
7942		-87.890625
7943		-83.984375
7944		-89.843750
7945		-85.937500
7946		-91.796875
7947		-89.843750
7948		-95.703125
7949		-91.796875
7950		-95.703125
7951		-93.750000
7952		-97.656250
7953		-95.703125
7954		-99.609375
7955		-95.703125
7956		-101.562500
7957		-97.656250
7958		-101.562500
7959		-99.609375
7960		-101.562500
7961		-97.656250
7962		-101.562500
7963		-99.609375
7964		-101.562500
7965		-99.609375
7966		-103.515625
7967		-99.609375
7968		-101.562500
7969		-99.609375
7970		-101.562500
7971		-97.656250
7972		-101.562500
7973		-95.703125
7974		-99.609375
7975		-93.750000
7976		-99.609375
7977		-91.796875
7978		-95.703125
7979		-89.843750
7980		-93.750000
7981		-87.890625
7982		-91.796875
7983		-85.937500
7984		-87.890625
7985		-83.984375
7986		-83.984375
7987		-80.078125
7988		-83.984375
7989		-76.171875
7990		-80.078125
7991		-72.265625
7992		-76.171875
7993		-68.359375
7994		-74.218750
7995		-64.453125
7996		-68.359375
7997		-60.546875
7998		-64.453125
7999		-56.640625
8000		-58.593750
8001		-54.687500
8002		-54.687500
8003		-48.828125
8004		-50.781250
8005		-42.968750
8006		-46.875000
8007		-37.109375
8008		-42.968750
8009		-33.203125
8010		-37.109375
8011		-29.296875
8012		-31.250000
8013		-23.437500
8014		-27.343750
8015		-17.578125
8016		-21.484375
8017		-13.671875
8018		-15.625000
8019		-7.812500
8020		-11.718750
8021		-3.906250
8022		-5.859375
8023		1.953125
8024		0.000000
8025		7.812500
8026		3.906250
8027		13.671875
8028		9.765625
8029		17.578125
8030		13.671875
8031		23.437500
8032		19.531250
8033		27.343750
8034		25.390625
8035		31.250000
8036		31.250000
8037		35.156250
8038		35.156250
8039		41.015625
8040		39.062500
8041		44.921875
8042		42.968750
8043		50.781250
8044		46.875000
8045		54.687500
8046		52.734375
8047		58.593750
8048		56.640625
8049		62.500000
8050		60.546875
8051		66.406250
8052		64.453125
8053		70.312500
8054		68.359375
8055		74.218750
8056		72.265625
8057		78.125000
8058		74.218750
8059		80.078125
8060		78.125000
8061		85.937500
8062		82.031250
8063		85.937500
8064		83.984375
8065		89.843750
8066		87.890625
8067		91.796875
8068		89.843750
8069		93.750000
8070		91.796875
8071		95.703125
8072		91.796875
8073		97.656250
8074		95.703125
8075		99.609375
8076		95.703125
8077		103.515625
8078		97.656250
8079		103.515625
8080		99.609375
8081		103.515625
8082		99.609375
8083		105.468750
8084		101.562500
8085		103.515625
8086		103.515625
8087		103.515625
8088		101.562500
8089		105.468750
8090		101.562500
8091		105.468750
8092		101.562500
8093		105.468750
8094		99.609375
8095		105.468750
8096		99.609375
8097		103.515625
8098		99.609375
8099		103.515625
8100		97.656250
8101		103.515625
8102		97.656250
8103		101.562500
8104		95.703125
8105		99.609375
8106		93.750000
8107		99.609375
8108		91.796875
8109		95.703125
8110		87.890625
8111		95.703125
8112		87.890625
8113		91.796875
8114		85.937500
8115		89.843750
8116		82.031250
8117		87.890625
8118		80.078125
8119		83.984375
8120		76.171875
8121		82.031250
8122		72.265625
8123		78.125000
8124		70.312500
8125		74.218750
8126		66.406250
8127		70.312500
8128		60.546875
8129		68.359375
8130		58.593750
8131		62.500000
8132		52.734375
8133		58.593750
8134		48.828125
8135		54.687500
8136		44.921875
8137		50.781250
8138		41.015625
8139		46.875000
8140		35.156250
8141		41.015625
8142		31.250000
8143		37.109375
8144		25.390625
8145		31.250000
8146		19.531250
8147		27.343750
8148		15.625000
8149		21.484375
8150		9.765625
8151		17.578125
8152		5.859375
8153		11.718750
8154		0.000000
8155		5.859375
8156		-5.859375
8157		1.953125
8158		-9.765625
8159		-3.906250
8160		-15.625000
8161		-9.765625
8162		-21.484375
8163		-13.671875
8164		-27.343750
8165		-19.531250
8166		-33.203125
8167		-25.390625
8168		-35.156250
8169		-29.296875
8170		-41.015625
8171		-35.156250
8172		-44.921875
8173		-39.062500
8174		-50.781250
8175		-42.968750
8176		-54.687500
8177		-48.828125
8178		-58.593750
8179		-52.734375
8180		-64.453125
8181		-56.640625
8182		-68.359375
8183		-62.500000
8184		-72.265625
8185		-66.406250
8186		-76.171875
8187		-70.312500
8188		-80.078125
8189		-74.218750
8190		-82.031250
8191		-76.171875
8192		-83.984375
8193		-80.078125
8194		-87.890625
8195		-83.984375
8196		-91.796875
8197		-85.937500
8198		-93.750000
8199		-87.890625
8200		-95.703125
8201		-91.796875
8202		-95.703125
8203		-93.750000
8204		-97.656250
8205		-95.703125
8206		-99.609375
8207		-95.703125
8208		-101.562500
8209		-97.656250
8210		-101.562500
8211		-99.609375
8212		-103.515625
8213		-97.656250
8214		-103.515625
8215		-99.609375
8216		-101.562500
8217		-99.609375
8218		-101.562500
8219		-99.609375
8220		-101.562500
8221		-99.609375
8222		-101.562500
8223		-97.656250
8224		-99.609375
8225		-95.703125
8226		-99.609375
8227		-95.703125
8228		-97.656250
8229		-93.750000
8230		-95.703125
8231		-91.796875
8232		-93.750000
8233		-87.890625
8234		-89.843750
8235		-85.937500
8236		-87.890625
8237		-83.984375
8238		-85.937500
8239		-80.078125
8240		-83.984375
8241		-78.125000
8242		-80.078125
8243		-74.218750
8244		-74.218750
8245		-70.312500
8246		-72.265625
8247		-66.406250
8248		-68.359375
8249		-60.546875
8250		-64.453125
8251		-56.640625
8252		-60.546875
8253		-52.734375
8254		-54.687500
8255		-48.828125
8256		-50.781250
8257		-44.921875
8258		-44.921875
8259		-39.062500
8260		-41.015625
8261		-35.156250
8262		-37.109375
8263		-29.296875
8264		-31.250000
8265		-25.390625
8266		-25.390625
8267		-19.531250
8268		-21.484375
8269		-13.671875
8270		-15.625000
8271		-9.765625
8272		-9.765625
8273		-3.906250
8274		-5.859375
8275		1.953125
8276		0.000000
8277		5.859375
8278		5.859375
8279		11.718750
8280		9.765625
8281		15.625000
8282		13.671875
8283		21.484375
8284		19.531250
8285		27.343750
8286		25.390625
8287		31.250000
8288		31.250000
8289		37.109375
8290		35.156250
8291		41.015625
8292		39.062500
8293		44.921875
8294		42.968750
8295		50.781250
8296		48.828125
8297		54.687500
8298		52.734375
8299		58.593750
8300		56.640625
8301		62.500000
8302		60.546875
8303		66.406250
8304		64.453125
8305		70.312500
8306		68.359375
8307		74.218750
8308		72.265625
8309		76.171875
8310		76.171875
8311		80.078125
8312		80.078125
8313		83.984375
8314		82.031250
8315		85.937500
8316		83.984375
8317		89.843750
8318		85.937500
8319		91.796875
8320		89.843750
8321		93.750000
8322		91.796875
8323		95.703125
8324		91.796875
8325		97.656250
8326		95.703125
8327		99.609375
8328		97.656250
8329		99.609375
8330		99.609375
8331		101.562500
8332		99.609375
8333		103.515625
8334		99.609375
8335		103.515625
8336		101.562500
8337		105.468750
8338		101.562500
8339		105.468750
8340		101.562500
8341		105.468750
8342		101.562500
8343		105.468750
8344		101.562500
8345		105.468750
8346		101.562500
8347		103.515625
8348		101.562500
8349		103.515625
8350		99.609375
8351		103.515625
8352		99.609375
8353		101.562500
8354		97.656250
8355		101.562500
8356		93.750000
8357		99.609375
8358		93.750000
8359		97.656250
8360		91.796875
8361		95.703125
8362		89.843750
8363		93.750000
8364		87.890625
8365		91.796875
8366		85.937500
8367		89.843750
8368		82.031250
8369		87.890625
8370		78.125000
8371		83.984375
8372		76.171875
8373		80.078125
8374		72.265625
8375		78.125000
8376		70.312500
8377		74.218750
8378		66.406250
8379		72.265625
8380		62.500000
8381		66.406250
8382		56.640625
8383		64.453125
8384		52.734375
8385		58.593750
8386		48.828125
8387		54.687500
8388		44.921875
8389		50.781250
8390		39.062500
8391		44.921875
8392		35.156250
8393		41.015625
8394		29.296875
8395		37.109375
8396		25.390625
8397		33.203125
8398		19.531250
8399		27.343750
8400		15.625000
8401		21.484375
8402		9.765625
8403		17.578125
8404		5.859375
8405		11.718750
8406		0.000000
8407		5.859375
8408		-5.859375
8409		1.953125
8410		-9.765625
8411		-3.906250
8412		-15.625000
8413		-9.765625
8414		-21.484375
8415		-13.671875
8416		-25.390625
8417		-19.531250
8418		-31.250000
8419		-23.437500
8420		-35.156250
8421		-29.296875
8422		-41.015625
8423		-35.156250
8424		-44.921875
8425		-39.062500
8426		-50.781250
8427		-44.921875
8428		-54.687500
8429		-48.828125
8430		-60.546875
8431		-52.734375
8432		-64.453125
8433		-58.593750
8434		-68.359375
8435		-62.500000
8436		-72.265625
8437		-66.406250
8438		-76.171875
8439		-70.312500
8440		-80.078125
8441		-74.218750
8442		-83.984375
8443		-76.171875
8444		-85.937500
8445		-80.078125
8446		-87.890625
8447		-83.984375
8448		-89.843750
8449		-85.937500
8450		-93.750000
8451		-87.890625
8452		-95.703125
8453		-91.796875
8454		-97.656250
8455		-93.750000
8456		-97.656250
8457		-95.703125
8458		-101.562500
8459		-95.703125
8460		-101.562500
8461		-97.656250
8462		-103.515625
8463		-99.609375
8464		-101.562500
8465		-99.609375
8466		-103.515625
8467		-99.609375
8468		-103.515625
8469		-99.609375
8470		-101.562500
8471		-99.609375
8472		-101.562500
8473		-99.609375
8474		-101.562500
8475		-97.656250
8476		-99.609375
8477		-95.703125
8478		-99.609375
8479		-95.703125
8480		-97.656250
8481		-93.750000
8482		-95.703125
8483		-89.843750
8484		-93.750000
8485		-89.843750
8486		-91.796875
8487		-85.937500
8488		-87.890625
8489		-83.984375
8490		-85.937500
8491		-80.078125
8492		-82.031250
8493		-76.171875
8494		-78.125000
8495		-74.218750
8496		-76.171875
8497		-70.312500
8498		-72.265625
8499		-66.406250
8500		-68.359375
8501		-62.500000
8502		-62.500000
8503		-58.593750
8504		-60.546875
8505		-52.734375
8506		-54.687500
8507		-48.828125
8508		-50.781250
8509		-44.921875
8510		-44.921875
8511		-39.062500
8512		-41.015625
8513		-35.156250
8514		-35.156250
8515		-29.296875
8516		-31.250000
8517		-25.390625
8518		-27.343750
8519		-19.531250
8520		-19.531250
8521		-13.671875
8522		-15.625000
8523		-9.765625
8524		-9.765625
8525		-3.906250
8526		-5.859375
8527		1.953125
8528		0.000000
8529		5.859375
8530		5.859375
8531		11.718750
8532		9.765625
8533		15.625000
8534		15.625000
8535		21.484375
8536		19.531250
8537		27.343750
8538		25.390625
8539		31.250000
8540		31.250000
8541		37.109375
8542		35.156250
8543		41.015625
8544		39.062500
8545		44.921875
8546		44.921875
8547		50.781250
8548		48.828125
8549		54.687500
8550		52.734375
8551		58.593750
8552		56.640625
8553		62.500000
8554		60.546875
8555		66.406250
8556		64.453125
8557		70.312500
8558		68.359375
8559		74.218750
8560		72.265625
8561		76.171875
8562		76.171875
8563		80.078125
8564		78.125000
8565		83.984375
8566		82.031250
8567		85.937500
8568		83.984375
8569		87.890625
8570		87.890625
8571		91.796875
8572		89.843750
8573		93.750000
8574		91.796875
8575		95.703125
8576		93.750000
8577		97.656250
8578		95.703125
8579		99.609375
8580		97.656250
8581		99.609375
8582		97.656250
8583		101.562500
8584		99.609375
8585		103.515625
8586		101.562500
8587		103.515625
8588		99.609375
8589		103.515625
8590		101.562500
8591		103.515625
8592		101.562500
8593		105.468750
8594		101.562500
8595		105.468750
8596		101.562500
8597		105.468750
8598		101.562500
8599		105.468750
8600		99.609375
8601		103.515625
8602		99.609375
8603		103.515625
8604		97.656250
8605		101.562500
8606		97.656250
8607		101.562500
8608		93.750000
8609		99.609375
8610		93.750000
8611		97.656250
8612		91.796875
8613		97.656250
8614		89.843750
8615		93.750000
8616		87.890625
8617		91.796875
8618		83.984375
8619		89.843750
8620		82.031250
8621		87.890625
8622		78.125000
8623		83.984375
8624		76.171875
8625		80.078125
8626		72.265625
8627		78.125000
8628		68.359375
8629		74.218750
8630		64.453125
8631		70.312500
8632		62.500000
8633		66.406250
8634		56.640625
8635		62.500000
8636		52.734375
8637		58.593750
8638		48.828125
8639		56.640625
8640		44.921875
8641		50.781250
8642		39.062500
8643		46.875000
8644		35.156250
8645		41.015625
8646		29.296875
8647		37.109375
8648		25.390625
8649		33.203125
8650		19.531250
8651		27.343750
8652		15.625000
8653		21.484375
8654		9.765625
8655		17.578125
8656		5.859375
8657		11.718750
8658		0.000000
8659		5.859375
8660		-5.859375
8661		1.953125
8662		-9.765625
8663		-3.906250
8664		-15.625000
8665		-9.765625
8666		-21.484375
8667		-13.671875
8668		-25.390625
8669		-19.531250
8670		-31.250000
8671		-25.390625
8672		-37.109375
8673		-29.296875
8674		-41.015625
8675		-35.156250
8676		-44.921875
8677		-39.062500
8678		-50.781250
8679		-44.921875
8680		-54.687500
8681		-48.828125
8682		-60.546875
8683		-52.734375
8684		-64.453125
8685		-58.593750
8686		-68.359375
8687		-62.500000
8688		-72.265625
8689		-66.406250
8690		-76.171875
8691		-70.312500
8692		-78.125000
8693		-74.218750
8694		-82.031250
8695		-76.171875
8696		-85.937500
8697		-80.078125
8698		-87.890625
8699		-83.984375
8700		-89.843750
8701		-85.937500
8702		-93.750000
8703		-89.843750
8704		-95.703125
8705		-91.796875
8706		-97.656250
8707		-93.750000
8708		-99.609375
8709		-95.703125
8710		-99.609375
8711		-95.703125
8712		-101.562500
8713		-97.656250
8714		-101.562500
8715		-99.609375
8716		-101.562500
8717		-99.609375
8718		-101.562500
8719		-99.609375
8720		-103.515625
8721		-99.609375
8722		-103.515625
8723		-99.609375
8724		-101.562500
8725		-99.609375
8726		-101.562500
8727		-97.656250
8728		-99.609375
8729		-95.703125
8730		-97.656250
8731		-95.703125
8732		-97.656250
8733		-93.750000
8734		-95.703125
8735		-91.796875
8736		-93.750000
8737		-87.890625
8738		-91.796875
8739		-85.937500
8740		-87.890625
8741		-83.984375
8742		-85.937500
8743		-80.078125
8744		-82.031250
8745		-76.171875
8746		-78.125000
8747		-74.218750
8748		-76.171875
8749		-70.312500
8750		-72.265625
8751		-64.453125
8752		-68.359375
8753		-62.500000
8754		-64.453125
8755		-56.640625
8756		-58.593750
8757		-52.734375
8758		-54.687500
8759		-48.828125
8760		-50.781250
8761		-42.968750
8762		-44.921875
8763		-39.062500
8764		-41.015625
8765		-35.156250
8766		-35.156250
8767		-29.296875
8768		-31.250000
8769		-25.390625
8770		-25.390625
8771		-19.531250
8772		-19.531250
8773		-13.671875
8774		-15.625000
8775		-9.765625
8776		-9.765625
8777		-3.906250
8778		-5.859375
8779		1.953125
8780		0.000000
8781		5.859375
8782		5.859375
8783		11.718750
8784		9.765625
8785		15.625000
8786		15.625000
8787		23.437500
8788		21.484375
8789		27.343750
8790		23.437500
8791		31.250000
8792		31.250000
8793		37.109375
8794		35.156250
8795		41.015625
8796		39.062500
8797		44.921875
8798		44.921875
8799		50.781250
8800		48.828125
8801		54.687500
8802		52.734375
8803		58.593750
8804		56.640625
8805		62.500000
8806		60.546875
8807		66.406250
8808		64.453125
8809		70.312500
8810		68.359375
8811		74.218750
8812		72.265625
8813		78.125000
8814		76.171875
8815		80.078125
8816		78.125000
8817		83.984375
8818		82.031250
8819		85.937500
8820		83.984375
8821		87.890625
8822		87.890625
8823		91.796875
8824		89.843750
8825		93.750000
8826		91.796875
8827		95.703125
8828		91.796875
8829		97.656250
8830		95.703125
8831		99.609375
8832		97.656250
8833		99.609375
8834		99.609375
8835		101.562500
8836		99.609375
8837		103.515625
8838		99.609375
8839		103.515625
8840		101.562500
8841		103.515625
8842		101.562500
8843		103.515625
8844		101.562500
8845		105.468750
8846		101.562500
8847		105.468750
8848		101.562500
8849		105.468750
8850		101.562500
8851		103.515625
8852		99.609375
8853		103.515625
8854		99.609375
8855		103.515625
8856		97.656250
8857		101.562500
8858		97.656250
8859		101.562500
8860		95.703125
8861		99.609375
8862		93.750000
8863		97.656250
8864		91.796875
8865		95.703125
8866		89.843750
8867		93.750000
8868		85.937500
8869		91.796875
8870		83.984375
8871		89.843750
8872		82.031250
8873		87.890625
8874		78.125000
8875		83.984375
8876		76.171875
8877		80.078125
8878		72.265625
8879		78.125000
8880		68.359375
8881		74.218750
8882		64.453125
8883		70.312500
8884		60.546875
8885		66.406250
8886		56.640625
8887		62.500000
8888		52.734375
8889		58.593750
8890		48.828125
8891		54.687500
8892		44.921875
8893		50.781250
8894		39.062500
8895		44.921875
8896		35.156250
8897		41.015625
8898		29.296875
8899		35.156250
8900		25.390625
8901		31.250000
8902		19.531250
8903		25.390625
8904		15.625000
8905		21.484375
8906		9.765625
8907		15.625000
8908		3.906250
8909		11.718750
8910		0.000000
8911		5.859375
8912		-5.859375
8913		0.000000
8914		-11.718750
8915		-3.906250
8916		-15.625000
8917		-9.765625
8918		-21.484375
8919		-15.625000
8920		-27.343750
8921		-19.531250
8922		-33.203125
8923		-25.390625
8924		-37.109375
8925		-29.296875
8926		-41.015625
8927		-35.156250
8928		-46.875000
8929		-41.015625
8930		-50.781250
8931		-44.921875
8932		-56.640625
8933		-48.828125
8934		-60.546875
8935		-54.687500
8936		-64.453125
8937		-58.593750
8938		-68.359375
8939		-62.500000
8940		-72.265625
8941		-66.406250
8942		-76.171875
8943		-70.312500
8944		-78.125000
8945		-74.218750
8946		-82.031250
8947		-76.171875
8948		-85.937500
8949		-82.031250
8950		-87.890625
8951		-83.984375
8952		-91.796875
8953		-87.890625
8954		-93.750000
8955		-89.843750
8956		-95.703125
8957		-89.843750
8958		-97.656250
8959		-91.796875
8960		-99.609375
8961		-95.703125
8962		-101.562500
8963		-97.656250
8964		-101.562500
8965		-97.656250
8966		-101.562500
8967		-99.609375
8968		-103.515625
8969		-99.609375
8970		-103.515625
8971		-99.609375
8972		-103.515625
8973		-99.609375
8974		-103.515625
8975		-99.609375
8976		-101.562500
8977		-99.609375
8978		-101.562500
8979		-97.656250
8980		-101.562500
8981		-97.656250
8982		-99.609375
8983		-95.703125
8984		-97.656250
8985		-93.750000
8986		-95.703125
8987		-91.796875
8988		-93.750000
8989		-89.843750
8990		-91.796875
8991		-85.937500
8992		-87.890625
8993		-83.984375
8994		-85.937500
8995		-80.078125
8996		-82.031250
8997		-76.171875
8998		-78.125000
8999		-74.218750
9000		-76.171875
9001		-70.312500
9002		-72.265625
9003		-66.406250
9004		-68.359375
9005		-62.500000
9006		-64.453125
9007		-58.593750
9008		-60.546875
9009		-54.687500
9010		-54.687500
9011		-48.828125
9012		-50.781250
9013		-44.921875
9014		-44.921875
9015		-39.062500
9016		-41.015625
9017		-33.203125
9018		-35.156250
9019		-29.296875
9020		-31.250000
9021		-25.390625
9022		-25.390625
9023		-19.531250
9024		-21.484375
9025		-13.671875
9026		-15.625000
9027		-9.765625
9028		-9.765625
9029		-3.906250
9030		-5.859375
9031		0.000000
9032		0.000000
9033		7.812500
9034		3.906250
9035		11.718750
9036		9.765625
9037		17.578125
9038		15.625000
9039		21.484375
9040		19.531250
9041		25.390625
9042		25.390625
9043		31.250000
9044		29.296875
9045		37.109375
9046		35.156250
9047		41.015625
9048		39.062500
9049		46.875000
9050		44.921875
9051		50.781250
9052		48.828125
9053		54.687500
9054		52.734375
9055		58.593750
9056		56.640625
9057		62.500000
9058		60.546875
9059		66.406250
9060		64.453125
9061		70.312500
9062		68.359375
9063		74.218750
9064		72.265625
9065		78.125000
9066		76.171875
9067		80.078125
9068		78.125000
9069		82.031250
9070		82.031250
9071		85.937500
9072		83.984375
9073		87.890625
9074		85.937500
9075		91.796875
9076		89.843750
9077		93.750000
9078		91.796875
9079		95.703125
9080		91.796875
9081		97.656250
9082		95.703125
9083		99.609375
9084		97.656250
9085		99.609375
9086		97.656250
9087		101.562500
9088		99.609375
9089		103.515625
9090		99.609375
9091		103.515625
9092		101.562500
9093		105.468750
9094		101.562500
9095		103.515625
9096		101.562500
9097		105.468750
9098		101.562500
9099		105.468750
9100		101.562500
9101		105.468750
9102		101.562500
9103		103.515625
9104		99.609375
9105		103.515625
9106		99.609375
9107		103.515625
9108		97.656250
9109		101.562500
9110		97.656250
9111		101.562500
9112		95.703125
9113		99.609375
9114		93.750000
9115		97.656250
9116		91.796875
9117		95.703125
9118		89.843750
9119		93.750000
9120		87.890625
9121		91.796875
9122		83.984375
9123		89.843750
9124		82.031250
9125		85.937500
9126		78.125000
9127		83.984375
9128		76.171875
9129		80.078125
9130		72.265625
9131		76.171875
9132		68.359375
9133		74.218750
9134		64.453125
9135		70.312500
9136		60.546875
9137		66.406250
9138		56.640625
9139		62.500000
9140		52.734375
9141		58.593750
9142		48.828125
9143		54.687500
9144		44.921875
9145		50.781250
9146		39.062500
9147		44.921875
9148		33.203125
9149		41.015625
9150		29.296875
9151		37.109375
9152		25.390625
9153		31.250000
9154		19.531250
9155		25.390625
9156		13.671875
9157		21.484375
9158		9.765625
9159		15.625000
9160		3.906250
9161		11.718750
9162		-1.953125
9163		5.859375
9164		-5.859375
9165		0.000000
9166		-11.718750
9167		-3.906250
9168		-17.578125
9169		-9.765625
9170		-21.484375
9171		-15.625000
9172		-27.343750
9173		-19.531250
9174		-31.250000
9175		-25.390625
9176		-37.109375
9177		-31.250000
9178		-41.015625
9179		-35.156250
9180		-46.875000
9181		-41.015625
9182		-50.781250
9183		-44.921875
9184		-56.640625
9185		-48.828125
9186		-60.546875
9187		-52.734375
9188		-64.453125
9189		-58.593750
9190		-68.359375
9191		-62.500000
9192		-72.265625
9193		-66.406250
9194		-76.171875
9195		-70.312500
9196		-80.078125
9197		-74.218750
9198		-82.031250
9199		-78.125000
9200		-85.937500
9201		-82.031250
9202		-87.890625
9203		-83.984375
9204		-91.796875
9205		-87.890625
9206		-93.750000
9207		-89.843750
9208		-95.703125
9209		-91.796875
9210		-97.656250
9211		-93.750000
9212		-99.609375
9213		-95.703125
9214		-99.609375
9215		-97.656250
9216		-101.562500
9217		-97.656250
9218		-103.515625
9219		-99.609375
9220		-103.515625
9221		-99.609375
9222		-103.515625
9223		-99.609375
9224		-103.515625
9225		-99.609375
9226		-103.515625
9227		-99.609375
9228		-101.562500
9229		-99.609375
9230		-101.562500
9231		-97.656250
9232		-99.609375
9233		-97.656250
9234		-99.609375
9235		-95.703125
9236		-97.656250
9237		-93.750000
9238		-95.703125
9239		-91.796875
9240		-93.750000
9241		-89.843750
9242		-91.796875
9243		-85.937500
9244		-87.890625
9245		-83.984375
9246		-85.937500
9247		-80.078125
9248		-82.031250
9249		-78.125000
9250		-80.078125
9251		-74.218750
9252		-76.171875
9253		-70.312500
9254		-72.265625
9255		-66.406250
9256		-68.359375
9257		-62.500000
9258		-64.453125
9259		-58.593750
9260		-58.593750
9261		-52.734375
9262		-54.687500
9263		-48.828125
9264		-50.781250
9265		-44.921875
9266		-46.875000
9267		-39.062500
9268		-41.015625
9269		-35.156250
9270		-37.109375
9271		-29.296875
9272		-31.250000
9273		-23.437500
9274		-25.390625
9275		-19.531250
9276		-21.484375
9277		-13.671875
9278		-15.625000
9279		-9.765625
9280		-9.765625
9281		-3.906250
9282		-5.859375
9283		1.953125
9284		0.000000
9285		5.859375
9286		3.906250
9287		11.718750
9288		9.765625
9289		17.578125
9290		15.625000
9291		21.484375
9292		19.531250
9293		27.343750
9294		25.390625
9295		31.250000
9296		31.250000
9297		37.109375
9298		35.156250
9299		41.015625
9300		39.062500
9301		44.921875
9302		42.968750
9303		50.781250
9304		48.828125
9305		54.687500
9306		52.734375
9307		58.593750
9308		56.640625
9309		64.453125
9310		60.546875
9311		66.406250
9312		64.453125
9313		70.312500
9314		68.359375
9315		74.218750
9316		72.265625
9317		76.171875
9318		76.171875
9319		80.078125
9320		78.125000
9321		83.984375
9322		82.031250
9323		85.937500
9324		83.984375
9325		89.843750
9326		87.890625
9327		91.796875
9328		89.843750
9329		93.750000
9330		91.796875
9331		95.703125
9332		93.750000
9333		97.656250
9334		95.703125
9335		99.609375
9336		95.703125
9337		99.609375
9338		97.656250
9339		101.562500
9340		99.609375
9341		103.515625
9342		101.562500
9343		103.515625
9344		99.609375
9345		103.515625
9346		101.562500
9347		103.515625
9348		101.562500
9349		105.468750
9350		101.562500
9351		105.468750
9352		101.562500
9353		105.468750
9354		101.562500
9355		105.468750
9356		99.609375
9357		103.515625
9358		99.609375
9359		103.515625
9360		97.656250
9361		101.562500
9362		97.656250
9363		101.562500
9364		95.703125
9365		99.609375
9366		93.750000
9367		97.656250
9368		91.796875
9369		95.703125
9370		89.843750
9371		93.750000
9372		85.937500
9373		91.796875
9374		83.984375
9375		89.843750
9376		82.031250
9377		85.937500
9378		80.078125
9379		83.984375
9380		76.171875
9381		80.078125
9382		72.265625
9383		78.125000
9384		68.359375
9385		74.218750
9386		64.453125
9387		70.312500
9388		60.546875
9389		66.406250
9390		56.640625
9391		64.453125
9392		52.734375
9393		58.593750
9394		48.828125
9395		54.687500
9396		42.968750
9397		48.828125
9398		39.062500
9399		44.921875
9400		35.156250
9401		42.968750
9402		29.296875
9403		35.156250
9404		25.390625
9405		31.250000
9406		19.531250
9407		25.390625
9408		13.671875
9409		21.484375
9410		7.812500
9411		15.625000
9412		3.906250
9413		11.718750
9414		0.000000
9415		5.859375
9416		-5.859375
9417		0.000000
9418		-11.718750
9419		-3.906250
9420		-15.625000
9421		-9.765625
9422		-21.484375
9423		-13.671875
9424		-27.343750
9425		-19.531250
9426		-31.250000
9427		-25.390625
9428		-37.109375
9429		-29.296875
9430		-41.015625
9431		-35.156250
9432		-46.875000
9433		-39.062500
9434		-50.781250
9435		-44.921875
9436		-54.687500
9437		-48.828125
9438		-60.546875
9439		-52.734375
9440		-64.453125
9441		-58.593750
9442		-68.359375
9443		-62.500000
9444		-72.265625
9445		-66.406250
9446		-76.171875
9447		-70.312500
9448		-78.125000
9449		-74.218750
9450		-82.031250
9451		-78.125000
9452		-85.937500
9453		-80.078125
9454		-87.890625
9455		-83.984375
9456		-89.843750
9457		-87.890625
9458		-93.750000
9459		-87.890625
9460		-95.703125
9461		-91.796875
9462		-97.656250
9463		-93.750000
9464		-97.656250
9465		-95.703125
9466		-101.562500
9467		-97.656250
9468		-101.562500
9469		-97.656250
9470		-101.562500
9471		-97.656250
9472		-101.562500
9473		-99.609375
9474		-103.515625
9475		-97.656250
9476		-103.515625
9477		-99.609375
9478		-103.515625
9479		-99.609375
9480		-101.562500
9481		-99.609375
9482		-101.562500
9483		-97.656250
9484		-101.562500
9485		-93.750000
9486		-99.609375
9487		-93.750000
9488		-99.609375
9489		-91.796875
9490		-95.703125
9491		-89.843750
9492		-93.750000
9493		-89.843750
9494		-91.796875
9495		-85.937500
9496		-89.843750
9497		-83.984375
9498		-83.984375
9499		-80.078125
9500		-82.031250
9501		-76.171875
9502		-80.078125
9503		-72.265625
9504		-74.218750
9505		-68.359375
9506		-72.265625
9507		-66.406250
9508		-68.359375
9509		-60.546875
9510		-62.500000
9511		-56.640625
9512		-58.593750
9513		-52.734375
9514		-54.687500
9515		-48.828125
9516		-50.781250
9517		-42.968750
9518		-46.875000
9519		-37.109375
9520		-41.015625
9521		-31.250000
9522		-37.109375
9523		-27.343750
9524		-31.250000
9525		-21.484375
9526		-27.343750
9527		-19.531250
9528		-21.484375
9529		-13.671875
9530		-15.625000
9531		-7.812500
9532		-9.765625
9533		-3.906250
9534		-5.859375
9535		3.906250
9536		0.000000
9537		9.765625
9538		3.906250
9539		13.671875
9540		7.812500
9541		19.531250
9542		13.671875
9543		23.437500
9544		21.484375
9545		27.343750
9546		25.390625
9547		31.250000
9548		31.250000
9549		37.109375
9550		35.156250
9551		42.968750
9552		37.109375
9553		48.828125
9554		42.968750
9555		52.734375
9556		46.875000
9557		56.640625
9558		52.734375
9559		60.546875
9560		56.640625
9561		64.453125
9562		60.546875
9563		68.359375
9564		66.406250
9565		70.312500
9566		70.312500
9567		74.218750
9568		70.312500
9569		78.125000
9570		74.218750
9571		82.031250
9572		78.125000
9573		85.937500
9574		80.078125
9575		87.890625
9576		82.031250
9577		91.796875
9578		85.937500
9579		93.750000
9580		89.843750
9581		93.750000
9582		91.796875
9583		95.703125
9584		93.750000
9585		99.609375
9586		93.750000
9587		101.562500
9588		95.703125
9589		103.515625
9590		95.703125
9591		103.515625
9592		97.656250
9593		105.468750
9594		99.609375
9595		105.468750
9596		99.609375
9597		105.468750
9598		101.562500
9599		103.515625
9600		101.562500
9601		107.421875
9602		99.609375
9603		107.421875
9604		99.609375
9605		107.421875
9606		99.609375
9607		107.421875
9608		99.609375
9609		105.468750
9610		97.656250
9611		105.468750
9612		97.656250
9613		103.515625
9614		97.656250
9615		101.562500
9616		95.703125
9617		99.609375
9618		91.796875
9619		99.609375
9620		89.843750
9621		97.656250
9622		87.890625
9623		95.703125
9624		85.937500
9625		93.750000
9626		83.984375
9627		91.796875
9628		82.031250
9629		89.843750
9630		80.078125
9631		85.937500
9632		76.171875
9633		80.078125
9634		72.265625
9635		78.125000
9636		66.406250
9637		76.171875
9638		64.453125
9639		72.265625
9640		60.546875
9641		68.359375
9642		54.687500
9643		64.453125
9644		50.781250
9645		60.546875
9646		48.828125
9647		56.640625
9648		44.921875
9649		50.781250
9650		39.062500
9651		44.921875
9652		33.203125
9653		41.015625
9654		29.296875
9655		37.109375
9656		23.437500
9657		33.203125
9658		19.531250
9659		27.343750
9660		13.671875
9661		21.484375
9662		9.765625
9663		17.578125
9664		5.859375
9665		11.718750
9666		0.000000
9667		5.859375
9668		-7.812500
9669		1.953125
9670		-11.718750
9671		-1.953125
9672		-17.578125
9673		-7.812500
9674		-23.437500
9675		-13.671875
9676		-29.296875
9677		-17.578125
9678		-33.203125
9679		-23.437500
9680		-35.156250
9681		-27.343750
9682		-41.015625
9683		-35.156250
9684		-48.828125
9685		-39.062500
9686		-52.734375
9687		-41.015625
9688		-56.640625
9689		-46.875000
9690		-62.500000
9691		-52.734375
9692		-66.406250
9693		-56.640625
9694		-70.312500
9695		-60.546875
9696		-74.218750
9697		-64.453125
9698		-76.171875
9699		-70.312500
9700		-78.125000
9701		-74.218750
9702		-83.984375
9703		-76.171875
9704		-87.890625
9705		-78.125000
9706		-89.843750
9707		-82.031250
9708		-91.796875
9709		-83.984375
9710		-95.703125
9711		-87.890625
9712		-97.656250
9713		-89.843750
9714		-97.656250
9715		-89.843750
9716		-97.656250
9717		-95.703125
9718		-101.562500
9719		-95.703125
9720		-103.515625
9721		-95.703125
9722		-103.515625
9723		-95.703125
9724		-103.515625
9725		-97.656250
9726		-105.468750
9727		-97.656250
9728		-105.468750
9729		-97.656250
9730		-103.515625
9731		-97.656250
9732		-101.562500
9733		-97.656250
9734		-99.609375
9735		-97.656250
9736		-101.562500
9737		-93.750000
9738		-99.609375
9739		-91.796875
9740		-97.656250
9741		-91.796875
9742		-97.656250
9743		-87.890625
9744		-93.750000
9745		-85.937500
9746		-91.796875
9747		-83.984375
9748		-87.890625
9749		-83.984375
9750		-83.984375
9751		-80.078125
9752		-82.031250
9753		-74.218750
9754		-80.078125
9755		-72.265625
9756		-76.171875
9757		-66.406250
9758		-72.265625
9759		-62.500000
9760		-68.359375
9761		-58.593750
9762		-64.453125
9763		-54.687500
9764		-60.546875
9765		-52.734375
9766		-54.687500
9767		-48.828125
9768		-48.828125
9769		-42.968750
9770		-46.875000
9771		-37.109375
9772		-42.968750
9773		-31.250000
9774		-37.109375
9775		-25.390625
9776		-33.203125
9777		-21.484375
9778		-27.343750
9779		-15.625000
9780		-21.484375
9781		-11.718750
9782		-13.671875
9783		-7.812500
9784		-9.765625
9785		-3.906250
9786		-3.906250
9787		3.906250
9788		-1.953125
9789		9.765625
9790		3.906250
9791		15.625000
9792		9.765625
9793		19.531250
9794		15.625000
9795		25.390625
9796		19.531250
9797		29.296875
9798		23.437500
9799		33.203125
9800		31.250000
9801		37.109375
9802		35.156250
9803		44.921875
9804		39.062500
9805		48.828125
9806		42.968750
9807		52.734375
9808		46.875000
9809		56.640625
9810		50.781250
9811		60.546875
9812		54.687500
9813		66.406250
9814		60.546875
9815		68.359375
9816		66.406250
9817		70.312500
9818		70.312500
9819		74.218750
9820		70.312500
9821		80.078125
9822		74.218750
9823		82.031250
9824		76.171875
9825		85.937500
9826		80.078125
9827		89.843750
9828		83.984375
9829		91.796875
9830		85.937500
9831		93.750000
9832		89.843750
9833		93.750000
9834		91.796875
9835		95.703125
9836		93.750000
9837		99.609375
9838		93.750000
9839		101.562500
9840		93.750000
9841		103.515625
9842		97.656250
9843		103.515625
9844		97.656250
9845		105.468750
9846		99.609375
9847		105.468750
9848		99.609375
9849		107.421875
9850		103.515625
9851		105.468750
9852		103.515625
9853		105.468750
9854		99.609375
9855		107.421875
9856		99.609375
9857		107.421875
9858		99.609375
9859		107.421875
9860		99.609375
9861		105.468750
9862		97.656250
9863		105.468750
9864		97.656250
9865		103.515625
9866		97.656250
9867		101.562500
9868		97.656250
9869		99.609375
9870		91.796875
9871		99.609375
9872		89.843750
9873		97.656250
9874		87.890625
9875		95.703125
9876		85.937500
9877		93.750000
9878		83.984375
9879		91.796875
9880		80.078125
9881		89.843750
9882		80.078125
9883		85.937500
9884		76.171875
9885		80.078125
9886		70.312500
9887		78.125000
9888		68.359375
9889		76.171875
9890		62.500000
9891		72.265625
9892		60.546875
9893		68.359375
9894		54.687500
9895		64.453125
9896		50.781250
9897		60.546875
9898		48.828125
9899		56.640625
9900		44.921875
9901		50.781250
9902		41.015625
9903		44.921875
9904		33.203125
9905		42.968750
9906		29.296875
9907		37.109375
9908		23.437500
9909		33.203125
9910		19.531250
9911		29.296875
9912		13.671875
9913		23.437500
9914		7.812500
9915		17.578125
9916		5.859375
9917		13.671875
9918		0.000000
9919		5.859375
9920		-7.812500
9921		1.953125
9922		-11.718750
9923		-1.953125
9924		-17.578125
9925		-7.812500
9926		-23.437500
9927		-11.718750
9928		-27.343750
9929		-17.578125
9930		-33.203125
9931		-21.484375
9932		-35.156250
9933		-27.343750
9934		-41.015625
9935		-35.156250
9936		-44.921875
9937		-39.062500
9938		-52.734375
9939		-42.968750
9940		-56.640625
9941		-46.875000
9942		-62.500000
9943		-50.781250
9944		-66.406250
9945		-54.687500
9946		-70.312500
9947		-60.546875
9948		-74.218750
9949		-64.453125
9950		-74.218750
9951		-70.312500
9952		-78.125000
9953		-74.218750
9954		-83.984375
9955		-76.171875
9956		-85.937500
9957		-78.125000
9958		-89.843750
9959		-80.078125
9960		-91.796875
9961		-83.984375
9962		-93.750000
9963		-85.937500
9964		-97.656250
9965		-89.843750
9966		-97.656250
9967		-89.843750
9968		-97.656250
9969		-95.703125
9970		-101.562500
9971		-95.703125
9972		-103.515625
9973		-95.703125
9974		-103.515625
9975		-95.703125
9976		-103.515625
9977		-95.703125
9978		-103.515625
9979		-97.656250
9980		-103.515625
9981		-95.703125
9982		-103.515625
9983		-95.703125
9984		-101.562500
9985		-97.656250
9986		-101.562500
9987		-97.656250
9988		-101.562500
9989		-93.750000
9990		-99.609375
9991		-91.796875
9992		-99.609375
9993		-91.796875
9994		-95.703125
9995		-87.890625
9996		-95.703125
9997		-85.937500
9998		-91.796875
9999		-83.984375
10000		-89.843750
