Channel              :		CH1
Frequency            :		1.989kHz
Period               :		0.503ms
PK-PK                :		154.3mV
Probe attenuation    :		1X
Voltage per ADC value:		0.122070mV
Time interval        :		2.00000us

index		CH1_Voltage(mV)
1		48.828125
2		48.828125
3		54.687500
4		52.734375
5		56.640625
6		54.687500
7		58.593750
8		56.640625
9		60.546875
10		58.593750
11		64.453125
12		62.500000
13		66.406250
14		64.453125
15		68.359375
16		64.453125
17		70.312500
18		68.359375
19		70.312500
20		68.359375
21		72.265625
22		70.312500
23		74.218750
24		72.265625
25		76.171875
26		72.265625
27		76.171875
28		74.218750
29		78.125000
30		76.171875
31		78.125000
32		76.171875
33		80.078125
34		76.171875
35		80.078125
36		78.125000
37		80.078125
38		78.125000
39		80.078125
40		78.125000
41		80.078125
42		78.125000
43		80.078125
44		76.171875
45		80.078125
46		76.171875
47		80.078125
48		76.171875
49		80.078125
50		74.218750
51		80.078125
52		74.218750
53		78.125000
54		72.265625
55		76.171875
56		72.265625
57		76.171875
58		70.312500
59		74.218750
60		68.359375
61		74.218750
62		68.359375
63		70.312500
64		64.453125
65		70.312500
66		62.500000
67		68.359375
68		62.500000
69		64.453125
70		58.593750
71		62.500000
72		56.640625
73		62.500000
74		54.687500
75		58.593750
76		50.781250
77		56.640625
78		48.828125
79		52.734375
80		46.875000
81		50.781250
82		42.968750
83		46.875000
84		39.062500
85		44.921875
86		37.109375
87		41.015625
88		33.203125
89		39.062500
90		29.296875
91		35.156250
92		25.390625
93		31.250000
94		23.437500
95		29.296875
96		19.531250
97		25.390625
98		15.625000
99		21.484375
100		11.718750
101		17.578125
102		7.812500
103		13.671875
104		5.859375
105		9.765625
106		1.953125
107		7.812500
108		-1.953125
109		3.906250
110		-5.859375
111		0.000000
112		-9.765625
113		-3.906250
114		-13.671875
115		-7.812500
116		-17.578125
117		-9.765625
118		-19.531250
119		-13.671875
120		-23.437500
121		-19.531250
122		-27.343750
123		-21.484375
124		-31.250000
125		-25.390625
126		-33.203125
127		-27.343750
128		-37.109375
129		-31.250000
130		-39.062500
131		-35.156250
132		-42.968750
133		-37.109375
134		-44.921875
135		-41.015625
136		-46.875000
137		-42.968750
138		-50.781250
139		-46.875000
140		-52.734375
141		-46.875000
142		-54.687500
143		-50.781250
144		-56.640625
145		-52.734375
146		-58.593750
147		-54.687500
148		-60.546875
149		-54.687500
150		-60.546875
151		-56.640625
152		-62.500000
153		-58.593750
154		-64.453125
155		-60.546875
156		-64.453125
157		-60.546875
158		-66.406250
159		-62.500000
160		-66.406250
161		-62.500000
162		-66.406250
163		-62.500000
164		-66.406250
165		-62.500000
166		-66.406250
167		-64.453125
168		-68.359375
169		-62.500000
170		-66.406250
171		-62.500000
172		-64.453125
173		-62.500000
174		-66.406250
175		-62.500000
176		-64.453125
177		-60.546875
178		-62.500000
179		-60.546875
180		-62.500000
181		-58.593750
182		-60.546875
183		-56.640625
184		-58.593750
185		-54.687500
186		-56.640625
187		-52.734375
188		-54.687500
189		-50.781250
190		-52.734375
191		-48.828125
192		-50.781250
193		-46.875000
194		-48.828125
195		-42.968750
196		-44.921875
197		-41.015625
198		-42.968750
199		-39.062500
200		-41.015625
201		-35.156250
202		-37.109375
203		-33.203125
204		-35.156250
205		-29.296875
206		-31.250000
207		-25.390625
208		-27.343750
209		-21.484375
210		-25.390625
211		-19.531250
212		-21.484375
213		-15.625000
214		-17.578125
215		-11.718750
216		-13.671875
217		-7.812500
218		-9.765625
219		-5.859375
220		-7.812500
221		-1.953125
222		-3.906250
223		1.953125
224		0.000000
225		5.859375
226		3.906250
227		9.765625
228		7.812500
229		13.671875
230		11.718750
231		15.625000
232		13.671875
233		19.531250
234		17.578125
235		23.437500
236		21.484375
237		27.343750
238		25.390625
239		31.250000
240		29.296875
241		35.156250
242		31.250000
243		37.109375
244		35.156250
245		41.015625
246		39.062500
247		42.968750
248		41.015625
249		46.875000
250		44.921875
251		48.828125
252		46.875000
253		52.734375
254		50.781250
255		54.687500
256		52.734375
257		58.593750
258		54.687500
259		60.546875
260		58.593750
261		62.500000
262		60.546875
263		64.453125
264		62.500000
265		66.406250
266		64.453125
267		68.359375
268		66.406250
269		70.312500
270		68.359375
271		72.265625
272		70.312500
273		72.265625
274		70.312500
275		74.218750
276		72.265625
277		76.171875
278		74.218750
279		76.171875
280		74.218750
281		78.125000
282		76.171875
283		78.125000
284		76.171875
285		80.078125
286		76.171875
287		80.078125
288		78.125000
289		80.078125
290		76.171875
291		82.031250
292		76.171875
293		80.078125
294		78.125000
295		80.078125
296		76.171875
297		80.078125
298		76.171875
299		80.078125
300		76.171875
301		80.078125
302		76.171875
303		78.125000
304		74.218750
305		78.125000
306		72.265625
307		76.171875
308		72.265625
309		74.218750
310		70.312500
311		74.218750
312		68.359375
313		72.265625
314		66.406250
315		70.312500
316		64.453125
317		68.359375
318		62.500000
319		66.406250
320		60.546875
321		64.453125
322		58.593750
323		62.500000
324		54.687500
325		60.546875
326		52.734375
327		58.593750
328		50.781250
329		54.687500
330		46.875000
331		52.734375
332		44.921875
333		50.781250
334		41.015625
335		46.875000
336		39.062500
337		44.921875
338		35.156250
339		41.015625
340		31.250000
341		37.109375
342		29.296875
343		35.156250
344		25.390625
345		31.250000
346		21.484375
347		27.343750
348		17.578125
349		23.437500
350		15.625000
351		19.531250
352		11.718750
353		17.578125
354		7.812500
355		13.671875
356		3.906250
357		9.765625
358		0.000000
359		5.859375
360		-3.906250
361		1.953125
362		-7.812500
363		-1.953125
364		-9.765625
365		-5.859375
366		-13.671875
367		-9.765625
368		-17.578125
369		-11.718750
370		-21.484375
371		-15.625000
372		-23.437500
373		-19.531250
374		-29.296875
375		-23.437500
376		-31.250000
377		-25.390625
378		-35.156250
379		-29.296875
380		-37.109375
381		-33.203125
382		-39.062500
383		-35.156250
384		-42.968750
385		-39.062500
386		-46.875000
387		-41.015625
388		-48.828125
389		-42.968750
390		-50.781250
391		-46.875000
392		-52.734375
393		-48.828125
394		-54.687500
395		-50.781250
396		-56.640625
397		-52.734375
398		-58.593750
399		-54.687500
400		-60.546875
401		-56.640625
402		-62.500000
403		-58.593750
404		-62.500000
405		-58.593750
406		-64.453125
407		-60.546875
408		-66.406250
409		-60.546875
410		-66.406250
411		-62.500000
412		-66.406250
413		-62.500000
414		-66.406250
415		-64.453125
416		-66.406250
417		-62.500000
418		-66.406250
419		-62.500000
420		-66.406250
421		-62.500000
422		-66.406250
423		-62.500000
424		-66.406250
425		-62.500000
426		-64.453125
427		-62.500000
428		-64.453125
429		-60.546875
430		-62.500000
431		-58.593750
432		-60.546875
433		-56.640625
434		-58.593750
435		-56.640625
436		-58.593750
437		-54.687500
438		-56.640625
439		-52.734375
440		-54.687500
441		-48.828125
442		-52.734375
443		-46.875000
444		-48.828125
445		-44.921875
446		-46.875000
447		-42.968750
448		-44.921875
449		-39.062500
450		-41.015625
451		-37.109375
452		-39.062500
453		-33.203125
454		-37.109375
455		-31.250000
456		-33.203125
457		-27.343750
458		-29.296875
459		-25.390625
460		-27.343750
461		-21.484375
462		-23.437500
463		-17.578125
464		-19.531250
465		-13.671875
466		-15.625000
467		-9.765625
468		-13.671875
469		-7.812500
470		-9.765625
471		-3.906250
472		-5.859375
473		0.000000
474		-1.953125
475		3.906250
476		0.000000
477		7.812500
478		5.859375
479		9.765625
480		9.765625
481		13.671875
482		11.718750
483		17.578125
484		15.625000
485		23.437500
486		19.531250
487		25.390625
488		23.437500
489		29.296875
490		27.343750
491		31.250000
492		29.296875
493		35.156250
494		33.203125
495		39.062500
496		37.109375
497		42.968750
498		39.062500
499		44.921875
500		42.968750
501		46.875000
502		46.875000
503		50.781250
504		48.828125
505		52.734375
506		50.781250
507		56.640625
508		54.687500
509		58.593750
510		56.640625
511		60.546875
512		58.593750
513		62.500000
514		60.546875
515		64.453125
516		62.500000
517		68.359375
518		66.406250
519		68.359375
520		66.406250
521		72.265625
522		68.359375
523		72.265625
524		70.312500
525		74.218750
526		72.265625
527		76.171875
528		72.265625
529		76.171875
530		74.218750
531		78.125000
532		76.171875
533		78.125000
534		76.171875
535		80.078125
536		76.171875
537		80.078125
538		78.125000
539		80.078125
540		78.125000
541		80.078125
542		76.171875
543		80.078125
544		78.125000
545		80.078125
546		78.125000
547		80.078125
548		76.171875
549		80.078125
550		76.171875
551		80.078125
552		76.171875
553		80.078125
554		74.218750
555		78.125000
556		74.218750
557		76.171875
558		72.265625
559		76.171875
560		70.312500
561		76.171875
562		70.312500
563		74.218750
564		68.359375
565		72.265625
566		66.406250
567		70.312500
568		64.453125
569		68.359375
570		60.546875
571		66.406250
572		60.546875
573		64.453125
574		56.640625
575		60.546875
576		54.687500
577		58.593750
578		52.734375
579		58.593750
580		48.828125
581		54.687500
582		46.875000
583		50.781250
584		42.968750
585		48.828125
586		41.015625
587		44.921875
588		37.109375
589		42.968750
590		35.156250
591		39.062500
592		31.250000
593		37.109375
594		27.343750
595		33.203125
596		23.437500
597		29.296875
598		21.484375
599		27.343750
600		17.578125
601		21.484375
602		13.671875
603		19.531250
604		9.765625
605		15.625000
606		5.859375
607		11.718750
608		1.953125
609		7.812500
610		-1.953125
611		3.906250
612		-3.906250
613		0.000000
614		-7.812500
615		-1.953125
616		-11.718750
617		-5.859375
618		-15.625000
619		-9.765625
620		-19.531250
621		-13.671875
622		-21.484375
623		-15.625000
624		-25.390625
625		-19.531250
626		-29.296875
627		-23.437500
628		-31.250000
629		-27.343750
630		-35.156250
631		-29.296875
632		-39.062500
633		-33.203125
634		-41.015625
635		-35.156250
636		-44.921875
637		-39.062500
638		-46.875000
639		-42.968750
640		-48.828125
641		-44.921875
642		-50.781250
643		-46.875000
644		-54.687500
645		-48.828125
646		-56.640625
647		-50.781250
648		-56.640625
649		-52.734375
650		-58.593750
651		-54.687500
652		-60.546875
653		-56.640625
654		-62.500000
655		-58.593750
656		-62.500000
657		-58.593750
658		-64.453125
659		-60.546875
660		-64.453125
661		-60.546875
662		-66.406250
663		-62.500000
664		-66.406250
665		-62.500000
666		-66.406250
667		-62.500000
668		-66.406250
669		-62.500000
670		-66.406250
671		-62.500000
672		-66.406250
673		-62.500000
674		-64.453125
675		-62.500000
676		-64.453125
677		-62.500000
678		-64.453125
679		-60.546875
680		-62.500000
681		-58.593750
682		-62.500000
683		-58.593750
684		-60.546875
685		-56.640625
686		-58.593750
687		-54.687500
688		-56.640625
689		-52.734375
690		-54.687500
691		-50.781250
692		-52.734375
693		-48.828125
694		-52.734375
695		-46.875000
696		-48.828125
697		-42.968750
698		-46.875000
699		-41.015625
700		-42.968750
701		-39.062500
702		-41.015625
703		-35.156250
704		-37.109375
705		-31.250000
706		-35.156250
707		-29.296875
708		-31.250000
709		-27.343750
710		-27.343750
711		-23.437500
712		-25.390625
713		-19.531250
714		-21.484375
715		-15.625000
716		-17.578125
717		-13.671875
718		-15.625000
719		-9.765625
720		-11.718750
721		-5.859375
722		-7.812500
723		-1.953125
724		-3.906250
725		1.953125
726		0.000000
727		5.859375
728		3.906250
729		7.812500
730		5.859375
731		11.718750
732		9.765625
733		15.625000
734		13.671875
735		19.531250
736		17.578125
737		23.437500
738		21.484375
739		27.343750
740		23.437500
741		29.296875
742		27.343750
743		33.203125
744		31.250000
745		37.109375
746		35.156250
747		41.015625
748		39.062500
749		42.968750
750		41.015625
751		46.875000
752		42.968750
753		48.828125
754		46.875000
755		50.781250
756		50.781250
757		54.687500
758		52.734375
759		56.640625
760		54.687500
761		60.546875
762		56.640625
763		62.500000
764		60.546875
765		64.453125
766		62.500000
767		66.406250
768		64.453125
769		68.359375
770		66.406250
771		70.312500
772		68.359375
773		72.265625
774		70.312500
775		74.218750
776		72.265625
777		74.218750
778		72.265625
779		76.171875
780		74.218750
781		78.125000
782		74.218750
783		78.125000
784		76.171875
785		80.078125
786		76.171875
787		80.078125
788		78.125000
789		80.078125
790		76.171875
791		82.031250
792		78.125000
793		80.078125
794		78.125000
795		80.078125
796		78.125000
797		80.078125
798		78.125000
799		80.078125
800		78.125000
801		80.078125
802		76.171875
803		78.125000
804		76.171875
805		78.125000
806		74.218750
807		78.125000
808		74.218750
809		76.171875
810		72.265625
811		76.171875
812		70.312500
813		74.218750
814		68.359375
815		74.218750
816		68.359375
817		72.265625
818		66.406250
819		70.312500
820		64.453125
821		68.359375
822		60.546875
823		66.406250
824		60.546875
825		64.453125
826		56.640625
827		60.546875
828		54.687500
829		58.593750
830		50.781250
831		56.640625
832		48.828125
833		52.734375
834		46.875000
835		50.781250
836		42.968750
837		46.875000
838		39.062500
839		44.921875
840		37.109375
841		41.015625
842		33.203125
843		39.062500
844		29.296875
845		35.156250
846		27.343750
847		31.250000
848		23.437500
849		29.296875
850		19.531250
851		25.390625
852		15.625000
853		21.484375
854		13.671875
855		19.531250
856		7.812500
857		13.671875
858		5.859375
859		9.765625
860		1.953125
861		7.812500
862		-1.953125
863		3.906250
864		-5.859375
865		0.000000
866		-9.765625
867		-3.906250
868		-11.718750
869		-7.812500
870		-15.625000
871		-9.765625
872		-19.531250
873		-13.671875
874		-23.437500
875		-17.578125
876		-27.343750
877		-21.484375
878		-29.296875
879		-25.390625
880		-33.203125
881		-27.343750
882		-35.156250
883		-31.250000
884		-39.062500
885		-33.203125
886		-41.015625
887		-37.109375
888		-44.921875
889		-41.015625
890		-46.875000
891		-42.968750
892		-48.828125
893		-44.921875
894		-50.781250
895		-46.875000
896		-52.734375
897		-48.828125
898		-56.640625
899		-52.734375
900		-56.640625
901		-54.687500
902		-58.593750
903		-56.640625
904		-60.546875
905		-56.640625
906		-62.500000
907		-58.593750
908		-62.500000
909		-58.593750
910		-64.453125
911		-60.546875
912		-66.406250
913		-60.546875
914		-66.406250
915		-62.500000
916		-66.406250
917		-62.500000
918		-66.406250
919		-62.500000
920		-66.406250
921		-62.500000
922		-66.406250
923		-62.500000
924		-66.406250
925		-62.500000
926		-64.453125
927		-62.500000
928		-64.453125
929		-60.546875
930		-64.453125
931		-60.546875
932		-62.500000
933		-58.593750
934		-60.546875
935		-58.593750
936		-58.593750
937		-56.640625
938		-58.593750
939		-52.734375
940		-56.640625
941		-50.781250
942		-54.687500
943		-50.781250
944		-50.781250
945		-46.875000
946		-48.828125
947		-44.921875
948		-46.875000
949		-42.968750
950		-44.921875
951		-41.015625
952		-41.015625
953		-37.109375
954		-39.062500
955		-33.203125
956		-37.109375
957		-31.250000
958		-33.203125
959		-27.343750
960		-29.296875
961		-25.390625
962		-27.343750
963		-21.484375
964		-23.437500
965		-17.578125
966		-19.531250
967		-15.625000
968		-15.625000
969		-11.718750
970		-13.671875
971		-7.812500
972		-9.765625
973		-3.906250
974		-5.859375
975		0.000000
976		-1.953125
977		3.906250
978		1.953125
979		5.859375
980		3.906250
981		9.765625
982		7.812500
983		13.671875
984		11.718750
985		17.578125
986		15.625000
987		21.484375
988		19.531250
989		25.390625
990		21.484375
991		27.343750
992		25.390625
993		31.250000
994		29.296875
995		35.156250
996		33.203125
997		37.109375
998		35.156250
999		42.968750
1000		39.062500
1001		44.921875
1002		42.968750
1003		46.875000
1004		44.921875
1005		50.781250
1006		48.828125
1007		52.734375
1008		50.781250
1009		56.640625
1010		54.687500
1011		58.593750
1012		56.640625
1013		60.546875
1014		58.593750
1015		64.453125
1016		60.546875
1017		64.453125
1018		62.500000
1019		68.359375
1020		66.406250
1021		70.312500
1022		68.359375
1023		72.265625
1024		68.359375
1025		74.218750
1026		70.312500
1027		74.218750
1028		72.265625
1029		76.171875
1030		72.265625
1031		78.125000
1032		72.265625
1033		80.078125
1034		74.218750
1035		80.078125
1036		76.171875
1037		80.078125
1038		76.171875
1039		80.078125
1040		76.171875
1041		82.031250
1042		78.125000
1043		82.031250
1044		78.125000
1045		80.078125
1046		76.171875
1047		82.031250
1048		76.171875
1049		82.031250
1050		76.171875
1051		82.031250
1052		78.125000
1053		80.078125
1054		76.171875
1055		80.078125
1056		76.171875
1057		80.078125
1058		74.218750
1059		78.125000
1060		74.218750
1061		76.171875
1062		72.265625
1063		76.171875
1064		70.312500
1065		76.171875
1066		66.406250
1067		74.218750
1068		66.406250
1069		72.265625
1070		66.406250
1071		70.312500
1072		62.500000
1073		68.359375
1074		58.593750
1075		66.406250
1076		58.593750
1077		64.453125
1078		56.640625
1079		60.546875
1080		52.734375
1081		58.593750
1082		48.828125
1083		58.593750
1084		46.875000
1085		54.687500
1086		44.921875
1087		52.734375
1088		41.015625
1089		48.828125
1090		39.062500
1091		44.921875
1092		37.109375
1093		42.968750
1094		33.203125
1095		37.109375
1096		29.296875
1097		35.156250
1098		23.437500
1099		33.203125
1100		21.484375
1101		31.250000
1102		17.578125
1103		25.390625
1104		13.671875
1105		23.437500
1106		9.765625
1107		19.531250
1108		5.859375
1109		15.625000
1110		5.859375
1111		9.765625
1112		1.953125
1113		5.859375
1114		-3.906250
1115		3.906250
1116		-7.812500
1117		0.000000
1118		-11.718750
1119		-1.953125
1120		-15.625000
1121		-5.859375
1122		-19.531250
1123		-9.765625
1124		-23.437500
1125		-13.671875
1126		-23.437500
1127		-17.578125
1128		-27.343750
1129		-21.484375
1130		-33.203125
1131		-25.390625
1132		-35.156250
1133		-27.343750
1134		-37.109375
1135		-29.296875
1136		-41.015625
1137		-33.203125
1138		-42.968750
1139		-35.156250
1140		-44.921875
1141		-39.062500
1142		-48.828125
1143		-41.015625
1144		-48.828125
1145		-44.921875
1146		-52.734375
1147		-48.828125
1148		-56.640625
1149		-48.828125
1150		-58.593750
1151		-50.781250
1152		-60.546875
1153		-50.781250
1154		-60.546875
1155		-52.734375
1156		-62.500000
1157		-54.687500
1158		-64.453125
1159		-56.640625
1160		-64.453125
1161		-58.593750
1162		-64.453125
1163		-60.546875
1164		-66.406250
1165		-60.546875
1166		-66.406250
1167		-60.546875
1168		-68.359375
1169		-60.546875
1170		-68.359375
1171		-60.546875
1172		-68.359375
1173		-60.546875
1174		-68.359375
1175		-60.546875
1176		-66.406250
1177		-58.593750
1178		-64.453125
1179		-60.546875
1180		-62.500000
1181		-60.546875
1182		-64.453125
1183		-56.640625
1184		-62.500000
1185		-56.640625
1186		-62.500000
1187		-54.687500
1188		-60.546875
1189		-52.734375
1190		-58.593750
1191		-50.781250
1192		-58.593750
1193		-48.828125
1194		-52.734375
1195		-48.828125
1196		-50.781250
1197		-46.875000
1198		-50.781250
1199		-42.968750
1200		-48.828125
1201		-39.062500
1202		-44.921875
1203		-37.109375
1204		-42.968750
1205		-35.156250
1206		-41.015625
1207		-31.250000
1208		-37.109375
1209		-27.343750
1210		-33.203125
1211		-27.343750
1212		-27.343750
1213		-23.437500
1214		-25.390625
1215		-17.578125
1216		-25.390625
1217		-15.625000
1218		-21.484375
1219		-11.718750
1220		-17.578125
1221		-7.812500
1222		-13.671875
1223		-3.906250
1224		-9.765625
1225		0.000000
1226		-5.859375
1227		1.953125
1228		0.000000
1229		3.906250
1230		3.906250
1231		7.812500
1232		3.906250
1233		13.671875
1234		7.812500
1235		17.578125
1236		11.718750
1237		21.484375
1238		15.625000
1239		23.437500
1240		19.531250
1241		27.343750
1242		21.484375
1243		31.250000
1244		25.390625
1245		33.203125
1246		31.250000
1247		37.109375
1248		33.203125
1249		41.015625
1250		37.109375
1251		44.921875
1252		39.062500
1253		46.875000
1254		41.015625
1255		50.781250
1256		44.921875
1257		52.734375
1258		46.875000
1259		56.640625
1260		50.781250
1261		58.593750
1262		54.687500
1263		58.593750
1264		56.640625
1265		62.500000
1266		58.593750
1267		66.406250
1268		60.546875
1269		68.359375
1270		62.500000
1271		70.312500
1272		64.453125
1273		72.265625
1274		66.406250
1275		74.218750
1276		66.406250
1277		76.171875
1278		70.312500
1279		74.218750
1280		72.265625
1281		76.171875
1282		72.265625
1283		80.078125
1284		72.265625
1285		80.078125
1286		74.218750
1287		82.031250
1288		74.218750
1289		82.031250
1290		76.171875
1291		82.031250
1292		76.171875
1293		83.984375
1294		76.171875
1295		83.984375
1296		78.125000
1297		82.031250
1298		76.171875
1299		82.031250
1300		76.171875
1301		83.984375
1302		76.171875
1303		82.031250
1304		74.218750
1305		82.031250
1306		74.218750
1307		82.031250
1308		74.218750
1309		80.078125
1310		72.265625
1311		80.078125
1312		74.218750
1313		76.171875
1314		72.265625
1315		76.171875
1316		68.359375
1317		76.171875
1318		66.406250
1319		74.218750
1320		64.453125
1321		72.265625
1322		62.500000
1323		70.312500
1324		60.546875
1325		68.359375
1326		58.593750
1327		66.406250
1328		58.593750
1329		64.453125
1330		56.640625
1331		60.546875
1332		50.781250
1333		58.593750
1334		48.828125
1335		56.640625
1336		44.921875
1337		54.687500
1338		42.968750
1339		50.781250
1340		41.015625
1341		48.828125
1342		37.109375
1343		44.921875
1344		33.203125
1345		42.968750
1346		33.203125
1347		37.109375
1348		29.296875
1349		35.156250
1350		23.437500
1351		31.250000
1352		19.531250
1353		29.296875
1354		15.625000
1355		25.390625
1356		11.718750
1357		21.484375
1358		9.765625
1359		19.531250
1360		5.859375
1361		15.625000
1362		3.906250
1363		9.765625
1364		0.000000
1365		5.859375
1366		-5.859375
1367		1.953125
1368		-9.765625
1369		0.000000
1370		-13.671875
1371		-3.906250
1372		-15.625000
1373		-7.812500
1374		-19.531250
1375		-9.765625
1376		-23.437500
1377		-13.671875
1378		-23.437500
1379		-17.578125
1380		-27.343750
1381		-23.437500
1382		-33.203125
1383		-25.390625
1384		-37.109375
1385		-27.343750
1386		-39.062500
1387		-29.296875
1388		-42.968750
1389		-33.203125
1390		-44.921875
1391		-35.156250
1392		-46.875000
1393		-39.062500
1394		-50.781250
1395		-41.015625
1396		-48.828125
1397		-44.921875
1398		-52.734375
1399		-48.828125
1400		-56.640625
1401		-48.828125
1402		-58.593750
1403		-50.781250
1404		-60.546875
1405		-50.781250
1406		-60.546875
1407		-54.687500
1408		-62.500000
1409		-54.687500
1410		-64.453125
1411		-56.640625
1412		-64.453125
1413		-56.640625
1414		-62.500000
1415		-60.546875
1416		-66.406250
1417		-60.546875
1418		-66.406250
1419		-58.593750
1420		-68.359375
1421		-60.546875
1422		-66.406250
1423		-60.546875
1424		-68.359375
1425		-60.546875
1426		-66.406250
1427		-58.593750
1428		-66.406250
1429		-60.546875
1430		-62.500000
1431		-60.546875
1432		-62.500000
1433		-60.546875
1434		-64.453125
1435		-56.640625
1436		-62.500000
1437		-54.687500
1438		-60.546875
1439		-52.734375
1440		-60.546875
1441		-50.781250
1442		-58.593750
1443		-50.781250
1444		-56.640625
1445		-48.828125
1446		-52.734375
1447		-46.875000
1448		-48.828125
1449		-44.921875
1450		-48.828125
1451		-41.015625
1452		-46.875000
1453		-39.062500
1454		-42.968750
1455		-35.156250
1456		-41.015625
1457		-33.203125
1458		-39.062500
1459		-29.296875
1460		-35.156250
1461		-27.343750
1462		-33.203125
1463		-25.390625
1464		-27.343750
1465		-21.484375
1466		-23.437500
1467		-17.578125
1468		-21.484375
1469		-13.671875
1470		-19.531250
1471		-9.765625
1472		-15.625000
1473		-7.812500
1474		-11.718750
1475		-1.953125
1476		-7.812500
1477		1.953125
1478		-5.859375
1479		3.906250
1480		0.000000
1481		5.859375
1482		3.906250
1483		9.765625
1484		7.812500
1485		15.625000
1486		9.765625
1487		19.531250
1488		13.671875
1489		23.437500
1490		15.625000
1491		27.343750
1492		19.531250
1493		29.296875
1494		23.437500
1495		33.203125
1496		27.343750
1497		35.156250
1498		33.203125
1499		37.109375
1500		35.156250
1501		42.968750
1502		37.109375
1503		44.921875
1504		39.062500
1505		48.828125
1506		42.968750
1507		52.734375
1508		46.875000
1509		54.687500
1510		48.828125
1511		58.593750
1512		50.781250
1513		58.593750
1514		56.640625
1515		60.546875
1516		58.593750
1517		62.500000
1518		58.593750
1519		66.406250
1520		60.546875
1521		68.359375
1522		62.500000
1523		72.265625
1524		64.453125
1525		72.265625
1526		66.406250
1527		74.218750
1528		68.359375
1529		76.171875
1530		72.265625
1531		76.171875
1532		74.218750
1533		76.171875
1534		72.265625
1535		80.078125
1536		74.218750
1537		82.031250
1538		74.218750
1539		82.031250
1540		74.218750
1541		82.031250
1542		76.171875
1543		83.984375
1544		76.171875
1545		83.984375
1546		76.171875
1547		83.984375
1548		78.125000
1549		82.031250
1550		78.125000
1551		82.031250
1552		76.171875
1553		83.984375
1554		76.171875
1555		82.031250
1556		74.218750
1557		82.031250
1558		74.218750
1559		82.031250
1560		72.265625
1561		80.078125
1562		72.265625
1563		80.078125
1564		74.218750
1565		76.171875
1566		72.265625
1567		76.171875
1568		68.359375
1569		74.218750
1570		66.406250
1571		74.218750
1572		64.453125
1573		72.265625
1574		62.500000
1575		70.312500
1576		60.546875
1577		68.359375
1578		56.640625
1579		66.406250
1580		56.640625
1581		64.453125
1582		54.687500
1583		60.546875
1584		50.781250
1585		56.640625
1586		46.875000
1587		56.640625
1588		44.921875
1589		52.734375
1590		41.015625
1591		50.781250
1592		39.062500
1593		46.875000
1594		35.156250
1595		44.921875
1596		33.203125
1597		41.015625
1598		31.250000
1599		35.156250
1600		27.343750
1601		33.203125
1602		21.484375
1603		29.296875
1604		19.531250
1605		27.343750
1606		13.671875
1607		23.437500
1608		11.718750
1609		19.531250
1610		7.812500
1611		17.578125
1612		3.906250
1613		13.671875
1614		1.953125
1615		7.812500
1616		-1.953125
1617		3.906250
1618		-7.812500
1619		0.000000
1620		-9.765625
1621		0.000000
1622		-13.671875
1623		-3.906250
1624		-17.578125
1625		-7.812500
1626		-21.484375
1627		-11.718750
1628		-25.390625
1629		-15.625000
1630		-27.343750
1631		-17.578125
1632		-29.296875
1633		-23.437500
1634		-33.203125
1635		-27.343750
1636		-37.109375
1637		-29.296875
1638		-39.062500
1639		-31.250000
1640		-42.968750
1641		-35.156250
1642		-44.921875
1643		-37.109375
1644		-46.875000
1645		-41.015625
1646		-48.828125
1647		-42.968750
1648		-50.781250
1649		-46.875000
1650		-52.734375
1651		-48.828125
1652		-56.640625
1653		-48.828125
1654		-58.593750
1655		-50.781250
1656		-60.546875
1657		-52.734375
1658		-62.500000
1659		-54.687500
1660		-62.500000
1661		-54.687500
1662		-64.453125
1663		-56.640625
1664		-64.453125
1665		-58.593750
1666		-64.453125
1667		-60.546875
1668		-66.406250
1669		-58.593750
1670		-66.406250
1671		-60.546875
1672		-66.406250
1673		-60.546875
1674		-66.406250
1675		-60.546875
1676		-68.359375
1677		-60.546875
1678		-66.406250
1679		-58.593750
1680		-66.406250
1681		-58.593750
1682		-62.500000
1683		-60.546875
1684		-62.500000
1685		-58.593750
1686		-64.453125
1687		-56.640625
1688		-62.500000
1689		-54.687500
1690		-60.546875
1691		-52.734375
1692		-58.593750
1693		-50.781250
1694		-56.640625
1695		-48.828125
1696		-54.687500
1697		-46.875000
1698		-52.734375
1699		-46.875000
1700		-48.828125
1701		-44.921875
1702		-46.875000
1703		-39.062500
1704		-44.921875
1705		-37.109375
1706		-42.968750
1707		-35.156250
1708		-41.015625
1709		-31.250000
1710		-37.109375
1711		-29.296875
1712		-33.203125
1713		-25.390625
1714		-31.250000
1715		-23.437500
1716		-25.390625
1717		-21.484375
1718		-21.484375
1719		-17.578125
1720		-21.484375
1721		-11.718750
1722		-17.578125
1723		-7.812500
1724		-13.671875
1725		-5.859375
1726		-9.765625
1727		-1.953125
1728		-7.812500
1729		1.953125
1730		-3.906250
1731		5.859375
1732		1.953125
1733		7.812500
1734		5.859375
1735		11.718750
1736		9.765625
1737		15.625000
1738		11.718750
1739		21.484375
1740		13.671875
1741		23.437500
1742		17.578125
1743		27.343750
1744		21.484375
1745		31.250000
1746		25.390625
1747		33.203125
1748		29.296875
1749		35.156250
1750		33.203125
1751		39.062500
1752		37.109375
1753		42.968750
1754		37.109375
1755		46.875000
1756		41.015625
1757		48.828125
1758		44.921875
1759		52.734375
1760		46.875000
1761		56.640625
1762		50.781250
1763		58.593750
1764		52.734375
1765		60.546875
1766		56.640625
1767		60.546875
1768		60.546875
1769		64.453125
1770		60.546875
1771		68.359375
1772		62.500000
1773		70.312500
1774		64.453125
1775		72.265625
1776		66.406250
1777		72.265625
1778		66.406250
1779		76.171875
1780		68.359375
1781		76.171875
1782		70.312500
1783		76.171875
1784		74.218750
1785		78.125000
1786		74.218750
1787		80.078125
1788		74.218750
1789		82.031250
1790		74.218750
1791		82.031250
1792		76.171875
1793		82.031250
1794		76.171875
1795		83.984375
1796		76.171875
1797		83.984375
1798		76.171875
1799		83.984375
1800		78.125000
1801		82.031250
1802		78.125000
1803		82.031250
1804		76.171875
1805		83.984375
1806		76.171875
1807		82.031250
1808		76.171875
1809		82.031250
1810		74.218750
1811		82.031250
1812		72.265625
1813		80.078125
1814		72.265625
1815		80.078125
1816		72.265625
1817		76.171875
1818		72.265625
1819		74.218750
1820		68.359375
1821		76.171875
1822		66.406250
1823		74.218750
1824		64.453125
1825		72.265625
1826		62.500000
1827		70.312500
1828		60.546875
1829		68.359375
1830		56.640625
1831		66.406250
1832		56.640625
1833		64.453125
1834		54.687500
1835		58.593750
1836		48.828125
1837		56.640625
1838		46.875000
1839		54.687500
1840		44.921875
1841		52.734375
1842		41.015625
1843		50.781250
1844		39.062500
1845		46.875000
1846		35.156250
1847		42.968750
1848		33.203125
1849		41.015625
1850		29.296875
1851		35.156250
1852		27.343750
1853		31.250000
1854		19.531250
1855		29.296875
1856		17.578125
1857		27.343750
1858		15.625000
1859		23.437500
1860		11.718750
1861		19.531250
1862		7.812500
1863		15.625000
1864		1.953125
1865		11.718750
1866		1.953125
1867		9.765625
1868		-1.953125
1869		3.906250
1870		-7.812500
1871		0.000000
1872		-9.765625
1873		-1.953125
1874		-15.625000
1875		-5.859375
1876		-17.578125
1877		-9.765625
1878		-21.484375
1879		-13.671875
1880		-25.390625
1881		-15.625000
1882		-27.343750
1883		-19.531250
1884		-29.296875
1885		-25.390625
1886		-33.203125
1887		-27.343750
1888		-39.062500
1889		-29.296875
1890		-41.015625
1891		-33.203125
1892		-44.921875
1893		-35.156250
1894		-44.921875
1895		-37.109375
1896		-48.828125
1897		-39.062500
1898		-50.781250
1899		-42.968750
1900		-50.781250
1901		-46.875000
1902		-52.734375
1903		-48.828125
1904		-56.640625
1905		-50.781250
1906		-58.593750
1907		-50.781250
1908		-60.546875
1909		-52.734375
1910		-62.500000
1911		-54.687500
1912		-64.453125
1913		-56.640625
1914		-64.453125
1915		-56.640625
1916		-64.453125
1917		-56.640625
1918		-62.500000
1919		-60.546875
1920		-66.406250
1921		-60.546875
1922		-66.406250
1923		-60.546875
1924		-66.406250
1925		-60.546875
1926		-66.406250
1927		-60.546875
1928		-66.406250
1929		-60.546875
1930		-66.406250
1931		-58.593750
1932		-66.406250
1933		-58.593750
1934		-62.500000
1935		-60.546875
1936		-62.500000
1937		-58.593750
1938		-62.500000
1939		-54.687500
1940		-62.500000
1941		-52.734375
1942		-60.546875
1943		-50.781250
1944		-58.593750
1945		-50.781250
1946		-56.640625
1947		-46.875000
1948		-54.687500
1949		-46.875000
1950		-52.734375
1951		-44.921875
1952		-46.875000
1953		-42.968750
1954		-44.921875
1955		-39.062500
1956		-44.921875
1957		-37.109375
1958		-42.968750
1959		-33.203125
1960		-39.062500
1961		-29.296875
1962		-35.156250
1963		-27.343750
1964		-33.203125
1965		-23.437500
1966		-29.296875
1967		-21.484375
1968		-23.437500
1969		-19.531250
1970		-21.484375
1971		-15.625000
1972		-19.531250
1973		-9.765625
1974		-15.625000
1975		-5.859375
1976		-11.718750
1977		-3.906250
1978		-9.765625
1979		0.000000
1980		-5.859375
1981		3.906250
1982		-1.953125
1983		7.812500
1984		1.953125
1985		9.765625
1986		7.812500
1987		11.718750
1988		9.765625
1989		17.578125
1990		11.718750
1991		21.484375
1992		15.625000
1993		25.390625
1994		19.531250
1995		29.296875
1996		23.437500
1997		31.250000
1998		27.343750
1999		35.156250
2000		29.296875
2001		37.109375
2002		35.156250
2003		41.015625
2004		39.062500
2005		44.921875
2006		39.062500
2007		48.828125
2008		41.015625
2009		50.781250
2010		46.875000
2011		54.687500
2012		48.828125
2013		56.640625
2014		50.781250
2015		58.593750
2016		52.734375
2017		62.500000
2018		58.593750
2019		62.500000
2020		60.546875
2021		64.453125
2022		62.500000
2023		68.359375
2024		62.500000
2025		70.312500
2026		64.453125
2027		74.218750
2028		66.406250
2029		76.171875
2030		68.359375
2031		76.171875
2032		70.312500
2033		78.125000
2034		70.312500
2035		78.125000
2036		74.218750
2037		78.125000
2038		74.218750
2039		82.031250
2040		74.218750
2041		82.031250
2042		76.171875
2043		82.031250
2044		76.171875
2045		83.984375
2046		76.171875
2047		83.984375
2048		76.171875
2049		83.984375
2050		76.171875
2051		83.984375
2052		80.078125
2053		82.031250
2054		78.125000
2055		82.031250
2056		76.171875
2057		83.984375
2058		76.171875
2059		82.031250
2060		74.218750
2061		82.031250
2062		74.218750
2063		82.031250
2064		72.265625
2065		80.078125
2066		72.265625
2067		78.125000
2068		72.265625
2069		78.125000
2070		72.265625
2071		74.218750
2072		66.406250
2073		74.218750
2074		64.453125
2075		74.218750
2076		62.500000
2077		72.265625
2078		60.546875
2079		70.312500
2080		58.593750
2081		68.359375
2082		56.640625
2083		64.453125
2084		54.687500
2085		62.500000
2086		54.687500
2087		58.593750
2088		50.781250
2089		54.687500
2090		46.875000
2091		54.687500
2092		42.968750
2093		52.734375
2094		39.062500
2095		48.828125
2096		37.109375
2097		46.875000
2098		35.156250
2099		42.968750
2100		31.250000
2101		39.062500
2102		29.296875
2103		35.156250
2104		25.390625
2105		31.250000
2106		19.531250
2107		29.296875
2108		17.578125
2109		25.390625
2110		13.671875
2111		21.484375
2112		9.765625
2113		19.531250
2114		5.859375
2115		15.625000
2116		1.953125
2117		11.718750
2118		0.000000
2119		7.812500
2120		-3.906250
2121		1.953125
2122		-9.765625
2123		-1.953125
2124		-11.718750
2125		-3.906250
2126		-15.625000
2127		-5.859375
2128		-19.531250
2129		-9.765625
2130		-21.484375
2131		-13.671875
2132		-25.390625
2133		-17.578125
2134		-29.296875
2135		-19.531250
2136		-31.250000
2137		-25.390625
2138		-33.203125
2139		-27.343750
2140		-39.062500
2141		-29.296875
2142		-41.015625
2143		-33.203125
2144		-44.921875
2145		-35.156250
2146		-46.875000
2147		-39.062500
2148		-50.781250
2149		-41.015625
2150		-52.734375
2151		-42.968750
2152		-50.781250
2153		-46.875000
2154		-52.734375
2155		-50.781250
2156		-58.593750
2157		-50.781250
2158		-58.593750
2159		-50.781250
2160		-60.546875
2161		-52.734375
2162		-62.500000
2163		-54.687500
2164		-64.453125
2165		-54.687500
2166		-64.453125
2167		-56.640625
2168		-64.453125
2169		-58.593750
2170		-64.453125
2171		-60.546875
2172		-66.406250
2173		-60.546875
2174		-66.406250
2175		-60.546875
2176		-66.406250
2177		-60.546875
2178		-66.406250
2179		-58.593750
2180		-66.406250
2181		-58.593750
2182		-66.406250
2183		-58.593750
2184		-66.406250
2185		-56.640625
2186		-62.500000
2187		-58.593750
2188		-60.546875
2189		-58.593750
2190		-62.500000
2191		-54.687500
2192		-60.546875
2193		-52.734375
2194		-58.593750
2195		-50.781250
2196		-56.640625
2197		-48.828125
2198		-54.687500
2199		-46.875000
2200		-52.734375
2201		-44.921875
2202		-50.781250
2203		-42.968750
2204		-46.875000
2205		-42.968750
2206		-44.921875
2207		-37.109375
2208		-44.921875
2209		-35.156250
2210		-41.015625
2211		-31.250000
2212		-37.109375
2213		-29.296875
2214		-35.156250
2215		-27.343750
2216		-31.250000
2217		-23.437500
2218		-27.343750
2219		-19.531250
2220		-23.437500
2221		-17.578125
2222		-19.531250
2223		-15.625000
2224		-17.578125
2225		-9.765625
2226		-15.625000
2227		-5.859375
2228		-11.718750
2229		-1.953125
2230		-7.812500
2231		1.953125
2232		-3.906250
2233		5.859375
2234		0.000000
2235		9.765625
2236		3.906250
2237		9.765625
2238		7.812500
2239		13.671875
2240		11.718750
2241		19.531250
2242		13.671875
2243		23.437500
2244		17.578125
2245		25.390625
2246		21.484375
2247		29.296875
2248		23.437500
2249		33.203125
2250		27.343750
2251		37.109375
2252		31.250000
2253		39.062500
2254		37.109375
2255		41.015625
2256		39.062500
2257		44.921875
2258		41.015625
2259		48.828125
2260		42.968750
2261		52.734375
2262		46.875000
2263		56.640625
2264		48.828125
2265		58.593750
2266		50.781250
2267		60.546875
2268		54.687500
2269		62.500000
2270		58.593750
2271		62.500000
2272		60.546875
2273		64.453125
2274		62.500000
2275		70.312500
2276		64.453125
2277		72.265625
2278		64.453125
2279		74.218750
2280		66.406250
2281		74.218750
2282		68.359375
2283		76.171875
2284		70.312500
2285		78.125000
2286		72.265625
2287		78.125000
2288		74.218750
2289		78.125000
2290		74.218750
2291		80.078125
2292		74.218750
2293		82.031250
2294		76.171875
2295		82.031250
2296		76.171875
2297		83.984375
2298		76.171875
2299		83.984375
2300		76.171875
2301		83.984375
2302		76.171875
2303		83.984375
2304		80.078125
2305		82.031250
2306		78.125000
2307		82.031250
2308		76.171875
2309		83.984375
2310		76.171875
2311		83.984375
2312		74.218750
2313		82.031250
2314		74.218750
2315		80.078125
2316		72.265625
2317		80.078125
2318		72.265625
2319		78.125000
2320		72.265625
2321		78.125000
2322		70.312500
2323		74.218750
2324		66.406250
2325		74.218750
2326		64.453125
2327		72.265625
2328		62.500000
2329		70.312500
2330		60.546875
2331		68.359375
2332		56.640625
2333		66.406250
2334		56.640625
2335		64.453125
2336		54.687500
2337		62.500000
2338		52.734375
2339		58.593750
2340		50.781250
2341		54.687500
2342		44.921875
2343		54.687500
2344		42.968750
2345		50.781250
2346		39.062500
2347		48.828125
2348		35.156250
2349		44.921875
2350		31.250000
2351		41.015625
2352		29.296875
2353		39.062500
2354		27.343750
2355		33.203125
2356		25.390625
2357		29.296875
2358		19.531250
2359		25.390625
2360		15.625000
2361		23.437500
2362		11.718750
2363		21.484375
2364		7.812500
2365		17.578125
2366		3.906250
2367		13.671875
2368		1.953125
2369		9.765625
2370		0.000000
2371		5.859375
2372		-3.906250
2373		1.953125
2374		-9.765625
2375		-1.953125
2376		-13.671875
2377		-3.906250
2378		-17.578125
2379		-7.812500
2380		-19.531250
2381		-11.718750
2382		-23.437500
2383		-15.625000
2384		-27.343750
2385		-17.578125
2386		-29.296875
2387		-21.484375
2388		-31.250000
2389		-27.343750
2390		-33.203125
2391		-29.296875
2392		-41.015625
2393		-31.250000
2394		-42.968750
2395		-33.203125
2396		-44.921875
2397		-37.109375
2398		-46.875000
2399		-39.062500
2400		-48.828125
2401		-41.015625
2402		-52.734375
2403		-42.968750
2404		-52.734375
2405		-46.875000
2406		-54.687500
2407		-50.781250
2408		-58.593750
2409		-52.734375
2410		-60.546875
2411		-52.734375
2412		-60.546875
2413		-54.687500
2414		-62.500000
2415		-54.687500
2416		-64.453125
2417		-56.640625
2418		-64.453125
2419		-56.640625
2420		-64.453125
2421		-58.593750
2422		-64.453125
2423		-60.546875
2424		-64.453125
2425		-60.546875
2426		-66.406250
2427		-58.593750
2428		-66.406250
2429		-58.593750
2430		-66.406250
2431		-58.593750
2432		-66.406250
2433		-58.593750
2434		-64.453125
2435		-58.593750
2436		-64.453125
2437		-56.640625
2438		-62.500000
2439		-58.593750
2440		-60.546875
2441		-56.640625
2442		-60.546875
2443		-52.734375
2444		-60.546875
2445		-52.734375
2446		-58.593750
2447		-50.781250
2448		-56.640625
2449		-48.828125
2450		-54.687500
2451		-46.875000
2452		-52.734375
2453		-44.921875
2454		-48.828125
2455		-42.968750
2456		-44.921875
2457		-41.015625
2458		-42.968750
2459		-35.156250
2460		-42.968750
2461		-33.203125
2462		-39.062500
2463		-31.250000
2464		-37.109375
2465		-27.343750
2466		-33.203125
2467		-23.437500
2468		-31.250000
2469		-21.484375
2470		-25.390625
2471		-19.531250
2472		-21.484375
2473		-17.578125
2474		-17.578125
2475		-13.671875
2476		-15.625000
2477		-7.812500
2478		-13.671875
2479		-3.906250
2480		-9.765625
2481		0.000000
2482		-5.859375
2483		1.953125
2484		-3.906250
2485		5.859375
2486		0.000000
2487		9.765625
2488		3.906250
2489		11.718750
2490		9.765625
2491		15.625000
2492		13.671875
2493		19.531250
2494		13.671875
2495		23.437500
2496		19.531250
2497		27.343750
2498		21.484375
2499		31.250000
2500		25.390625
2501		35.156250
2502		29.296875
2503		39.062500
2504		31.250000
2505		39.062500
2506		37.109375
2507		42.968750
2508		41.015625
2509		44.921875
2510		42.968750
2511		50.781250
2512		44.921875
2513		52.734375
2514		46.875000
2515		56.640625
2516		50.781250
2517		58.593750
2518		52.734375
2519		60.546875
2520		54.687500
2521		64.453125
2522		58.593750
2523		64.453125
2524		62.500000
2525		66.406250
2526		62.500000
2527		70.312500
2528		64.453125
2529		72.265625
2530		66.406250
2531		74.218750
2532		68.359375
2533		76.171875
2534		68.359375
2535		78.125000
2536		70.312500
2537		78.125000
2538		72.265625
2539		80.078125
2540		76.171875
2541		78.125000
2542		74.218750
2543		82.031250
2544		76.171875
2545		82.031250
2546		76.171875
2547		83.984375
2548		76.171875
2549		83.984375
2550		76.171875
2551		83.984375
2552		78.125000
2553		83.984375
2554		76.171875
2555		83.984375
2556		80.078125
2557		82.031250
2558		78.125000
2559		82.031250
2560		76.171875
2561		83.984375
2562		76.171875
2563		82.031250
2564		74.218750
2565		82.031250
2566		74.218750
2567		80.078125
2568		72.265625
2569		80.078125
2570		70.312500
2571		78.125000
2572		70.312500
2573		76.171875
2574		70.312500
2575		74.218750
2576		66.406250
2577		72.265625
2578		64.453125
2579		72.265625
2580		62.500000
2581		70.312500
2582		60.546875
2583		68.359375
2584		58.593750
2585		66.406250
2586		56.640625
2587		64.453125
2588		54.687500
2589		60.546875
2590		52.734375
2591		56.640625
2592		50.781250
2593		54.687500
2594		42.968750
2595		52.734375
2596		41.015625
2597		50.781250
2598		39.062500
2599		46.875000
2600		35.156250
2601		44.921875
2602		31.250000
2603		41.015625
2604		29.296875
2605		37.109375
2606		27.343750
2607		33.203125
2608		23.437500
2609		29.296875
2610		19.531250
2611		25.390625
2612		15.625000
2613		23.437500
2614		11.718750
2615		19.531250
2616		7.812500
2617		17.578125
2618		3.906250
2619		13.671875
2620		0.000000
2621		9.765625
2622		-1.953125
2623		5.859375
2624		-3.906250
2625		0.000000
2626		-11.718750
2627		-3.906250
2628		-13.671875
2629		-5.859375
2630		-17.578125
2631		-7.812500
2632		-21.484375
2633		-11.718750
2634		-25.390625
2635		-15.625000
2636		-27.343750
2637		-19.531250
2638		-31.250000
2639		-21.484375
2640		-31.250000
2641		-27.343750
2642		-35.156250
2643		-31.250000
2644		-39.062500
2645		-33.203125
2646		-42.968750
2647		-35.156250
2648		-44.921875
2649		-37.109375
2650		-48.828125
2651		-39.062500
2652		-50.781250
2653		-41.015625
2654		-52.734375
2655		-44.921875
2656		-52.734375
2657		-46.875000
2658		-54.687500
2659		-50.781250
2660		-58.593750
2661		-50.781250
2662		-60.546875
2663		-52.734375
2664		-60.546875
2665		-52.734375
2666		-62.500000
2667		-54.687500
2668		-62.500000
2669		-56.640625
2670		-64.453125
2671		-56.640625
2672		-64.453125
2673		-58.593750
2674		-62.500000
2675		-60.546875
2676		-62.500000
2677		-60.546875
2678		-66.406250
2679		-58.593750
2680		-66.406250
2681		-58.593750
2682		-66.406250
2683		-58.593750
2684		-64.453125
2685		-58.593750
2686		-64.453125
2687		-56.640625
2688		-64.453125
2689		-56.640625
2690		-62.500000
2691		-56.640625
2692		-58.593750
2693		-56.640625
2694		-60.546875
2695		-52.734375
2696		-58.593750
2697		-50.781250
2698		-56.640625
2699		-48.828125
2700		-54.687500
2701		-46.875000
2702		-52.734375
2703		-44.921875
2704		-50.781250
2705		-42.968750
2706		-48.828125
2707		-41.015625
2708		-44.921875
2709		-39.062500
2710		-41.015625
2711		-35.156250
2712		-41.015625
2713		-31.250000
2714		-37.109375
2715		-29.296875
2716		-35.156250
2717		-25.390625
2718		-33.203125
2719		-21.484375
2720		-29.296875
2721		-19.531250
2722		-25.390625
2723		-17.578125
2724		-19.531250
2725		-15.625000
2726		-15.625000
2727		-11.718750
2728		-13.671875
2729		-5.859375
2730		-11.718750
2731		-3.906250
2732		-7.812500
2733		1.953125
2734		-3.906250
2735		3.906250
2736		0.000000
2737		7.812500
2738		1.953125
2739		11.718750
2740		5.859375
2741		13.671875
2742		11.718750
2743		17.578125
2744		15.625000
2745		23.437500
2746		17.578125
2747		25.390625
2748		19.531250
2749		29.296875
2750		23.437500
2751		33.203125
2752		27.343750
2753		37.109375
2754		31.250000
2755		39.062500
2756		33.203125
2757		41.015625
2758		39.062500
2759		42.968750
2760		42.968750
2761		46.875000
2762		42.968750
2763		52.734375
2764		46.875000
2765		54.687500
2766		48.828125
2767		56.640625
2768		50.781250
2769		60.546875
2770		52.734375
2771		62.500000
2772		56.640625
2773		64.453125
2774		58.593750
2775		66.406250
2776		64.453125
2777		68.359375
2778		64.453125
2779		72.265625
2780		66.406250
2781		74.218750
2782		66.406250
2783		74.218750
2784		70.312500
2785		76.171875
2786		70.312500
2787		78.125000
2788		72.265625
2789		80.078125
2790		74.218750
2791		80.078125
2792		76.171875
2793		80.078125
2794		78.125000
2795		82.031250
2796		76.171875
2797		83.984375
2798		76.171875
2799		83.984375
2800		78.125000
2801		83.984375
2802		78.125000
2803		83.984375
2804		76.171875
2805		83.984375
2806		78.125000
2807		85.937500
2808		78.125000
2809		82.031250
2810		80.078125
2811		82.031250
2812		76.171875
2813		83.984375
2814		76.171875
2815		82.031250
2816		74.218750
2817		82.031250
2818		74.218750
2819		80.078125
2820		72.265625
2821		80.078125
2822		70.312500
2823		78.125000
2824		70.312500
2825		78.125000
2826		70.312500
2827		74.218750
2828		66.406250
2829		72.265625
2830		64.453125
2831		72.265625
2832		60.546875
2833		70.312500
2834		58.593750
2835		68.359375
2836		58.593750
2837		66.406250
2838		54.687500
2839		62.500000
2840		52.734375
2841		60.546875
2842		52.734375
2843		56.640625
2844		48.828125
2845		52.734375
2846		42.968750
2847		52.734375
2848		41.015625
2849		48.828125
2850		39.062500
2851		46.875000
2852		35.156250
2853		42.968750
2854		31.250000
2855		41.015625
2856		27.343750
2857		37.109375
2858		25.390625
2859		33.203125
2860		21.484375
2861		27.343750
2862		17.578125
2863		25.390625
2864		11.718750
2865		21.484375
2866		9.765625
2867		19.531250
2868		7.812500
2869		15.625000
2870		3.906250
2871		11.718750
2872		0.000000
2873		9.765625
2874		-1.953125
2875		5.859375
2876		-5.859375
2877		0.000000
2878		-9.765625
2879		-3.906250
2880		-15.625000
2881		-5.859375
2882		-19.531250
2883		-9.765625
2884		-21.484375
2885		-11.718750
2886		-25.390625
2887		-15.625000
2888		-29.296875
2889		-19.531250
2890		-31.250000
2891		-23.437500
2892		-33.203125
2893		-27.343750
2894		-35.156250
2895		-31.250000
2896		-41.015625
2897		-33.203125
2898		-42.968750
2899		-35.156250
2900		-46.875000
2901		-37.109375
2902		-48.828125
2903		-41.015625
2904		-50.781250
2905		-42.968750
2906		-52.734375
2907		-44.921875
2908		-54.687500
2909		-46.875000
2910		-54.687500
2911		-50.781250
2912		-58.593750
2913		-52.734375
2914		-60.546875
2915		-52.734375
2916		-60.546875
2917		-54.687500
2918		-62.500000
2919		-54.687500
2920		-64.453125
2921		-56.640625
2922		-64.453125
2923		-56.640625
2924		-64.453125
2925		-56.640625
2926		-64.453125
2927		-60.546875
2928		-62.500000
2929		-60.546875
2930		-66.406250
2931		-58.593750
2932		-66.406250
2933		-58.593750
2934		-66.406250
2935		-58.593750
2936		-64.453125
2937		-56.640625
2938		-64.453125
2939		-56.640625
2940		-62.500000
2941		-56.640625
2942		-60.546875
2943		-54.687500
2944		-58.593750
2945		-54.687500
2946		-58.593750
2947		-52.734375
2948		-58.593750
2949		-48.828125
2950		-56.640625
2951		-46.875000
2952		-54.687500
2953		-46.875000
2954		-52.734375
2955		-44.921875
2956		-50.781250
2957		-42.968750
2958		-46.875000
2959		-41.015625
2960		-42.968750
2961		-39.062500
2962		-41.015625
2963		-35.156250
2964		-39.062500
2965		-31.250000
2966		-37.109375
2967		-27.343750
2968		-33.203125
2969		-25.390625
2970		-31.250000
2971		-21.484375
2972		-27.343750
2973		-19.531250
2974		-23.437500
2975		-15.625000
2976		-19.531250
2977		-13.671875
2978		-15.625000
2979		-9.765625
2980		-11.718750
2981		-3.906250
2982		-11.718750
2983		0.000000
2984		-7.812500
2985		1.953125
2986		-3.906250
2987		5.859375
2988		0.000000
2989		9.765625
2990		3.906250
2991		13.671875
2992		7.812500
2993		15.625000
2994		13.671875
2995		19.531250
2996		17.578125
2997		23.437500
2998		17.578125
2999		27.343750
3000		21.484375
3001		31.250000
3002		25.390625
3003		35.156250
3004		29.296875
3005		37.109375
3006		33.203125
3007		41.015625
3008		35.156250
3009		42.968750
3010		41.015625
3011		44.921875
3012		42.968750
3013		48.828125
3014		44.921875
3015		54.687500
3016		46.875000
3017		56.640625
3018		48.828125
3019		58.593750
3020		52.734375
3021		62.500000
3022		56.640625
3023		64.453125
3024		56.640625
3025		66.406250
3026		60.546875
3027		66.406250
3028		64.453125
3029		68.359375
3030		66.406250
3031		72.265625
3032		66.406250
3033		74.218750
3034		68.359375
3035		76.171875
3036		70.312500
3037		78.125000
3038		70.312500
3039		80.078125
3040		72.265625
3041		80.078125
3042		74.218750
3043		80.078125
3044		78.125000
3045		80.078125
3046		78.125000
3047		83.984375
3048		76.171875
3049		83.984375
3050		78.125000
3051		83.984375
3052		78.125000
3053		83.984375
3054		78.125000
3055		83.984375
3056		78.125000
3057		85.937500
3058		78.125000
3059		85.937500
3060		78.125000
3061		83.984375
3062		80.078125
3063		82.031250
3064		76.171875
3065		82.031250
3066		76.171875
3067		82.031250
3068		74.218750
3069		82.031250
3070		74.218750
3071		82.031250
3072		72.265625
3073		80.078125
3074		70.312500
3075		78.125000
3076		70.312500
3077		76.171875
3078		70.312500
3079		74.218750
3080		66.406250
3081		74.218750
3082		64.453125
3083		72.265625
3084		60.546875
3085		70.312500
3086		58.593750
3087		68.359375
3088		56.640625
3089		66.406250
3090		54.687500
3091		62.500000
3092		52.734375
3093		60.546875
3094		50.781250
3095		54.687500
3096		48.828125
3097		52.734375
3098		42.968750
3099		50.781250
3100		39.062500
3101		48.828125
3102		37.109375
3103		46.875000
3104		33.203125
3105		42.968750
3106		31.250000
3107		39.062500
3108		27.343750
3109		35.156250
3110		25.390625
3111		31.250000
3112		21.484375
3113		27.343750
3114		17.578125
3115		23.437500
3116		11.718750
3117		21.484375
3118		9.765625
3119		17.578125
3120		5.859375
3121		15.625000
3122		1.953125
3123		11.718750
3124		-1.953125
3125		7.812500
3126		-3.906250
3127		3.906250
3128		-5.859375
3129		-1.953125
3130		-11.718750
3131		-5.859375
3132		-15.625000
3133		-7.812500
3134		-19.531250
3135		-9.765625
3136		-23.437500
3137		-13.671875
3138		-25.390625
3139		-17.578125
3140		-29.296875
3141		-19.531250
3142		-33.203125
3143		-23.437500
3144		-33.203125
3145		-27.343750
3146		-37.109375
3147		-31.250000
3148		-41.015625
3149		-35.156250
3150		-42.968750
3151		-35.156250
3152		-46.875000
3153		-37.109375
3154		-48.828125
3155		-41.015625
3156		-50.781250
3157		-42.968750
3158		-52.734375
3159		-44.921875
3160		-54.687500
3161		-46.875000
3162		-54.687500
3163		-50.781250
3164		-56.640625
3165		-52.734375
3166		-60.546875
3167		-52.734375
3168		-60.546875
3169		-54.687500
3170		-62.500000
3171		-54.687500
3172		-64.453125
3173		-56.640625
3174		-64.453125
3175		-56.640625
3176		-64.453125
3177		-58.593750
3178		-62.500000
3179		-60.546875
3180		-62.500000
3181		-60.546875
3182		-64.453125
3183		-58.593750
3184		-64.453125
3185		-58.593750
3186		-66.406250
3187		-58.593750
3188		-64.453125
3189		-58.593750
3190		-62.500000
3191		-56.640625
3192		-62.500000
3193		-56.640625
3194		-62.500000
3195		-54.687500
3196		-58.593750
3197		-54.687500
3198		-56.640625
3199		-50.781250
3200		-58.593750
3201		-48.828125
3202		-56.640625
3203		-46.875000
3204		-54.687500
3205		-44.921875
3206		-50.781250
3207		-42.968750
3208		-48.828125
3209		-41.015625
3210		-46.875000
3211		-39.062500
3212		-42.968750
3213		-37.109375
3214		-39.062500
3215		-35.156250
3216		-39.062500
3217		-29.296875
3218		-35.156250
3219		-27.343750
3220		-33.203125
3221		-23.437500
3222		-29.296875
3223		-19.531250
3224		-25.390625
3225		-17.578125
3226		-23.437500
3227		-13.671875
3228		-17.578125
3229		-13.671875
3230		-13.671875
3231		-7.812500
3232		-9.765625
3233		-3.906250
3234		-9.765625
3235		0.000000
3236		-5.859375
3237		3.906250
3238		-1.953125
3239		7.812500
3240		0.000000
3241		11.718750
3242		3.906250
3243		15.625000
3244		7.812500
3245		15.625000
3246		15.625000
3247		19.531250
3248		17.578125
3249		23.437500
3250		19.531250
3251		29.296875
3252		23.437500
3253		33.203125
3254		25.390625
3255		35.156250
3256		29.296875
3257		39.062500
3258		33.203125
3259		42.968750
3260		35.156250
3261		44.921875
3262		41.015625
3263		46.875000
3264		44.921875
3265		48.828125
3266		46.875000
3267		54.687500
3268		48.828125
3269		56.640625
3270		50.781250
3271		58.593750
3272		54.687500
3273		62.500000
3274		56.640625
3275		64.453125
3276		56.640625
3277		66.406250
3278		60.546875
3279		68.359375
3280		64.453125
3281		68.359375
3282		66.406250
3283		72.265625
3284		66.406250
3285		74.218750
3286		68.359375
3287		78.125000
3288		70.312500
3289		78.125000
3290		70.312500
3291		78.125000
3292		72.265625
3293		80.078125
3294		74.218750
3295		82.031250
3296		78.125000
3297		80.078125
3298		78.125000
3299		82.031250
3300		76.171875
3301		83.984375
3302		76.171875
3303		83.984375
3304		78.125000
3305		83.984375
3306		76.171875
3307		83.984375
3308		78.125000
3309		83.984375
3310		78.125000
3311		83.984375
3312		78.125000
3313		83.984375
3314		78.125000
3315		82.031250
3316		76.171875
3317		82.031250
3318		76.171875
3319		82.031250
3320		74.218750
3321		80.078125
3322		74.218750
3323		80.078125
3324		72.265625
3325		78.125000
3326		70.312500
3327		76.171875
3328		70.312500
3329		76.171875
3330		68.359375
3331		72.265625
3332		66.406250
3333		70.312500
3334		62.500000
3335		70.312500
3336		60.546875
3337		68.359375
3338		58.593750
3339		66.406250
3340		56.640625
3341		64.453125
3342		52.734375
3343		62.500000
3344		50.781250
3345		58.593750
3346		48.828125
3347		54.687500
3348		46.875000
3349		50.781250
3350		41.015625
3351		48.828125
3352		39.062500
3353		46.875000
3354		35.156250
3355		44.921875
3356		31.250000
3357		41.015625
3358		29.296875
3359		39.062500
3360		25.390625
3361		35.156250
3362		23.437500
3363		31.250000
3364		21.484375
3365		25.390625
3366		15.625000
3367		21.484375
3368		11.718750
3369		19.531250
3370		7.812500
3371		17.578125
3372		3.906250
3373		13.671875
3374		0.000000
3375		9.765625
3376		-3.906250
3377		5.859375
3378		-5.859375
3379		3.906250
3380		-7.812500
3381		-3.906250
3382		-11.718750
3383		-5.859375
3384		-17.578125
3385		-9.765625
3386		-21.484375
3387		-11.718750
3388		-23.437500
3389		-15.625000
3390		-27.343750
3391		-17.578125
3392		-31.250000
3393		-21.484375
3394		-33.203125
3395		-25.390625
3396		-35.156250
3397		-27.343750
3398		-37.109375
3399		-33.203125
3400		-42.968750
3401		-35.156250
3402		-44.921875
3403		-37.109375
3404		-46.875000
3405		-39.062500
3406		-50.781250
3407		-41.015625
3408		-52.734375
3409		-42.968750
3410		-54.687500
3411		-46.875000
3412		-54.687500
3413		-46.875000
3414		-54.687500
3415		-52.734375
3416		-58.593750
3417		-54.687500
3418		-60.546875
3419		-52.734375
3420		-62.500000
3421		-54.687500
3422		-64.453125
3423		-56.640625
3424		-64.453125
3425		-56.640625
3426		-64.453125
3427		-56.640625
3428		-66.406250
3429		-58.593750
3430		-62.500000
3431		-60.546875
3432		-62.500000
3433		-60.546875
3434		-64.453125
3435		-58.593750
3436		-64.453125
3437		-58.593750
3438		-64.453125
3439		-58.593750
3440		-64.453125
3441		-56.640625
3442		-64.453125
3443		-56.640625
3444		-62.500000
3445		-54.687500
3446		-60.546875
3447		-54.687500
3448		-58.593750
3449		-54.687500
3450		-56.640625
3451		-50.781250
3452		-56.640625
3453		-48.828125
3454		-54.687500
3455		-46.875000
3456		-52.734375
3457		-44.921875
3458		-50.781250
3459		-41.015625
3460		-48.828125
3461		-39.062500
3462		-46.875000
3463		-39.062500
3464		-41.015625
3465		-37.109375
3466		-39.062500
3467		-33.203125
3468		-37.109375
3469		-29.296875
3470		-35.156250
3471		-25.390625
3472		-31.250000
3473		-23.437500
3474		-27.343750
3475		-19.531250
3476		-25.390625
3477		-15.625000
3478		-21.484375
3479		-13.671875
3480		-17.578125
3481		-11.718750
3482		-11.718750
3483		-7.812500
3484		-9.765625
3485		-1.953125
3486		-7.812500
3487		1.953125
3488		-3.906250
3489		5.859375
3490		-1.953125
3491		7.812500
3492		1.953125
3493		11.718750
3494		7.812500
3495		15.625000
3496		9.765625
3497		17.578125
3498		15.625000
3499		21.484375
3500		19.531250
3501		25.390625
3502		21.484375
3503		29.296875
3504		25.390625
3505		33.203125
3506		27.343750
3507		37.109375
3508		31.250000
3509		41.015625
3510		33.203125
3511		42.968750
3512		37.109375
3513		46.875000
3514		42.968750
3515		46.875000
3516		44.921875
3517		50.781250
3518		46.875000
3519		54.687500
3520		48.828125
3521		58.593750
3522		52.734375
3523		60.546875
3524		54.687500
3525		62.500000
3526		56.640625
3527		66.406250
3528		58.593750
3529		68.359375
3530		60.546875
3531		68.359375
3532		66.406250
3533		70.312500
3534		68.359375
3535		74.218750
3536		66.406250
3537		74.218750
3538		68.359375
3539		76.171875
3540		70.312500
3541		78.125000
3542		72.265625
3543		80.078125
3544		72.265625
3545		80.078125
3546		74.218750
3547		82.031250
3548		78.125000
3549		80.078125
3550		78.125000
3551		82.031250
3552		78.125000
3553		83.984375
3554		78.125000
3555		83.984375
3556		78.125000
3557		85.937500
3558		78.125000
3559		83.984375
3560		78.125000
3561		85.937500
3562		78.125000
3563		83.984375
3564		78.125000
3565		83.984375
3566		78.125000
3567		82.031250
3568		76.171875
3569		82.031250
3570		74.218750
3571		82.031250
3572		74.218750
3573		82.031250
3574		72.265625
3575		80.078125
3576		72.265625
3577		78.125000
3578		70.312500
3579		78.125000
3580		68.359375
3581		76.171875
3582		68.359375
3583		72.265625
3584		66.406250
3585		70.312500
3586		62.500000
3587		70.312500
3588		58.593750
3589		68.359375
3590		58.593750
3591		66.406250
3592		54.687500
3593		64.453125
3594		52.734375
3595		60.546875
3596		50.781250
3597		58.593750
3598		48.828125
3599		52.734375
3600		46.875000
3601		50.781250
3602		41.015625
3603		48.828125
3604		39.062500
3605		46.875000
3606		35.156250
3607		42.968750
3608		31.250000
3609		41.015625
3610		27.343750
3611		37.109375
3612		25.390625
3613		31.250000
3614		23.437500
3615		29.296875
3616		19.531250
3617		25.390625
3618		15.625000
3619		21.484375
3620		9.765625
3621		19.531250
3622		5.859375
3623		15.625000
3624		1.953125
3625		11.718750
3626		0.000000
3627		9.765625
3628		-1.953125
3629		5.859375
3630		-5.859375
3631		1.953125
3632		-9.765625
3633		-3.906250
3634		-13.671875
3635		-7.812500
3636		-15.625000
3637		-9.765625
3638		-21.484375
3639		-13.671875
3640		-25.390625
3641		-15.625000
3642		-27.343750
3643		-19.531250
3644		-29.296875
3645		-21.484375
3646		-33.203125
3647		-27.343750
3648		-35.156250
3649		-29.296875
3650		-37.109375
3651		-33.203125
3652		-41.015625
3653		-37.109375
3654		-44.921875
3655		-39.062500
3656		-46.875000
3657		-39.062500
3658		-48.828125
3659		-42.968750
3660		-50.781250
3661		-44.921875
3662		-52.734375
3663		-48.828125
3664		-54.687500
3665		-50.781250
3666		-56.640625
3667		-52.734375
3668		-56.640625
3669		-54.687500
3670		-58.593750
3671		-54.687500
3672		-60.546875
3673		-56.640625
3674		-60.546875
3675		-58.593750
3676		-62.500000
3677		-58.593750
3678		-62.500000
3679		-58.593750
3680		-62.500000
3681		-60.546875
3682		-62.500000
3683		-58.593750
3684		-62.500000
3685		-60.546875
3686		-64.453125
3687		-58.593750
3688		-62.500000
3689		-58.593750
3690		-62.500000
3691		-58.593750
3692		-62.500000
3693		-58.593750
3694		-60.546875
3695		-56.640625
3696		-60.546875
3697		-56.640625
3698		-58.593750
3699		-54.687500
3700		-56.640625
3701		-52.734375
3702		-54.687500
3703		-50.781250
3704		-52.734375
3705		-48.828125
3706		-50.781250
3707		-48.828125
3708		-48.828125
3709		-44.921875
3710		-46.875000
3711		-42.968750
3712		-44.921875
3713		-41.015625
3714		-42.968750
3715		-37.109375
3716		-39.062500
3717		-35.156250
3718		-37.109375
3719		-33.203125
3720		-35.156250
3721		-29.296875
3722		-31.250000
3723		-27.343750
3724		-27.343750
3725		-23.437500
3726		-25.390625
3727		-19.531250
3728		-21.484375
3729		-17.578125
3730		-17.578125
3731		-13.671875
3732		-15.625000
3733		-9.765625
3734		-11.718750
3735		-5.859375
3736		-7.812500
3737		-1.953125
3738		-3.906250
3739		0.000000
3740		0.000000
3741		3.906250
3742		1.953125
3743		7.812500
3744		5.859375
3745		11.718750
3746		9.765625
3747		15.625000
3748		13.671875
3749		17.578125
3750		17.578125
3751		21.484375
3752		21.484375
3753		25.390625
3754		23.437500
3755		29.296875
3756		27.343750
3757		33.203125
3758		31.250000
3759		35.156250
3760		35.156250
3761		39.062500
3762		37.109375
3763		42.968750
3764		41.015625
3765		44.921875
3766		42.968750
3767		48.828125
3768		46.875000
3769		50.781250
3770		50.781250
3771		54.687500
3772		52.734375
3773		56.640625
3774		54.687500
3775		60.546875
3776		56.640625
3777		62.500000
3778		60.546875
3779		64.453125
3780		62.500000
3781		66.406250
3782		64.453125
3783		68.359375
3784		66.406250
3785		70.312500
3786		68.359375
3787		74.218750
3788		70.312500
3789		74.218750
3790		72.265625
3791		76.171875
3792		72.265625
3793		78.125000
3794		74.218750
3795		78.125000
3796		76.171875
3797		80.078125
3798		78.125000
3799		82.031250
3800		78.125000
3801		80.078125
3802		78.125000
3803		82.031250
3804		78.125000
3805		82.031250
3806		80.078125
3807		82.031250
3808		80.078125
3809		83.984375
3810		80.078125
3811		82.031250
3812		80.078125
3813		82.031250
3814		80.078125
3815		83.984375
3816		80.078125
3817		82.031250
3818		78.125000
3819		82.031250
3820		78.125000
3821		82.031250
3822		76.171875
3823		80.078125
3824		76.171875
3825		80.078125
3826		74.218750
3827		78.125000
3828		72.265625
3829		78.125000
3830		72.265625
3831		76.171875
3832		68.359375
3833		74.218750
3834		68.359375
3835		72.265625
3836		66.406250
3837		70.312500
3838		64.453125
3839		68.359375
3840		60.546875
3841		66.406250
3842		58.593750
3843		62.500000
3844		56.640625
3845		60.546875
3846		54.687500
3847		58.593750
3848		50.781250
3849		56.640625
3850		48.828125
3851		54.687500
3852		44.921875
3853		50.781250
3854		42.968750
3855		46.875000
3856		39.062500
3857		44.921875
3858		35.156250
3859		41.015625
3860		33.203125
3861		37.109375
3862		29.296875
3863		35.156250
3864		25.390625
3865		31.250000
3866		21.484375
3867		27.343750
3868		19.531250
3869		23.437500
3870		13.671875
3871		19.531250
3872		9.765625
3873		17.578125
3874		7.812500
3875		13.671875
3876		3.906250
3877		9.765625
3878		0.000000
3879		5.859375
3880		-3.906250
3881		1.953125
3882		-7.812500
3883		-1.953125
3884		-9.765625
3885		-3.906250
3886		-13.671875
3887		-7.812500
3888		-17.578125
3889		-11.718750
3890		-21.484375
3891		-15.625000
3892		-23.437500
3893		-19.531250
3894		-27.343750
3895		-21.484375
3896		-29.296875
3897		-25.390625
3898		-33.203125
3899		-29.296875
3900		-35.156250
3901		-31.250000
3902		-39.062500
3903		-35.156250
3904		-42.968750
3905		-37.109375
3906		-44.921875
3907		-39.062500
3908		-46.875000
3909		-42.968750
3910		-48.828125
3911		-44.921875
3912		-50.781250
3913		-46.875000
3914		-52.734375
3915		-48.828125
3916		-54.687500
3917		-50.781250
3918		-56.640625
3919		-52.734375
3920		-58.593750
3921		-54.687500
3922		-60.546875
3923		-54.687500
3924		-60.546875
3925		-56.640625
3926		-60.546875
3927		-58.593750
3928		-62.500000
3929		-58.593750
3930		-62.500000
3931		-60.546875
3932		-62.500000
3933		-60.546875
3934		-64.453125
3935		-58.593750
3936		-62.500000
3937		-60.546875
3938		-64.453125
3939		-58.593750
3940		-62.500000
3941		-58.593750
3942		-62.500000
3943		-58.593750
3944		-60.546875
3945		-56.640625
3946		-60.546875
3947		-56.640625
3948		-58.593750
3949		-54.687500
3950		-58.593750
3951		-54.687500
3952		-56.640625
3953		-52.734375
3954		-54.687500
3955		-50.781250
3956		-52.734375
3957		-48.828125
3958		-50.781250
3959		-46.875000
3960		-48.828125
3961		-44.921875
3962		-46.875000
3963		-42.968750
3964		-44.921875
3965		-39.062500
3966		-41.015625
3967		-37.109375
3968		-39.062500
3969		-35.156250
3970		-35.156250
3971		-31.250000
3972		-33.203125
3973		-27.343750
3974		-29.296875
3975		-25.390625
3976		-27.343750
3977		-21.484375
3978		-23.437500
3979		-19.531250
3980		-19.531250
3981		-15.625000
3982		-17.578125
3983		-11.718750
3984		-13.671875
3985		-7.812500
3986		-9.765625
3987		-5.859375
3988		-5.859375
3989		0.000000
3990		-3.906250
3991		1.953125
3992		0.000000
3993		5.859375
3994		3.906250
3995		9.765625
3996		7.812500
3997		13.671875
3998		11.718750
3999		17.578125
4000		15.625000
4001		19.531250
4002		17.578125
4003		23.437500
4004		21.484375
4005		27.343750
4006		23.437500
4007		31.250000
4008		29.296875
4009		35.156250
4010		33.203125
4011		37.109375
4012		35.156250
4013		41.015625
4014		39.062500
4015		42.968750
4016		41.015625
4017		46.875000
4018		44.921875
4019		48.828125
4020		48.828125
4021		52.734375
4022		50.781250
4023		54.687500
4024		54.687500
4025		58.593750
4026		56.640625
4027		60.546875
4028		58.593750
4029		64.453125
4030		60.546875
4031		64.453125
4032		62.500000
4033		68.359375
4034		64.453125
4035		70.312500
4036		68.359375
4037		70.312500
4038		70.312500
4039		74.218750
4040		70.312500
4041		74.218750
4042		72.265625
4043		76.171875
4044		74.218750
4045		78.125000
4046		76.171875
4047		78.125000
4048		76.171875
4049		80.078125
4050		76.171875
4051		82.031250
4052		78.125000
4053		82.031250
4054		80.078125
4055		82.031250
4056		80.078125
4057		82.031250
4058		80.078125
4059		82.031250
4060		80.078125
4061		83.984375
4062		80.078125
4063		82.031250
4064		80.078125
4065		83.984375
4066		80.078125
4067		82.031250
4068		80.078125
4069		82.031250
4070		78.125000
4071		82.031250
4072		76.171875
4073		80.078125
4074		76.171875
4075		80.078125
4076		76.171875
4077		78.125000
4078		74.218750
4079		78.125000
4080		72.265625
4081		76.171875
4082		70.312500
4083		74.218750
4084		68.359375
4085		74.218750
4086		66.406250
4087		70.312500
4088		64.453125
4089		68.359375
4090		62.500000
4091		68.359375
4092		60.546875
4093		64.453125
4094		58.593750
4095		64.453125
4096		54.687500
4097		60.546875
4098		52.734375
4099		56.640625
4100		48.828125
4101		54.687500
4102		46.875000
4103		52.734375
4104		44.921875
4105		48.828125
4106		41.015625
4107		44.921875
4108		39.062500
4109		42.968750
4110		35.156250
4111		41.015625
4112		29.296875
4113		37.109375
4114		27.343750
4115		33.203125
4116		23.437500
4117		29.296875
4118		21.484375
4119		25.390625
4120		17.578125
4121		21.484375
4122		13.671875
4123		19.531250
4124		9.765625
4125		15.625000
4126		5.859375
4127		11.718750
4128		3.906250
4129		7.812500
4130		0.000000
4131		3.906250
4132		-5.859375
4133		0.000000
4134		-9.765625
4135		-1.953125
4136		-11.718750
4137		-5.859375
4138		-15.625000
4139		-9.765625
4140		-17.578125
4141		-13.671875
4142		-21.484375
4143		-15.625000
4144		-25.390625
4145		-19.531250
4146		-27.343750
4147		-21.484375
4148		-31.250000
4149		-25.390625
4150		-35.156250
4151		-29.296875
4152		-37.109375
4153		-33.203125
4154		-39.062500
4155		-35.156250
4156		-42.968750
4157		-39.062500
4158		-44.921875
4159		-41.015625
4160		-46.875000
4161		-42.968750
4162		-48.828125
4163		-44.921875
4164		-50.781250
4165		-46.875000
4166		-52.734375
4167		-50.781250
4168		-56.640625
4169		-50.781250
4170		-56.640625
4171		-52.734375
4172		-58.593750
4173		-54.687500
4174		-60.546875
4175		-54.687500
4176		-60.546875
4177		-56.640625
4178		-62.500000
4179		-58.593750
4180		-62.500000
4181		-58.593750
4182		-62.500000
4183		-60.546875
4184		-64.453125
4185		-58.593750
4186		-64.453125
4187		-60.546875
4188		-62.500000
4189		-60.546875
4190		-62.500000
4191		-58.593750
4192		-62.500000
4193		-58.593750
4194		-62.500000
4195		-58.593750
4196		-60.546875
4197		-56.640625
4198		-60.546875
4199		-56.640625
4200		-58.593750
4201		-54.687500
4202		-58.593750
4203		-52.734375
4204		-56.640625
4205		-52.734375
4206		-54.687500
4207		-50.781250
4208		-52.734375
4209		-48.828125
4210		-50.781250
4211		-46.875000
4212		-48.828125
4213		-44.921875
4214		-44.921875
4215		-41.015625
4216		-42.968750
4217		-39.062500
4218		-41.015625
4219		-35.156250
4220		-37.109375
4221		-33.203125
4222		-35.156250
4223		-31.250000
4224		-33.203125
4225		-27.343750
4226		-29.296875
4227		-23.437500
4228		-25.390625
4229		-21.484375
4230		-23.437500
4231		-17.578125
4232		-19.531250
4233		-13.671875
4234		-15.625000
4235		-9.765625
4236		-13.671875
4237		-7.812500
4238		-7.812500
4239		-3.906250
4240		-5.859375
4241		0.000000
4242		-1.953125
4243		3.906250
4244		1.953125
4245		7.812500
4246		5.859375
4247		9.765625
4248		9.765625
4249		15.625000
4250		13.671875
4251		17.578125
4252		15.625000
4253		21.484375
4254		19.531250
4255		25.390625
4256		23.437500
4257		27.343750
4258		27.343750
4259		31.250000
4260		29.296875
4261		35.156250
4262		33.203125
4263		39.062500
4264		37.109375
4265		41.015625
4266		39.062500
4267		44.921875
4268		42.968750
4269		48.828125
4270		44.921875
4271		50.781250
4272		48.828125
4273		52.734375
4274		52.734375
4275		56.640625
4276		54.687500
4277		58.593750
4278		56.640625
4279		62.500000
4280		60.546875
4281		64.453125
4282		60.546875
4283		66.406250
4284		64.453125
4285		68.359375
4286		66.406250
4287		70.312500
4288		68.359375
4289		72.265625
4290		70.312500
4291		74.218750
4292		70.312500
4293		76.171875
4294		72.265625
4295		76.171875
4296		74.218750
4297		78.125000
4298		76.171875
4299		80.078125
4300		76.171875
4301		80.078125
4302		78.125000
4303		80.078125
4304		78.125000
4305		82.031250
4306		80.078125
4307		82.031250
4308		78.125000
4309		82.031250
4310		80.078125
4311		83.984375
4312		80.078125
4313		82.031250
4314		80.078125
4315		83.984375
4316		80.078125
4317		82.031250
4318		78.125000
4319		82.031250
4320		78.125000
4321		82.031250
4322		78.125000
4323		80.078125
4324		76.171875
4325		80.078125
4326		76.171875
4327		80.078125
4328		74.218750
4329		78.125000
4330		72.265625
4331		78.125000
4332		72.265625
4333		76.171875
4334		70.312500
4335		74.218750
4336		66.406250
4337		72.265625
4338		66.406250
4339		70.312500
4340		64.453125
4341		68.359375
4342		62.500000
4343		66.406250
4344		60.546875
4345		64.453125
4346		56.640625
4347		62.500000
4348		54.687500
4349		58.593750
4350		52.734375
4351		56.640625
4352		48.828125
4353		54.687500
4354		46.875000
4355		52.734375
4356		42.968750
4357		46.875000
4358		39.062500
4359		44.921875
4360		37.109375
4361		41.015625
4362		33.203125
4363		39.062500
4364		29.296875
4365		35.156250
4366		25.390625
4367		31.250000
4368		23.437500
4369		27.343750
4370		19.531250
4371		25.390625
4372		15.625000
4373		21.484375
4374		11.718750
4375		17.578125
4376		9.765625
4377		13.671875
4378		3.906250
4379		9.765625
4380		1.953125
4381		7.812500
4382		-1.953125
4383		3.906250
4384		-5.859375
4385		0.000000
4386		-9.765625
4387		-3.906250
4388		-11.718750
4389		-5.859375
4390		-15.625000
4391		-11.718750
4392		-19.531250
4393		-13.671875
4394		-23.437500
4395		-17.578125
4396		-25.390625
4397		-21.484375
4398		-29.296875
4399		-25.390625
4400		-33.203125
4401		-27.343750
4402		-35.156250
4403		-29.296875
4404		-39.062500
4405		-33.203125
4406		-41.015625
4407		-37.109375
4408		-44.921875
4409		-39.062500
4410		-46.875000
4411		-41.015625
4412		-48.828125
4413		-44.921875
4414		-50.781250
4415		-46.875000
4416		-52.734375
4417		-48.828125
4418		-54.687500
4419		-50.781250
4420		-56.640625
4421		-52.734375
4422		-58.593750
4423		-54.687500
4424		-58.593750
4425		-54.687500
4426		-60.546875
4427		-56.640625
4428		-60.546875
4429		-56.640625
4430		-62.500000
4431		-58.593750
4432		-62.500000
4433		-60.546875
4434		-62.500000
4435		-60.546875
4436		-64.453125
4437		-60.546875
4438		-62.500000
4439		-60.546875
4440		-62.500000
4441		-60.546875
4442		-64.453125
4443		-58.593750
4444		-62.500000
4445		-58.593750
4446		-62.500000
4447		-58.593750
4448		-60.546875
4449		-56.640625
4450		-60.546875
4451		-56.640625
4452		-58.593750
4453		-54.687500
4454		-58.593750
4455		-52.734375
4456		-54.687500
4457		-52.734375
4458		-54.687500
4459		-50.781250
4460		-52.734375
4461		-48.828125
4462		-50.781250
4463		-44.921875
4464		-46.875000
4465		-42.968750
4466		-44.921875
4467		-41.015625
4468		-42.968750
4469		-39.062500
4470		-41.015625
4471		-35.156250
4472		-39.062500
4473		-33.203125
4474		-35.156250
4475		-29.296875
4476		-31.250000
4477		-27.343750
4478		-29.296875
4479		-23.437500
4480		-25.390625
4481		-19.531250
4482		-21.484375
4483		-15.625000
4484		-17.578125
4485		-13.671875
4486		-15.625000
4487		-9.765625
4488		-11.718750
4489		-5.859375
4490		-7.812500
4491		-1.953125
4492		-3.906250
4493		1.953125
4494		-1.953125
4495		5.859375
4496		1.953125
4497		7.812500
4498		5.859375
4499		11.718750
4500		9.765625
4501		15.625000
4502		13.671875
4503		19.531250
4504		17.578125
4505		23.437500
4506		21.484375
4507		25.390625
4508		23.437500
4509		29.296875
4510		27.343750
4511		33.203125
4512		31.250000
4513		35.156250
4514		33.203125
4515		41.015625
4516		37.109375
4517		42.968750
4518		41.015625
4519		44.921875
4520		42.968750
4521		48.828125
4522		46.875000
4523		50.781250
4524		50.781250
4525		54.687500
4526		52.734375
4527		58.593750
4528		54.687500
4529		58.593750
4530		58.593750
4531		62.500000
4532		60.546875
4533		64.453125
4534		62.500000
4535		66.406250
4536		64.453125
4537		68.359375
4538		66.406250
4539		70.312500
4540		68.359375
4541		72.265625
4542		70.312500
4543		74.218750
4544		72.265625
4545		76.171875
4546		72.265625
4547		76.171875
4548		74.218750
4549		78.125000
4550		76.171875
4551		80.078125
4552		78.125000
4553		80.078125
4554		78.125000
4555		82.031250
4556		78.125000
4557		82.031250
4558		80.078125
4559		82.031250
4560		78.125000
4561		82.031250
4562		80.078125
4563		82.031250
4564		80.078125
4565		82.031250
4566		80.078125
4567		82.031250
4568		78.125000
4569		83.984375
4570		78.125000
4571		82.031250
4572		78.125000
4573		82.031250
4574		78.125000
4575		80.078125
4576		76.171875
4577		80.078125
4578		76.171875
4579		78.125000
4580		74.218750
4581		78.125000
4582		72.265625
4583		76.171875
4584		70.312500
4585		74.218750
4586		70.312500
4587		74.218750
4588		66.406250
4589		72.265625
4590		66.406250
4591		70.312500
4592		64.453125
4593		66.406250
4594		60.546875
4595		66.406250
4596		58.593750
4597		64.453125
4598		56.640625
4599		60.546875
4600		52.734375
4601		58.593750
4602		50.781250
4603		54.687500
4604		46.875000
4605		52.734375
4606		44.921875
4607		50.781250
4608		41.015625
4609		46.875000
4610		39.062500
4611		42.968750
4612		35.156250
4613		41.015625
4614		31.250000
4615		37.109375
4616		29.296875
4617		33.203125
4618		25.390625
4619		31.250000
4620		21.484375
4621		27.343750
4622		17.578125
4623		23.437500
4624		13.671875
4625		19.531250
4626		11.718750
4627		15.625000
4628		7.812500
4629		13.671875
4630		3.906250
4631		9.765625
4632		0.000000
4633		5.859375
4634		-3.906250
4635		1.953125
4636		-7.812500
4637		-1.953125
4638		-9.765625
4639		-3.906250
4640		-13.671875
4641		-7.812500
4642		-17.578125
4643		-11.718750
4644		-21.484375
4645		-15.625000
4646		-25.390625
4647		-19.531250
4648		-27.343750
4649		-21.484375
4650		-31.250000
4651		-25.390625
4652		-33.203125
4653		-29.296875
4654		-37.109375
4655		-31.250000
4656		-39.062500
4657		-35.156250
4658		-42.968750
4659		-37.109375
4660		-44.921875
4661		-41.015625
4662		-46.875000
4663		-42.968750
4664		-48.828125
4665		-44.921875
4666		-52.734375
4667		-46.875000
4668		-52.734375
4669		-48.828125
4670		-54.687500
4671		-50.781250
4672		-58.593750
4673		-52.734375
4674		-58.593750
4675		-54.687500
4676		-58.593750
4677		-56.640625
4678		-60.546875
4679		-56.640625
4680		-62.500000
4681		-56.640625
4682		-62.500000
4683		-58.593750
4684		-62.500000
4685		-60.546875
4686		-62.500000
4687		-60.546875
4688		-62.500000
4689		-60.546875
4690		-64.453125
4691		-60.546875
4692		-62.500000
4693		-60.546875
4694		-62.500000
4695		-58.593750
4696		-62.500000
4697		-58.593750
4698		-60.546875
4699		-58.593750
4700		-60.546875
4701		-56.640625
4702		-58.593750
4703		-56.640625
4704		-58.593750
4705		-54.687500
4706		-56.640625
4707		-52.734375
4708		-54.687500
4709		-50.781250
4710		-52.734375
4711		-48.828125
4712		-52.734375
4713		-46.875000
4714		-48.828125
4715		-44.921875
4716		-46.875000
4717		-42.968750
4718		-44.921875
4719		-39.062500
4720		-41.015625
4721		-37.109375
4722		-39.062500
4723		-33.203125
4724		-37.109375
4725		-31.250000
4726		-33.203125
4727		-29.296875
4728		-29.296875
4729		-25.390625
4730		-27.343750
4731		-21.484375
4732		-23.437500
4733		-19.531250
4734		-21.484375
4735		-15.625000
4736		-17.578125
4737		-11.718750
4738		-13.671875
4739		-7.812500
4740		-9.765625
4741		-3.906250
4742		-5.859375
4743		-1.953125
4744		-3.906250
4745		1.953125
4746		0.000000
4747		5.859375
4748		3.906250
4749		9.765625
4750		7.812500
4751		13.671875
4752		11.718750
4753		15.625000
4754		15.625000
4755		19.531250
4756		19.531250
4757		25.390625
4758		21.484375
4759		27.343750
4760		25.390625
4761		29.296875
4762		29.296875
4763		33.203125
4764		31.250000
4765		37.109375
4766		35.156250
4767		41.015625
4768		39.062500
4769		42.968750
4770		41.015625
4771		46.875000
4772		44.921875
4773		48.828125
4774		46.875000
4775		52.734375
4776		50.781250
4777		54.687500
4778		52.734375
4779		58.593750
4780		54.687500
4781		60.546875
4782		58.593750
4783		62.500000
4784		60.546875
4785		64.453125
4786		62.500000
4787		68.359375
4788		64.453125
4789		70.312500
4790		66.406250
4791		70.312500
4792		68.359375
4793		72.265625
4794		70.312500
4795		74.218750
4796		72.265625
4797		76.171875
4798		74.218750
4799		78.125000
4800		74.218750
4801		78.125000
4802		76.171875
4803		80.078125
4804		76.171875
4805		80.078125
4806		78.125000
4807		82.031250
4808		78.125000
4809		82.031250
4810		80.078125
4811		82.031250
4812		80.078125
4813		82.031250
4814		80.078125
4815		83.984375
4816		80.078125
4817		82.031250
4818		78.125000
4819		82.031250
4820		78.125000
4821		82.031250
4822		78.125000
4823		82.031250
4824		78.125000
4825		82.031250
4826		78.125000
4827		80.078125
4828		76.171875
4829		78.125000
4830		74.218750
4831		78.125000
4832		74.218750
4833		78.125000
4834		72.265625
4835		76.171875
4836		70.312500
4837		74.218750
4838		68.359375
4839		72.265625
4840		66.406250
4841		70.312500
4842		64.453125
4843		68.359375
4844		62.500000
4845		66.406250
4846		60.546875
4847		64.453125
4848		56.640625
4849		62.500000
4850		54.687500
4851		60.546875
4852		52.734375
4853		56.640625
4854		48.828125
4855		54.687500
4856		46.875000
4857		50.781250
4858		42.968750
4859		48.828125
4860		41.015625
4861		44.921875
4862		37.109375
4863		42.968750
4864		33.203125
4865		39.062500
4866		31.250000
4867		35.156250
4868		27.343750
4869		33.203125
4870		23.437500
4871		29.296875
4872		21.484375
4873		25.390625
4874		15.625000
4875		21.484375
4876		13.671875
4877		17.578125
4878		9.765625
4879		15.625000
4880		5.859375
4881		11.718750
4882		1.953125
4883		7.812500
4884		-1.953125
4885		3.906250
4886		-3.906250
4887		0.000000
4888		-7.812500
4889		-1.953125
4890		-11.718750
4891		-5.859375
4892		-15.625000
4893		-9.765625
4894		-19.531250
4895		-13.671875
4896		-23.437500
4897		-17.578125
4898		-25.390625
4899		-19.531250
4900		-29.296875
4901		-23.437500
4902		-31.250000
4903		-27.343750
4904		-35.156250
4905		-29.296875
4906		-39.062500
4907		-33.203125
4908		-41.015625
4909		-35.156250
4910		-42.968750
4911		-39.062500
4912		-44.921875
4913		-41.015625
4914		-48.828125
4915		-42.968750
4916		-50.781250
4917		-44.921875
4918		-52.734375
4919		-48.828125
4920		-54.687500
4921		-50.781250
4922		-56.640625
4923		-52.734375
4924		-56.640625
4925		-54.687500
4926		-58.593750
4927		-54.687500
4928		-60.546875
4929		-56.640625
4930		-62.500000
4931		-56.640625
4932		-62.500000
4933		-58.593750
4934		-62.500000
4935		-58.593750
4936		-62.500000
4937		-60.546875
4938		-64.453125
4939		-60.546875
4940		-64.453125
4941		-60.546875
4942		-64.453125
4943		-60.546875
4944		-62.500000
4945		-60.546875
4946		-62.500000
4947		-58.593750
4948		-62.500000
4949		-58.593750
4950		-60.546875
4951		-58.593750
4952		-60.546875
4953		-56.640625
4954		-60.546875
4955		-56.640625
4956		-58.593750
4957		-54.687500
4958		-56.640625
4959		-50.781250
4960		-54.687500
4961		-50.781250
4962		-52.734375
4963		-48.828125
4964		-50.781250
4965		-44.921875
4966		-48.828125
4967		-44.921875
4968		-46.875000
4969		-41.015625
4970		-42.968750
4971		-39.062500
4972		-42.968750
4973		-37.109375
4974		-39.062500
4975		-33.203125
4976		-35.156250
4977		-31.250000
4978		-33.203125
4979		-27.343750
4980		-29.296875
4981		-23.437500
4982		-25.390625
4983		-21.484375
4984		-23.437500
4985		-17.578125
4986		-19.531250
4987		-15.625000
4988		-15.625000
4989		-11.718750
4990		-13.671875
4991		-7.812500
4992		-9.765625
4993		-3.906250
4994		-5.859375
4995		0.000000
4996		-1.953125
4997		1.953125
4998		0.000000
4999		7.812500
5000		3.906250
5001		9.765625
5002		9.765625
5003		13.671875
5004		11.718750
5005		17.578125
5006		15.625000
5007		21.484375
5008		19.531250
5009		25.390625
5010		21.484375
5011		27.343750
5012		27.343750
5013		31.250000
5014		29.296875
5015		35.156250
5016		33.203125
5017		39.062500
5018		35.156250
5019		41.015625
5020		39.062500
5021		44.921875
5022		42.968750
5023		46.875000
5024		44.921875
5025		50.781250
5026		48.828125
5027		52.734375
5028		50.781250
5029		56.640625
5030		54.687500
5031		58.593750
5032		56.640625
5033		60.546875
5034		58.593750
5035		62.500000
5036		60.546875
5037		66.406250
5038		64.453125
5039		68.359375
5040		66.406250
5041		70.312500
5042		66.406250
5043		72.265625
5044		70.312500
5045		72.265625
5046		72.265625
5047		74.218750
5048		72.265625
5049		76.171875
5050		74.218750
5051		78.125000
5052		76.171875
5053		78.125000
5054		76.171875
5055		80.078125
5056		78.125000
5057		80.078125
5058		78.125000
5059		82.031250
5060		78.125000
5061		82.031250
5062		80.078125
5063		82.031250
5064		78.125000
5065		82.031250
5066		78.125000
5067		82.031250
5068		80.078125
5069		82.031250
5070		78.125000
5071		82.031250
5072		78.125000
5073		82.031250
5074		78.125000
5075		82.031250
5076		76.171875
5077		82.031250
5078		76.171875
5079		80.078125
5080		76.171875
5081		78.125000
5082		74.218750
5083		78.125000
5084		72.265625
5085		76.171875
5086		72.265625
5087		76.171875
5088		70.312500
5089		74.218750
5090		68.359375
5091		72.265625
5092		66.406250
5093		70.312500
5094		64.453125
5095		68.359375
5096		62.500000
5097		64.453125
5098		58.593750
5099		62.500000
5100		56.640625
5101		60.546875
5102		54.687500
5103		58.593750
5104		50.781250
5105		56.640625
5106		48.828125
5107		52.734375
5108		44.921875
5109		50.781250
5110		42.968750
5111		46.875000
5112		39.062500
5113		44.921875
5114		35.156250
5115		41.015625
5116		33.203125
5117		39.062500
5118		29.296875
5119		35.156250
5120		25.390625
5121		31.250000
5122		23.437500
5123		27.343750
5124		19.531250
5125		25.390625
5126		15.625000
5127		19.531250
5128		11.718750
5129		17.578125
5130		7.812500
5131		13.671875
5132		3.906250
5133		9.765625
5134		1.953125
5135		5.859375
5136		-3.906250
5137		1.953125
5138		-5.859375
5139		0.000000
5140		-9.765625
5141		-3.906250
5142		-13.671875
5143		-7.812500
5144		-17.578125
5145		-11.718750
5146		-19.531250
5147		-15.625000
5148		-23.437500
5149		-17.578125
5150		-27.343750
5151		-21.484375
5152		-29.296875
5153		-25.390625
5154		-33.203125
5155		-29.296875
5156		-35.156250
5157		-31.250000
5158		-39.062500
5159		-35.156250
5160		-42.968750
5161		-37.109375
5162		-42.968750
5163		-39.062500
5164		-46.875000
5165		-42.968750
5166		-48.828125
5167		-44.921875
5168		-50.781250
5169		-46.875000
5170		-52.734375
5171		-48.828125
5172		-54.687500
5173		-50.781250
5174		-56.640625
5175		-52.734375
5176		-58.593750
5177		-54.687500
5178		-58.593750
5179		-54.687500
5180		-60.546875
5181		-56.640625
5182		-62.500000
5183		-58.593750
5184		-62.500000
5185		-58.593750
5186		-62.500000
5187		-60.546875
5188		-62.500000
5189		-60.546875
5190		-64.453125
5191		-60.546875
5192		-64.453125
5193		-60.546875
5194		-62.500000
5195		-60.546875
5196		-62.500000
5197		-60.546875
5198		-62.500000
5199		-58.593750
5200		-62.500000
5201		-58.593750
5202		-60.546875
5203		-58.593750
5204		-60.546875
5205		-56.640625
5206		-58.593750
5207		-54.687500
5208		-58.593750
5209		-52.734375
5210		-54.687500
5211		-50.781250
5212		-54.687500
5213		-50.781250
5214		-52.734375
5215		-48.828125
5216		-50.781250
5217		-44.921875
5218		-48.828125
5219		-42.968750
5220		-44.921875
5221		-41.015625
5222		-42.968750
5223		-39.062500
5224		-41.015625
5225		-35.156250
5226		-37.109375
5227		-33.203125
5228		-35.156250
5229		-29.296875
5230		-31.250000
5231		-27.343750
5232		-27.343750
5233		-23.437500
5234		-25.390625
5235		-19.531250
5236		-21.484375
5237		-15.625000
5238		-17.578125
5239		-13.671875
5240		-15.625000
5241		-9.765625
5242		-11.718750
5243		-5.859375
5244		-7.812500
5245		-3.906250
5246		-3.906250
5247		0.000000
5248		-1.953125
5249		3.906250
5250		1.953125
5251		7.812500
5252		5.859375
5253		11.718750
5254		9.765625
5255		15.625000
5256		13.671875
5257		19.531250
5258		17.578125
5259		21.484375
5260		19.531250
5261		25.390625
5262		23.437500
5263		29.296875
5264		27.343750
5265		33.203125
5266		31.250000
5267		37.109375
5268		33.203125
5269		39.062500
5270		37.109375
5271		42.968750
5272		41.015625
5273		44.921875
5274		42.968750
5275		48.828125
5276		46.875000
5277		52.734375
5278		48.828125
5279		54.687500
5280		52.734375
5281		56.640625
5282		54.687500
5283		60.546875
5284		56.640625
5285		62.500000
5286		60.546875
5287		64.453125
5288		62.500000
5289		66.406250
5290		64.453125
5291		68.359375
5292		66.406250
5293		70.312500
5294		68.359375
5295		72.265625
5296		70.312500
5297		74.218750
5298		72.265625
5299		76.171875
5300		74.218750
5301		76.171875
5302		74.218750
5303		78.125000
5304		76.171875
5305		80.078125
5306		76.171875
5307		80.078125
5308		78.125000
5309		80.078125
5310		78.125000
5311		82.031250
5312		78.125000
5313		82.031250
5314		80.078125
5315		82.031250
5316		80.078125
5317		82.031250
5318		80.078125
5319		82.031250
5320		80.078125
5321		82.031250
5322		78.125000
5323		82.031250
5324		78.125000
5325		82.031250
5326		78.125000
5327		82.031250
5328		78.125000
5329		80.078125
5330		76.171875
5331		80.078125
5332		76.171875
5333		78.125000
5334		74.218750
5335		78.125000
5336		72.265625
5337		76.171875
5338		70.312500
5339		74.218750
5340		68.359375
5341		74.218750
5342		66.406250
5343		70.312500
5344		64.453125
5345		70.312500
5346		62.500000
5347		68.359375
5348		60.546875
5349		64.453125
5350		58.593750
5351		62.500000
5352		56.640625
5353		60.546875
5354		52.734375
5355		58.593750
5356		50.781250
5357		54.687500
5358		46.875000
5359		52.734375
5360		44.921875
5361		48.828125
5362		41.015625
5363		46.875000
5364		39.062500
5365		42.968750
5366		35.156250
5367		39.062500
5368		31.250000
5369		37.109375
5370		29.296875
5371		33.203125
5372		25.390625
5373		29.296875
5374		21.484375
5375		25.390625
5376		17.578125
5377		23.437500
5378		13.671875
5379		19.531250
5380		9.765625
5381		15.625000
5382		7.812500
5383		11.718750
5384		3.906250
5385		7.812500
5386		0.000000
5387		5.859375
5388		-3.906250
5389		1.953125
5390		-7.812500
5391		-1.953125
5392		-11.718750
5393		-5.859375
5394		-15.625000
5395		-9.765625
5396		-17.578125
5397		-13.671875
5398		-21.484375
5399		-15.625000
5400		-25.390625
5401		-19.531250
5402		-27.343750
5403		-21.484375
5404		-31.250000
5405		-25.390625
5406		-33.203125
5407		-29.296875
5408		-37.109375
5409		-31.250000
5410		-39.062500
5411		-35.156250
5412		-42.968750
5413		-39.062500
5414		-44.921875
5415		-41.015625
5416		-46.875000
5417		-42.968750
5418		-48.828125
5419		-44.921875
5420		-50.781250
5421		-46.875000
5422		-54.687500
5423		-48.828125
5424		-54.687500
5425		-52.734375
5426		-58.593750
5427		-52.734375
5428		-58.593750
5429		-54.687500
5430		-60.546875
5431		-56.640625
5432		-60.546875
5433		-58.593750
5434		-62.500000
5435		-58.593750
5436		-62.500000
5437		-58.593750
5438		-64.453125
5439		-60.546875
5440		-64.453125
5441		-60.546875
5442		-64.453125
5443		-60.546875
5444		-64.453125
5445		-60.546875
5446		-64.453125
5447		-58.593750
5448		-64.453125
5449		-60.546875
5450		-62.500000
5451		-60.546875
5452		-62.500000
5453		-58.593750
5454		-60.546875
5455		-58.593750
5456		-60.546875
5457		-56.640625
5458		-58.593750
5459		-54.687500
5460		-58.593750
5461		-52.734375
5462		-54.687500
5463		-50.781250
5464		-54.687500
5465		-50.781250
5466		-50.781250
5467		-46.875000
5468		-48.828125
5469		-44.921875
5470		-46.875000
5471		-42.968750
5472		-44.921875
5473		-41.015625
5474		-42.968750
5475		-37.109375
5476		-39.062500
5477		-35.156250
5478		-37.109375
5479		-31.250000
5480		-33.203125
5481		-29.296875
5482		-31.250000
5483		-25.390625
5484		-27.343750
5485		-21.484375
5486		-25.390625
5487		-19.531250
5488		-21.484375
5489		-15.625000
5490		-17.578125
5491		-13.671875
5492		-13.671875
5493		-7.812500
5494		-11.718750
5495		-5.859375
5496		-7.812500
5497		-1.953125
5498		-3.906250
5499		1.953125
5500		0.000000
5501		5.859375
5502		3.906250
5503		9.765625
5504		7.812500
5505		11.718750
5506		9.765625
5507		15.625000
5508		13.671875
5509		19.531250
5510		17.578125
5511		23.437500
5512		21.484375
5513		27.343750
5514		23.437500
5515		29.296875
5516		27.343750
5517		33.203125
5518		31.250000
5519		37.109375
5520		35.156250
5521		41.015625
5522		39.062500
5523		42.968750
5524		41.015625
5525		44.921875
5526		42.968750
5527		48.828125
5528		46.875000
5529		52.734375
5530		50.781250
5531		54.687500
5532		52.734375
5533		58.593750
5534		54.687500
5535		60.546875
5536		56.640625
5537		62.500000
5538		60.546875
5539		64.453125
5540		62.500000
5541		66.406250
5542		64.453125
5543		68.359375
5544		66.406250
5545		72.265625
5546		68.359375
5547		72.265625
5548		70.312500
5549		74.218750
5550		72.265625
5551		76.171875
5552		72.265625
5553		78.125000
5554		74.218750
5555		78.125000
5556		76.171875
5557		80.078125
5558		76.171875
5559		80.078125
5560		78.125000
5561		80.078125
5562		78.125000
5563		82.031250
5564		78.125000
5565		82.031250
5566		80.078125
5567		82.031250
5568		80.078125
5569		82.031250
5570		80.078125
5571		82.031250
5572		78.125000
5573		82.031250
5574		78.125000
5575		82.031250
5576		78.125000
5577		82.031250
5578		78.125000
5579		80.078125
5580		76.171875
5581		80.078125
5582		76.171875
5583		78.125000
5584		74.218750
5585		78.125000
5586		72.265625
5587		76.171875
5588		72.265625
5589		76.171875
5590		70.312500
5591		74.218750
5592		68.359375
5593		72.265625
5594		66.406250
5595		70.312500
5596		64.453125
5597		68.359375
5598		62.500000
5599		66.406250
5600		60.546875
5601		64.453125
5602		56.640625
5603		62.500000
5604		54.687500
5605		58.593750
5606		52.734375
5607		56.640625
5608		48.828125
5609		54.687500
5610		46.875000
5611		50.781250
5612		42.968750
5613		48.828125
5614		39.062500
5615		44.921875
5616		37.109375
5617		42.968750
5618		33.203125
5619		39.062500
5620		31.250000
5621		35.156250
5622		27.343750
5623		31.250000
5624		23.437500
5625		29.296875
5626		19.531250
5627		25.390625
5628		15.625000
5629		21.484375
5630		13.671875
5631		17.578125
5632		9.765625
5633		15.625000
5634		5.859375
5635		9.765625
5636		1.953125
5637		7.812500
5638		-1.953125
5639		3.906250
5640		-5.859375
5641		0.000000
5642		-9.765625
5643		-3.906250
5644		-11.718750
5645		-7.812500
5646		-15.625000
5647		-9.765625
5648		-19.531250
5649		-13.671875
5650		-23.437500
5651		-17.578125
5652		-25.390625
5653		-21.484375
5654		-29.296875
5655		-23.437500
5656		-33.203125
5657		-27.343750
5658		-35.156250
5659		-29.296875
5660		-39.062500
5661		-33.203125
5662		-41.015625
5663		-35.156250
5664		-44.921875
5665		-39.062500
5666		-46.875000
5667		-41.015625
5668		-48.828125
5669		-44.921875
5670		-50.781250
5671		-46.875000
5672		-52.734375
5673		-48.828125
5674		-54.687500
5675		-50.781250
5676		-56.640625
5677		-52.734375
5678		-58.593750
5679		-54.687500
5680		-58.593750
5681		-56.640625
5682		-60.546875
5683		-56.640625
5684		-60.546875
5685		-58.593750
5686		-62.500000
5687		-58.593750
5688		-62.500000
5689		-60.546875
5690		-64.453125
5691		-60.546875
5692		-64.453125
5693		-60.546875
5694		-64.453125
5695		-60.546875
5696		-64.453125
5697		-60.546875
5698		-64.453125
5699		-60.546875
5700		-62.500000
5701		-60.546875
5702		-62.500000
5703		-58.593750
5704		-62.500000
5705		-58.593750
5706		-60.546875
5707		-56.640625
5708		-58.593750
5709		-56.640625
5710		-58.593750
5711		-54.687500
5712		-56.640625
5713		-52.734375
5714		-54.687500
5715		-50.781250
5716		-54.687500
5717		-48.828125
5718		-50.781250
5719		-46.875000
5720		-48.828125
5721		-42.968750
5722		-46.875000
5723		-41.015625
5724		-44.921875
5725		-39.062500
5726		-42.968750
5727		-35.156250
5728		-39.062500
5729		-33.203125
5730		-37.109375
5731		-29.296875
5732		-33.203125
5733		-27.343750
5734		-29.296875
5735		-25.390625
5736		-25.390625
5737		-19.531250
5738		-23.437500
5739		-17.578125
5740		-19.531250
5741		-13.671875
5742		-17.578125
5743		-9.765625
5744		-13.671875
5745		-7.812500
5746		-9.765625
5747		-3.906250
5748		-5.859375
5749		0.000000
5750		-1.953125
5751		1.953125
5752		1.953125
5753		5.859375
5754		3.906250
5755		11.718750
5756		7.812500
5757		13.671875
5758		11.718750
5759		17.578125
5760		15.625000
5761		21.484375
5762		17.578125
5763		25.390625
5764		23.437500
5765		27.343750
5766		25.390625
5767		31.250000
5768		29.296875
5769		35.156250
5770		33.203125
5771		39.062500
5772		35.156250
5773		41.015625
5774		39.062500
5775		44.921875
5776		41.015625
5777		48.828125
5778		44.921875
5779		50.781250
5780		46.875000
5781		54.687500
5782		50.781250
5783		56.640625
5784		54.687500
5785		58.593750
5786		56.640625
5787		60.546875
5788		58.593750
5789		64.453125
5790		60.546875
5791		66.406250
5792		62.500000
5793		68.359375
5794		64.453125
5795		70.312500
5796		66.406250
5797		72.265625
5798		68.359375
5799		74.218750
5800		70.312500
5801		74.218750
5802		72.265625
5803		76.171875
5804		74.218750
5805		78.125000
5806		74.218750
5807		80.078125
5808		74.218750
5809		80.078125
5810		76.171875
5811		82.031250
5812		76.171875
5813		82.031250
5814		78.125000
5815		82.031250
5816		78.125000
5817		82.031250
5818		80.078125
5819		82.031250
5820		78.125000
5821		82.031250
5822		78.125000
5823		83.984375
5824		78.125000
5825		83.984375
5826		78.125000
5827		82.031250
5828		78.125000
5829		82.031250
5830		76.171875
5831		82.031250
5832		76.171875
5833		80.078125
5834		76.171875
5835		78.125000
5836		74.218750
5837		78.125000
5838		72.265625
5839		76.171875
5840		70.312500
5841		74.218750
5842		70.312500
5843		72.265625
5844		68.359375
5845		72.265625
5846		66.406250
5847		70.312500
5848		64.453125
5849		66.406250
5850		60.546875
5851		64.453125
5852		58.593750
5853		62.500000
5854		56.640625
5855		60.546875
5856		54.687500
5857		58.593750
5858		50.781250
5859		54.687500
5860		48.828125
5861		52.734375
5862		44.921875
5863		48.828125
5864		42.968750
5865		46.875000
5866		39.062500
5867		44.921875
5868		35.156250
5869		41.015625
5870		33.203125
5871		37.109375
5872		29.296875
5873		33.203125
5874		25.390625
5875		31.250000
5876		21.484375
5877		27.343750
5878		19.531250
5879		23.437500
5880		15.625000
5881		19.531250
5882		11.718750
5883		17.578125
5884		7.812500
5885		13.671875
5886		3.906250
5887		9.765625
5888		0.000000
5889		5.859375
5890		-3.906250
5891		1.953125
5892		-5.859375
5893		-1.953125
5894		-9.765625
5895		-5.859375
5896		-13.671875
5897		-7.812500
5898		-17.578125
5899		-11.718750
5900		-19.531250
5901		-15.625000
5902		-23.437500
5903		-17.578125
5904		-27.343750
5905		-21.484375
5906		-29.296875
5907		-25.390625
5908		-33.203125
5909		-29.296875
5910		-35.156250
5911		-31.250000
5912		-39.062500
5913		-35.156250
5914		-41.015625
5915		-37.109375
5916		-44.921875
5917		-41.015625
5918		-46.875000
5919		-42.968750
5920		-50.781250
5921		-44.921875
5922		-50.781250
5923		-46.875000
5924		-52.734375
5925		-48.828125
5926		-54.687500
5927		-50.781250
5928		-56.640625
5929		-52.734375
5930		-58.593750
5931		-54.687500
5932		-58.593750
5933		-56.640625
5934		-60.546875
5935		-56.640625
5936		-60.546875
5937		-58.593750
5938		-64.453125
5939		-56.640625
5940		-66.406250
5941		-56.640625
5942		-66.406250
5943		-58.593750
5944		-66.406250
5945		-58.593750
5946		-62.500000
5947		-60.546875
5948		-62.500000
5949		-60.546875
5950		-62.500000
5951		-60.546875
5952		-62.500000
5953		-60.546875
5954		-62.500000
5955		-58.593750
5956		-64.453125
5957		-54.687500
5958		-62.500000
5959		-54.687500
5960		-62.500000
5961		-52.734375
5962		-56.640625
5963		-54.687500
5964		-56.640625
5965		-50.781250
5966		-54.687500
5967		-50.781250
5968		-52.734375
5969		-48.828125
5970		-50.781250
5971		-46.875000
5972		-50.781250
5973		-41.015625
5974		-46.875000
5975		-37.109375
5976		-44.921875
5977		-35.156250
5978		-41.015625
5979		-35.156250
5980		-37.109375
5981		-33.203125
5982		-35.156250
5983		-29.296875
5984		-31.250000
5985		-27.343750
5986		-29.296875
5987		-23.437500
5988		-25.390625
5989		-19.531250
5990		-25.390625
5991		-13.671875
5992		-21.484375
5993		-9.765625
5994		-19.531250
5995		-7.812500
5996		-11.718750
5997		-5.859375
5998		-7.812500
5999		-3.906250
6000		-3.906250
6001		0.000000
6002		-1.953125
6003		3.906250
6004		1.953125
6005		7.812500
6006		3.906250
6007		13.671875
6008		7.812500
6009		17.578125
6010		11.718750
6011		21.484375
6012		17.578125
6013		21.484375
6014		19.531250
6015		25.390625
6016		23.437500
6017		29.296875
6018		27.343750
6019		33.203125
6020		31.250000
6021		35.156250
6022		33.203125
6023		41.015625
6024		33.203125
6025		44.921875
6026		37.109375
6027		48.828125
6028		41.015625
6029		48.828125
6030		46.875000
6031		50.781250
6032		48.828125
6033		54.687500
6034		52.734375
6035		56.640625
6036		54.687500
6037		58.593750
6038		56.640625
6039		60.546875
6040		56.640625
6041		66.406250
6042		58.593750
6043		70.312500
6044		62.500000
6045		70.312500
6046		66.406250
6047		70.312500
6048		68.359375
6049		72.265625
6050		70.312500
6051		74.218750
6052		72.265625
6053		74.218750
6054		72.265625
6055		76.171875
6056		70.312500
6057		82.031250
6058		72.265625
6059		82.031250
6060		72.265625
6061		83.984375
6062		74.218750
6063		83.984375
6064		78.125000
6065		80.078125
6066		78.125000
6067		82.031250
6068		80.078125
6069		82.031250
6070		80.078125
6071		82.031250
6072		80.078125
6073		82.031250
6074		76.171875
6075		85.937500
6076		76.171875
6077		85.937500
6078		74.218750
6079		83.984375
6080		78.125000
6081		80.078125
6082		78.125000
6083		80.078125
6084		76.171875
6085		78.125000
6086		74.218750
6087		78.125000
6088		74.218750
6089		76.171875
6090		68.359375
6091		78.125000
6092		66.406250
6093		76.171875
6094		66.406250
6095		76.171875
6096		66.406250
6097		70.312500
6098		64.453125
6099		68.359375
6100		62.500000
6101		66.406250
6102		60.546875
6103		64.453125
6104		58.593750
6105		62.500000
6106		50.781250
6107		60.546875
6108		50.781250
6109		60.546875
6110		46.875000
6111		58.593750
6112		44.921875
6113		54.687500
6114		44.921875
6115		48.828125
6116		41.015625
6117		44.921875
6118		39.062500
6119		42.968750
6120		35.156250
6121		39.062500
6122		31.250000
6123		37.109375
6124		27.343750
6125		33.203125
6126		23.437500
6127		31.250000
6128		21.484375
6129		27.343750
6130		17.578125
6131		23.437500
6132		13.671875
6133		19.531250
6134		9.765625
6135		15.625000
6136		5.859375
6137		11.718750
6138		3.906250
6139		7.812500
6140		0.000000
6141		3.906250
6142		-5.859375
6143		1.953125
6144		-9.765625
6145		-1.953125
6146		-11.718750
6147		-5.859375
6148		-15.625000
6149		-9.765625
6150		-17.578125
6151		-13.671875
6152		-21.484375
6153		-17.578125
6154		-25.390625
6155		-19.531250
6156		-29.296875
6157		-23.437500
6158		-31.250000
6159		-27.343750
6160		-35.156250
6161		-27.343750
6162		-37.109375
6163		-31.250000
6164		-39.062500
6165		-35.156250
6166		-42.968750
6167		-37.109375
6168		-44.921875
6169		-41.015625
6170		-46.875000
6171		-42.968750
6172		-48.828125
6173		-44.921875
6174		-52.734375
6175		-48.828125
6176		-52.734375
6177		-50.781250
6178		-54.687500
6179		-52.734375
6180		-56.640625
6181		-54.687500
6182		-58.593750
6183		-54.687500
6184		-60.546875
6185		-56.640625
6186		-60.546875
6187		-58.593750
6188		-62.500000
6189		-58.593750
6190		-62.500000
6191		-60.546875
6192		-62.500000
6193		-60.546875
6194		-64.453125
6195		-60.546875
6196		-62.500000
6197		-60.546875
6198		-64.453125
6199		-60.546875
6200		-62.500000
6201		-60.546875
6202		-64.453125
6203		-60.546875
6204		-62.500000
6205		-60.546875
6206		-62.500000
6207		-58.593750
6208		-60.546875
6209		-58.593750
6210		-60.546875
6211		-56.640625
6212		-58.593750
6213		-54.687500
6214		-56.640625
6215		-52.734375
6216		-54.687500
6217		-52.734375
6218		-52.734375
6219		-48.828125
6220		-50.781250
6221		-46.875000
6222		-48.828125
6223		-44.921875
6224		-46.875000
6225		-42.968750
6226		-44.921875
6227		-41.015625
6228		-42.968750
6229		-37.109375
6230		-39.062500
6231		-33.203125
6232		-37.109375
6233		-31.250000
6234		-33.203125
6235		-29.296875
6236		-31.250000
6237		-25.390625
6238		-27.343750
6239		-23.437500
6240		-23.437500
6241		-17.578125
6242		-21.484375
6243		-15.625000
6244		-17.578125
6245		-11.718750
6246		-13.671875
6247		-7.812500
6248		-9.765625
6249		-3.906250
6250		-7.812500
6251		-1.953125
6252		-3.906250
6253		1.953125
6254		0.000000
6255		5.859375
6256		3.906250
6257		9.765625
6258		7.812500
6259		13.671875
6260		9.765625
6261		15.625000
6262		13.671875
6263		19.531250
6264		17.578125
6265		23.437500
6266		21.484375
6267		27.343750
6268		25.390625
6269		29.296875
6270		29.296875
6271		33.203125
6272		31.250000
6273		37.109375
6274		35.156250
6275		41.015625
6276		37.109375
6277		42.968750
6278		41.015625
6279		46.875000
6280		44.921875
6281		48.828125
6282		46.875000
6283		52.734375
6284		48.828125
6285		54.687500
6286		52.734375
6287		58.593750
6288		56.640625
6289		60.546875
6290		58.593750
6291		62.500000
6292		58.593750
6293		64.453125
6294		62.500000
6295		66.406250
6296		64.453125
6297		68.359375
6298		66.406250
6299		72.265625
6300		68.359375
6301		72.265625
6302		70.312500
6303		74.218750
6304		72.265625
6305		76.171875
6306		74.218750
6307		76.171875
6308		74.218750
6309		80.078125
6310		74.218750
6311		80.078125
6312		78.125000
6313		80.078125
6314		78.125000
6315		82.031250
6316		78.125000
6317		82.031250
6318		78.125000
6319		82.031250
6320		80.078125
6321		82.031250
6322		80.078125
6323		82.031250
6324		80.078125
6325		82.031250
6326		78.125000
6327		83.984375
6328		78.125000
6329		82.031250
6330		78.125000
6331		80.078125
6332		76.171875
6333		80.078125
6334		76.171875
6335		80.078125
6336		76.171875
6337		78.125000
6338		74.218750
6339		78.125000
6340		72.265625
6341		76.171875
6342		70.312500
6343		74.218750
6344		70.312500
6345		74.218750
6346		68.359375
6347		72.265625
6348		66.406250
6349		70.312500
6350		64.453125
6351		68.359375
6352		62.500000
6353		66.406250
6354		60.546875
6355		64.453125
6356		56.640625
6357		60.546875
6358		54.687500
6359		58.593750
6360		50.781250
6361		56.640625
6362		48.828125
6363		54.687500
6364		46.875000
6365		50.781250
6366		42.968750
6367		48.828125
6368		39.062500
6369		44.921875
6370		37.109375
6371		41.015625
6372		33.203125
6373		39.062500
6374		31.250000
6375		35.156250
6376		27.343750
6377		33.203125
6378		23.437500
6379		29.296875
6380		19.531250
6381		25.390625
6382		15.625000
6383		21.484375
6384		13.671875
6385		17.578125
6386		9.765625
6387		13.671875
6388		5.859375
6389		11.718750
6390		1.953125
6391		7.812500
6392		-1.953125
6393		3.906250
6394		-5.859375
6395		0.000000
6396		-7.812500
6397		-3.906250
6398		-13.671875
6399		-7.812500
6400		-17.578125
6401		-9.765625
6402		-19.531250
6403		-13.671875
6404		-23.437500
6405		-17.578125
6406		-25.390625
6407		-21.484375
6408		-29.296875
6409		-23.437500
6410		-33.203125
6411		-27.343750
6412		-35.156250
6413		-31.250000
6414		-37.109375
6415		-33.203125
6416		-41.015625
6417		-37.109375
6418		-42.968750
6419		-39.062500
6420		-44.921875
6421		-41.015625
6422		-48.828125
6423		-44.921875
6424		-50.781250
6425		-46.875000
6426		-52.734375
6427		-48.828125
6428		-54.687500
6429		-50.781250
6430		-56.640625
6431		-52.734375
6432		-58.593750
6433		-54.687500
6434		-58.593750
6435		-54.687500
6436		-60.546875
6437		-56.640625
6438		-60.546875
6439		-58.593750
6440		-62.500000
6441		-58.593750
6442		-62.500000
6443		-60.546875
6444		-62.500000
6445		-60.546875
6446		-62.500000
6447		-60.546875
6448		-64.453125
6449		-60.546875
6450		-62.500000
6451		-60.546875
6452		-62.500000
6453		-60.546875
6454		-62.500000
6455		-60.546875
6456		-62.500000
6457		-58.593750
6458		-60.546875
6459		-58.593750
6460		-60.546875
6461		-56.640625
6462		-58.593750
6463		-56.640625
6464		-58.593750
6465		-54.687500
6466		-56.640625
6467		-52.734375
6468		-54.687500
6469		-50.781250
6470		-52.734375
6471		-48.828125
6472		-50.781250
6473		-46.875000
6474		-48.828125
6475		-44.921875
6476		-46.875000
6477		-41.015625
6478		-42.968750
6479		-39.062500
6480		-41.015625
6481		-37.109375
6482		-39.062500
6483		-33.203125
6484		-35.156250
6485		-31.250000
6486		-33.203125
6487		-27.343750
6488		-29.296875
6489		-25.390625
6490		-25.390625
6491		-21.484375
6492		-23.437500
6493		-17.578125
6494		-19.531250
6495		-13.671875
6496		-15.625000
6497		-11.718750
6498		-11.718750
6499		-7.812500
6500		-9.765625
6501		-3.906250
6502		-5.859375
6503		0.000000
6504		-1.953125
6505		3.906250
6506		1.953125
6507		7.812500
6508		5.859375
6509		9.765625
6510		7.812500
6511		13.671875
6512		11.718750
6513		17.578125
6514		15.625000
6515		21.484375
6516		19.531250
6517		25.390625
6518		23.437500
6519		27.343750
6520		25.390625
6521		31.250000
6522		29.296875
6523		35.156250
6524		33.203125
6525		37.109375
6526		37.109375
6527		41.015625
6528		39.062500
6529		44.921875
6530		42.968750
6531		46.875000
6532		44.921875
6533		50.781250
6534		48.828125
6535		52.734375
6536		50.781250
6537		56.640625
6538		54.687500
6539		58.593750
6540		56.640625
6541		60.546875
6542		58.593750
6543		62.500000
6544		60.546875
6545		64.453125
6546		64.453125
6547		66.406250
6548		64.453125
6549		70.312500
6550		66.406250
6551		72.265625
6552		70.312500
6553		72.265625
6554		70.312500
6555		74.218750
6556		72.265625
6557		76.171875
6558		74.218750
6559		78.125000
6560		74.218750
6561		80.078125
6562		76.171875
6563		80.078125
6564		78.125000
6565		80.078125
6566		78.125000
6567		80.078125
6568		78.125000
6569		82.031250
6570		80.078125
6571		82.031250
6572		80.078125
6573		82.031250
6574		80.078125
6575		82.031250
6576		80.078125
6577		82.031250
6578		78.125000
6579		83.984375
6580		78.125000
6581		83.984375
6582		78.125000
6583		80.078125
6584		78.125000
6585		80.078125
6586		76.171875
6587		80.078125
6588		76.171875
6589		78.125000
6590		74.218750
6591		76.171875
6592		72.265625
6593		76.171875
6594		68.359375
6595		76.171875
6596		68.359375
6597		74.218750
6598		68.359375
6599		72.265625
6600		66.406250
6601		70.312500
6602		64.453125
6603		68.359375
6604		60.546875
6605		64.453125
6606		58.593750
6607		62.500000
6608		56.640625
6609		60.546875
6610		50.781250
6611		58.593750
6612		48.828125
6613		56.640625
6614		48.828125
6615		54.687500
6616		44.921875
6617		50.781250
6618		42.968750
6619		46.875000
6620		39.062500
6621		42.968750
6622		35.156250
6623		41.015625
6624		33.203125
6625		37.109375
6626		29.296875
6627		33.203125
6628		25.390625
6629		31.250000
6630		21.484375
6631		29.296875
6632		19.531250
6633		23.437500
6634		15.625000
6635		19.531250
6636		11.718750
6637		15.625000
6638		7.812500
6639		13.671875
6640		3.906250
6641		9.765625
6642		0.000000
6643		5.859375
6644		-5.859375
6645		1.953125
6646		-7.812500
6647		0.000000
6648		-9.765625
6649		-5.859375
6650		-13.671875
6651		-7.812500
6652		-17.578125
6653		-11.718750
6654		-21.484375
6655		-15.625000
6656		-23.437500
6657		-17.578125
6658		-27.343750
6659		-21.484375
6660		-29.296875
6661		-25.390625
6662		-35.156250
6663		-27.343750
6664		-37.109375
6665		-29.296875
6666		-39.062500
6667		-35.156250
6668		-41.015625
6669		-37.109375
6670		-44.921875
6671		-41.015625
6672		-46.875000
6673		-42.968750
6674		-48.828125
6675		-44.921875
6676		-50.781250
6677		-46.875000
6678		-54.687500
6679		-48.828125
6680		-56.640625
6681		-50.781250
6682		-56.640625
6683		-52.734375
6684		-58.593750
6685		-54.687500
6686		-58.593750
6687		-56.640625
6688		-60.546875
6689		-56.640625
6690		-60.546875
6691		-58.593750
6692		-62.500000
6693		-60.546875
6694		-64.453125
6695		-58.593750
6696		-64.453125
6697		-58.593750
6698		-64.453125
6699		-58.593750
6700		-64.453125
6701		-60.546875
6702		-62.500000
6703		-60.546875
6704		-62.500000
6705		-60.546875
6706		-62.500000
6707		-60.546875
6708		-62.500000
6709		-58.593750
6710		-62.500000
6711		-58.593750
6712		-60.546875
6713		-54.687500
6714		-60.546875
6715		-54.687500
6716		-56.640625
6717		-54.687500
6718		-54.687500
6719		-52.734375
6720		-54.687500
6721		-50.781250
6722		-52.734375
6723		-48.828125
6724		-50.781250
6725		-46.875000
6726		-46.875000
6727		-42.968750
6728		-44.921875
6729		-39.062500
6730		-44.921875
6731		-37.109375
6732		-41.015625
6733		-35.156250
6734		-37.109375
6735		-33.203125
6736		-35.156250
6737		-29.296875
6738		-31.250000
6739		-27.343750
6740		-27.343750
6741		-23.437500
6742		-25.390625
6743		-19.531250
6744		-21.484375
6745		-17.578125
6746		-19.531250
6747		-13.671875
6748		-15.625000
6749		-9.765625
6750		-11.718750
6751		-5.859375
6752		-7.812500
6753		-1.953125
6754		-3.906250
6755		0.000000
6756		-1.953125
6757		3.906250
6758		1.953125
6759		7.812500
6760		5.859375
6761		11.718750
6762		9.765625
6763		15.625000
6764		13.671875
6765		17.578125
6766		17.578125
6767		21.484375
6768		21.484375
6769		25.390625
6770		23.437500
6771		29.296875
6772		27.343750
6773		33.203125
6774		31.250000
6775		35.156250
6776		35.156250
6777		39.062500
6778		37.109375
6779		44.921875
6780		41.015625
6781		44.921875
6782		42.968750
6783		48.828125
6784		46.875000
6785		50.781250
6786		48.828125
6787		54.687500
6788		52.734375
6789		56.640625
6790		54.687500
6791		58.593750
6792		56.640625
6793		62.500000
6794		60.546875
6795		64.453125
6796		62.500000
6797		66.406250
6798		64.453125
6799		68.359375
6800		66.406250
6801		70.312500
6802		68.359375
6803		72.265625
6804		70.312500
6805		74.218750
6806		72.265625
6807		74.218750
6808		72.265625
6809		76.171875
6810		74.218750
6811		78.125000
6812		76.171875
6813		78.125000
6814		76.171875
6815		80.078125
6816		78.125000
6817		80.078125
6818		78.125000
6819		80.078125
6820		78.125000
6821		82.031250
6822		80.078125
6823		82.031250
6824		80.078125
6825		82.031250
6826		80.078125
6827		82.031250
6828		78.125000
6829		82.031250
6830		78.125000
6831		82.031250
6832		78.125000
6833		82.031250
6834		78.125000
6835		80.078125
6836		76.171875
6837		80.078125
6838		76.171875
6839		78.125000
6840		74.218750
6841		78.125000
6842		74.218750
6843		76.171875
6844		72.265625
6845		76.171875
6846		70.312500
6847		74.218750
6848		68.359375
6849		72.265625
6850		66.406250
6851		70.312500
6852		64.453125
6853		68.359375
6854		62.500000
6855		66.406250
6856		60.546875
6857		64.453125
6858		58.593750
6859		62.500000
6860		54.687500
6861		58.593750
6862		52.734375
6863		56.640625
6864		50.781250
6865		54.687500
6866		46.875000
6867		50.781250
6868		44.921875
6869		48.828125
6870		41.015625
6871		44.921875
6872		37.109375
6873		42.968750
6874		35.156250
6875		39.062500
6876		31.250000
6877		35.156250
6878		27.343750
6879		33.203125
6880		23.437500
6881		29.296875
6882		21.484375
6883		25.390625
6884		17.578125
6885		21.484375
6886		13.671875
6887		19.531250
6888		9.765625
6889		15.625000
6890		5.859375
6891		11.718750
6892		3.906250
6893		7.812500
6894		0.000000
6895		3.906250
6896		-3.906250
6897		0.000000
6898		-7.812500
6899		-1.953125
6900		-11.718750
6901		-5.859375
6902		-15.625000
6903		-9.765625
6904		-17.578125
6905		-13.671875
6906		-21.484375
6907		-17.578125
6908		-25.390625
6909		-19.531250
6910		-27.343750
6911		-23.437500
6912		-31.250000
6913		-27.343750
6914		-35.156250
6915		-29.296875
6916		-37.109375
6917		-33.203125
6918		-41.015625
6919		-35.156250
6920		-42.968750
6921		-39.062500
6922		-44.921875
6923		-41.015625
6924		-46.875000
6925		-42.968750
6926		-50.781250
6927		-46.875000
6928		-52.734375
6929		-48.828125
6930		-54.687500
6931		-50.781250
6932		-56.640625
6933		-52.734375
6934		-56.640625
6935		-54.687500
6936		-58.593750
6937		-56.640625
6938		-60.546875
6939		-56.640625
6940		-60.546875
6941		-58.593750
6942		-62.500000
6943		-58.593750
6944		-62.500000
6945		-60.546875
6946		-62.500000
6947		-60.546875
6948		-62.500000
6949		-60.546875
6950		-64.453125
6951		-60.546875
6952		-64.453125
6953		-60.546875
6954		-64.453125
6955		-60.546875
6956		-62.500000
6957		-60.546875
6958		-62.500000
6959		-60.546875
6960		-62.500000
6961		-58.593750
6962		-60.546875
6963		-58.593750
6964		-60.546875
6965		-56.640625
6966		-58.593750
6967		-54.687500
6968		-56.640625
6969		-54.687500
6970		-54.687500
6971		-50.781250
6972		-52.734375
6973		-50.781250
6974		-50.781250
6975		-46.875000
6976		-48.828125
6977		-44.921875
6978		-46.875000
6979		-42.968750
6980		-44.921875
6981		-41.015625
6982		-42.968750
6983		-37.109375
6984		-39.062500
6985		-35.156250
6986		-37.109375
6987		-31.250000
6988		-33.203125
6989		-29.296875
6990		-31.250000
6991		-25.390625
6992		-27.343750
6993		-23.437500
6994		-25.390625
6995		-19.531250
6996		-21.484375
6997		-15.625000
6998		-17.578125
6999		-11.718750
7000		-13.671875
7001		-9.765625
7002		-9.765625
7003		-5.859375
7004		-7.812500
7005		-1.953125
7006		-3.906250
7007		1.953125
7008		0.000000
7009		5.859375
7010		3.906250
7011		7.812500
7012		7.812500
7013		11.718750
7014		9.765625
7015		15.625000
7016		13.671875
7017		19.531250
7018		17.578125
7019		23.437500
7020		21.484375
7021		25.390625
7022		25.390625
7023		29.296875
7024		29.296875
7025		33.203125
7026		31.250000
7027		37.109375
7028		35.156250
7029		39.062500
7030		39.062500
7031		42.968750
7032		41.015625
7033		44.921875
7034		44.921875
7035		48.828125
7036		46.875000
7037		50.781250
7038		50.781250
7039		54.687500
7040		52.734375
7041		56.640625
7042		54.687500
7043		58.593750
7044		58.593750
7045		62.500000
7046		60.546875
7047		64.453125
7048		62.500000
7049		66.406250
7050		64.453125
7051		68.359375
7052		66.406250
7053		70.312500
7054		68.359375
7055		72.265625
7056		70.312500
7057		74.218750
7058		72.265625
7059		74.218750
7060		72.265625
7061		76.171875
7062		74.218750
7063		78.125000
7064		76.171875
7065		78.125000
7066		76.171875
7067		80.078125
7068		78.125000
7069		80.078125
7070		78.125000
7071		82.031250
7072		78.125000
7073		82.031250
7074		78.125000
7075		82.031250
7076		80.078125
7077		82.031250
7078		80.078125
7079		82.031250
7080		78.125000
7081		82.031250
7082		78.125000
7083		80.078125
7084		78.125000
7085		82.031250
7086		78.125000
7087		80.078125
7088		76.171875
7089		78.125000
7090		76.171875
7091		78.125000
7092		74.218750
7093		78.125000
7094		72.265625
7095		76.171875
7096		70.312500
7097		74.218750
7098		70.312500
7099		72.265625
7100		68.359375
7101		70.312500
7102		66.406250
7103		70.312500
7104		64.453125
7105		68.359375
7106		62.500000
7107		66.406250
7108		58.593750
7109		62.500000
7110		56.640625
7111		60.546875
7112		54.687500
7113		58.593750
7114		50.781250
7115		56.640625
7116		48.828125
7117		52.734375
7118		44.921875
7119		50.781250
7120		42.968750
7121		46.875000
7122		39.062500
7123		44.921875
7124		37.109375
7125		41.015625
7126		33.203125
7127		37.109375
7128		29.296875
7129		35.156250
7130		25.390625
7131		31.250000
7132		23.437500
7133		27.343750
7134		19.531250
7135		23.437500
7136		15.625000
7137		21.484375
7138		11.718750
7139		17.578125
7140		7.812500
7141		13.671875
7142		5.859375
7143		9.765625
7144		1.953125
7145		5.859375
7146		-1.953125
7147		3.906250
7148		-5.859375
7149		0.000000
7150		-9.765625
7151		-3.906250
7152		-13.671875
7153		-7.812500
7154		-15.625000
7155		-11.718750
7156		-19.531250
7157		-15.625000
7158		-23.437500
7159		-17.578125
7160		-25.390625
7161		-21.484375
7162		-29.296875
7163		-25.390625
7164		-33.203125
7165		-27.343750
7166		-35.156250
7167		-31.250000
7168		-39.062500
7169		-33.203125
7170		-41.015625
7171		-37.109375
7172		-44.921875
7173		-39.062500
7174		-46.875000
7175		-42.968750
7176		-48.828125
7177		-44.921875
7178		-50.781250
7179		-46.875000
7180		-52.734375
7181		-48.828125
7182		-54.687500
7183		-50.781250
7184		-56.640625
7185		-52.734375
7186		-58.593750
7187		-54.687500
7188		-60.546875
7189		-56.640625
7190		-60.546875
7191		-58.593750
7192		-62.500000
7193		-58.593750
7194		-62.500000
7195		-58.593750
7196		-64.453125
7197		-60.546875
7198		-64.453125
7199		-60.546875
7200		-64.453125
7201		-60.546875
7202		-64.453125
7203		-60.546875
7204		-64.453125
7205		-60.546875
7206		-64.453125
7207		-60.546875
7208		-62.500000
7209		-60.546875
7210		-62.500000
7211		-60.546875
7212		-62.500000
7213		-58.593750
7214		-60.546875
7215		-56.640625
7216		-58.593750
7217		-56.640625
7218		-58.593750
7219		-54.687500
7220		-56.640625
7221		-52.734375
7222		-54.687500
7223		-50.781250
7224		-52.734375
7225		-48.828125
7226		-50.781250
7227		-46.875000
7228		-48.828125
7229		-44.921875
7230		-46.875000
7231		-42.968750
7232		-42.968750
7233		-39.062500
7234		-41.015625
7235		-37.109375
7236		-39.062500
7237		-33.203125
7238		-35.156250
7239		-31.250000
7240		-33.203125
7241		-27.343750
7242		-29.296875
7243		-25.390625
7244		-27.343750
7245		-21.484375
7246		-23.437500
7247		-17.578125
7248		-19.531250
7249		-15.625000
7250		-15.625000
7251		-11.718750
7252		-13.671875
7253		-7.812500
7254		-9.765625
7255		-3.906250
7256		-5.859375
7257		0.000000
7258		-1.953125
7259		1.953125
7260		1.953125
7261		5.859375
7262		3.906250
7263		9.765625
7264		7.812500
7265		13.671875
7266		11.718750
7267		17.578125
7268		15.625000
7269		19.531250
7270		19.531250
7271		23.437500
7272		23.437500
7273		27.343750
7274		25.390625
7275		31.250000
7276		29.296875
7277		33.203125
7278		33.203125
7279		37.109375
7280		35.156250
7281		41.015625
7282		39.062500
7283		44.921875
7284		42.968750
7285		46.875000
7286		44.921875
7287		48.828125
7288		48.828125
7289		52.734375
7290		50.781250
7291		54.687500
7292		54.687500
7293		58.593750
7294		56.640625
7295		60.546875
7296		58.593750
7297		62.500000
7298		60.546875
7299		64.453125
7300		64.453125
7301		66.406250
7302		64.453125
7303		68.359375
7304		66.406250
7305		70.312500
7306		68.359375
7307		72.265625
7308		70.312500
7309		74.218750
7310		72.265625
7311		76.171875
7312		74.218750
7313		76.171875
7314		74.218750
7315		78.125000
7316		76.171875
7317		78.125000
7318		78.125000
7319		80.078125
7320		78.125000
7321		80.078125
7322		78.125000
7323		80.078125
7324		78.125000
7325		82.031250
7326		78.125000
7327		82.031250
7328		80.078125
7329		82.031250
7330		80.078125
7331		82.031250
7332		78.125000
7333		82.031250
7334		78.125000
7335		80.078125
7336		78.125000
7337		80.078125
7338		76.171875
7339		80.078125
7340		76.171875
7341		78.125000
7342		74.218750
7343		78.125000
7344		74.218750
7345		76.171875
7346		72.265625
7347		76.171875
7348		70.312500
7349		74.218750
7350		68.359375
7351		72.265625
7352		66.406250
7353		70.312500
7354		64.453125
7355		68.359375
7356		62.500000
7357		66.406250
7358		60.546875
7359		64.453125
7360		58.593750
7361		62.500000
7362		56.640625
7363		60.546875
7364		52.734375
7365		56.640625
7366		50.781250
7367		54.687500
7368		46.875000
7369		50.781250
7370		44.921875
7371		48.828125
7372		41.015625
7373		46.875000
7374		39.062500
7375		42.968750
7376		35.156250
7377		39.062500
7378		31.250000
7379		37.109375
7380		29.296875
7381		33.203125
7382		25.390625
7383		29.296875
7384		21.484375
7385		25.390625
7386		17.578125
7387		23.437500
7388		13.671875
7389		19.531250
7390		9.765625
7391		15.625000
7392		7.812500
7393		11.718750
7394		3.906250
7395		7.812500
7396		0.000000
7397		3.906250
7398		-3.906250
7399		1.953125
7400		-7.812500
7401		-1.953125
7402		-9.765625
7403		-5.859375
7404		-13.671875
7405		-9.765625
7406		-17.578125
7407		-13.671875
7408		-21.484375
7409		-15.625000
7410		-23.437500
7411		-19.531250
7412		-27.343750
7413		-23.437500
7414		-31.250000
7415		-25.390625
7416		-33.203125
7417		-29.296875
7418		-37.109375
7419		-33.203125
7420		-39.062500
7421		-35.156250
7422		-42.968750
7423		-37.109375
7424		-44.921875
7425		-41.015625
7426		-46.875000
7427		-42.968750
7428		-50.781250
7429		-44.921875
7430		-52.734375
7431		-48.828125
7432		-54.687500
7433		-50.781250
7434		-56.640625
7435		-52.734375
7436		-56.640625
7437		-54.687500
7438		-58.593750
7439		-56.640625
7440		-60.546875
7441		-56.640625
7442		-60.546875
7443		-58.593750
7444		-62.500000
7445		-58.593750
7446		-62.500000
7447		-60.546875
7448		-62.500000
7449		-60.546875
7450		-64.453125
7451		-60.546875
7452		-64.453125
7453		-60.546875
7454		-64.453125
7455		-60.546875
7456		-64.453125
7457		-60.546875
7458		-64.453125
7459		-60.546875
7460		-62.500000
7461		-60.546875
7462		-62.500000
7463		-60.546875
7464		-60.546875
7465		-58.593750
7466		-60.546875
7467		-56.640625
7468		-58.593750
7469		-56.640625
7470		-58.593750
7471		-54.687500
7472		-56.640625
7473		-52.734375
7474		-54.687500
7475		-50.781250
7476		-52.734375
7477		-48.828125
7478		-50.781250
7479		-46.875000
7480		-46.875000
7481		-44.921875
7482		-46.875000
7483		-41.015625
7484		-42.968750
7485		-39.062500
7486		-41.015625
7487		-37.109375
7488		-37.109375
7489		-33.203125
7490		-35.156250
7491		-31.250000
7492		-31.250000
7493		-25.390625
7494		-29.296875
7495		-23.437500
7496		-25.390625
7497		-21.484375
7498		-21.484375
7499		-17.578125
7500		-19.531250
7501		-13.671875
7502		-15.625000
7503		-9.765625
7504		-11.718750
7505		-5.859375
7506		-7.812500
7507		-3.906250
7508		-3.906250
7509		0.000000
7510		-1.953125
7511		3.906250
7512		1.953125
7513		7.812500
7514		5.859375
7515		11.718750
7516		9.765625
7517		13.671875
7518		13.671875
7519		17.578125
7520		17.578125
7521		21.484375
7522		19.531250
7523		25.390625
7524		23.437500
7525		29.296875
7526		27.343750
7527		31.250000
7528		31.250000
7529		35.156250
7530		33.203125
7531		39.062500
7532		37.109375
7533		41.015625
7534		41.015625
7535		44.921875
7536		42.968750
7537		46.875000
7538		46.875000
7539		50.781250
7540		48.828125
7541		52.734375
7542		50.781250
7543		56.640625
7544		54.687500
7545		58.593750
7546		56.640625
7547		60.546875
7548		58.593750
7549		62.500000
7550		60.546875
7551		64.453125
7552		64.453125
7553		68.359375
7554		66.406250
7555		70.312500
7556		68.359375
7557		72.265625
7558		70.312500
7559		72.265625
7560		70.312500
7561		74.218750
7562		72.265625
7563		76.171875
7564		74.218750
7565		76.171875
7566		74.218750
7567		78.125000
7568		76.171875
7569		80.078125
7570		76.171875
7571		80.078125
7572		78.125000
7573		80.078125
7574		78.125000
7575		80.078125
7576		78.125000
7577		80.078125
7578		78.125000
7579		82.031250
7580		78.125000
7581		82.031250
7582		78.125000
7583		82.031250
7584		78.125000
7585		82.031250
7586		76.171875
7587		80.078125
7588		76.171875
7589		80.078125
7590		74.218750
7591		80.078125
7592		74.218750
7593		78.125000
7594		72.265625
7595		78.125000
7596		72.265625
7597		76.171875
7598		70.312500
7599		74.218750
7600		70.312500
7601		74.218750
7602		68.359375
7603		72.265625
7604		66.406250
7605		70.312500
7606		62.500000
7607		68.359375
7608		62.500000
7609		66.406250
7610		58.593750
7611		62.500000
7612		56.640625
7613		62.500000
7614		52.734375
7615		60.546875
7616		50.781250
7617		56.640625
7618		48.828125
7619		52.734375
7620		46.875000
7621		50.781250
7622		42.968750
7623		46.875000
7624		39.062500
7625		46.875000
7626		37.109375
7627		41.015625
7628		33.203125
7629		39.062500
7630		31.250000
7631		35.156250
7632		27.343750
7633		35.156250
7634		23.437500
7635		29.296875
7636		19.531250
7637		25.390625
7638		15.625000
7639		23.437500
7640		11.718750
7641		19.531250
7642		9.765625
7643		13.671875
7644		3.906250
7645		9.765625
7646		1.953125
7647		7.812500
7648		-3.906250
7649		3.906250
7650		-5.859375
7651		0.000000
7652		-7.812500
7653		-3.906250
7654		-13.671875
7655		-7.812500
7656		-17.578125
7657		-7.812500
7658		-19.531250
7659		-13.671875
7660		-23.437500
7661		-15.625000
7662		-25.390625
7663		-19.531250
7664		-31.250000
7665		-23.437500
7666		-31.250000
7667		-27.343750
7668		-35.156250
7669		-31.250000
7670		-39.062500
7671		-33.203125
7672		-42.968750
7673		-35.156250
7674		-42.968750
7675		-39.062500
7676		-46.875000
7677		-42.968750
7678		-50.781250
7679		-42.968750
7680		-50.781250
7681		-42.968750
7682		-56.640625
7683		-46.875000
7684		-54.687500
7685		-50.781250
7686		-56.640625
7687		-52.734375
7688		-60.546875
7689		-52.734375
7690		-60.546875
7691		-56.640625
7692		-62.500000
7693		-56.640625
7694		-62.500000
7695		-58.593750
7696		-66.406250
7697		-56.640625
7698		-68.359375
7699		-56.640625
7700		-64.453125
7701		-60.546875
7702		-64.453125
7703		-62.500000
7704		-64.453125
7705		-60.546875
7706		-66.406250
7707		-58.593750
7708		-66.406250
7709		-60.546875
7710		-64.453125
7711		-60.546875
7712		-66.406250
7713		-56.640625
7714		-62.500000
7715		-58.593750
7716		-64.453125
7717		-54.687500
7718		-60.546875
7719		-56.640625
7720		-58.593750
7721		-54.687500
7722		-58.593750
7723		-50.781250
7724		-56.640625
7725		-50.781250
7726		-54.687500
7727		-50.781250
7728		-52.734375
7729		-46.875000
7730		-52.734375
7731		-42.968750
7732		-50.781250
7733		-41.015625
7734		-44.921875
7735		-41.015625
7736		-42.968750
7737		-37.109375
7738		-41.015625
7739		-33.203125
7740		-39.062500
7741		-29.296875
7742		-35.156250
7743		-29.296875
7744		-31.250000
7745		-25.390625
7746		-29.296875
7747		-19.531250
7748		-25.390625
7749		-15.625000
7750		-23.437500
7751		-15.625000
7752		-17.578125
7753		-13.671875
7754		-15.625000
7755		-7.812500
7756		-11.718750
7757		-3.906250
7758		-7.812500
7759		-1.953125
7760		-3.906250
7761		1.953125
7762		0.000000
7763		7.812500
7764		0.000000
7765		9.765625
7766		3.906250
7767		13.671875
7768		9.765625
7769		15.625000
7770		13.671875
7771		19.531250
7772		15.625000
7773		23.437500
7774		17.578125
7775		27.343750
7776		23.437500
7777		29.296875
7778		27.343750
7779		33.203125
7780		29.296875
7781		39.062500
7782		35.156250
7783		41.015625
7784		37.109375
7785		42.968750
7786		41.015625
7787		44.921875
7788		42.968750
7789		48.828125
7790		44.921875
7791		54.687500
7792		48.828125
7793		54.687500
7794		52.734375
7795		56.640625
7796		54.687500
7797		62.500000
7798		52.734375
7799		62.500000
7800		58.593750
7801		66.406250
7802		60.546875
7803		66.406250
7804		64.453125
7805		68.359375
7806		64.453125
7807		72.265625
7808		66.406250
7809		74.218750
7810		70.312500
7811		74.218750
7812		70.312500
7813		76.171875
7814		70.312500
7815		78.125000
7816		74.218750
7817		78.125000
7818		76.171875
7819		78.125000
7820		76.171875
7821		78.125000
7822		76.171875
7823		82.031250
7824		76.171875
7825		82.031250
7826		76.171875
7827		82.031250
7828		78.125000
7829		80.078125
7830		76.171875
7831		83.984375
7832		78.125000
7833		80.078125
7834		76.171875
7835		83.984375
7836		76.171875
7837		80.078125
7838		76.171875
7839		80.078125
7840		74.218750
7841		82.031250
7842		74.218750
7843		80.078125
7844		74.218750
7845		78.125000
7846		70.312500
7847		80.078125
7848		68.359375
7849		78.125000
7850		68.359375
7851		76.171875
7852		68.359375
7853		72.265625
7854		66.406250
7855		70.312500
7856		64.453125
7857		70.312500
7858		62.500000
7859		70.312500
7860		60.546875
7861		66.406250
7862		58.593750
7863		62.500000
7864		56.640625
7865		62.500000
7866		50.781250
7867		58.593750
7868		50.781250
7869		54.687500
7870		48.828125
7871		52.734375
7872		44.921875
7873		48.828125
7874		39.062500
7875		46.875000
7876		39.062500
7877		44.921875
7878		35.156250
7879		41.015625
7880		31.250000
7881		39.062500
7882		29.296875
7883		33.203125
7884		25.390625
7885		31.250000
7886		21.484375
7887		27.343750
7888		17.578125
7889		23.437500
7890		15.625000
7891		19.531250
7892		9.765625
7893		17.578125
7894		7.812500
7895		13.671875
7896		1.953125
7897		9.765625
7898		0.000000
7899		5.859375
7900		-3.906250
7901		1.953125
7902		-5.859375
7903		-1.953125
7904		-9.765625
7905		-5.859375
7906		-13.671875
7907		-7.812500
7908		-17.578125
7909		-11.718750
7910		-21.484375
7911		-15.625000
7912		-23.437500
7913		-19.531250
7914		-27.343750
7915		-21.484375
7916		-31.250000
7917		-25.390625
7918		-33.203125
7919		-29.296875
7920		-37.109375
7921		-31.250000
7922		-39.062500
7923		-35.156250
7924		-41.015625
7925		-37.109375
7926		-44.921875
7927		-41.015625
7928		-46.875000
7929		-42.968750
7930		-48.828125
7931		-44.921875
7932		-50.781250
7933		-48.828125
7934		-54.687500
7935		-50.781250
7936		-54.687500
7937		-52.734375
7938		-56.640625
7939		-54.687500
7940		-60.546875
7941		-54.687500
7942		-60.546875
7943		-54.687500
7944		-62.500000
7945		-56.640625
7946		-62.500000
7947		-58.593750
7948		-64.453125
7949		-58.593750
7950		-64.453125
7951		-60.546875
7952		-64.453125
7953		-62.500000
7954		-64.453125
7955		-60.546875
7956		-64.453125
7957		-60.546875
7958		-66.406250
7959		-60.546875
7960		-64.453125
7961		-60.546875
7962		-64.453125
7963		-60.546875
7964		-64.453125
7965		-58.593750
7966		-62.500000
7967		-58.593750
7968		-62.500000
7969		-58.593750
7970		-60.546875
7971		-56.640625
7972		-58.593750
7973		-54.687500
7974		-58.593750
7975		-52.734375
7976		-56.640625
7977		-50.781250
7978		-54.687500
7979		-48.828125
7980		-52.734375
7981		-44.921875
7982		-50.781250
7983		-44.921875
7984		-48.828125
7985		-42.968750
7986		-44.921875
7987		-41.015625
7988		-42.968750
7989		-37.109375
7990		-39.062500
7991		-33.203125
7992		-37.109375
7993		-31.250000
7994		-35.156250
7995		-27.343750
7996		-31.250000
7997		-23.437500
7998		-27.343750
7999		-21.484375
8000		-25.390625
8001		-17.578125
8002		-21.484375
8003		-15.625000
8004		-17.578125
8005		-11.718750
8006		-13.671875
8007		-7.812500
8008		-9.765625
8009		-5.859375
8010		-7.812500
8011		0.000000
8012		-3.906250
8013		3.906250
8014		0.000000
8015		5.859375
8016		3.906250
8017		9.765625
8018		7.812500
8019		13.671875
8020		11.718750
8021		15.625000
8022		15.625000
8023		19.531250
8024		17.578125
8025		23.437500
8026		21.484375
8027		27.343750
8028		25.390625
8029		31.250000
8030		27.343750
8031		35.156250
8032		31.250000
8033		37.109375
8034		35.156250
8035		41.015625
8036		37.109375
8037		42.968750
8038		41.015625
8039		46.875000
8040		44.921875
8041		50.781250
8042		46.875000
8043		52.734375
8044		48.828125
8045		54.687500
8046		50.781250
8047		58.593750
8048		56.640625
8049		60.546875
8050		56.640625
8051		62.500000
8052		60.546875
8053		64.453125
8054		62.500000
8055		66.406250
8056		64.453125
8057		70.312500
8058		66.406250
8059		70.312500
8060		68.359375
8061		72.265625
8062		68.359375
8063		76.171875
8064		72.265625
8065		74.218750
8066		72.265625
8067		76.171875
8068		74.218750
8069		78.125000
8070		74.218750
8071		78.125000
8072		76.171875
8073		78.125000
8074		76.171875
8075		80.078125
8076		78.125000
8077		80.078125
8078		78.125000
8079		82.031250
8080		76.171875
8081		83.984375
8082		78.125000
8083		82.031250
8084		78.125000
8085		80.078125
8086		76.171875
8087		82.031250
8088		78.125000
8089		80.078125
8090		76.171875
8091		80.078125
8092		76.171875
8093		80.078125
8094		76.171875
8095		78.125000
8096		72.265625
8097		78.125000
8098		72.265625
8099		76.171875
8100		72.265625
8101		74.218750
8102		70.312500
8103		74.218750
8104		68.359375
8105		72.265625
8106		66.406250
8107		70.312500
8108		64.453125
8109		68.359375
8110		60.546875
8111		66.406250
8112		60.546875
8113		64.453125
8114		56.640625
8115		62.500000
8116		54.687500
8117		60.546875
8118		50.781250
8119		56.640625
8120		48.828125
8121		54.687500
8122		46.875000
8123		50.781250
8124		42.968750
8125		48.828125
8126		41.015625
8127		44.921875
8128		37.109375
8129		42.968750
8130		33.203125
8131		39.062500
8132		31.250000
8133		35.156250
8134		27.343750
8135		33.203125
8136		23.437500
8137		29.296875
8138		21.484375
8139		25.390625
8140		17.578125
8141		21.484375
8142		11.718750
8143		19.531250
8144		9.765625
8145		15.625000
8146		3.906250
8147		11.718750
8148		1.953125
8149		7.812500
8150		0.000000
8151		3.906250
8152		-5.859375
8153		0.000000
8154		-7.812500
8155		-1.953125
8156		-11.718750
8157		-5.859375
8158		-15.625000
8159		-9.765625
8160		-19.531250
8161		-13.671875
8162		-23.437500
8163		-17.578125
8164		-25.390625
8165		-19.531250
8166		-29.296875
8167		-23.437500
8168		-31.250000
8169		-27.343750
8170		-35.156250
8171		-29.296875
8172		-37.109375
8173		-33.203125
8174		-41.015625
8175		-35.156250
8176		-42.968750
8177		-39.062500
8178		-46.875000
8179		-41.015625
8180		-48.828125
8181		-42.968750
8182		-50.781250
8183		-44.921875
8184		-52.734375
8185		-48.828125
8186		-54.687500
8187		-48.828125
8188		-56.640625
8189		-52.734375
8190		-56.640625
8191		-54.687500
8192		-60.546875
8193		-54.687500
8194		-60.546875
8195		-56.640625
8196		-62.500000
8197		-58.593750
8198		-62.500000
8199		-60.546875
8200		-64.453125
8201		-60.546875
8202		-64.453125
8203		-60.546875
8204		-64.453125
8205		-60.546875
8206		-64.453125
8207		-62.500000
8208		-66.406250
8209		-60.546875
8210		-64.453125
8211		-60.546875
8212		-64.453125
8213		-60.546875
8214		-64.453125
8215		-60.546875
8216		-62.500000
8217		-58.593750
8218		-62.500000
8219		-58.593750
8220		-60.546875
8221		-56.640625
8222		-58.593750
8223		-56.640625
8224		-58.593750
8225		-54.687500
8226		-56.640625
8227		-52.734375
8228		-54.687500
8229		-50.781250
8230		-52.734375
8231		-48.828125
8232		-50.781250
8233		-46.875000
8234		-48.828125
8235		-44.921875
8236		-46.875000
8237		-41.015625
8238		-42.968750
8239		-39.062500
8240		-41.015625
8241		-37.109375
8242		-39.062500
8243		-33.203125
8244		-35.156250
8245		-31.250000
8246		-33.203125
8247		-27.343750
8248		-29.296875
8249		-23.437500
8250		-25.390625
8251		-21.484375
8252		-23.437500
8253		-17.578125
8254		-19.531250
8255		-13.671875
8256		-15.625000
8257		-11.718750
8258		-11.718750
8259		-5.859375
8260		-9.765625
8261		-3.906250
8262		-5.859375
8263		0.000000
8264		-1.953125
8265		3.906250
8266		1.953125
8267		7.812500
8268		5.859375
8269		9.765625
8270		9.765625
8271		13.671875
8272		11.718750
8273		17.578125
8274		15.625000
8275		21.484375
8276		19.531250
8277		25.390625
8278		23.437500
8279		29.296875
8280		27.343750
8281		31.250000
8282		29.296875
8283		35.156250
8284		33.203125
8285		39.062500
8286		35.156250
8287		41.015625
8288		39.062500
8289		44.921875
8290		42.968750
8291		46.875000
8292		44.921875
8293		50.781250
8294		48.828125
8295		52.734375
8296		50.781250
8297		56.640625
8298		52.734375
8299		58.593750
8300		56.640625
8301		60.546875
8302		58.593750
8303		64.453125
8304		60.546875
8305		64.453125
8306		62.500000
8307		66.406250
8308		64.453125
8309		70.312500
8310		66.406250
8311		70.312500
8312		68.359375
8313		72.265625
8314		70.312500
8315		74.218750
8316		72.265625
8317		76.171875
8318		72.265625
8319		76.171875
8320		74.218750
8321		78.125000
8322		76.171875
8323		78.125000
8324		76.171875
8325		80.078125
8326		76.171875
8327		80.078125
8328		78.125000
8329		80.078125
8330		78.125000
8331		82.031250
8332		78.125000
8333		82.031250
8334		78.125000
8335		82.031250
8336		78.125000
8337		82.031250
8338		76.171875
8339		80.078125
8340		78.125000
8341		80.078125
8342		76.171875
8343		80.078125
8344		74.218750
8345		80.078125
8346		74.218750
8347		78.125000
8348		74.218750
8349		78.125000
8350		72.265625
8351		76.171875
8352		70.312500
8353		74.218750
8354		68.359375
8355		72.265625
8356		68.359375
8357		70.312500
8358		66.406250
8359		68.359375
8360		64.453125
8361		68.359375
8362		60.546875
8363		66.406250
8364		58.593750
8365		64.453125
8366		56.640625
8367		60.546875
8368		54.687500
8369		58.593750
8370		50.781250
8371		56.640625
8372		48.828125
8373		54.687500
8374		46.875000
8375		50.781250
8376		42.968750
8377		48.828125
8378		39.062500
8379		44.921875
8380		37.109375
8381		41.015625
8382		33.203125
8383		39.062500
8384		29.296875
8385		35.156250
8386		25.390625
8387		31.250000
8388		23.437500
8389		27.343750
8390		19.531250
8391		25.390625
8392		15.625000
8393		21.484375
8394		11.718750
8395		17.578125
8396		7.812500
8397		13.671875
8398		5.859375
8399		9.765625
8400		1.953125
8401		7.812500
8402		-1.953125
8403		3.906250
8404		-7.812500
8405		0.000000
8406		-9.765625
8407		-3.906250
8408		-11.718750
8409		-7.812500
8410		-15.625000
8411		-11.718750
8412		-19.531250
8413		-13.671875
8414		-23.437500
8415		-17.578125
8416		-25.390625
8417		-21.484375
8418		-31.250000
8419		-23.437500
8420		-33.203125
8421		-27.343750
8422		-35.156250
8423		-31.250000
8424		-39.062500
8425		-33.203125
8426		-41.015625
8427		-37.109375
8428		-42.968750
8429		-39.062500
8430		-46.875000
8431		-42.968750
8432		-48.828125
8433		-44.921875
8434		-50.781250
8435		-46.875000
8436		-52.734375
8437		-48.828125
8438		-54.687500
8439		-50.781250
8440		-56.640625
8441		-52.734375
8442		-58.593750
8443		-54.687500
8444		-60.546875
8445		-54.687500
8446		-60.546875
8447		-56.640625
8448		-62.500000
8449		-58.593750
8450		-62.500000
8451		-58.593750
8452		-64.453125
8453		-60.546875
8454		-64.453125
8455		-60.546875
8456		-66.406250
8457		-60.546875
8458		-64.453125
8459		-62.500000
8460		-66.406250
8461		-60.546875
8462		-64.453125
8463		-62.500000
8464		-64.453125
8465		-60.546875
8466		-64.453125
8467		-60.546875
8468		-62.500000
8469		-58.593750
8470		-62.500000
8471		-58.593750
8472		-60.546875
8473		-56.640625
8474		-58.593750
8475		-54.687500
8476		-58.593750
8477		-54.687500
8478		-56.640625
8479		-52.734375
8480		-54.687500
8481		-50.781250
8482		-52.734375
8483		-48.828125
8484		-50.781250
8485		-44.921875
8486		-48.828125
8487		-42.968750
8488		-44.921875
8489		-41.015625
8490		-42.968750
8491		-39.062500
8492		-41.015625
8493		-35.156250
8494		-37.109375
8495		-33.203125
8496		-35.156250
8497		-29.296875
8498		-31.250000
8499		-27.343750
8500		-29.296875
8501		-23.437500
8502		-25.390625
8503		-19.531250
8504		-21.484375
8505		-17.578125
8506		-17.578125
8507		-13.671875
8508		-15.625000
8509		-9.765625
8510		-11.718750
8511		-5.859375
8512		-7.812500
8513		-1.953125
8514		-3.906250
8515		0.000000
8516		-1.953125
8517		3.906250
8518		3.906250
8519		9.765625
8520		5.859375
8521		11.718750
8522		9.765625
8523		15.625000
8524		13.671875
8525		19.531250
8526		17.578125
8527		21.484375
8528		19.531250
8529		25.390625
8530		23.437500
8531		29.296875
8532		27.343750
8533		33.203125
8534		31.250000
8535		35.156250
8536		33.203125
8537		39.062500
8538		37.109375
8539		42.968750
8540		39.062500
8541		44.921875
8542		42.968750
8543		48.828125
8544		46.875000
8545		50.781250
8546		48.828125
8547		54.687500
8548		52.734375
8549		56.640625
8550		54.687500
8551		58.593750
8552		56.640625
8553		62.500000
8554		58.593750
8555		64.453125
8556		62.500000
8557		66.406250
8558		64.453125
8559		68.359375
8560		66.406250
8561		70.312500
8562		66.406250
8563		70.312500
8564		68.359375
8565		72.265625
8566		70.312500
8567		74.218750
8568		72.265625
8569		76.171875
8570		74.218750
8571		78.125000
8572		74.218750
8573		78.125000
8574		76.171875
8575		78.125000
8576		76.171875
8577		80.078125
8578		76.171875
8579		80.078125
8580		78.125000
8581		80.078125
8582		78.125000
8583		80.078125
8584		78.125000
8585		80.078125
8586		78.125000
8587		82.031250
8588		78.125000
8589		80.078125
8590		78.125000
8591		80.078125
8592		76.171875
8593		80.078125
8594		74.218750
8595		80.078125
8596		74.218750
8597		78.125000
8598		74.218750
8599		78.125000
8600		72.265625
8601		76.171875
8602		72.265625
8603		76.171875
8604		70.312500
8605		74.218750
8606		68.359375
8607		72.265625
8608		66.406250
8609		70.312500
8610		64.453125
8611		68.359375
8612		62.500000
8613		66.406250
8614		60.546875
8615		64.453125
8616		58.593750
8617		62.500000
8618		54.687500
8619		60.546875
8620		52.734375
8621		58.593750
8622		48.828125
8623		54.687500
8624		46.875000
8625		52.734375
8626		44.921875
8627		48.828125
8628		41.015625
8629		46.875000
8630		37.109375
8631		42.968750
8632		35.156250
8633		41.015625
8634		31.250000
8635		37.109375
8636		29.296875
8637		33.203125
8638		23.437500
8639		29.296875
8640		21.484375
8641		27.343750
8642		17.578125
8643		23.437500
8644		13.671875
8645		19.531250
8646		11.718750
8647		17.578125
8648		5.859375
8649		11.718750
8650		3.906250
8651		7.812500
8652		0.000000
8653		5.859375
8654		-3.906250
8655		1.953125
8656		-7.812500
8657		0.000000
8658		-9.765625
8659		-5.859375
8660		-13.671875
8661		-9.765625
8662		-17.578125
8663		-13.671875
8664		-21.484375
8665		-15.625000
8666		-25.390625
8667		-19.531250
8668		-27.343750
8669		-21.484375
8670		-31.250000
8671		-25.390625
8672		-33.203125
8673		-29.296875
8674		-37.109375
8675		-31.250000
8676		-39.062500
8677		-35.156250
8678		-42.968750
8679		-39.062500
8680		-44.921875
8681		-41.015625
8682		-46.875000
8683		-42.968750
8684		-50.781250
8685		-44.921875
8686		-52.734375
8687		-46.875000
8688		-54.687500
8689		-50.781250
8690		-56.640625
8691		-52.734375
8692		-56.640625
8693		-54.687500
8694		-58.593750
8695		-56.640625
8696		-60.546875
8697		-56.640625
8698		-62.500000
8699		-58.593750
8700		-62.500000
8701		-60.546875
8702		-64.453125
8703		-60.546875
8704		-64.453125
8705		-60.546875
8706		-64.453125
8707		-60.546875
8708		-64.453125
8709		-60.546875
8710		-64.453125
8711		-62.500000
8712		-66.406250
8713		-62.500000
8714		-64.453125
8715		-62.500000
8716		-64.453125
8717		-60.546875
8718		-64.453125
8719		-60.546875
8720		-62.500000
8721		-58.593750
8722		-62.500000
8723		-58.593750
8724		-60.546875
8725		-56.640625
8726		-58.593750
8727		-54.687500
8728		-56.640625
8729		-54.687500
8730		-56.640625
8731		-52.734375
8732		-54.687500
8733		-48.828125
8734		-50.781250
8735		-48.828125
8736		-48.828125
8737		-44.921875
8738		-46.875000
8739		-42.968750
8740		-44.921875
8741		-41.015625
8742		-42.968750
8743		-37.109375
8744		-39.062500
8745		-35.156250
8746		-37.109375
8747		-31.250000
8748		-33.203125
8749		-29.296875
8750		-31.250000
8751		-25.390625
8752		-27.343750
8753		-21.484375
8754		-23.437500
8755		-19.531250
8756		-21.484375
8757		-15.625000
8758		-17.578125
8759		-11.718750
8760		-13.671875
8761		-7.812500
8762		-9.765625
8763		-3.906250
8764		-5.859375
8765		0.000000
8766		-1.953125
8767		1.953125
8768		0.000000
8769		5.859375
8770		3.906250
8771		9.765625
8772		7.812500
8773		13.671875
8774		11.718750
8775		17.578125
8776		15.625000
8777		19.531250
8778		17.578125
8779		23.437500
8780		21.484375
8781		27.343750
8782		25.390625
8783		29.296875
8784		29.296875
8785		33.203125
8786		31.250000
8787		37.109375
8788		35.156250
8789		39.062500
8790		37.109375
8791		42.968750
8792		41.015625
8793		46.875000
8794		44.921875
8795		48.828125
8796		46.875000
8797		52.734375
8798		50.781250
8799		54.687500
8800		52.734375
8801		56.640625
8802		54.687500
8803		58.593750
8804		58.593750
8805		62.500000
8806		60.546875
8807		64.453125
8808		62.500000
8809		66.406250
8810		64.453125
8811		68.359375
8812		66.406250
8813		70.312500
8814		66.406250
8815		72.265625
8816		70.312500
8817		74.218750
8818		72.265625
8819		74.218750
8820		72.265625
8821		76.171875
8822		74.218750
8823		78.125000
8824		74.218750
8825		78.125000
8826		74.218750
8827		80.078125
8828		76.171875
8829		80.078125
8830		78.125000
8831		80.078125
8832		78.125000
8833		80.078125
8834		78.125000
8835		82.031250
8836		78.125000
8837		82.031250
8838		78.125000
8839		80.078125
8840		78.125000
8841		80.078125
8842		76.171875
8843		80.078125
8844		76.171875
8845		80.078125
8846		74.218750
8847		78.125000
8848		74.218750
8849		78.125000
8850		74.218750
8851		76.171875
8852		72.265625
8853		76.171875
8854		70.312500
8855		74.218750
8856		68.359375
8857		74.218750
8858		68.359375
8859		72.265625
8860		66.406250
8861		70.312500
8862		64.453125
8863		68.359375
8864		62.500000
8865		66.406250
8866		58.593750
8867		62.500000
8868		56.640625
8869		60.546875
8870		54.687500
8871		58.593750
8872		50.781250
8873		56.640625
8874		48.828125
8875		52.734375
8876		46.875000
8877		50.781250
8878		42.968750
8879		46.875000
8880		39.062500
8881		44.921875
8882		37.109375
8883		42.968750
8884		33.203125
8885		39.062500
8886		31.250000
8887		35.156250
8888		27.343750
8889		33.203125
8890		23.437500
8891		29.296875
8892		19.531250
8893		25.390625
8894		15.625000
8895		21.484375
8896		13.671875
8897		17.578125
8898		9.765625
8899		15.625000
8900		5.859375
8901		11.718750
8902		1.953125
8903		7.812500
8904		-1.953125
8905		3.906250
8906		-5.859375
8907		0.000000
8908		-7.812500
8909		-3.906250
8910		-11.718750
8911		-5.859375
8912		-15.625000
8913		-9.765625
8914		-19.531250
8915		-13.671875
8916		-23.437500
8917		-17.578125
8918		-25.390625
8919		-19.531250
8920		-29.296875
8921		-23.437500
8922		-33.203125
8923		-27.343750
8924		-35.156250
8925		-29.296875
8926		-37.109375
8927		-33.203125
8928		-41.015625
8929		-37.109375
8930		-44.921875
8931		-39.062500
8932		-44.921875
8933		-41.015625
8934		-48.828125
8935		-42.968750
8936		-50.781250
8937		-46.875000
8938		-52.734375
8939		-48.828125
8940		-54.687500
8941		-50.781250
8942		-56.640625
8943		-52.734375
8944		-58.593750
8945		-54.687500
8946		-60.546875
8947		-56.640625
8948		-60.546875
8949		-56.640625
8950		-62.500000
8951		-58.593750
8952		-62.500000
8953		-58.593750
8954		-64.453125
8955		-60.546875
8956		-64.453125
8957		-60.546875
8958		-64.453125
8959		-60.546875
8960		-66.406250
8961		-62.500000
8962		-64.453125
8963		-62.500000
8964		-64.453125
8965		-60.546875
8966		-64.453125
8967		-60.546875
8968		-64.453125
8969		-60.546875
8970		-62.500000
8971		-60.546875
8972		-62.500000
8973		-58.593750
8974		-60.546875
8975		-58.593750
8976		-60.546875
8977		-56.640625
8978		-58.593750
8979		-54.687500
8980		-56.640625
8981		-52.734375
8982		-56.640625
8983		-50.781250
8984		-52.734375
8985		-48.828125
8986		-50.781250
8987		-46.875000
8988		-48.828125
8989		-42.968750
8990		-46.875000
8991		-41.015625
8992		-42.968750
8993		-39.062500
8994		-41.015625
8995		-37.109375
8996		-39.062500
8997		-33.203125
8998		-35.156250
8999		-31.250000
9000		-33.203125
9001		-27.343750
9002		-29.296875
9003		-25.390625
9004		-25.390625
9005		-19.531250
9006		-23.437500
9007		-17.578125
9008		-19.531250
9009		-13.671875
9010		-15.625000
9011		-11.718750
9012		-11.718750
9013		-7.812500
9014		-9.765625
9015		-1.953125
9016		-5.859375
9017		0.000000
9018		-1.953125
9019		3.906250
9020		1.953125
9021		7.812500
9022		5.859375
9023		9.765625
9024		9.765625
9025		15.625000
9026		11.718750
9027		19.531250
9028		15.625000
9029		21.484375
9030		19.531250
9031		25.390625
9032		23.437500
9033		27.343750
9034		25.390625
9035		31.250000
9036		29.296875
9037		35.156250
9038		33.203125
9039		39.062500
9040		37.109375
9041		42.968750
9042		39.062500
9043		44.921875
9044		41.015625
9045		46.875000
9046		44.921875
9047		50.781250
9048		48.828125
9049		52.734375
9050		50.781250
9051		56.640625
9052		52.734375
9053		58.593750
9054		56.640625
9055		60.546875
9056		58.593750
9057		62.500000
9058		60.546875
9059		64.453125
9060		62.500000
9061		68.359375
9062		64.453125
9063		68.359375
9064		66.406250
9065		70.312500
9066		68.359375
9067		72.265625
9068		70.312500
9069		74.218750
9070		72.265625
9071		76.171875
9072		72.265625
9073		76.171875
9074		74.218750
9075		78.125000
9076		74.218750
9077		78.125000
9078		74.218750
9079		78.125000
9080		76.171875
9081		80.078125
9082		76.171875
9083		80.078125
9084		78.125000
9085		80.078125
9086		78.125000
9087		80.078125
9088		78.125000
9089		80.078125
9090		78.125000
9091		80.078125
9092		76.171875
9093		80.078125
9094		76.171875
9095		80.078125
9096		76.171875
9097		78.125000
9098		74.218750
9099		78.125000
9100		74.218750
9101		78.125000
9102		72.265625
9103		78.125000
9104		72.265625
9105		76.171875
9106		70.312500
9107		74.218750
9108		68.359375
9109		72.265625
9110		66.406250
9111		70.312500
9112		64.453125
9113		68.359375
9114		62.500000
9115		66.406250
9116		60.546875
9117		64.453125
9118		58.593750
9119		62.500000
9120		56.640625
9121		60.546875
9122		52.734375
9123		58.593750
9124		50.781250
9125		54.687500
9126		46.875000
9127		52.734375
9128		44.921875
9129		50.781250
9130		42.968750
9131		46.875000
9132		37.109375
9133		42.968750
9134		35.156250
9135		41.015625
9136		33.203125
9137		37.109375
9138		29.296875
9139		35.156250
9140		25.390625
9141		31.250000
9142		21.484375
9143		27.343750
9144		17.578125
9145		23.437500
9146		15.625000
9147		19.531250
9148		11.718750
9149		15.625000
9150		7.812500
9151		13.671875
9152		3.906250
9153		9.765625
9154		0.000000
9155		5.859375
9156		-1.953125
9157		1.953125
9158		-5.859375
9159		0.000000
9160		-9.765625
9161		-5.859375
9162		-13.671875
9163		-7.812500
9164		-17.578125
9165		-11.718750
9166		-19.531250
9167		-15.625000
9168		-23.437500
9169		-19.531250
9170		-27.343750
9171		-21.484375
9172		-31.250000
9173		-25.390625
9174		-33.203125
9175		-27.343750
9176		-37.109375
9177		-31.250000
9178		-39.062500
9179		-35.156250
9180		-42.968750
9181		-37.109375
9182		-44.921875
9183		-41.015625
9184		-46.875000
9185		-42.968750
9186		-48.828125
9187		-44.921875
9188		-50.781250
9189		-46.875000
9190		-54.687500
9191		-50.781250
9192		-56.640625
9193		-52.734375
9194		-58.593750
9195		-54.687500
9196		-58.593750
9197		-54.687500
9198		-60.546875
9199		-56.640625
9200		-62.500000
9201		-58.593750
9202		-62.500000
9203		-58.593750
9204		-64.453125
9205		-60.546875
9206		-64.453125
9207		-60.546875
9208		-64.453125
9209		-62.500000
9210		-64.453125
9211		-62.500000
9212		-66.406250
9213		-62.500000
9214		-64.453125
9215		-62.500000
9216		-66.406250
9217		-60.546875
9218		-64.453125
9219		-60.546875
9220		-64.453125
9221		-60.546875
9222		-62.500000
9223		-58.593750
9224		-62.500000
9225		-58.593750
9226		-62.500000
9227		-56.640625
9228		-60.546875
9229		-56.640625
9230		-58.593750
9231		-54.687500
9232		-56.640625
9233		-52.734375
9234		-54.687500
9235		-50.781250
9236		-52.734375
9237		-48.828125
9238		-50.781250
9239		-46.875000
9240		-48.828125
9241		-44.921875
9242		-44.921875
9243		-41.015625
9244		-42.968750
9245		-39.062500
9246		-41.015625
9247		-35.156250
9248		-37.109375
9249		-33.203125
9250		-35.156250
9251		-29.296875
9252		-31.250000
9253		-27.343750
9254		-29.296875
9255		-23.437500
9256		-25.390625
9257		-19.531250
9258		-23.437500
9259		-17.578125
9260		-19.531250
9261		-13.671875
9262		-15.625000
9263		-9.765625
9264		-11.718750
9265		-5.859375
9266		-7.812500
9267		-1.953125
9268		-5.859375
9269		1.953125
9270		-1.953125
9271		3.906250
9272		1.953125
9273		7.812500
9274		5.859375
9275		11.718750
9276		9.765625
9277		15.625000
9278		13.671875
9279		19.531250
9280		15.625000
9281		21.484375
9282		21.484375
9283		25.390625
9284		23.437500
9285		29.296875
9286		27.343750
9287		33.203125
9288		31.250000
9289		35.156250
9290		33.203125
9291		39.062500
9292		37.109375
9293		42.968750
9294		39.062500
9295		44.921875
9296		42.968750
9297		48.828125
9298		46.875000
9299		50.781250
9300		48.828125
9301		54.687500
9302		50.781250
9303		56.640625
9304		54.687500
9305		58.593750
9306		56.640625
9307		60.546875
9308		58.593750
9309		62.500000
9310		60.546875
9311		66.406250
9312		64.453125
9313		68.359375
9314		64.453125
9315		68.359375
9316		66.406250
9317		70.312500
9318		68.359375
9319		72.265625
9320		70.312500
9321		74.218750
9322		72.265625
9323		76.171875
9324		74.218750
9325		76.171875
9326		74.218750
9327		78.125000
9328		74.218750
9329		78.125000
9330		74.218750
9331		80.078125
9332		76.171875
9333		80.078125
9334		76.171875
9335		80.078125
9336		76.171875
9337		80.078125
9338		78.125000
9339		80.078125
9340		76.171875
9341		80.078125
9342		76.171875
9343		80.078125
9344		76.171875
9345		80.078125
9346		74.218750
9347		80.078125
9348		76.171875
9349		78.125000
9350		74.218750
9351		78.125000
9352		74.218750
9353		78.125000
9354		72.265625
9355		76.171875
9356		70.312500
9357		74.218750
9358		68.359375
9359		72.265625
9360		68.359375
9361		72.265625
9362		64.453125
9363		70.312500
9364		64.453125
9365		68.359375
9366		62.500000
9367		66.406250
9368		58.593750
9369		64.453125
9370		56.640625
9371		62.500000
9372		54.687500
9373		58.593750
9374		52.734375
9375		56.640625
9376		48.828125
9377		54.687500
9378		46.875000
9379		52.734375
9380		42.968750
9381		48.828125
9382		41.015625
9383		44.921875
9384		37.109375
9385		42.968750
9386		33.203125
9387		39.062500
9388		31.250000
9389		35.156250
9390		27.343750
9391		33.203125
9392		23.437500
9393		29.296875
9394		19.531250
9395		25.390625
9396		15.625000
9397		23.437500
9398		13.671875
9399		19.531250
9400		9.765625
9401		15.625000
9402		5.859375
9403		11.718750
9404		1.953125
9405		7.812500
9406		-1.953125
9407		3.906250
9408		-3.906250
9409		0.000000
9410		-7.812500
9411		-1.953125
9412		-11.718750
9413		-5.859375
9414		-15.625000
9415		-7.812500
9416		-19.531250
9417		-13.671875
9418		-23.437500
9419		-17.578125
9420		-25.390625
9421		-19.531250
9422		-29.296875
9423		-23.437500
9424		-31.250000
9425		-27.343750
9426		-35.156250
9427		-29.296875
9428		-37.109375
9429		-33.203125
9430		-41.015625
9431		-35.156250
9432		-42.968750
9433		-39.062500
9434		-44.921875
9435		-41.015625
9436		-48.828125
9437		-42.968750
9438		-50.781250
9439		-46.875000
9440		-52.734375
9441		-48.828125
9442		-54.687500
9443		-50.781250
9444		-56.640625
9445		-52.734375
9446		-58.593750
9447		-54.687500
9448		-60.546875
9449		-56.640625
9450		-60.546875
9451		-58.593750
9452		-62.500000
9453		-58.593750
9454		-62.500000
9455		-58.593750
9456		-64.453125
9457		-60.546875
9458		-64.453125
9459		-60.546875
9460		-64.453125
9461		-62.500000
9462		-66.406250
9463		-62.500000
9464		-66.406250
9465		-62.500000
9466		-66.406250
9467		-62.500000
9468		-66.406250
9469		-60.546875
9470		-64.453125
9471		-60.546875
9472		-64.453125
9473		-60.546875
9474		-62.500000
9475		-60.546875
9476		-62.500000
9477		-58.593750
9478		-60.546875
9479		-56.640625
9480		-60.546875
9481		-54.687500
9482		-58.593750
9483		-54.687500
9484		-56.640625
9485		-52.734375
9486		-54.687500
9487		-50.781250
9488		-52.734375
9489		-48.828125
9490		-50.781250
9491		-44.921875
9492		-48.828125
9493		-42.968750
9494		-44.921875
9495		-41.015625
9496		-42.968750
9497		-37.109375
9498		-41.015625
9499		-35.156250
9500		-37.109375
9501		-31.250000
9502		-33.203125
9503		-27.343750
9504		-31.250000
9505		-25.390625
9506		-27.343750
9507		-21.484375
9508		-23.437500
9509		-19.531250
9510		-21.484375
9511		-15.625000
9512		-17.578125
9513		-11.718750
9514		-13.671875
9515		-7.812500
9516		-9.765625
9517		-5.859375
9518		-7.812500
9519		-1.953125
9520		-3.906250
9521		1.953125
9522		0.000000
9523		5.859375
9524		3.906250
9525		7.812500
9526		7.812500
9527		11.718750
9528		9.765625
9529		15.625000
9530		13.671875
9531		19.531250
9532		17.578125
9533		23.437500
9534		21.484375
9535		27.343750
9536		25.390625
9537		31.250000
9538		29.296875
9539		33.203125
9540		31.250000
9541		37.109375
9542		35.156250
9543		41.015625
9544		37.109375
9545		42.968750
9546		41.015625
9547		46.875000
9548		44.921875
9549		48.828125
9550		46.875000
9551		50.781250
9552		50.781250
9553		54.687500
9554		52.734375
9555		56.640625
9556		54.687500
9557		58.593750
9558		56.640625
9559		62.500000
9560		58.593750
9561		64.453125
9562		60.546875
9563		66.406250
9564		64.453125
9565		68.359375
9566		66.406250
9567		70.312500
9568		68.359375
9569		72.265625
9570		68.359375
9571		72.265625
9572		70.312500
9573		74.218750
9574		72.265625
9575		76.171875
9576		74.218750
9577		76.171875
9578		74.218750
9579		78.125000
9580		76.171875
9581		78.125000
9582		76.171875
9583		80.078125
9584		76.171875
9585		80.078125
9586		78.125000
9587		80.078125
9588		78.125000
9589		80.078125
9590		76.171875
9591		80.078125
9592		78.125000
9593		80.078125
9594		76.171875
9595		80.078125
9596		76.171875
9597		80.078125
9598		76.171875
9599		78.125000
9600		76.171875
9601		78.125000
9602		74.218750
9603		76.171875
9604		72.265625
9605		76.171875
9606		72.265625
9607		76.171875
9608		70.312500
9609		74.218750
9610		68.359375
9611		72.265625
9612		66.406250
9613		70.312500
9614		64.453125
9615		68.359375
9616		62.500000
9617		68.359375
9618		60.546875
9619		64.453125
9620		58.593750
9621		62.500000
9622		56.640625
9623		60.546875
9624		52.734375
9625		58.593750
9626		50.781250
9627		56.640625
9628		48.828125
9629		52.734375
9630		44.921875
9631		50.781250
9632		42.968750
9633		46.875000
9634		39.062500
9635		44.921875
9636		37.109375
9637		41.015625
9638		33.203125
9639		39.062500
9640		29.296875
9641		35.156250
9642		27.343750
9643		31.250000
9644		23.437500
9645		27.343750
9646		19.531250
9647		25.390625
9648		15.625000
9649		21.484375
9650		11.718750
9651		17.578125
9652		9.765625
9653		13.671875
9654		5.859375
9655		9.765625
9656		1.953125
9657		7.812500
9658		-1.953125
9659		3.906250
9660		-5.859375
9661		0.000000
9662		-9.765625
9663		-3.906250
9664		-13.671875
9665		-7.812500
9666		-15.625000
9667		-11.718750
9668		-19.531250
9669		-13.671875
9670		-23.437500
9671		-17.578125
9672		-27.343750
9673		-21.484375
9674		-29.296875
9675		-25.390625
9676		-33.203125
9677		-27.343750
9678		-37.109375
9679		-31.250000
9680		-39.062500
9681		-33.203125
9682		-41.015625
9683		-37.109375
9684		-44.921875
9685		-41.015625
9686		-46.875000
9687		-42.968750
9688		-48.828125
9689		-44.921875
9690		-50.781250
9691		-46.875000
9692		-54.687500
9693		-48.828125
9694		-56.640625
9695		-50.781250
9696		-56.640625
9697		-52.734375
9698		-58.593750
9699		-54.687500
9700		-60.546875
9701		-56.640625
9702		-60.546875
9703		-58.593750
9704		-64.453125
9705		-58.593750
9706		-64.453125
9707		-60.546875
9708		-64.453125
9709		-60.546875
9710		-66.406250
9711		-62.500000
9712		-64.453125
9713		-62.500000
9714		-66.406250
9715		-62.500000
9716		-66.406250
9717		-62.500000
9718		-66.406250
9719		-62.500000
9720		-64.453125
9721		-62.500000
9722		-64.453125
9723		-60.546875
9724		-64.453125
9725		-60.546875
9726		-62.500000
9727		-58.593750
9728		-62.500000
9729		-58.593750
9730		-60.546875
9731		-56.640625
9732		-58.593750
9733		-54.687500
9734		-56.640625
9735		-54.687500
9736		-56.640625
9737		-50.781250
9738		-54.687500
9739		-48.828125
9740		-50.781250
9741		-46.875000
9742		-48.828125
9743		-44.921875
9744		-46.875000
9745		-41.015625
9746		-44.921875
9747		-39.062500
9748		-41.015625
9749		-37.109375
9750		-39.062500
9751		-33.203125
9752		-37.109375
9753		-31.250000
9754		-33.203125
9755		-27.343750
9756		-31.250000
9757		-25.390625
9758		-27.343750
9759		-21.484375
9760		-23.437500
9761		-17.578125
9762		-19.531250
9763		-13.671875
9764		-17.578125
9765		-11.718750
9766		-13.671875
9767		-7.812500
9768		-9.765625
9769		-3.906250
9770		-5.859375
9771		0.000000
9772		-3.906250
9773		3.906250
9774		1.953125
9775		5.859375
9776		3.906250
9777		9.765625
9778		7.812500
9779		13.671875
9780		11.718750
9781		17.578125
9782		15.625000
9783		21.484375
9784		19.531250
9785		23.437500
9786		23.437500
9787		27.343750
9788		25.390625
9789		31.250000
9790		29.296875
9791		35.156250
9792		33.203125
9793		37.109375
9794		35.156250
9795		41.015625
9796		39.062500
9797		44.921875
9798		41.015625
9799		46.875000
9800		44.921875
9801		48.828125
9802		48.828125
9803		52.734375
9804		50.781250
9805		54.687500
9806		52.734375
9807		58.593750
9808		54.687500
9809		60.546875
9810		58.593750
9811		62.500000
9812		60.546875
9813		64.453125
9814		62.500000
9815		66.406250
9816		64.453125
9817		68.359375
9818		66.406250
9819		70.312500
9820		68.359375
9821		72.265625
9822		70.312500
9823		74.218750
9824		70.312500
9825		76.171875
9826		72.265625
9827		76.171875
9828		72.265625
9829		78.125000
9830		74.218750
9831		78.125000
9832		76.171875
9833		78.125000
9834		74.218750
9835		80.078125
9836		76.171875
9837		80.078125
9838		76.171875
9839		80.078125
9840		76.171875
9841		80.078125
9842		78.125000
9843		80.078125
9844		76.171875
9845		80.078125
9846		76.171875
9847		80.078125
9848		76.171875
9849		80.078125
9850		74.218750
9851		78.125000
9852		74.218750
9853		78.125000
9854		74.218750
9855		76.171875
9856		70.312500
9857		78.125000
9858		68.359375
9859		76.171875
9860		70.312500
9861		74.218750
9862		68.359375
9863		72.265625
9864		66.406250
9865		70.312500
9866		62.500000
9867		70.312500
9868		62.500000
9869		66.406250
9870		60.546875
9871		64.453125
9872		54.687500
9873		62.500000
9874		52.734375
9875		60.546875
9876		50.781250
9877		58.593750
9878		50.781250
9879		54.687500
9880		46.875000
9881		52.734375
9882		41.015625
9883		48.828125
9884		41.015625
9885		46.875000
9886		39.062500
9887		42.968750
9888		35.156250
9889		39.062500
9890		29.296875
9891		39.062500
9892		27.343750
9893		35.156250
9894		25.390625
9895		31.250000
9896		21.484375
9897		27.343750
9898		17.578125
9899		25.390625
9900		13.671875
9901		21.484375
9902		11.718750
9903		15.625000
9904		7.812500
9905		11.718750
9906		1.953125
9907		9.765625
9908		-1.953125
9909		7.812500
9910		-3.906250
9911		3.906250
9912		-9.765625
9913		0.000000
9914		-11.718750
9915		-3.906250
9916		-15.625000
9917		-7.812500
9918		-17.578125
9919		-11.718750
9920		-21.484375
9921		-15.625000
9922		-27.343750
9923		-19.531250
9924		-31.250000
9925		-21.484375
9926		-33.203125
9927		-23.437500
9928		-35.156250
9929		-27.343750
9930		-39.062500
9931		-31.250000
9932		-41.015625
9933		-33.203125
9934		-44.921875
9935		-37.109375
9936		-44.921875
9937		-41.015625
9938		-46.875000
9939		-42.968750
9940		-52.734375
9941		-42.968750
9942		-54.687500
9943		-46.875000
9944		-56.640625
9945		-48.828125
9946		-58.593750
9947		-50.781250
9948		-60.546875
9949		-52.734375
9950		-60.546875
9951		-54.687500
9952		-62.500000
9953		-56.640625
9954		-62.500000
9955		-58.593750
9956		-66.406250
9957		-58.593750
9958		-66.406250
9959		-58.593750
9960		-66.406250
9961		-58.593750
9962		-68.359375
9963		-60.546875
9964		-66.406250
9965		-60.546875
9966		-66.406250
9967		-60.546875
9968		-68.359375
9969		-60.546875
9970		-64.453125
9971		-62.500000
9972		-64.453125
9973		-62.500000
9974		-66.406250
9975		-58.593750
9976		-64.453125
9977		-58.593750
9978		-64.453125
9979		-56.640625
9980		-62.500000
9981		-56.640625
9982		-62.500000
9983		-54.687500
9984		-60.546875
9985		-52.734375
9986		-58.593750
9987		-52.734375
9988		-54.687500
9989		-50.781250
9990		-54.687500
9991		-46.875000
9992		-52.734375
9993		-44.921875
9994		-50.781250
9995		-42.968750
9996		-46.875000
9997		-39.062500
9998		-44.921875
9999		-37.109375
10000		-42.968750
