Channel              :		CH1
Frequency            :		1.978kHz
Period               :		0.506ms
PK-PK                :		146.5mV
Probe attenuation    :		1X
Voltage per ADC value:		0.122070mV
Time interval        :		2.00000us

index		CH1_Voltage(mV)
1		74.218750
2		74.218750
3		76.171875
4		74.218750
5		76.171875
6		72.265625
7		76.171875
8		74.218750
9		76.171875
10		74.218750
11		76.171875
12		74.218750
13		78.125000
14		74.218750
15		76.171875
16		74.218750
17		76.171875
18		72.265625
19		76.171875
20		72.265625
21		76.171875
22		70.312500
23		74.218750
24		70.312500
25		72.265625
26		68.359375
27		72.265625
28		68.359375
29		70.312500
30		66.406250
31		68.359375
32		64.453125
33		68.359375
34		62.500000
35		66.406250
36		60.546875
37		64.453125
38		58.593750
39		62.500000
40		56.640625
41		60.546875
42		54.687500
43		58.593750
44		50.781250
45		56.640625
46		48.828125
47		54.687500
48		46.875000
49		52.734375
50		44.921875
51		48.828125
52		41.015625
53		44.921875
54		39.062500
55		42.968750
56		35.156250
57		41.015625
58		33.203125
59		37.109375
60		29.296875
61		33.203125
62		25.390625
63		31.250000
64		21.484375
65		27.343750
66		19.531250
67		23.437500
68		15.625000
69		21.484375
70		13.671875
71		17.578125
72		9.765625
73		15.625000
74		5.859375
75		11.718750
76		1.953125
77		7.812500
78		0.000000
79		3.906250
80		-3.906250
81		1.953125
82		-7.812500
83		-1.953125
84		-11.718750
85		-5.859375
86		-13.671875
87		-9.765625
88		-17.578125
89		-11.718750
90		-21.484375
91		-15.625000
92		-23.437500
93		-17.578125
94		-29.296875
95		-21.484375
96		-31.250000
97		-25.390625
98		-33.203125
99		-27.343750
100		-35.156250
101		-31.250000
102		-37.109375
103		-33.203125
104		-41.015625
105		-37.109375
106		-42.968750
107		-39.062500
108		-44.921875
109		-41.015625
110		-46.875000
111		-42.968750
112		-50.781250
113		-44.921875
114		-50.781250
115		-46.875000
116		-52.734375
117		-48.828125
118		-54.687500
119		-50.781250
120		-56.640625
121		-52.734375
122		-58.593750
123		-54.687500
124		-58.593750
125		-54.687500
126		-58.593750
127		-56.640625
128		-60.546875
129		-56.640625
130		-60.546875
131		-58.593750
132		-60.546875
133		-58.593750
134		-60.546875
135		-58.593750
136		-60.546875
137		-58.593750
138		-62.500000
139		-58.593750
140		-62.500000
141		-56.640625
142		-60.546875
143		-56.640625
144		-58.593750
145		-56.640625
146		-58.593750
147		-54.687500
148		-58.593750
149		-54.687500
150		-56.640625
151		-52.734375
152		-54.687500
153		-50.781250
154		-52.734375
155		-50.781250
156		-52.734375
157		-48.828125
158		-50.781250
159		-46.875000
160		-48.828125
161		-44.921875
162		-46.875000
163		-42.968750
164		-44.921875
165		-39.062500
166		-42.968750
167		-37.109375
168		-39.062500
169		-35.156250
170		-37.109375
171		-31.250000
172		-35.156250
173		-29.296875
174		-31.250000
175		-27.343750
176		-27.343750
177		-23.437500
178		-25.390625
179		-19.531250
180		-23.437500
181		-17.578125
182		-19.531250
183		-13.671875
184		-15.625000
185		-11.718750
186		-11.718750
187		-7.812500
188		-9.765625
189		-3.906250
190		-5.859375
191		0.000000
192		-1.953125
193		1.953125
194		1.953125
195		5.859375
196		3.906250
197		9.765625
198		7.812500
199		13.671875
200		11.718750
201		17.578125
202		13.671875
203		19.531250
204		17.578125
205		23.437500
206		21.484375
207		25.390625
208		23.437500
209		29.296875
210		27.343750
211		31.250000
212		31.250000
213		35.156250
214		33.203125
215		39.062500
216		37.109375
217		41.015625
218		39.062500
219		44.921875
220		42.968750
221		46.875000
222		44.921875
223		50.781250
224		48.828125
225		52.734375
226		50.781250
227		54.687500
228		52.734375
229		56.640625
230		54.687500
231		58.593750
232		56.640625
233		60.546875
234		58.593750
235		64.453125
236		62.500000
237		66.406250
238		64.453125
239		66.406250
240		64.453125
241		68.359375
242		66.406250
243		70.312500
244		68.359375
245		72.265625
246		68.359375
247		72.265625
248		70.312500
249		74.218750
250		70.312500
251		76.171875
252		72.265625
253		76.171875
254		72.265625
255		76.171875
256		74.218750
257		78.125000
258		74.218750
259		78.125000
260		74.218750
261		76.171875
262		74.218750
263		76.171875
264		74.218750
265		78.125000
266		74.218750
267		78.125000
268		74.218750
269		76.171875
270		72.265625
271		76.171875
272		72.265625
273		76.171875
274		70.312500
275		74.218750
276		72.265625
277		74.218750
278		70.312500
279		72.265625
280		68.359375
281		72.265625
282		66.406250
283		70.312500
284		66.406250
285		68.359375
286		64.453125
287		68.359375
288		60.546875
289		66.406250
290		60.546875
291		64.453125
292		56.640625
293		62.500000
294		56.640625
295		58.593750
296		52.734375
297		56.640625
298		50.781250
299		54.687500
300		48.828125
301		52.734375
302		44.921875
303		50.781250
304		42.968750
305		46.875000
306		39.062500
307		44.921875
308		37.109375
309		41.015625
310		33.203125
311		39.062500
312		31.250000
313		35.156250
314		27.343750
315		33.203125
316		25.390625
317		29.296875
318		21.484375
319		25.390625
320		17.578125
321		23.437500
322		13.671875
323		19.531250
324		11.718750
325		17.578125
326		7.812500
327		13.671875
328		3.906250
329		9.765625
330		0.000000
331		5.859375
332		-1.953125
333		1.953125
334		-5.859375
335		0.000000
336		-9.765625
337		-3.906250
338		-11.718750
339		-5.859375
340		-15.625000
341		-11.718750
342		-19.531250
343		-13.671875
344		-21.484375
345		-17.578125
346		-25.390625
347		-19.531250
348		-27.343750
349		-23.437500
350		-31.250000
351		-25.390625
352		-33.203125
353		-29.296875
354		-37.109375
355		-33.203125
356		-39.062500
357		-35.156250
358		-42.968750
359		-37.109375
360		-42.968750
361		-39.062500
362		-46.875000
363		-42.968750
364		-48.828125
365		-44.921875
366		-50.781250
367		-46.875000
368		-52.734375
369		-48.828125
370		-54.687500
371		-48.828125
372		-54.687500
373		-50.781250
374		-56.640625
375		-52.734375
376		-56.640625
377		-54.687500
378		-58.593750
379		-56.640625
380		-60.546875
381		-56.640625
382		-60.546875
383		-56.640625
384		-60.546875
385		-56.640625
386		-60.546875
387		-58.593750
388		-60.546875
389		-58.593750
390		-60.546875
391		-58.593750
392		-60.546875
393		-56.640625
394		-60.546875
395		-58.593750
396		-60.546875
397		-56.640625
398		-58.593750
399		-56.640625
400		-58.593750
401		-54.687500
402		-56.640625
403		-52.734375
404		-54.687500
405		-52.734375
406		-54.687500
407		-50.781250
408		-52.734375
409		-48.828125
410		-52.734375
411		-46.875000
412		-48.828125
413		-44.921875
414		-46.875000
415		-42.968750
416		-44.921875
417		-41.015625
418		-42.968750
419		-37.109375
420		-39.062500
421		-35.156250
422		-37.109375
423		-33.203125
424		-35.156250
425		-29.296875
426		-31.250000
427		-27.343750
428		-29.296875
429		-25.390625
430		-25.390625
431		-21.484375
432		-23.437500
433		-17.578125
434		-19.531250
435		-15.625000
436		-17.578125
437		-11.718750
438		-13.671875
439		-7.812500
440		-9.765625
441		-5.859375
442		-7.812500
443		-1.953125
444		-3.906250
445		1.953125
446		0.000000
447		3.906250
448		3.906250
449		7.812500
450		5.859375
451		11.718750
452		9.765625
453		15.625000
454		13.671875
455		17.578125
456		17.578125
457		21.484375
458		19.531250
459		25.390625
460		23.437500
461		27.343750
462		27.343750
463		31.250000
464		29.296875
465		35.156250
466		33.203125
467		37.109375
468		35.156250
469		41.015625
470		39.062500
471		42.968750
472		42.968750
473		46.875000
474		44.921875
475		48.828125
476		46.875000
477		50.781250
478		50.781250
479		54.687500
480		52.734375
481		56.640625
482		54.687500
483		58.593750
484		56.640625
485		60.546875
486		58.593750
487		62.500000
488		60.546875
489		64.453125
490		62.500000
491		66.406250
492		64.453125
493		68.359375
494		64.453125
495		70.312500
496		68.359375
497		70.312500
498		70.312500
499		72.265625
500		70.312500
501		74.218750
502		72.265625
503		74.218750
504		72.265625
505		76.171875
506		72.265625
507		76.171875
508		74.218750
509		76.171875
510		74.218750
511		78.125000
512		76.171875
513		76.171875
514		74.218750
515		78.125000
516		74.218750
517		78.125000
518		74.218750
519		78.125000
520		74.218750
521		78.125000
522		74.218750
523		78.125000
524		72.265625
525		76.171875
526		72.265625
527		76.171875
528		72.265625
529		74.218750
530		70.312500
531		74.218750
532		68.359375
533		72.265625
534		66.406250
535		72.265625
536		66.406250
537		70.312500
538		64.453125
539		68.359375
540		62.500000
541		66.406250
542		60.546875
543		64.453125
544		58.593750
545		62.500000
546		56.640625
547		60.546875
548		52.734375
549		58.593750
550		50.781250
551		56.640625
552		48.828125
553		52.734375
554		46.875000
555		50.781250
556		44.921875
557		48.828125
558		41.015625
559		46.875000
560		37.109375
561		42.968750
562		35.156250
563		39.062500
564		31.250000
565		37.109375
566		27.343750
567		33.203125
568		25.390625
569		31.250000
570		23.437500
571		27.343750
572		19.531250
573		23.437500
574		15.625000
575		21.484375
576		11.718750
577		17.578125
578		9.765625
579		13.671875
580		5.859375
581		9.765625
582		1.953125
583		7.812500
584		-1.953125
585		3.906250
586		-3.906250
587		0.000000
588		-7.812500
589		-3.906250
590		-11.718750
591		-5.859375
592		-13.671875
593		-9.765625
594		-17.578125
595		-11.718750
596		-21.484375
597		-15.625000
598		-23.437500
599		-19.531250
600		-27.343750
601		-21.484375
602		-29.296875
603		-25.390625
604		-33.203125
605		-29.296875
606		-35.156250
607		-31.250000
608		-39.062500
609		-33.203125
610		-41.015625
611		-37.109375
612		-42.968750
613		-39.062500
614		-44.921875
615		-41.015625
616		-48.828125
617		-42.968750
618		-48.828125
619		-46.875000
620		-50.781250
621		-48.828125
622		-52.734375
623		-48.828125
624		-54.687500
625		-50.781250
626		-56.640625
627		-52.734375
628		-56.640625
629		-54.687500
630		-58.593750
631		-54.687500
632		-58.593750
633		-56.640625
634		-60.546875
635		-56.640625
636		-60.546875
637		-56.640625
638		-60.546875
639		-58.593750
640		-60.546875
641		-56.640625
642		-60.546875
643		-58.593750
644		-60.546875
645		-56.640625
646		-60.546875
647		-56.640625
648		-58.593750
649		-56.640625
650		-60.546875
651		-54.687500
652		-58.593750
653		-54.687500
654		-56.640625
655		-52.734375
656		-56.640625
657		-52.734375
658		-54.687500
659		-50.781250
660		-52.734375
661		-48.828125
662		-50.781250
663		-48.828125
664		-48.828125
665		-44.921875
666		-46.875000
667		-42.968750
668		-44.921875
669		-41.015625
670		-42.968750
671		-39.062500
672		-41.015625
673		-37.109375
674		-39.062500
675		-33.203125
676		-35.156250
677		-31.250000
678		-33.203125
679		-27.343750
680		-29.296875
681		-25.390625
682		-27.343750
683		-23.437500
684		-25.390625
685		-19.531250
686		-21.484375
687		-15.625000
688		-17.578125
689		-13.671875
690		-13.671875
691		-9.765625
692		-11.718750
693		-5.859375
694		-7.812500
695		-3.906250
696		-5.859375
697		0.000000
698		-1.953125
699		3.906250
700		1.953125
701		7.812500
702		5.859375
703		9.765625
704		9.765625
705		13.671875
706		11.718750
707		17.578125
708		15.625000
709		21.484375
710		19.531250
711		23.437500
712		21.484375
713		27.343750
714		25.390625
715		29.296875
716		29.296875
717		35.156250
718		31.250000
719		37.109375
720		33.203125
721		39.062500
722		37.109375
723		42.968750
724		41.015625
725		44.921875
726		42.968750
727		48.828125
728		46.875000
729		50.781250
730		48.828125
731		52.734375
732		50.781250
733		54.687500
734		52.734375
735		58.593750
736		56.640625
737		60.546875
738		58.593750
739		62.500000
740		60.546875
741		64.453125
742		62.500000
743		66.406250
744		64.453125
745		68.359375
746		64.453125
747		70.312500
748		68.359375
749		70.312500
750		68.359375
751		72.265625
752		70.312500
753		74.218750
754		70.312500
755		74.218750
756		72.265625
757		76.171875
758		72.265625
759		76.171875
760		74.218750
761		76.171875
762		74.218750
763		78.125000
764		74.218750
765		78.125000
766		76.171875
767		76.171875
768		74.218750
769		78.125000
770		74.218750
771		78.125000
772		74.218750
773		78.125000
774		72.265625
775		78.125000
776		72.265625
777		76.171875
778		72.265625
779		76.171875
780		72.265625
781		76.171875
782		70.312500
783		74.218750
784		70.312500
785		72.265625
786		68.359375
787		72.265625
788		66.406250
789		70.312500
790		64.453125
791		68.359375
792		64.453125
793		66.406250
794		60.546875
795		66.406250
796		60.546875
797		62.500000
798		56.640625
799		60.546875
800		54.687500
801		58.593750
802		52.734375
803		56.640625
804		50.781250
805		56.640625
806		46.875000
807		52.734375
808		44.921875
809		48.828125
810		42.968750
811		46.875000
812		39.062500
813		42.968750
814		37.109375
815		41.015625
816		33.203125
817		37.109375
818		31.250000
819		35.156250
820		27.343750
821		31.250000
822		23.437500
823		29.296875
824		21.484375
825		25.390625
826		15.625000
827		21.484375
828		13.671875
829		19.531250
830		9.765625
831		15.625000
832		5.859375
833		11.718750
834		1.953125
835		7.812500
836		0.000000
837		5.859375
838		-3.906250
839		1.953125
840		-5.859375
841		-1.953125
842		-9.765625
843		-3.906250
844		-13.671875
845		-7.812500
846		-17.578125
847		-11.718750
848		-19.531250
849		-15.625000
850		-23.437500
851		-17.578125
852		-25.390625
853		-21.484375
854		-29.296875
855		-23.437500
856		-31.250000
857		-27.343750
858		-35.156250
859		-29.296875
860		-37.109375
861		-33.203125
862		-39.062500
863		-35.156250
864		-42.968750
865		-37.109375
866		-44.921875
867		-41.015625
868		-46.875000
869		-42.968750
870		-48.828125
871		-44.921875
872		-50.781250
873		-46.875000
874		-52.734375
875		-48.828125
876		-54.687500
877		-50.781250
878		-56.640625
879		-52.734375
880		-56.640625
881		-52.734375
882		-58.593750
883		-54.687500
884		-58.593750
885		-56.640625
886		-60.546875
887		-56.640625
888		-60.546875
889		-56.640625
890		-60.546875
891		-58.593750
892		-60.546875
893		-58.593750
894		-60.546875
895		-58.593750
896		-62.500000
897		-58.593750
898		-60.546875
899		-58.593750
900		-60.546875
901		-56.640625
902		-60.546875
903		-56.640625
904		-58.593750
905		-54.687500
906		-58.593750
907		-54.687500
908		-56.640625
909		-52.734375
910		-54.687500
911		-50.781250
912		-54.687500
913		-50.781250
914		-52.734375
915		-48.828125
916		-50.781250
917		-46.875000
918		-48.828125
919		-44.921875
920		-46.875000
921		-42.968750
922		-44.921875
923		-39.062500
924		-42.968750
925		-39.062500
926		-39.062500
927		-35.156250
928		-37.109375
929		-33.203125
930		-33.203125
931		-29.296875
932		-31.250000
933		-27.343750
934		-29.296875
935		-23.437500
936		-25.390625
937		-19.531250
938		-21.484375
939		-17.578125
940		-19.531250
941		-13.671875
942		-15.625000
943		-9.765625
944		-13.671875
945		-7.812500
946		-9.765625
947		-3.906250
948		-5.859375
949		-1.953125
950		-1.953125
951		1.953125
952		0.000000
953		5.859375
954		3.906250
955		7.812500
956		7.812500
957		11.718750
958		11.718750
959		15.625000
960		13.671875
961		19.531250
962		17.578125
963		23.437500
964		21.484375
965		25.390625
966		25.390625
967		29.296875
968		27.343750
969		31.250000
970		29.296875
971		35.156250
972		33.203125
973		39.062500
974		37.109375
975		41.015625
976		39.062500
977		44.921875
978		42.968750
979		46.875000
980		44.921875
981		50.781250
982		46.875000
983		52.734375
984		48.828125
985		54.687500
986		52.734375
987		56.640625
988		54.687500
989		58.593750
990		56.640625
991		60.546875
992		58.593750
993		64.453125
994		60.546875
995		64.453125
996		62.500000
997		66.406250
998		64.453125
999		68.359375
1000		66.406250
1001		70.312500
1002		68.359375
1003		72.265625
1004		68.359375
1005		74.218750
1006		70.312500
1007		74.218750
1008		70.312500
1009		74.218750
1010		72.265625
1011		76.171875
1012		72.265625
1013		76.171875
1014		74.218750
1015		78.125000
1016		74.218750
1017		76.171875
1018		74.218750
1019		78.125000
1020		74.218750
1021		78.125000
1022		74.218750
1023		78.125000
1024		74.218750
1025		78.125000
1026		74.218750
1027		76.171875
1028		74.218750
1029		76.171875
1030		72.265625
1031		76.171875
1032		72.265625
1033		76.171875
1034		70.312500
1035		74.218750
1036		70.312500
1037		74.218750
1038		68.359375
1039		72.265625
1040		66.406250
1041		72.265625
1042		64.453125
1043		70.312500
1044		64.453125
1045		68.359375
1046		62.500000
1047		66.406250
1048		60.546875
1049		64.453125
1050		58.593750
1051		62.500000
1052		56.640625
1053		60.546875
1054		52.734375
1055		58.593750
1056		50.781250
1057		56.640625
1058		48.828125
1059		52.734375
1060		46.875000
1061		50.781250
1062		42.968750
1063		48.828125
1064		41.015625
1065		44.921875
1066		37.109375
1067		42.968750
1068		35.156250
1069		39.062500
1070		31.250000
1071		35.156250
1072		27.343750
1073		33.203125
1074		25.390625
1075		29.296875
1076		21.484375
1077		27.343750
1078		19.531250
1079		23.437500
1080		15.625000
1081		19.531250
1082		11.718750
1083		15.625000
1084		7.812500
1085		13.671875
1086		3.906250
1087		9.765625
1088		1.953125
1089		7.812500
1090		-1.953125
1091		3.906250
1092		-5.859375
1093		0.000000
1094		-7.812500
1095		-3.906250
1096		-11.718750
1097		-5.859375
1098		-15.625000
1099		-9.765625
1100		-17.578125
1101		-13.671875
1102		-21.484375
1103		-17.578125
1104		-25.390625
1105		-19.531250
1106		-27.343750
1107		-23.437500
1108		-31.250000
1109		-25.390625
1110		-33.203125
1111		-29.296875
1112		-37.109375
1113		-31.250000
1114		-39.062500
1115		-35.156250
1116		-41.015625
1117		-37.109375
1118		-42.968750
1119		-39.062500
1120		-46.875000
1121		-42.968750
1122		-48.828125
1123		-44.921875
1124		-50.781250
1125		-46.875000
1126		-50.781250
1127		-48.828125
1128		-52.734375
1129		-48.828125
1130		-54.687500
1131		-50.781250
1132		-56.640625
1133		-52.734375
1134		-56.640625
1135		-54.687500
1136		-58.593750
1137		-54.687500
1138		-58.593750
1139		-56.640625
1140		-60.546875
1141		-56.640625
1142		-60.546875
1143		-58.593750
1144		-60.546875
1145		-58.593750
1146		-60.546875
1147		-58.593750
1148		-62.500000
1149		-58.593750
1150		-60.546875
1151		-56.640625
1152		-60.546875
1153		-58.593750
1154		-60.546875
1155		-56.640625
1156		-60.546875
1157		-56.640625
1158		-58.593750
1159		-54.687500
1160		-58.593750
1161		-54.687500
1162		-56.640625
1163		-52.734375
1164		-54.687500
1165		-50.781250
1166		-52.734375
1167		-48.828125
1168		-50.781250
1169		-48.828125
1170		-48.828125
1171		-44.921875
1172		-48.828125
1173		-42.968750
1174		-44.921875
1175		-41.015625
1176		-42.968750
1177		-39.062500
1178		-41.015625
1179		-37.109375
1180		-39.062500
1181		-33.203125
1182		-37.109375
1183		-29.296875
1184		-33.203125
1185		-27.343750
1186		-29.296875
1187		-25.390625
1188		-27.343750
1189		-21.484375
1190		-23.437500
1191		-19.531250
1192		-21.484375
1193		-15.625000
1194		-17.578125
1195		-11.718750
1196		-15.625000
1197		-7.812500
1198		-11.718750
1199		-5.859375
1200		-7.812500
1201		-1.953125
1202		-3.906250
1203		0.000000
1204		0.000000
1205		3.906250
1206		1.953125
1207		7.812500
1208		5.859375
1209		11.718750
1210		9.765625
1211		13.671875
1212		11.718750
1213		17.578125
1214		13.671875
1215		21.484375
1216		19.531250
1217		25.390625
1218		23.437500
1219		27.343750
1220		25.390625
1221		29.296875
1222		27.343750
1223		35.156250
1224		31.250000
1225		39.062500
1226		35.156250
1227		39.062500
1228		37.109375
1229		44.921875
1230		39.062500
1231		46.875000
1232		41.015625
1233		48.828125
1234		46.875000
1235		50.781250
1236		48.828125
1237		52.734375
1238		50.781250
1239		56.640625
1240		50.781250
1241		60.546875
1242		54.687500
1243		60.546875
1244		58.593750
1245		64.453125
1246		58.593750
1247		66.406250
1248		60.546875
1249		68.359375
1250		60.546875
1251		68.359375
1252		66.406250
1253		68.359375
1254		68.359375
1255		70.312500
1256		66.406250
1257		74.218750
1258		68.359375
1259		74.218750
1260		68.359375
1261		76.171875
1262		70.312500
1263		76.171875
1264		70.312500
1265		78.125000
1266		70.312500
1267		78.125000
1268		74.218750
1269		76.171875
1270		74.218750
1271		76.171875
1272		72.265625
1273		78.125000
1274		72.265625
1275		78.125000
1276		72.265625
1277		78.125000
1278		72.265625
1279		78.125000
1280		72.265625
1281		78.125000
1282		70.312500
1283		78.125000
1284		72.265625
1285		76.171875
1286		70.312500
1287		74.218750
1288		68.359375
1289		74.218750
1290		66.406250
1291		74.218750
1292		66.406250
1293		72.265625
1294		64.453125
1295		72.265625
1296		62.500000
1297		70.312500
1298		60.546875
1299		68.359375
1300		60.546875
1301		66.406250
1302		58.593750
1303		62.500000
1304		56.640625
1305		60.546875
1306		52.734375
1307		60.546875
1308		50.781250
1309		58.593750
1310		46.875000
1311		54.687500
1312		44.921875
1313		52.734375
1314		41.015625
1315		50.781250
1316		39.062500
1317		46.875000
1318		39.062500
1319		42.968750
1320		35.156250
1321		39.062500
1322		31.250000
1323		37.109375
1324		27.343750
1325		35.156250
1326		23.437500
1327		33.203125
1328		21.484375
1329		29.296875
1330		17.578125
1331		25.390625
1332		13.671875
1333		23.437500
1334		11.718750
1335		19.531250
1336		9.765625
1337		13.671875
1338		3.906250
1339		9.765625
1340		0.000000
1341		9.765625
1342		-3.906250
1343		5.859375
1344		-5.859375
1345		3.906250
1346		-9.765625
1347		0.000000
1348		-11.718750
1349		-3.906250
1350		-15.625000
1351		-7.812500
1352		-17.578125
1353		-13.671875
1354		-21.484375
1355		-15.625000
1356		-25.390625
1357		-17.578125
1358		-27.343750
1359		-19.531250
1360		-31.250000
1361		-23.437500
1362		-35.156250
1363		-25.390625
1364		-39.062500
1365		-29.296875
1366		-41.015625
1367		-31.250000
1368		-41.015625
1369		-35.156250
1370		-42.968750
1371		-39.062500
1372		-46.875000
1373		-41.015625
1374		-48.828125
1375		-41.015625
1376		-50.781250
1377		-44.921875
1378		-52.734375
1379		-44.921875
1380		-56.640625
1381		-46.875000
1382		-56.640625
1383		-48.828125
1384		-58.593750
1385		-50.781250
1386		-56.640625
1387		-54.687500
1388		-58.593750
1389		-54.687500
1390		-62.500000
1391		-54.687500
1392		-62.500000
1393		-54.687500
1394		-62.500000
1395		-56.640625
1396		-64.453125
1397		-56.640625
1398		-62.500000
1399		-56.640625
1400		-64.453125
1401		-56.640625
1402		-62.500000
1403		-56.640625
1404		-60.546875
1405		-58.593750
1406		-62.500000
1407		-54.687500
1408		-62.500000
1409		-54.687500
1410		-62.500000
1411		-54.687500
1412		-60.546875
1413		-52.734375
1414		-60.546875
1415		-50.781250
1416		-58.593750
1417		-50.781250
1418		-56.640625
1419		-48.828125
1420		-52.734375
1421		-48.828125
1422		-50.781250
1423		-44.921875
1424		-50.781250
1425		-42.968750
1426		-48.828125
1427		-41.015625
1428		-46.875000
1429		-39.062500
1430		-44.921875
1431		-35.156250
1432		-41.015625
1433		-33.203125
1434		-39.062500
1435		-31.250000
1436		-33.203125
1437		-29.296875
1438		-31.250000
1439		-27.343750
1440		-29.296875
1441		-21.484375
1442		-27.343750
1443		-19.531250
1444		-23.437500
1445		-15.625000
1446		-21.484375
1447		-13.671875
1448		-17.578125
1449		-7.812500
1450		-13.671875
1451		-5.859375
1452		-9.765625
1453		-3.906250
1454		-5.859375
1455		0.000000
1456		-1.953125
1457		3.906250
1458		-1.953125
1459		7.812500
1460		1.953125
1461		11.718750
1462		3.906250
1463		13.671875
1464		7.812500
1465		17.578125
1466		11.718750
1467		21.484375
1468		15.625000
1469		23.437500
1470		21.484375
1471		25.390625
1472		25.390625
1473		29.296875
1474		25.390625
1475		35.156250
1476		29.296875
1477		37.109375
1478		31.250000
1479		41.015625
1480		35.156250
1481		42.968750
1482		37.109375
1483		46.875000
1484		41.015625
1485		48.828125
1486		44.921875
1487		48.828125
1488		48.828125
1489		52.734375
1490		50.781250
1491		56.640625
1492		50.781250
1493		58.593750
1494		52.734375
1495		60.546875
1496		54.687500
1497		62.500000
1498		58.593750
1499		64.453125
1500		58.593750
1501		66.406250
1502		60.546875
1503		68.359375
1504		64.453125
1505		68.359375
1506		66.406250
1507		70.312500
1508		66.406250
1509		72.265625
1510		68.359375
1511		74.218750
1512		68.359375
1513		76.171875
1514		70.312500
1515		78.125000
1516		70.312500
1517		78.125000
1518		72.265625
1519		78.125000
1520		74.218750
1521		76.171875
1522		74.218750
1523		76.171875
1524		72.265625
1525		80.078125
1526		72.265625
1527		80.078125
1528		72.265625
1529		80.078125
1530		72.265625
1531		78.125000
1532		72.265625
1533		78.125000
1534		70.312500
1535		78.125000
1536		70.312500
1537		78.125000
1538		72.265625
1539		74.218750
1540		68.359375
1541		74.218750
1542		66.406250
1543		74.218750
1544		66.406250
1545		74.218750
1546		64.453125
1547		72.265625
1548		62.500000
1549		70.312500
1550		60.546875
1551		68.359375
1552		60.546875
1553		66.406250
1554		58.593750
1555		62.500000
1556		56.640625
1557		60.546875
1558		52.734375
1559		60.546875
1560		50.781250
1561		58.593750
1562		46.875000
1563		56.640625
1564		44.921875
1565		54.687500
1566		42.968750
1567		50.781250
1568		41.015625
1569		48.828125
1570		39.062500
1571		46.875000
1572		37.109375
1573		41.015625
1574		31.250000
1575		39.062500
1576		27.343750
1577		37.109375
1578		25.390625
1579		33.203125
1580		21.484375
1581		31.250000
1582		17.578125
1583		27.343750
1584		15.625000
1585		23.437500
1586		13.671875
1587		21.484375
1588		11.718750
1589		15.625000
1590		7.812500
1591		11.718750
1592		1.953125
1593		11.718750
1594		-1.953125
1595		7.812500
1596		-5.859375
1597		3.906250
1598		-7.812500
1599		0.000000
1600		-11.718750
1601		-1.953125
1602		-15.625000
1603		-5.859375
1604		-15.625000
1605		-11.718750
1606		-19.531250
1607		-15.625000
1608		-25.390625
1609		-17.578125
1610		-27.343750
1611		-19.531250
1612		-31.250000
1613		-21.484375
1614		-35.156250
1615		-25.390625
1616		-37.109375
1617		-27.343750
1618		-39.062500
1619		-31.250000
1620		-41.015625
1621		-33.203125
1622		-42.968750
1623		-39.062500
1624		-46.875000
1625		-41.015625
1626		-48.828125
1627		-41.015625
1628		-50.781250
1629		-42.968750
1630		-52.734375
1631		-44.921875
1632		-54.687500
1633		-46.875000
1634		-56.640625
1635		-48.828125
1636		-58.593750
1637		-50.781250
1638		-56.640625
1639		-54.687500
1640		-58.593750
1641		-54.687500
1642		-62.500000
1643		-54.687500
1644		-62.500000
1645		-54.687500
1646		-62.500000
1647		-56.640625
1648		-64.453125
1649		-56.640625
1650		-64.453125
1651		-56.640625
1652		-62.500000
1653		-56.640625
1654		-62.500000
1655		-56.640625
1656		-60.546875
1657		-58.593750
1658		-62.500000
1659		-54.687500
1660		-62.500000
1661		-54.687500
1662		-60.546875
1663		-54.687500
1664		-60.546875
1665		-52.734375
1666		-58.593750
1667		-52.734375
1668		-58.593750
1669		-50.781250
1670		-56.640625
1671		-50.781250
1672		-52.734375
1673		-48.828125
1674		-50.781250
1675		-46.875000
1676		-50.781250
1677		-42.968750
1678		-48.828125
1679		-41.015625
1680		-46.875000
1681		-39.062500
1682		-44.921875
1683		-37.109375
1684		-42.968750
1685		-35.156250
1686		-39.062500
1687		-31.250000
1688		-37.109375
1689		-31.250000
1690		-33.203125
1691		-27.343750
1692		-31.250000
1693		-21.484375
1694		-27.343750
1695		-19.531250
1696		-25.390625
1697		-15.625000
1698		-21.484375
1699		-13.671875
1700		-19.531250
1701		-9.765625
1702		-15.625000
1703		-5.859375
1704		-11.718750
1705		-5.859375
1706		-7.812500
1707		-1.953125
1708		-3.906250
1709		1.953125
1710		-1.953125
1711		5.859375
1712		1.953125
1713		9.765625
1714		5.859375
1715		11.718750
1716		7.812500
1717		15.625000
1718		11.718750
1719		19.531250
1720		15.625000
1721		21.484375
1722		19.531250
1723		25.390625
1724		23.437500
1725		27.343750
1726		25.390625
1727		33.203125
1728		27.343750
1729		37.109375
1730		29.296875
1731		39.062500
1732		33.203125
1733		42.968750
1734		37.109375
1735		44.921875
1736		39.062500
1737		46.875000
1738		42.968750
1739		48.828125
1740		46.875000
1741		50.781250
1742		48.828125
1743		56.640625
1744		50.781250
1745		58.593750
1746		52.734375
1747		60.546875
1748		54.687500
1749		62.500000
1750		56.640625
1751		64.453125
1752		58.593750
1753		66.406250
1754		60.546875
1755		66.406250
1756		64.453125
1757		68.359375
1758		66.406250
1759		68.359375
1760		64.453125
1761		72.265625
1762		66.406250
1763		74.218750
1764		68.359375
1765		76.171875
1766		68.359375
1767		76.171875
1768		70.312500
1769		76.171875
1770		70.312500
1771		78.125000
1772		72.265625
1773		76.171875
1774		74.218750
1775		76.171875
1776		72.265625
1777		78.125000
1778		72.265625
1779		78.125000
1780		72.265625
1781		80.078125
1782		72.265625
1783		78.125000
1784		72.265625
1785		78.125000
1786		70.312500
1787		78.125000
1788		70.312500
1789		78.125000
1790		72.265625
1791		74.218750
1792		70.312500
1793		74.218750
1794		68.359375
1795		74.218750
1796		66.406250
1797		74.218750
1798		64.453125
1799		72.265625
1800		62.500000
1801		70.312500
1802		60.546875
1803		70.312500
1804		60.546875
1805		68.359375
1806		60.546875
1807		64.453125
1808		58.593750
1809		60.546875
1810		52.734375
1811		60.546875
1812		50.781250
1813		58.593750
1814		48.828125
1815		56.640625
1816		46.875000
1817		54.687500
1818		42.968750
1819		50.781250
1820		41.015625
1821		50.781250
1822		41.015625
1823		44.921875
1824		37.109375
1825		42.968750
1826		33.203125
1827		39.062500
1828		29.296875
1829		39.062500
1830		25.390625
1831		35.156250
1832		21.484375
1833		31.250000
1834		19.531250
1835		29.296875
1836		15.625000
1837		25.390625
1838		13.671875
1839		21.484375
1840		11.718750
1841		15.625000
1842		7.812500
1843		13.671875
1844		3.906250
1845		11.718750
1846		-1.953125
1847		7.812500
1848		-3.906250
1849		5.859375
1850		-7.812500
1851		1.953125
1852		-11.718750
1853		-1.953125
1854		-15.625000
1855		-5.859375
1856		-15.625000
1857		-9.765625
1858		-19.531250
1859		-13.671875
1860		-23.437500
1861		-17.578125
1862		-27.343750
1863		-19.531250
1864		-31.250000
1865		-21.484375
1866		-33.203125
1867		-23.437500
1868		-35.156250
1869		-27.343750
1870		-37.109375
1871		-29.296875
1872		-39.062500
1873		-33.203125
1874		-41.015625
1875		-37.109375
1876		-46.875000
1877		-41.015625
1878		-48.828125
1879		-41.015625
1880		-50.781250
1881		-42.968750
1882		-52.734375
1883		-44.921875
1884		-54.687500
1885		-46.875000
1886		-56.640625
1887		-48.828125
1888		-56.640625
1889		-50.781250
1890		-56.640625
1891		-54.687500
1892		-58.593750
1893		-54.687500
1894		-62.500000
1895		-54.687500
1896		-62.500000
1897		-54.687500
1898		-62.500000
1899		-56.640625
1900		-64.453125
1901		-56.640625
1902		-64.453125
1903		-56.640625
1904		-64.453125
1905		-56.640625
1906		-64.453125
1907		-58.593750
1908		-60.546875
1909		-58.593750
1910		-62.500000
1911		-56.640625
1912		-62.500000
1913		-56.640625
1914		-62.500000
1915		-54.687500
1916		-60.546875
1917		-54.687500
1918		-60.546875
1919		-52.734375
1920		-58.593750
1921		-50.781250
1922		-58.593750
1923		-50.781250
1924		-52.734375
1925		-50.781250
1926		-52.734375
1927		-48.828125
1928		-52.734375
1929		-44.921875
1930		-50.781250
1931		-42.968750
1932		-48.828125
1933		-39.062500
1934		-46.875000
1935		-37.109375
1936		-42.968750
1937		-35.156250
1938		-41.015625
1939		-33.203125
1940		-37.109375
1941		-31.250000
1942		-33.203125
1943		-29.296875
1944		-31.250000
1945		-23.437500
1946		-29.296875
1947		-21.484375
1948		-27.343750
1949		-17.578125
1950		-23.437500
1951		-15.625000
1952		-21.484375
1953		-11.718750
1954		-17.578125
1955		-7.812500
1956		-13.671875
1957		-7.812500
1958		-7.812500
1959		-3.906250
1960		-5.859375
1961		0.000000
1962		-3.906250
1963		3.906250
1964		0.000000
1965		7.812500
1966		1.953125
1967		11.718750
1968		5.859375
1969		15.625000
1970		9.765625
1971		19.531250
1972		11.718750
1973		21.484375
1974		17.578125
1975		23.437500
1976		21.484375
1977		27.343750
1978		23.437500
1979		31.250000
1980		25.390625
1981		35.156250
1982		29.296875
1983		37.109375
1984		33.203125
1985		41.015625
1986		35.156250
1987		42.968750
1988		37.109375
1989		46.875000
1990		41.015625
1991		46.875000
1992		44.921875
1993		50.781250
1994		48.828125
1995		54.687500
1996		48.828125
1997		56.640625
1998		50.781250
1999		58.593750
2000		52.734375
2001		62.500000
2002		56.640625
2003		64.453125
2004		58.593750
2005		64.453125
2006		60.546875
2007		66.406250
2008		64.453125
2009		66.406250
2010		64.453125
2011		68.359375
2012		64.453125
2013		72.265625
2014		66.406250
2015		74.218750
2016		66.406250
2017		74.218750
2018		68.359375
2019		76.171875
2020		70.312500
2021		76.171875
2022		70.312500
2023		76.171875
2024		70.312500
2025		78.125000
2026		74.218750
2027		76.171875
2028		72.265625
2029		78.125000
2030		72.265625
2031		78.125000
2032		72.265625
2033		78.125000
2034		72.265625
2035		78.125000
2036		70.312500
2037		78.125000
2038		72.265625
2039		78.125000
2040		70.312500
2041		78.125000
2042		72.265625
2043		74.218750
2044		68.359375
2045		74.218750
2046		68.359375
2047		76.171875
2048		66.406250
2049		74.218750
2050		66.406250
2051		72.265625
2052		64.453125
2053		72.265625
2054		62.500000
2055		70.312500
2056		60.546875
2057		68.359375
2058		60.546875
2059		64.453125
2060		58.593750
2061		62.500000
2062		54.687500
2063		62.500000
2064		50.781250
2065		60.546875
2066		48.828125
2067		58.593750
2068		46.875000
2069		56.640625
2070		44.921875
2071		52.734375
2072		42.968750
2073		50.781250
2074		41.015625
2075		48.828125
2076		39.062500
2077		42.968750
2078		35.156250
2079		41.015625
2080		31.250000
2081		39.062500
2082		27.343750
2083		35.156250
2084		23.437500
2085		33.203125
2086		21.484375
2087		29.296875
2088		17.578125
2089		25.390625
2090		15.625000
2091		23.437500
2092		13.671875
2093		17.578125
2094		9.765625
2095		13.671875
2096		3.906250
2097		11.718750
2098		0.000000
2099		9.765625
2100		-1.953125
2101		7.812500
2102		-5.859375
2103		1.953125
2104		-9.765625
2105		0.000000
2106		-13.671875
2107		-3.906250
2108		-13.671875
2109		-7.812500
2110		-17.578125
2111		-13.671875
2112		-23.437500
2113		-15.625000
2114		-27.343750
2115		-17.578125
2116		-29.296875
2117		-19.531250
2118		-31.250000
2119		-23.437500
2120		-35.156250
2121		-27.343750
2122		-37.109375
2123		-29.296875
2124		-39.062500
2125		-31.250000
2126		-41.015625
2127		-37.109375
2128		-42.968750
2129		-39.062500
2130		-46.875000
2131		-39.062500
2132		-48.828125
2133		-41.015625
2134		-50.781250
2135		-42.968750
2136		-52.734375
2137		-46.875000
2138		-54.687500
2139		-48.828125
2140		-56.640625
2141		-48.828125
2142		-56.640625
2143		-50.781250
2144		-56.640625
2145		-54.687500
2146		-60.546875
2147		-54.687500
2148		-62.500000
2149		-54.687500
2150		-62.500000
2151		-54.687500
2152		-62.500000
2153		-54.687500
2154		-64.453125
2155		-56.640625
2156		-64.453125
2157		-56.640625
2158		-62.500000
2159		-56.640625
2160		-60.546875
2161		-58.593750
2162		-62.500000
2163		-56.640625
2164		-62.500000
2165		-56.640625
2166		-62.500000
2167		-54.687500
2168		-60.546875
2169		-54.687500
2170		-60.546875
2171		-52.734375
2172		-58.593750
2173		-52.734375
2174		-58.593750
2175		-50.781250
2176		-54.687500
2177		-50.781250
2178		-52.734375
2179		-48.828125
2180		-52.734375
2181		-44.921875
2182		-50.781250
2183		-42.968750
2184		-48.828125
2185		-41.015625
2186		-46.875000
2187		-39.062500
2188		-44.921875
2189		-35.156250
2190		-41.015625
2191		-33.203125
2192		-39.062500
2193		-33.203125
2194		-33.203125
2195		-29.296875
2196		-33.203125
2197		-25.390625
2198		-31.250000
2199		-21.484375
2200		-27.343750
2201		-19.531250
2202		-25.390625
2203		-15.625000
2204		-21.484375
2205		-11.718750
2206		-17.578125
2207		-9.765625
2208		-15.625000
2209		-7.812500
2210		-9.765625
2211		-5.859375
2212		-5.859375
2213		-1.953125
2214		-3.906250
2215		5.859375
2216		-1.953125
2217		7.812500
2218		1.953125
2219		9.765625
2220		5.859375
2221		13.671875
2222		7.812500
2223		17.578125
2224		11.718750
2225		19.531250
2226		17.578125
2227		21.484375
2228		21.484375
2229		25.390625
2230		23.437500
2231		31.250000
2232		25.390625
2233		33.203125
2234		27.343750
2235		37.109375
2236		31.250000
2237		39.062500
2238		35.156250
2239		42.968750
2240		37.109375
2241		46.875000
2242		41.015625
2243		46.875000
2244		44.921875
2245		48.828125
2246		46.875000
2247		52.734375
2248		48.828125
2249		56.640625
2250		50.781250
2251		58.593750
2252		52.734375
2253		60.546875
2254		54.687500
2255		62.500000
2256		56.640625
2257		64.453125
2258		58.593750
2259		66.406250
2260		62.500000
2261		66.406250
2262		64.453125
2263		68.359375
2264		64.453125
2265		72.265625
2266		66.406250
2267		74.218750
2268		66.406250
2269		74.218750
2270		68.359375
2271		76.171875
2272		70.312500
2273		76.171875
2274		70.312500
2275		78.125000
2276		70.312500
2277		78.125000
2278		74.218750
2279		76.171875
2280		72.265625
2281		78.125000
2282		72.265625
2283		78.125000
2284		72.265625
2285		80.078125
2286		72.265625
2287		80.078125
2288		72.265625
2289		78.125000
2290		72.265625
2291		78.125000
2292		72.265625
2293		78.125000
2294		72.265625
2295		76.171875
2296		72.265625
2297		74.218750
2298		68.359375
2299		76.171875
2300		68.359375
2301		74.218750
2302		66.406250
2303		74.218750
2304		64.453125
2305		72.265625
2306		62.500000
2307		70.312500
2308		60.546875
2309		68.359375
2310		62.500000
2311		66.406250
2312		60.546875
2313		62.500000
2314		54.687500
2315		62.500000
2316		54.687500
2317		62.500000
2318		50.781250
2319		60.546875
2320		48.828125
2321		56.640625
2322		46.875000
2323		54.687500
2324		42.968750
2325		52.734375
2326		41.015625
2327		48.828125
2328		41.015625
2329		44.921875
2330		35.156250
2331		41.015625
2332		31.250000
2333		41.015625
2334		27.343750
2335		37.109375
2336		25.390625
2337		33.203125
2338		21.484375
2339		31.250000
2340		19.531250
2341		27.343750
2342		15.625000
2343		25.390625
2344		13.671875
2345		19.531250
2346		11.718750
2347		15.625000
2348		5.859375
2349		13.671875
2350		1.953125
2351		11.718750
2352		0.000000
2353		7.812500
2354		-3.906250
2355		3.906250
2356		-7.812500
2357		0.000000
2358		-11.718750
2359		-3.906250
2360		-13.671875
2361		-5.859375
2362		-15.625000
2363		-11.718750
2364		-21.484375
2365		-13.671875
2366		-23.437500
2367		-15.625000
2368		-27.343750
2369		-17.578125
2370		-29.296875
2371		-21.484375
2372		-33.203125
2373		-25.390625
2374		-35.156250
2375		-27.343750
2376		-39.062500
2377		-31.250000
2378		-39.062500
2379		-35.156250
2380		-41.015625
2381		-37.109375
2382		-46.875000
2383		-39.062500
2384		-48.828125
2385		-41.015625
2386		-50.781250
2387		-42.968750
2388		-52.734375
2389		-44.921875
2390		-54.687500
2391		-46.875000
2392		-56.640625
2393		-48.828125
2394		-54.687500
2395		-50.781250
2396		-56.640625
2397		-52.734375
2398		-60.546875
2399		-52.734375
2400		-60.546875
2401		-52.734375
2402		-62.500000
2403		-54.687500
2404		-62.500000
2405		-54.687500
2406		-62.500000
2407		-56.640625
2408		-64.453125
2409		-54.687500
2410		-62.500000
2411		-56.640625
2412		-60.546875
2413		-58.593750
2414		-62.500000
2415		-56.640625
2416		-62.500000
2417		-54.687500
2418		-62.500000
2419		-54.687500
2420		-60.546875
2421		-52.734375
2422		-60.546875
2423		-52.734375
2424		-58.593750
2425		-52.734375
2426		-58.593750
2427		-50.781250
2428		-54.687500
2429		-50.781250
2430		-52.734375
2431		-48.828125
2432		-52.734375
2433		-44.921875
2434		-52.734375
2435		-42.968750
2436		-50.781250
2437		-41.015625
2438		-46.875000
2439		-39.062500
2440		-44.921875
2441		-35.156250
2442		-42.968750
2443		-33.203125
2444		-39.062500
2445		-33.203125
2446		-35.156250
2447		-31.250000
2448		-31.250000
2449		-25.390625
2450		-31.250000
2451		-23.437500
2452		-27.343750
2453		-19.531250
2454		-25.390625
2455		-17.578125
2456		-23.437500
2457		-13.671875
2458		-19.531250
2459		-9.765625
2460		-15.625000
2461		-7.812500
2462		-9.765625
2463		-5.859375
2464		-7.812500
2465		-1.953125
2466		-5.859375
2467		3.906250
2468		-1.953125
2469		7.812500
2470		0.000000
2471		9.765625
2472		3.906250
2473		13.671875
2474		7.812500
2475		17.578125
2476		11.718750
2477		19.531250
2478		15.625000
2479		21.484375
2480		19.531250
2481		25.390625
2482		21.484375
2483		29.296875
2484		25.390625
2485		33.203125
2486		27.343750
2487		35.156250
2488		29.296875
2489		39.062500
2490		33.203125
2491		42.968750
2492		37.109375
2493		44.921875
2494		39.062500
2495		46.875000
2496		44.921875
2497		48.828125
2498		46.875000
2499		52.734375
2500		46.875000
2501		56.640625
2502		50.781250
2503		58.593750
2504		52.734375
2505		60.546875
2506		54.687500
2507		62.500000
2508		56.640625
2509		64.453125
2510		58.593750
2511		66.406250
2512		62.500000
2513		66.406250
2514		64.453125
2515		68.359375
2516		64.453125
2517		72.265625
2518		66.406250
2519		72.265625
2520		66.406250
2521		74.218750
2522		68.359375
2523		76.171875
2524		68.359375
2525		76.171875
2526		70.312500
2527		78.125000
2528		70.312500
2529		78.125000
2530		74.218750
2531		76.171875
2532		72.265625
2533		78.125000
2534		72.265625
2535		80.078125
2536		72.265625
2537		80.078125
2538		72.265625
2539		80.078125
2540		72.265625
2541		80.078125
2542		70.312500
2543		80.078125
2544		72.265625
2545		78.125000
2546		74.218750
2547		76.171875
2548		72.265625
2549		74.218750
2550		70.312500
2551		76.171875
2552		68.359375
2553		76.171875
2554		66.406250
2555		74.218750
2556		66.406250
2557		72.265625
2558		64.453125
2559		72.265625
2560		62.500000
2561		70.312500
2562		62.500000
2563		68.359375
2564		60.546875
2565		64.453125
2566		56.640625
2567		64.453125
2568		54.687500
2569		62.500000
2570		52.734375
2571		60.546875
2572		48.828125
2573		58.593750
2574		46.875000
2575		56.640625
2576		44.921875
2577		52.734375
2578		42.968750
2579		50.781250
2580		41.015625
2581		44.921875
2582		37.109375
2583		42.968750
2584		33.203125
2585		41.015625
2586		29.296875
2587		39.062500
2588		27.343750
2589		35.156250
2590		23.437500
2591		33.203125
2592		21.484375
2593		29.296875
2594		17.578125
2595		27.343750
2596		15.625000
2597		21.484375
2598		13.671875
2599		17.578125
2600		5.859375
2601		13.671875
2602		1.953125
2603		13.671875
2604		0.000000
2605		9.765625
2606		-3.906250
2607		5.859375
2608		-5.859375
2609		1.953125
2610		-9.765625
2611		0.000000
2612		-11.718750
2613		-3.906250
2614		-13.671875
2615		-9.765625
2616		-17.578125
2617		-13.671875
2618		-23.437500
2619		-13.671875
2620		-25.390625
2621		-17.578125
2622		-29.296875
2623		-19.531250
2624		-33.203125
2625		-23.437500
2626		-35.156250
2627		-27.343750
2628		-37.109375
2629		-29.296875
2630		-39.062500
2631		-33.203125
2632		-41.015625
2633		-37.109375
2634		-44.921875
2635		-37.109375
2636		-46.875000
2637		-39.062500
2638		-48.828125
2639		-41.015625
2640		-50.781250
2641		-42.968750
2642		-52.734375
2643		-46.875000
2644		-54.687500
2645		-46.875000
2646		-54.687500
2647		-48.828125
2648		-56.640625
2649		-52.734375
2650		-58.593750
2651		-52.734375
2652		-60.546875
2653		-52.734375
2654		-60.546875
2655		-54.687500
2656		-62.500000
2657		-54.687500
2658		-62.500000
2659		-54.687500
2660		-62.500000
2661		-54.687500
2662		-64.453125
2663		-56.640625
2664		-60.546875
2665		-58.593750
2666		-60.546875
2667		-58.593750
2668		-62.500000
2669		-54.687500
2670		-62.500000
2671		-54.687500
2672		-62.500000
2673		-54.687500
2674		-60.546875
2675		-52.734375
2676		-60.546875
2677		-52.734375
2678		-58.593750
2679		-50.781250
2680		-54.687500
2681		-50.781250
2682		-52.734375
2683		-50.781250
2684		-52.734375
2685		-44.921875
2686		-52.734375
2687		-42.968750
2688		-50.781250
2689		-42.968750
2690		-46.875000
2691		-39.062500
2692		-44.921875
2693		-37.109375
2694		-42.968750
2695		-35.156250
2696		-41.015625
2697		-33.203125
2698		-35.156250
2699		-31.250000
2700		-33.203125
2701		-27.343750
2702		-33.203125
2703		-23.437500
2704		-29.296875
2705		-21.484375
2706		-25.390625
2707		-17.578125
2708		-23.437500
2709		-13.671875
2710		-19.531250
2711		-11.718750
2712		-15.625000
2713		-7.812500
2714		-11.718750
2715		-5.859375
2716		-7.812500
2717		-3.906250
2718		-5.859375
2719		1.953125
2720		-3.906250
2721		5.859375
2722		0.000000
2723		9.765625
2724		3.906250
2725		11.718750
2726		5.859375
2727		15.625000
2728		9.765625
2729		19.531250
2730		13.671875
2731		19.531250
2732		19.531250
2733		23.437500
2734		21.484375
2735		29.296875
2736		23.437500
2737		31.250000
2738		27.343750
2739		35.156250
2740		29.296875
2741		39.062500
2742		33.203125
2743		41.015625
2744		35.156250
2745		44.921875
2746		39.062500
2747		46.875000
2748		42.968750
2749		48.828125
2750		44.921875
2751		50.781250
2752		46.875000
2753		54.687500
2754		48.828125
2755		56.640625
2756		50.781250
2757		60.546875
2758		52.734375
2759		62.500000
2760		56.640625
2761		64.453125
2762		58.593750
2763		66.406250
2764		62.500000
2765		66.406250
2766		64.453125
2767		68.359375
2768		64.453125
2769		70.312500
2770		64.453125
2771		72.265625
2772		66.406250
2773		74.218750
2774		68.359375
2775		74.218750
2776		68.359375
2777		76.171875
2778		70.312500
2779		76.171875
2780		70.312500
2781		78.125000
2782		74.218750
2783		76.171875
2784		72.265625
2785		78.125000
2786		72.265625
2787		80.078125
2788		72.265625
2789		80.078125
2790		72.265625
2791		80.078125
2792		72.265625
2793		80.078125
2794		72.265625
2795		78.125000
2796		72.265625
2797		78.125000
2798		74.218750
2799		76.171875
2800		72.265625
2801		76.171875
2802		70.312500
2803		76.171875
2804		68.359375
2805		76.171875
2806		68.359375
2807		74.218750
2808		66.406250
2809		74.218750
2810		64.453125
2811		72.265625
2812		64.453125
2813		70.312500
2814		62.500000
2815		68.359375
2816		62.500000
2817		64.453125
2818		56.640625
2819		64.453125
2820		54.687500
2821		62.500000
2822		52.734375
2823		60.546875
2824		50.781250
2825		58.593750
2826		48.828125
2827		56.640625
2828		44.921875
2829		54.687500
2830		44.921875
2831		50.781250
2832		42.968750
2833		46.875000
2834		39.062500
2835		42.968750
2836		33.203125
2837		42.968750
2838		31.250000
2839		39.062500
2840		27.343750
2841		37.109375
2842		25.390625
2843		33.203125
2844		21.484375
2845		29.296875
2846		17.578125
2847		27.343750
2848		17.578125
2849		23.437500
2850		13.671875
2851		17.578125
2852		7.812500
2853		15.625000
2854		5.859375
2855		13.671875
2856		1.953125
2857		9.765625
2858		-1.953125
2859		7.812500
2860		-5.859375
2861		3.906250
2862		-7.812500
2863		0.000000
2864		-9.765625
2865		-3.906250
2866		-13.671875
2867		-7.812500
2868		-19.531250
2869		-11.718750
2870		-21.484375
2871		-13.671875
2872		-25.390625
2873		-15.625000
2874		-27.343750
2875		-19.531250
2876		-31.250000
2877		-23.437500
2878		-33.203125
2879		-25.390625
2880		-37.109375
2881		-29.296875
2882		-37.109375
2883		-33.203125
2884		-39.062500
2885		-35.156250
2886		-44.921875
2887		-37.109375
2888		-46.875000
2889		-37.109375
2890		-48.828125
2891		-41.015625
2892		-50.781250
2893		-42.968750
2894		-52.734375
2895		-44.921875
2896		-54.687500
2897		-46.875000
2898		-54.687500
2899		-48.828125
2900		-54.687500
2901		-52.734375
2902		-58.593750
2903		-52.734375
2904		-60.546875
2905		-52.734375
2906		-60.546875
2907		-54.687500
2908		-62.500000
2909		-54.687500
2910		-62.500000
2911		-54.687500
2912		-62.500000
2913		-54.687500
2914		-62.500000
2915		-56.640625
2916		-60.546875
2917		-58.593750
2918		-60.546875
2919		-58.593750
2920		-62.500000
2921		-54.687500
2922		-62.500000
2923		-54.687500
2924		-62.500000
2925		-54.687500
2926		-60.546875
2927		-52.734375
2928		-58.593750
2929		-52.734375
2930		-58.593750
2931		-50.781250
2932		-56.640625
2933		-50.781250
2934		-52.734375
2935		-50.781250
2936		-52.734375
2937		-46.875000
2938		-52.734375
2939		-44.921875
2940		-50.781250
2941		-41.015625
2942		-48.828125
2943		-41.015625
2944		-46.875000
2945		-37.109375
2946		-42.968750
2947		-35.156250
2948		-41.015625
2949		-35.156250
2950		-37.109375
2951		-31.250000
2952		-33.203125
2953		-29.296875
2954		-33.203125
2955		-23.437500
2956		-31.250000
2957		-21.484375
2958		-27.343750
2959		-17.578125
2960		-23.437500
2961		-15.625000
2962		-21.484375
2963		-11.718750
2964		-17.578125
2965		-9.765625
2966		-11.718750
2967		-7.812500
2968		-9.765625
2969		-3.906250
2970		-5.859375
2971		0.000000
2972		-5.859375
2973		3.906250
2974		0.000000
2975		7.812500
2976		1.953125
2977		11.718750
2978		5.859375
2979		13.671875
2980		7.812500
2981		17.578125
2982		11.718750
2983		19.531250
2984		17.578125
2985		21.484375
2986		21.484375
2987		27.343750
2988		21.484375
2989		31.250000
2990		25.390625
2991		33.203125
2992		27.343750
2993		37.109375
2994		31.250000
2995		41.015625
2996		35.156250
2997		44.921875
2998		37.109375
2999		44.921875
3000		42.968750
3001		46.875000
3002		44.921875
3003		48.828125
3004		46.875000
3005		54.687500
3006		48.828125
3007		56.640625
3008		50.781250
3009		58.593750
3010		52.734375
3011		60.546875
3012		54.687500
3013		62.500000
3014		58.593750
3015		66.406250
3016		58.593750
3017		66.406250
3018		64.453125
3019		66.406250
3020		64.453125
3021		70.312500
3022		64.453125
3023		72.265625
3024		66.406250
3025		74.218750
3026		66.406250
3027		74.218750
3028		68.359375
3029		76.171875
3030		70.312500
3031		76.171875
3032		70.312500
3033		78.125000
3034		74.218750
3035		76.171875
3036		72.265625
3037		78.125000
3038		72.265625
3039		80.078125
3040		72.265625
3041		80.078125
3042		72.265625
3043		80.078125
3044		72.265625
3045		80.078125
3046		72.265625
3047		80.078125
3048		72.265625
3049		78.125000
3050		74.218750
3051		76.171875
3052		74.218750
3053		76.171875
3054		70.312500
3055		78.125000
3056		68.359375
3057		76.171875
3058		68.359375
3059		76.171875
3060		66.406250
3061		74.218750
3062		66.406250
3063		72.265625
3064		64.453125
3065		72.265625
3066		62.500000
3067		68.359375
3068		62.500000
3069		66.406250
3070		58.593750
3071		64.453125
3072		56.640625
3073		64.453125
3074		54.687500
3075		62.500000
3076		52.734375
3077		60.546875
3078		48.828125
3079		56.640625
3080		46.875000
3081		54.687500
3082		44.921875
3083		52.734375
3084		42.968750
3085		46.875000
3086		41.015625
3087		44.921875
3088		37.109375
3089		44.921875
3090		33.203125
3091		41.015625
3092		29.296875
3093		39.062500
3094		27.343750
3095		35.156250
3096		23.437500
3097		31.250000
3098		19.531250
3099		27.343750
3100		19.531250
3101		25.390625
3102		15.625000
3103		19.531250
3104		9.765625
3105		17.578125
3106		7.812500
3107		15.625000
3108		1.953125
3109		11.718750
3110		0.000000
3111		7.812500
3112		-3.906250
3113		5.859375
3114		-7.812500
3115		1.953125
3116		-7.812500
3117		-1.953125
3118		-11.718750
3119		-7.812500
3120		-17.578125
3121		-9.765625
3122		-21.484375
3123		-11.718750
3124		-23.437500
3125		-15.625000
3126		-25.390625
3127		-17.578125
3128		-29.296875
3129		-21.484375
3130		-33.203125
3131		-23.437500
3132		-35.156250
3133		-25.390625
3134		-37.109375
3135		-31.250000
3136		-39.062500
3137		-35.156250
3138		-42.968750
3139		-35.156250
3140		-44.921875
3141		-37.109375
3142		-46.875000
3143		-39.062500
3144		-50.781250
3145		-42.968750
3146		-52.734375
3147		-44.921875
3148		-54.687500
3149		-46.875000
3150		-54.687500
3151		-48.828125
3152		-54.687500
3153		-50.781250
3154		-58.593750
3155		-52.734375
3156		-60.546875
3157		-52.734375
3158		-60.546875
3159		-52.734375
3160		-62.500000
3161		-52.734375
3162		-62.500000
3163		-54.687500
3164		-62.500000
3165		-56.640625
3166		-62.500000
3167		-56.640625
3168		-60.546875
3169		-58.593750
3170		-60.546875
3171		-58.593750
3172		-62.500000
3173		-54.687500
3174		-62.500000
3175		-54.687500
3176		-60.546875
3177		-54.687500
3178		-60.546875
3179		-54.687500
3180		-60.546875
3181		-52.734375
3182		-58.593750
3183		-52.734375
3184		-58.593750
3185		-52.734375
3186		-54.687500
3187		-50.781250
3188		-54.687500
3189		-46.875000
3190		-52.734375
3191		-44.921875
3192		-50.781250
3193		-42.968750
3194		-48.828125
3195		-41.015625
3196		-46.875000
3197		-39.062500
3198		-44.921875
3199		-37.109375
3200		-42.968750
3201		-35.156250
3202		-37.109375
3203		-33.203125
3204		-35.156250
3205		-29.296875
3206		-35.156250
3207		-25.390625
3208		-31.250000
3209		-23.437500
3210		-27.343750
3211		-19.531250
3212		-25.390625
3213		-15.625000
3214		-21.484375
3215		-13.671875
3216		-19.531250
3217		-9.765625
3218		-13.671875
3219		-7.812500
3220		-9.765625
3221		-5.859375
3222		-7.812500
3223		0.000000
3224		-5.859375
3225		3.906250
3226		-1.953125
3227		5.859375
3228		0.000000
3229		9.765625
3230		3.906250
3231		13.671875
3232		7.812500
3233		17.578125
3234		11.718750
3235		17.578125
3236		17.578125
3237		21.484375
3238		19.531250
3239		27.343750
3240		21.484375
3241		31.250000
3242		23.437500
3243		33.203125
3244		27.343750
3245		35.156250
3246		31.250000
3247		39.062500
3248		33.203125
3249		42.968750
3250		35.156250
3251		44.921875
3252		41.015625
3253		46.875000
3254		44.921875
3255		48.828125
3256		44.921875
3257		52.734375
3258		46.875000
3259		56.640625
3260		48.828125
3261		58.593750
3262		52.734375
3263		60.546875
3264		54.687500
3265		62.500000
3266		56.640625
3267		64.453125
3268		58.593750
3269		66.406250
3270		62.500000
3271		66.406250
3272		64.453125
3273		70.312500
3274		64.453125
3275		72.265625
3276		64.453125
3277		74.218750
3278		66.406250
3279		74.218750
3280		68.359375
3281		76.171875
3282		68.359375
3283		76.171875
3284		70.312500
3285		78.125000
3286		74.218750
3287		76.171875
3288		74.218750
3289		76.171875
3290		72.265625
3291		80.078125
3292		72.265625
3293		80.078125
3294		72.265625
3295		80.078125
3296		72.265625
3297		80.078125
3298		72.265625
3299		80.078125
3300		72.265625
3301		80.078125
3302		74.218750
3303		76.171875
3304		74.218750
3305		76.171875
3306		70.312500
3307		78.125000
3308		70.312500
3309		76.171875
3310		68.359375
3311		76.171875
3312		66.406250
3313		74.218750
3314		66.406250
3315		74.218750
3316		64.453125
3317		72.265625
3318		64.453125
3319		70.312500
3320		62.500000
3321		66.406250
3322		58.593750
3323		64.453125
3324		56.640625
3325		64.453125
3326		54.687500
3327		62.500000
3328		52.734375
3329		60.546875
3330		48.828125
3331		58.593750
3332		46.875000
3333		54.687500
3334		44.921875
3335		52.734375
3336		44.921875
3337		48.828125
3338		41.015625
3339		46.875000
3340		37.109375
3341		44.921875
3342		33.203125
3343		42.968750
3344		29.296875
3345		39.062500
3346		27.343750
3347		37.109375
3348		23.437500
3349		33.203125
3350		19.531250
3351		29.296875
3352		19.531250
3353		27.343750
3354		15.625000
3355		21.484375
3356		11.718750
3357		17.578125
3358		5.859375
3359		15.625000
3360		3.906250
3361		13.671875
3362		0.000000
3363		9.765625
3364		-1.953125
3365		5.859375
3366		-5.859375
3367		1.953125
3368		-7.812500
3369		0.000000
3370		-9.765625
3371		-5.859375
3372		-13.671875
3373		-9.765625
3374		-19.531250
3375		-11.718750
3376		-23.437500
3377		-13.671875
3378		-25.390625
3379		-17.578125
3380		-29.296875
3381		-19.531250
3382		-33.203125
3383		-23.437500
3384		-35.156250
3385		-25.390625
3386		-35.156250
3387		-31.250000
3388		-37.109375
3389		-33.203125
3390		-41.015625
3391		-37.109375
3392		-44.921875
3393		-37.109375
3394		-46.875000
3395		-41.015625
3396		-48.828125
3397		-42.968750
3398		-50.781250
3399		-44.921875
3400		-52.734375
3401		-46.875000
3402		-52.734375
3403		-48.828125
3404		-54.687500
3405		-50.781250
3406		-56.640625
3407		-52.734375
3408		-58.593750
3409		-50.781250
3410		-60.546875
3411		-52.734375
3412		-60.546875
3413		-54.687500
3414		-60.546875
3415		-54.687500
3416		-62.500000
3417		-54.687500
3418		-62.500000
3419		-54.687500
3420		-60.546875
3421		-56.640625
3422		-60.546875
3423		-58.593750
3424		-62.500000
3425		-54.687500
3426		-62.500000
3427		-54.687500
3428		-62.500000
3429		-54.687500
3430		-62.500000
3431		-52.734375
3432		-60.546875
3433		-52.734375
3434		-58.593750
3435		-52.734375
3436		-58.593750
3437		-52.734375
3438		-54.687500
3439		-50.781250
3440		-54.687500
3441		-46.875000
3442		-52.734375
3443		-44.921875
3444		-50.781250
3445		-42.968750
3446		-48.828125
3447		-41.015625
3448		-48.828125
3449		-39.062500
3450		-44.921875
3451		-37.109375
3452		-42.968750
3453		-35.156250
3454		-39.062500
3455		-35.156250
3456		-35.156250
3457		-31.250000
3458		-35.156250
3459		-27.343750
3460		-33.203125
3461		-23.437500
3462		-29.296875
3463		-19.531250
3464		-25.390625
3465		-17.578125
3466		-25.390625
3467		-13.671875
3468		-19.531250
3469		-11.718750
3470		-17.578125
3471		-9.765625
3472		-11.718750
3473		-7.812500
3474		-9.765625
3475		-1.953125
3476		-7.812500
3477		1.953125
3478		-3.906250
3479		5.859375
3480		0.000000
3481		7.812500
3482		1.953125
3483		11.718750
3484		5.859375
3485		15.625000
3486		9.765625
3487		17.578125
3488		15.625000
3489		19.531250
3490		19.531250
3491		23.437500
3492		19.531250
3493		29.296875
3494		23.437500
3495		31.250000
3496		25.390625
3497		35.156250
3498		29.296875
3499		37.109375
3500		33.203125
3501		41.015625
3502		37.109375
3503		42.968750
3504		41.015625
3505		44.921875
3506		42.968750
3507		46.875000
3508		44.921875
3509		50.781250
3510		46.875000
3511		54.687500
3512		48.828125
3513		58.593750
3514		50.781250
3515		60.546875
3516		54.687500
3517		62.500000
3518		56.640625
3519		64.453125
3520		58.593750
3521		64.453125
3522		62.500000
3523		66.406250
3524		62.500000
3525		68.359375
3526		64.453125
3527		70.312500
3528		64.453125
3529		72.265625
3530		66.406250
3531		74.218750
3532		68.359375
3533		76.171875
3534		68.359375
3535		76.171875
3536		70.312500
3537		78.125000
3538		74.218750
3539		76.171875
3540		74.218750
3541		76.171875
3542		72.265625
3543		80.078125
3544		72.265625
3545		80.078125
3546		72.265625
3547		80.078125
3548		72.265625
3549		80.078125
3550		72.265625
3551		80.078125
3552		72.265625
3553		80.078125
3554		74.218750
3555		78.125000
3556		74.218750
3557		76.171875
3558		72.265625
3559		78.125000
3560		70.312500
3561		78.125000
3562		68.359375
3563		76.171875
3564		68.359375
3565		74.218750
3566		66.406250
3567		74.218750
3568		64.453125
3569		72.265625
3570		64.453125
3571		72.265625
3572		64.453125
3573		68.359375
3574		60.546875
3575		66.406250
3576		58.593750
3577		66.406250
3578		56.640625
3579		64.453125
3580		54.687500
3581		62.500000
3582		50.781250
3583		58.593750
3584		50.781250
3585		56.640625
3586		46.875000
3587		54.687500
3588		44.921875
3589		50.781250
3590		42.968750
3591		46.875000
3592		39.062500
3593		44.921875
3594		35.156250
3595		42.968750
3596		33.203125
3597		41.015625
3598		29.296875
3599		37.109375
3600		27.343750
3601		35.156250
3602		23.437500
3603		29.296875
3604		21.484375
3605		27.343750
3606		17.578125
3607		23.437500
3608		11.718750
3609		19.531250
3610		9.765625
3611		17.578125
3612		7.812500
3613		15.625000
3614		3.906250
3615		9.765625
3616		0.000000
3617		5.859375
3618		-1.953125
3619		1.953125
3620		-7.812500
3621		0.000000
3622		-9.765625
3623		-3.906250
3624		-11.718750
3625		-7.812500
3626		-17.578125
3627		-9.765625
3628		-19.531250
3629		-13.671875
3630		-21.484375
3631		-15.625000
3632		-25.390625
3633		-21.484375
3634		-27.343750
3635		-21.484375
3636		-31.250000
3637		-25.390625
3638		-33.203125
3639		-27.343750
3640		-37.109375
3641		-33.203125
3642		-41.015625
3643		-35.156250
3644		-42.968750
3645		-37.109375
3646		-44.921875
3647		-39.062500
3648		-46.875000
3649		-42.968750
3650		-48.828125
3651		-44.921875
3652		-50.781250
3653		-46.875000
3654		-50.781250
3655		-48.828125
3656		-52.734375
3657		-50.781250
3658		-56.640625
3659		-52.734375
3660		-58.593750
3661		-50.781250
3662		-58.593750
3663		-52.734375
3664		-58.593750
3665		-54.687500
3666		-58.593750
3667		-56.640625
3668		-60.546875
3669		-56.640625
3670		-60.546875
3671		-56.640625
3672		-60.546875
3673		-58.593750
3674		-60.546875
3675		-58.593750
3676		-60.546875
3677		-56.640625
3678		-60.546875
3679		-56.640625
3680		-60.546875
3681		-56.640625
3682		-58.593750
3683		-56.640625
3684		-58.593750
3685		-54.687500
3686		-56.640625
3687		-54.687500
3688		-58.593750
3689		-52.734375
3690		-54.687500
3691		-52.734375
3692		-54.687500
3693		-48.828125
3694		-52.734375
3695		-48.828125
3696		-50.781250
3697		-46.875000
3698		-48.828125
3699		-44.921875
3700		-46.875000
3701		-42.968750
3702		-44.921875
3703		-41.015625
3704		-41.015625
3705		-37.109375
3706		-39.062500
3707		-35.156250
3708		-37.109375
3709		-33.203125
3710		-35.156250
3711		-29.296875
3712		-31.250000
3713		-27.343750
3714		-29.296875
3715		-23.437500
3716		-25.390625
3717		-21.484375
3718		-23.437500
3719		-17.578125
3720		-19.531250
3721		-13.671875
3722		-15.625000
3723		-11.718750
3724		-11.718750
3725		-7.812500
3726		-9.765625
3727		-5.859375
3728		-5.859375
3729		0.000000
3730		-3.906250
3731		1.953125
3732		0.000000
3733		5.859375
3734		3.906250
3735		7.812500
3736		7.812500
3737		11.718750
3738		11.718750
3739		15.625000
3740		13.671875
3741		19.531250
3742		17.578125
3743		23.437500
3744		21.484375
3745		25.390625
3746		23.437500
3747		29.296875
3748		27.343750
3749		31.250000
3750		31.250000
3751		35.156250
3752		33.203125
3753		39.062500
3754		37.109375
3755		42.968750
3756		39.062500
3757		42.968750
3758		42.968750
3759		46.875000
3760		44.921875
3761		48.828125
3762		46.875000
3763		52.734375
3764		50.781250
3765		54.687500
3766		52.734375
3767		56.640625
3768		54.687500
3769		58.593750
3770		56.640625
3771		60.546875
3772		60.546875
3773		62.500000
3774		62.500000
3775		64.453125
3776		64.453125
3777		66.406250
3778		64.453125
3779		68.359375
3780		66.406250
3781		72.265625
3782		68.359375
3783		72.265625
3784		70.312500
3785		74.218750
3786		70.312500
3787		74.218750
3788		72.265625
3789		76.171875
3790		72.265625
3791		76.171875
3792		74.218750
3793		76.171875
3794		72.265625
3795		78.125000
3796		74.218750
3797		78.125000
3798		74.218750
3799		78.125000
3800		74.218750
3801		78.125000
3802		74.218750
3803		78.125000
3804		74.218750
3805		78.125000
3806		74.218750
3807		78.125000
3808		74.218750
3809		76.171875
3810		72.265625
3811		76.171875
3812		72.265625
3813		76.171875
3814		72.265625
3815		74.218750
3816		70.312500
3817		74.218750
3818		68.359375
3819		72.265625
3820		68.359375
3821		72.265625
3822		66.406250
3823		70.312500
3824		64.453125
3825		68.359375
3826		62.500000
3827		66.406250
3828		60.546875
3829		64.453125
3830		58.593750
3831		62.500000
3832		56.640625
3833		60.546875
3834		54.687500
3835		58.593750
3836		50.781250
3837		56.640625
3838		46.875000
3839		52.734375
3840		46.875000
3841		50.781250
3842		44.921875
3843		48.828125
3844		41.015625
3845		44.921875
3846		37.109375
3847		42.968750
3848		35.156250
3849		39.062500
3850		31.250000
3851		37.109375
3852		27.343750
3853		33.203125
3854		25.390625
3855		29.296875
3856		23.437500
3857		27.343750
3858		19.531250
3859		23.437500
3860		15.625000
3861		21.484375
3862		11.718750
3863		17.578125
3864		9.765625
3865		13.671875
3866		5.859375
3867		9.765625
3868		1.953125
3869		7.812500
3870		-1.953125
3871		3.906250
3872		-3.906250
3873		0.000000
3874		-7.812500
3875		-3.906250
3876		-11.718750
3877		-5.859375
3878		-15.625000
3879		-9.765625
3880		-17.578125
3881		-11.718750
3882		-21.484375
3883		-15.625000
3884		-25.390625
3885		-19.531250
3886		-27.343750
3887		-23.437500
3888		-31.250000
3889		-25.390625
3890		-33.203125
3891		-27.343750
3892		-35.156250
3893		-31.250000
3894		-39.062500
3895		-33.203125
3896		-41.015625
3897		-37.109375
3898		-42.968750
3899		-39.062500
3900		-46.875000
3901		-41.015625
3902		-46.875000
3903		-42.968750
3904		-48.828125
3905		-44.921875
3906		-52.734375
3907		-46.875000
3908		-52.734375
3909		-50.781250
3910		-54.687500
3911		-50.781250
3912		-56.640625
3913		-52.734375
3914		-56.640625
3915		-54.687500
3916		-58.593750
3917		-54.687500
3918		-58.593750
3919		-56.640625
3920		-60.546875
3921		-56.640625
3922		-60.546875
3923		-56.640625
3924		-60.546875
3925		-58.593750
3926		-60.546875
3927		-58.593750
3928		-60.546875
3929		-56.640625
3930		-60.546875
3931		-58.593750
3932		-60.546875
3933		-56.640625
3934		-60.546875
3935		-56.640625
3936		-58.593750
3937		-54.687500
3938		-58.593750
3939		-54.687500
3940		-56.640625
3941		-54.687500
3942		-56.640625
3943		-52.734375
3944		-54.687500
3945		-50.781250
3946		-52.734375
3947		-48.828125
3948		-50.781250
3949		-46.875000
3950		-48.828125
3951		-44.921875
3952		-46.875000
3953		-42.968750
3954		-44.921875
3955		-41.015625
3956		-42.968750
3957		-39.062500
3958		-41.015625
3959		-37.109375
3960		-37.109375
3961		-33.203125
3962		-35.156250
3963		-31.250000
3964		-33.203125
3965		-27.343750
3966		-31.250000
3967		-25.390625
3968		-27.343750
3969		-21.484375
3970		-23.437500
3971		-19.531250
3972		-21.484375
3973		-15.625000
3974		-17.578125
3975		-13.671875
3976		-13.671875
3977		-9.765625
3978		-11.718750
3979		-5.859375
3980		-7.812500
3981		-1.953125
3982		-5.859375
3983		0.000000
3984		-1.953125
3985		3.906250
3986		1.953125
3987		7.812500
3988		5.859375
3989		11.718750
3990		9.765625
3991		13.671875
3992		11.718750
3993		17.578125
3994		15.625000
3995		21.484375
3996		17.578125
3997		23.437500
3998		21.484375
3999		27.343750
4000		25.390625
4001		31.250000
4002		29.296875
4003		33.203125
4004		31.250000
4005		37.109375
4006		35.156250
4007		39.062500
4008		37.109375
4009		42.968750
4010		41.015625
4011		44.921875
4012		42.968750
4013		48.828125
4014		44.921875
4015		50.781250
4016		48.828125
4017		52.734375
4018		50.781250
4019		56.640625
4020		54.687500
4021		58.593750
4022		56.640625
4023		60.546875
4024		58.593750
4025		62.500000
4026		60.546875
4027		64.453125
4028		62.500000
4029		66.406250
4030		64.453125
4031		68.359375
4032		66.406250
4033		70.312500
4034		66.406250
4035		70.312500
4036		68.359375
4037		72.265625
4038		70.312500
4039		74.218750
4040		70.312500
4041		74.218750
4042		72.265625
4043		74.218750
4044		72.265625
4045		76.171875
4046		72.265625
4047		78.125000
4048		74.218750
4049		76.171875
4050		74.218750
4051		78.125000
4052		74.218750
4053		78.125000
4054		74.218750
4055		78.125000
4056		74.218750
4057		78.125000
4058		74.218750
4059		78.125000
4060		74.218750
4061		76.171875
4062		72.265625
4063		76.171875
4064		72.265625
4065		76.171875
4066		72.265625
4067		74.218750
4068		70.312500
4069		74.218750
4070		68.359375
4071		72.265625
4072		66.406250
4073		72.265625
4074		66.406250
4075		70.312500
4076		64.453125
4077		68.359375
4078		62.500000
4079		66.406250
4080		60.546875
4081		66.406250
4082		58.593750
4083		62.500000
4084		56.640625
4085		60.546875
4086		54.687500
4087		58.593750
4088		52.734375
4089		56.640625
4090		48.828125
4091		54.687500
4092		46.875000
4093		52.734375
4094		44.921875
4095		48.828125
4096		42.968750
4097		46.875000
4098		39.062500
4099		44.921875
4100		35.156250
4101		41.015625
4102		33.203125
4103		37.109375
4104		29.296875
4105		35.156250
4106		27.343750
4107		31.250000
4108		23.437500
4109		27.343750
4110		19.531250
4111		23.437500
4112		17.578125
4113		21.484375
4114		13.671875
4115		19.531250
4116		9.765625
4117		13.671875
4118		5.859375
4119		11.718750
4120		3.906250
4121		7.812500
4122		0.000000
4123		3.906250
4124		-3.906250
4125		1.953125
4126		-7.812500
4127		-1.953125
4128		-9.765625
4129		-5.859375
4130		-13.671875
4131		-9.765625
4132		-17.578125
4133		-11.718750
4134		-21.484375
4135		-15.625000
4136		-23.437500
4137		-19.531250
4138		-25.390625
4139		-21.484375
4140		-29.296875
4141		-25.390625
4142		-31.250000
4143		-27.343750
4144		-35.156250
4145		-31.250000
4146		-39.062500
4147		-33.203125
4148		-41.015625
4149		-37.109375
4150		-42.968750
4151		-39.062500
4152		-44.921875
4153		-41.015625
4154		-48.828125
4155		-42.968750
4156		-48.828125
4157		-44.921875
4158		-50.781250
4159		-46.875000
4160		-52.734375
4161		-48.828125
4162		-54.687500
4163		-50.781250
4164		-56.640625
4165		-52.734375
4166		-58.593750
4167		-54.687500
4168		-58.593750
4169		-54.687500
4170		-60.546875
4171		-56.640625
4172		-60.546875
4173		-56.640625
4174		-60.546875
4175		-56.640625
4176		-62.500000
4177		-56.640625
4178		-60.546875
4179		-58.593750
4180		-62.500000
4181		-58.593750
4182		-62.500000
4183		-58.593750
4184		-60.546875
4185		-58.593750
4186		-60.546875
4187		-56.640625
4188		-60.546875
4189		-56.640625
4190		-58.593750
4191		-56.640625
4192		-58.593750
4193		-54.687500
4194		-56.640625
4195		-54.687500
4196		-54.687500
4197		-50.781250
4198		-54.687500
4199		-50.781250
4200		-52.734375
4201		-48.828125
4202		-50.781250
4203		-46.875000
4204		-48.828125
4205		-44.921875
4206		-46.875000
4207		-42.968750
4208		-44.921875
4209		-39.062500
4210		-41.015625
4211		-39.062500
4212		-39.062500
4213		-35.156250
4214		-37.109375
4215		-31.250000
4216		-33.203125
4217		-29.296875
4218		-31.250000
4219		-25.390625
4220		-29.296875
4221		-23.437500
4222		-25.390625
4223		-19.531250
4224		-21.484375
4225		-17.578125
4226		-19.531250
4227		-15.625000
4228		-15.625000
4229		-11.718750
4230		-11.718750
4231		-7.812500
4232		-9.765625
4233		-5.859375
4234		-5.859375
4235		-1.953125
4236		-1.953125
4237		1.953125
4238		0.000000
4239		5.859375
4240		3.906250
4241		9.765625
4242		7.812500
4243		11.718750
4244		9.765625
4245		15.625000
4246		13.671875
4247		19.531250
4248		17.578125
4249		21.484375
4250		21.484375
4251		25.390625
4252		23.437500
4253		29.296875
4254		27.343750
4255		31.250000
4256		31.250000
4257		35.156250
4258		33.203125
4259		39.062500
4260		35.156250
4261		41.015625
4262		39.062500
4263		42.968750
4264		41.015625
4265		46.875000
4266		44.921875
4267		50.781250
4268		46.875000
4269		52.734375
4270		48.828125
4271		54.687500
4272		52.734375
4273		56.640625
4274		54.687500
4275		58.593750
4276		56.640625
4277		60.546875
4278		58.593750
4279		62.500000
4280		60.546875
4281		66.406250
4282		62.500000
4283		66.406250
4284		64.453125
4285		68.359375
4286		66.406250
4287		70.312500
4288		68.359375
4289		72.265625
4290		68.359375
4291		72.265625
4292		70.312500
4293		74.218750
4294		72.265625
4295		74.218750
4296		72.265625
4297		76.171875
4298		72.265625
4299		76.171875
4300		74.218750
4301		76.171875
4302		74.218750
4303		76.171875
4304		74.218750
4305		76.171875
4306		74.218750
4307		78.125000
4308		74.218750
4309		78.125000
4310		74.218750
4311		78.125000
4312		74.218750
4313		76.171875
4314		74.218750
4315		76.171875
4316		72.265625
4317		76.171875
4318		70.312500
4319		74.218750
4320		70.312500
4321		74.218750
4322		70.312500
4323		74.218750
4324		68.359375
4325		72.265625
4326		66.406250
4327		70.312500
4328		66.406250
4329		68.359375
4330		64.453125
4331		66.406250
4332		60.546875
4333		66.406250
4334		60.546875
4335		64.453125
4336		56.640625
4337		60.546875
4338		54.687500
4339		60.546875
4340		52.734375
4341		56.640625
4342		50.781250
4343		56.640625
4344		48.828125
4345		52.734375
4346		44.921875
4347		50.781250
4348		42.968750
4349		46.875000
4350		39.062500
4351		44.921875
4352		37.109375
4353		41.015625
4354		33.203125
4355		39.062500
4356		31.250000
4357		35.156250
4358		27.343750
4359		33.203125
4360		23.437500
4361		29.296875
4362		21.484375
4363		25.390625
4364		17.578125
4365		21.484375
4366		13.671875
4367		19.531250
4368		11.718750
4369		15.625000
4370		7.812500
4371		11.718750
4372		3.906250
4373		9.765625
4374		0.000000
4375		5.859375
4376		-3.906250
4377		1.953125
4378		-5.859375
4379		-1.953125
4380		-9.765625
4381		-3.906250
4382		-11.718750
4383		-7.812500
4384		-15.625000
4385		-9.765625
4386		-19.531250
4387		-13.671875
4388		-21.484375
4389		-17.578125
4390		-27.343750
4391		-19.531250
4392		-27.343750
4393		-23.437500
4394		-31.250000
4395		-25.390625
4396		-33.203125
4397		-29.296875
4398		-37.109375
4399		-33.203125
4400		-39.062500
4401		-35.156250
4402		-42.968750
4403		-37.109375
4404		-44.921875
4405		-41.015625
4406		-46.875000
4407		-42.968750
4408		-48.828125
4409		-44.921875
4410		-50.781250
4411		-46.875000
4412		-52.734375
4413		-48.828125
4414		-54.687500
4415		-50.781250
4416		-56.640625
4417		-50.781250
4418		-56.640625
4419		-52.734375
4420		-58.593750
4421		-54.687500
4422		-58.593750
4423		-56.640625
4424		-60.546875
4425		-56.640625
4426		-60.546875
4427		-56.640625
4428		-60.546875
4429		-58.593750
4430		-60.546875
4431		-58.593750
4432		-62.500000
4433		-58.593750
4434		-60.546875
4435		-58.593750
4436		-60.546875
4437		-58.593750
4438		-60.546875
4439		-58.593750
4440		-60.546875
4441		-56.640625
4442		-58.593750
4443		-56.640625
4444		-58.593750
4445		-54.687500
4446		-56.640625
4447		-54.687500
4448		-56.640625
4449		-52.734375
4450		-54.687500
4451		-50.781250
4452		-54.687500
4453		-48.828125
4454		-52.734375
4455		-48.828125
4456		-48.828125
4457		-46.875000
4458		-46.875000
4459		-42.968750
4460		-44.921875
4461		-41.015625
4462		-42.968750
4463		-39.062500
4464		-41.015625
4465		-37.109375
4466		-39.062500
4467		-33.203125
4468		-35.156250
4469		-31.250000
4470		-33.203125
4471		-27.343750
4472		-29.296875
4473		-25.390625
4474		-27.343750
4475		-21.484375
4476		-23.437500
4477		-19.531250
4478		-19.531250
4479		-15.625000
4480		-17.578125
4481		-11.718750
4482		-13.671875
4483		-9.765625
4484		-11.718750
4485		-5.859375
4486		-7.812500
4487		-1.953125
4488		-3.906250
4489		0.000000
4490		0.000000
4491		5.859375
4492		1.953125
4493		7.812500
4494		5.859375
4495		11.718750
4496		9.765625
4497		13.671875
4498		13.671875
4499		17.578125
4500		15.625000
4501		21.484375
4502		19.531250
4503		23.437500
4504		21.484375
4505		27.343750
4506		25.390625
4507		31.250000
4508		29.296875
4509		33.203125
4510		33.203125
4511		37.109375
4512		33.203125
4513		39.062500
4514		39.062500
4515		42.968750
4516		41.015625
4517		46.875000
4518		44.921875
4519		48.828125
4520		46.875000
4521		50.781250
4522		48.828125
4523		54.687500
4524		50.781250
4525		56.640625
4526		54.687500
4527		58.593750
4528		56.640625
4529		60.546875
4530		58.593750
4531		62.500000
4532		60.546875
4533		64.453125
4534		60.546875
4535		66.406250
4536		64.453125
4537		68.359375
4538		66.406250
4539		68.359375
4540		68.359375
4541		70.312500
4542		68.359375
4543		72.265625
4544		70.312500
4545		74.218750
4546		70.312500
4547		74.218750
4548		72.265625
4549		74.218750
4550		72.265625
4551		76.171875
4552		74.218750
4553		76.171875
4554		74.218750
4555		76.171875
4556		74.218750
4557		78.125000
4558		74.218750
4559		78.125000
4560		74.218750
4561		78.125000
4562		74.218750
4563		78.125000
4564		74.218750
4565		76.171875
4566		72.265625
4567		76.171875
4568		72.265625
4569		76.171875
4570		72.265625
4571		76.171875
4572		70.312500
4573		74.218750
4574		70.312500
4575		74.218750
4576		68.359375
4577		72.265625
4578		66.406250
4579		70.312500
4580		66.406250
4581		70.312500
4582		64.453125
4583		68.359375
4584		62.500000
4585		66.406250
4586		60.546875
4587		64.453125
4588		58.593750
4589		62.500000
4590		54.687500
4591		60.546875
4592		54.687500
4593		58.593750
4594		50.781250
4595		56.640625
4596		48.828125
4597		54.687500
4598		46.875000
4599		50.781250
4600		42.968750
4601		48.828125
4602		41.015625
4603		46.875000
4604		37.109375
4605		42.968750
4606		35.156250
4607		39.062500
4608		31.250000
4609		37.109375
4610		27.343750
4611		33.203125
4612		25.390625
4613		29.296875
4614		21.484375
4615		27.343750
4616		19.531250
4617		23.437500
4618		15.625000
4619		21.484375
4620		11.718750
4621		17.578125
4622		7.812500
4623		13.671875
4624		5.859375
4625		9.765625
4626		1.953125
4627		7.812500
4628		-1.953125
4629		3.906250
4630		-3.906250
4631		1.953125
4632		-7.812500
4633		-3.906250
4634		-11.718750
4635		-5.859375
4636		-15.625000
4637		-9.765625
4638		-17.578125
4639		-13.671875
4640		-21.484375
4641		-15.625000
4642		-25.390625
4643		-19.531250
4644		-27.343750
4645		-21.484375
4646		-31.250000
4647		-25.390625
4648		-33.203125
4649		-29.296875
4650		-37.109375
4651		-31.250000
4652		-39.062500
4653		-35.156250
4654		-41.015625
4655		-37.109375
4656		-42.968750
4657		-39.062500
4658		-44.921875
4659		-42.968750
4660		-46.875000
4661		-42.968750
4662		-50.781250
4663		-44.921875
4664		-52.734375
4665		-48.828125
4666		-52.734375
4667		-50.781250
4668		-56.640625
4669		-50.781250
4670		-56.640625
4671		-52.734375
4672		-58.593750
4673		-54.687500
4674		-58.593750
4675		-56.640625
4676		-60.546875
4677		-56.640625
4678		-60.546875
4679		-56.640625
4680		-60.546875
4681		-58.593750
4682		-60.546875
4683		-58.593750
4684		-62.500000
4685		-58.593750
4686		-62.500000
4687		-58.593750
4688		-62.500000
4689		-58.593750
4690		-60.546875
4691		-58.593750
4692		-60.546875
4693		-56.640625
4694		-60.546875
4695		-56.640625
4696		-58.593750
4697		-54.687500
4698		-58.593750
4699		-54.687500
4700		-56.640625
4701		-52.734375
4702		-56.640625
4703		-50.781250
4704		-54.687500
4705		-50.781250
4706		-52.734375
4707		-48.828125
4708		-50.781250
4709		-46.875000
4710		-48.828125
4711		-44.921875
4712		-46.875000
4713		-42.968750
4714		-44.921875
4715		-41.015625
4716		-41.015625
4717		-37.109375
4718		-39.062500
4719		-35.156250
4720		-37.109375
4721		-31.250000
4722		-33.203125
4723		-29.296875
4724		-31.250000
4725		-25.390625
4726		-27.343750
4727		-23.437500
4728		-25.390625
4729		-19.531250
4730		-21.484375
4731		-17.578125
4732		-17.578125
4733		-13.671875
4734		-15.625000
4735		-9.765625
4736		-11.718750
4737		-5.859375
4738		-7.812500
4739		-3.906250
4740		-5.859375
4741		0.000000
4742		-1.953125
4743		1.953125
4744		1.953125
4745		5.859375
4746		5.859375
4747		9.765625
4748		7.812500
4749		13.671875
4750		11.718750
4751		15.625000
4752		13.671875
4753		19.531250
4754		17.578125
4755		23.437500
4756		19.531250
4757		27.343750
4758		25.390625
4759		29.296875
4760		27.343750
4761		33.203125
4762		31.250000
4763		35.156250
4764		33.203125
4765		39.062500
4766		37.109375
4767		41.015625
4768		41.015625
4769		44.921875
4770		42.968750
4771		46.875000
4772		44.921875
4773		50.781250
4774		48.828125
4775		52.734375
4776		50.781250
4777		54.687500
4778		52.734375
4779		56.640625
4780		54.687500
4781		58.593750
4782		58.593750
4783		60.546875
4784		60.546875
4785		62.500000
4786		60.546875
4787		66.406250
4788		62.500000
4789		68.359375
4790		64.453125
4791		68.359375
4792		66.406250
4793		70.312500
4794		68.359375
4795		72.265625
4796		68.359375
4797		72.265625
4798		70.312500
4799		74.218750
4800		72.265625
4801		74.218750
4802		72.265625
4803		76.171875
4804		72.265625
4805		76.171875
4806		74.218750
4807		76.171875
4808		74.218750
4809		78.125000
4810		74.218750
4811		78.125000
4812		74.218750
4813		78.125000
4814		74.218750
4815		78.125000
4816		74.218750
4817		76.171875
4818		72.265625
4819		76.171875
4820		72.265625
4821		76.171875
4822		72.265625
4823		76.171875
4824		70.312500
4825		74.218750
4826		70.312500
4827		74.218750
4828		68.359375
4829		72.265625
4830		68.359375
4831		72.265625
4832		66.406250
4833		70.312500
4834		64.453125
4835		68.359375
4836		62.500000
4837		66.406250
4838		60.546875
4839		64.453125
4840		58.593750
4841		62.500000
4842		56.640625
4843		60.546875
4844		54.687500
4845		58.593750
4846		52.734375
4847		56.640625
4848		50.781250
4849		54.687500
4850		46.875000
4851		50.781250
4852		44.921875
4853		48.828125
4854		42.968750
4855		46.875000
4856		39.062500
4857		42.968750
4858		35.156250
4859		41.015625
4860		33.203125
4861		37.109375
4862		29.296875
4863		35.156250
4864		25.390625
4865		31.250000
4866		23.437500
4867		27.343750
4868		19.531250
4869		25.390625
4870		17.578125
4871		21.484375
4872		13.671875
4873		17.578125
4874		9.765625
4875		15.625000
4876		5.859375
4877		11.718750
4878		3.906250
4879		7.812500
4880		0.000000
4881		5.859375
4882		-3.906250
4883		1.953125
4884		-7.812500
4885		-1.953125
4886		-9.765625
4887		-5.859375
4888		-13.671875
4889		-9.765625
4890		-17.578125
4891		-11.718750
4892		-21.484375
4893		-15.625000
4894		-23.437500
4895		-17.578125
4896		-27.343750
4897		-21.484375
4898		-29.296875
4899		-25.390625
4900		-31.250000
4901		-27.343750
4902		-35.156250
4903		-31.250000
4904		-37.109375
4905		-33.203125
4906		-41.015625
4907		-37.109375
4908		-44.921875
4909		-39.062500
4910		-44.921875
4911		-41.015625
4912		-46.875000
4913		-42.968750
4914		-50.781250
4915		-44.921875
4916		-50.781250
4917		-48.828125
4918		-52.734375
4919		-48.828125
4920		-54.687500
4921		-50.781250
4922		-56.640625
4923		-52.734375
4924		-56.640625
4925		-54.687500
4926		-58.593750
4927		-54.687500
4928		-58.593750
4929		-56.640625
4930		-60.546875
4931		-56.640625
4932		-62.500000
4933		-56.640625
4934		-60.546875
4935		-58.593750
4936		-62.500000
4937		-58.593750
4938		-60.546875
4939		-58.593750
4940		-62.500000
4941		-58.593750
4942		-60.546875
4943		-58.593750
4944		-60.546875
4945		-56.640625
4946		-60.546875
4947		-56.640625
4948		-58.593750
4949		-54.687500
4950		-58.593750
4951		-54.687500
4952		-56.640625
4953		-54.687500
4954		-56.640625
4955		-52.734375
4956		-54.687500
4957		-50.781250
4958		-52.734375
4959		-48.828125
4960		-50.781250
4961		-46.875000
4962		-48.828125
4963		-44.921875
4964		-46.875000
4965		-42.968750
4966		-44.921875
4967		-41.015625
4968		-42.968750
4969		-39.062500
4970		-39.062500
4971		-35.156250
4972		-37.109375
4973		-31.250000
4974		-35.156250
4975		-29.296875
4976		-31.250000
4977		-27.343750
4978		-29.296875
4979		-23.437500
4980		-25.390625
4981		-21.484375
4982		-23.437500
4983		-17.578125
4984		-19.531250
4985		-15.625000
4986		-15.625000
4987		-9.765625
4988		-13.671875
4989		-7.812500
4990		-9.765625
4991		-3.906250
4992		-5.859375
4993		0.000000
4994		-1.953125
4995		1.953125
4996		0.000000
4997		5.859375
4998		3.906250
4999		9.765625
5000		7.812500
5001		11.718750
5002		9.765625
5003		15.625000
5004		13.671875
5005		19.531250
5006		17.578125
5007		21.484375
5008		19.531250
5009		25.390625
5010		23.437500
5011		29.296875
5012		27.343750
5013		33.203125
5014		29.296875
5015		35.156250
5016		33.203125
5017		37.109375
5018		37.109375
5019		41.015625
5020		39.062500
5021		42.968750
5022		41.015625
5023		46.875000
5024		44.921875
5025		50.781250
5026		46.875000
5027		50.781250
5028		50.781250
5029		54.687500
5030		52.734375
5031		56.640625
5032		54.687500
5033		58.593750
5034		56.640625
5035		60.546875
5036		58.593750
5037		62.500000
5038		60.546875
5039		64.453125
5040		62.500000
5041		66.406250
5042		64.453125
5043		68.359375
5044		66.406250
5045		70.312500
5046		68.359375
5047		72.265625
5048		68.359375
5049		72.265625
5050		70.312500
5051		74.218750
5052		72.265625
5053		74.218750
5054		72.265625
5055		76.171875
5056		72.265625
5057		76.171875
5058		74.218750
5059		76.171875
5060		74.218750
5061		78.125000
5062		74.218750
5063		78.125000
5064		74.218750
5065		78.125000
5066		74.218750
5067		78.125000
5068		74.218750
5069		76.171875
5070		74.218750
5071		76.171875
5072		72.265625
5073		76.171875
5074		72.265625
5075		76.171875
5076		72.265625
5077		74.218750
5078		70.312500
5079		74.218750
5080		68.359375
5081		72.265625
5082		68.359375
5083		72.265625
5084		66.406250
5085		70.312500
5086		66.406250
5087		68.359375
5088		64.453125
5089		68.359375
5090		60.546875
5091		66.406250
5092		58.593750
5093		64.453125
5094		58.593750
5095		62.500000
5096		54.687500
5097		60.546875
5098		52.734375
5099		56.640625
5100		50.781250
5101		54.687500
5102		48.828125
5103		52.734375
5104		44.921875
5105		50.781250
5106		42.968750
5107		46.875000
5108		41.015625
5109		44.921875
5110		37.109375
5111		42.968750
5112		33.203125
5113		39.062500
5114		31.250000
5115		35.156250
5116		27.343750
5117		33.203125
5118		25.390625
5119		29.296875
5120		21.484375
5121		25.390625
5122		17.578125
5123		23.437500
5124		15.625000
5125		21.484375
5126		11.718750
5127		17.578125
5128		7.812500
5129		11.718750
5130		3.906250
5131		9.765625
5132		0.000000
5133		5.859375
5134		-1.953125
5135		3.906250
5136		-5.859375
5137		0.000000
5138		-9.765625
5139		-3.906250
5140		-11.718750
5141		-7.812500
5142		-15.625000
5143		-9.765625
5144		-19.531250
5145		-13.671875
5146		-21.484375
5147		-17.578125
5148		-25.390625
5149		-19.531250
5150		-29.296875
5151		-23.437500
5152		-31.250000
5153		-27.343750
5154		-33.203125
5155		-29.296875
5156		-37.109375
5157		-31.250000
5158		-39.062500
5159		-35.156250
5160		-41.015625
5161		-37.109375
5162		-44.921875
5163		-41.015625
5164		-46.875000
5165		-42.968750
5166		-48.828125
5167		-44.921875
5168		-50.781250
5169		-46.875000
5170		-52.734375
5171		-48.828125
5172		-54.687500
5173		-50.781250
5174		-56.640625
5175		-50.781250
5176		-56.640625
5177		-52.734375
5178		-58.593750
5179		-54.687500
5180		-58.593750
5181		-54.687500
5182		-60.546875
5183		-56.640625
5184		-60.546875
5185		-56.640625
5186		-60.546875
5187		-58.593750
5188		-62.500000
5189		-58.593750
5190		-60.546875
5191		-58.593750
5192		-62.500000
5193		-58.593750
5194		-60.546875
5195		-58.593750
5196		-60.546875
5197		-56.640625
5198		-60.546875
5199		-56.640625
5200		-60.546875
5201		-56.640625
5202		-58.593750
5203		-56.640625
5204		-56.640625
5205		-54.687500
5206		-56.640625
5207		-52.734375
5208		-54.687500
5209		-50.781250
5210		-52.734375
5211		-48.828125
5212		-50.781250
5213		-48.828125
5214		-50.781250
5215		-44.921875
5216		-46.875000
5217		-42.968750
5218		-46.875000
5219		-41.015625
5220		-42.968750
5221		-39.062500
5222		-41.015625
5223		-37.109375
5224		-39.062500
5225		-33.203125
5226		-35.156250
5227		-31.250000
5228		-33.203125
5229		-27.343750
5230		-29.296875
5231		-25.390625
5232		-27.343750
5233		-21.484375
5234		-23.437500
5235		-19.531250
5236		-21.484375
5237		-15.625000
5238		-17.578125
5239		-13.671875
5240		-15.625000
5241		-9.765625
5242		-11.718750
5243		-5.859375
5244		-7.812500
5245		-1.953125
5246		-5.859375
5247		0.000000
5248		-1.953125
5249		3.906250
5250		1.953125
5251		7.812500
5252		5.859375
5253		9.765625
5254		9.765625
5255		13.671875
5256		13.671875
5257		17.578125
5258		15.625000
5259		21.484375
5260		19.531250
5261		23.437500
5262		23.437500
5263		27.343750
5264		25.390625
5265		31.250000
5266		27.343750
5267		33.203125
5268		31.250000
5269		37.109375
5270		35.156250
5271		39.062500
5272		39.062500
5273		42.968750
5274		41.015625
5275		46.875000
5276		42.968750
5277		48.828125
5278		46.875000
5279		50.781250
5280		48.828125
5281		52.734375
5282		50.781250
5283		56.640625
5284		52.734375
5285		58.593750
5286		56.640625
5287		60.546875
5288		58.593750
5289		62.500000
5290		60.546875
5291		64.453125
5292		62.500000
5293		66.406250
5294		64.453125
5295		68.359375
5296		66.406250
5297		70.312500
5298		66.406250
5299		70.312500
5300		68.359375
5301		72.265625
5302		68.359375
5303		72.265625
5304		72.265625
5305		74.218750
5306		72.265625
5307		76.171875
5308		72.265625
5309		76.171875
5310		72.265625
5311		76.171875
5312		74.218750
5313		76.171875
5314		74.218750
5315		78.125000
5316		74.218750
5317		78.125000
5318		74.218750
5319		78.125000
5320		74.218750
5321		76.171875
5322		74.218750
5323		76.171875
5324		72.265625
5325		76.171875
5326		72.265625
5327		76.171875
5328		72.265625
5329		74.218750
5330		72.265625
5331		74.218750
5332		70.312500
5333		74.218750
5334		68.359375
5335		72.265625
5336		68.359375
5337		72.265625
5338		66.406250
5339		70.312500
5340		64.453125
5341		68.359375
5342		62.500000
5343		66.406250
5344		60.546875
5345		64.453125
5346		58.593750
5347		62.500000
5348		56.640625
5349		60.546875
5350		54.687500
5351		58.593750
5352		52.734375
5353		56.640625
5354		48.828125
5355		52.734375
5356		46.875000
5357		50.781250
5358		42.968750
5359		48.828125
5360		41.015625
5361		44.921875
5362		39.062500
5363		42.968750
5364		35.156250
5365		41.015625
5366		31.250000
5367		37.109375
5368		29.296875
5369		33.203125
5370		25.390625
5371		31.250000
5372		23.437500
5373		27.343750
5374		19.531250
5375		25.390625
5376		15.625000
5377		21.484375
5378		11.718750
5379		17.578125
5380		9.765625
5381		13.671875
5382		5.859375
5383		11.718750
5384		1.953125
5385		7.812500
5386		0.000000
5387		3.906250
5388		-3.906250
5389		0.000000
5390		-7.812500
5391		-1.953125
5392		-11.718750
5393		-5.859375
5394		-15.625000
5395		-9.765625
5396		-17.578125
5397		-13.671875
5398		-21.484375
5399		-15.625000
5400		-23.437500
5401		-19.531250
5402		-27.343750
5403		-21.484375
5404		-31.250000
5405		-25.390625
5406		-33.203125
5407		-29.296875
5408		-35.156250
5409		-29.296875
5410		-39.062500
5411		-33.203125
5412		-41.015625
5413		-37.109375
5414		-42.968750
5415		-39.062500
5416		-44.921875
5417		-41.015625
5418		-48.828125
5419		-42.968750
5420		-48.828125
5421		-44.921875
5422		-50.781250
5423		-48.828125
5424		-52.734375
5425		-48.828125
5426		-54.687500
5427		-50.781250
5428		-56.640625
5429		-52.734375
5430		-58.593750
5431		-54.687500
5432		-58.593750
5433		-54.687500
5434		-60.546875
5435		-56.640625
5436		-60.546875
5437		-56.640625
5438		-60.546875
5439		-58.593750
5440		-62.500000
5441		-58.593750
5442		-62.500000
5443		-58.593750
5444		-62.500000
5445		-58.593750
5446		-62.500000
5447		-58.593750
5448		-60.546875
5449		-58.593750
5450		-60.546875
5451		-56.640625
5452		-60.546875
5453		-56.640625
5454		-58.593750
5455		-56.640625
5456		-58.593750
5457		-54.687500
5458		-58.593750
5459		-52.734375
5460		-54.687500
5461		-52.734375
5462		-54.687500
5463		-50.781250
5464		-52.734375
5465		-48.828125
5466		-50.781250
5467		-46.875000
5468		-48.828125
5469		-44.921875
5470		-46.875000
5471		-42.968750
5472		-44.921875
5473		-41.015625
5474		-42.968750
5475		-37.109375
5476		-39.062500
5477		-35.156250
5478		-37.109375
5479		-31.250000
5480		-33.203125
5481		-29.296875
5482		-31.250000
5483		-25.390625
5484		-29.296875
5485		-23.437500
5486		-25.390625
5487		-21.484375
5488		-21.484375
5489		-17.578125
5490		-19.531250
5491		-13.671875
5492		-15.625000
5493		-11.718750
5494		-11.718750
5495		-5.859375
5496		-9.765625
5497		-3.906250
5498		-5.859375
5499		0.000000
5500		-1.953125
5501		1.953125
5502		0.000000
5503		5.859375
5504		3.906250
5505		9.765625
5506		7.812500
5507		13.671875
5508		11.718750
5509		15.625000
5510		13.671875
5511		19.531250
5512		17.578125
5513		23.437500
5514		19.531250
5515		27.343750
5516		25.390625
5517		29.296875
5518		27.343750
5519		33.203125
5520		31.250000
5521		35.156250
5522		33.203125
5523		39.062500
5524		37.109375
5525		42.968750
5526		39.062500
5527		44.921875
5528		42.968750
5529		46.875000
5530		44.921875
5531		48.828125
5532		48.828125
5533		52.734375
5534		48.828125
5535		54.687500
5536		52.734375
5537		58.593750
5538		54.687500
5539		58.593750
5540		56.640625
5541		60.546875
5542		58.593750
5543		64.453125
5544		60.546875
5545		64.453125
5546		62.500000
5547		66.406250
5548		64.453125
5549		68.359375
5550		66.406250
5551		70.312500
5552		68.359375
5553		70.312500
5554		68.359375
5555		72.265625
5556		70.312500
5557		72.265625
5558		72.265625
5559		74.218750
5560		72.265625
5561		76.171875
5562		72.265625
5563		76.171875
5564		74.218750
5565		76.171875
5566		74.218750
5567		76.171875
5568		74.218750
5569		78.125000
5570		74.218750
5571		78.125000
5572		74.218750
5573		76.171875
5574		74.218750
5575		76.171875
5576		72.265625
5577		76.171875
5578		72.265625
5579		76.171875
5580		72.265625
5581		76.171875
5582		70.312500
5583		76.171875
5584		70.312500
5585		74.218750
5586		70.312500
5587		72.265625
5588		68.359375
5589		72.265625
5590		66.406250
5591		70.312500
5592		64.453125
5593		68.359375
5594		62.500000
5595		68.359375
5596		62.500000
5597		64.453125
5598		58.593750
5599		64.453125
5600		56.640625
5601		60.546875
5602		54.687500
5603		58.593750
5604		52.734375
5605		56.640625
5606		50.781250
5607		54.687500
5608		46.875000
5609		52.734375
5610		44.921875
5611		48.828125
5612		42.968750
5613		46.875000
5614		39.062500
5615		42.968750
5616		37.109375
5617		41.015625
5618		33.203125
5619		37.109375
5620		29.296875
5621		35.156250
5622		27.343750
5623		31.250000
5624		23.437500
5625		27.343750
5626		19.531250
5627		25.390625
5628		17.578125
5629		23.437500
5630		13.671875
5631		19.531250
5632		9.765625
5633		15.625000
5634		5.859375
5635		11.718750
5636		3.906250
5637		7.812500
5638		0.000000
5639		5.859375
5640		-3.906250
5641		1.953125
5642		-7.812500
5643		-1.953125
5644		-9.765625
5645		-3.906250
5646		-13.671875
5647		-7.812500
5648		-15.625000
5649		-11.718750
5650		-19.531250
5651		-15.625000
5652		-23.437500
5653		-17.578125
5654		-25.390625
5655		-21.484375
5656		-29.296875
5657		-25.390625
5658		-31.250000
5659		-27.343750
5660		-35.156250
5661		-29.296875
5662		-39.062500
5663		-33.203125
5664		-41.015625
5665		-35.156250
5666		-42.968750
5667		-39.062500
5668		-44.921875
5669		-41.015625
5670		-46.875000
5671		-42.968750
5672		-48.828125
5673		-44.921875
5674		-50.781250
5675		-46.875000
5676		-52.734375
5677		-48.828125
5678		-54.687500
5679		-50.781250
5680		-56.640625
5681		-52.734375
5682		-58.593750
5683		-54.687500
5684		-58.593750
5685		-54.687500
5686		-60.546875
5687		-56.640625
5688		-60.546875
5689		-56.640625
5690		-60.546875
5691		-58.593750
5692		-60.546875
5693		-58.593750
5694		-62.500000
5695		-58.593750
5696		-62.500000
5697		-58.593750
5698		-62.500000
5699		-58.593750
5700		-62.500000
5701		-58.593750
5702		-62.500000
5703		-58.593750
5704		-60.546875
5705		-56.640625
5706		-58.593750
5707		-56.640625
5708		-58.593750
5709		-56.640625
5710		-58.593750
5711		-54.687500
5712		-56.640625
5713		-52.734375
5714		-56.640625
5715		-50.781250
5716		-52.734375
5717		-48.828125
5718		-52.734375
5719		-46.875000
5720		-50.781250
5721		-44.921875
5722		-46.875000
5723		-42.968750
5724		-46.875000
5725		-41.015625
5726		-42.968750
5727		-39.062500
5728		-41.015625
5729		-35.156250
5730		-39.062500
5731		-33.203125
5732		-35.156250
5733		-31.250000
5734		-33.203125
5735		-27.343750
5736		-29.296875
5737		-25.390625
5738		-27.343750
5739		-21.484375
5740		-23.437500
5741		-19.531250
5742		-19.531250
5743		-15.625000
5744		-17.578125
5745		-11.718750
5746		-13.671875
5747		-9.765625
5748		-11.718750
5749		-5.859375
5750		-7.812500
5751		-1.953125
5752		-3.906250
5753		0.000000
5754		0.000000
5755		3.906250
5756		1.953125
5757		7.812500
5758		5.859375
5759		11.718750
5760		9.765625
5761		13.671875
5762		13.671875
5763		17.578125
5764		15.625000
5765		21.484375
5766		19.531250
5767		25.390625
5768		23.437500
5769		27.343750
5770		25.390625
5771		31.250000
5772		29.296875
5773		33.203125
5774		33.203125
5775		37.109375
5776		35.156250
5777		39.062500
5778		37.109375
5779		42.968750
5780		41.015625
5781		44.921875
5782		44.921875
5783		48.828125
5784		46.875000
5785		50.781250
5786		48.828125
5787		54.687500
5788		52.734375
5789		56.640625
5790		54.687500
5791		58.593750
5792		56.640625
5793		60.546875
5794		58.593750
5795		62.500000
5796		60.546875
5797		64.453125
5798		62.500000
5799		66.406250
5800		62.500000
5801		68.359375
5802		64.453125
5803		70.312500
5804		66.406250
5805		72.265625
5806		68.359375
5807		72.265625
5808		70.312500
5809		72.265625
5810		70.312500
5811		74.218750
5812		70.312500
5813		76.171875
5814		72.265625
5815		76.171875
5816		72.265625
5817		76.171875
5818		72.265625
5819		76.171875
5820		74.218750
5821		78.125000
5822		74.218750
5823		78.125000
5824		74.218750
5825		76.171875
5826		74.218750
5827		76.171875
5828		72.265625
5829		76.171875
5830		72.265625
5831		76.171875
5832		72.265625
5833		76.171875
5834		70.312500
5835		76.171875
5836		70.312500
5837		74.218750
5838		68.359375
5839		72.265625
5840		68.359375
5841		72.265625
5842		66.406250
5843		70.312500
5844		64.453125
5845		70.312500
5846		62.500000
5847		68.359375
5848		60.546875
5849		66.406250
5850		58.593750
5851		64.453125
5852		56.640625
5853		62.500000
5854		54.687500
5855		60.546875
5856		52.734375
5857		58.593750
5858		50.781250
5859		54.687500
5860		48.828125
5861		52.734375
5862		44.921875
5863		50.781250
5864		42.968750
5865		48.828125
5866		39.062500
5867		44.921875
5868		35.156250
5869		42.968750
5870		33.203125
5871		41.015625
5872		31.250000
5873		37.109375
5874		27.343750
5875		33.203125
5876		25.390625
5877		29.296875
5878		19.531250
5879		27.343750
5880		17.578125
5881		23.437500
5882		13.671875
5883		21.484375
5884		9.765625
5885		17.578125
5886		7.812500
5887		13.671875
5888		3.906250
5889		9.765625
5890		1.953125
5891		7.812500
5892		-1.953125
5893		1.953125
5894		-5.859375
5895		0.000000
5896		-9.765625
5897		-1.953125
5898		-13.671875
5899		-5.859375
5900		-17.578125
5901		-9.765625
5902		-19.531250
5903		-13.671875
5904		-23.437500
5905		-15.625000
5906		-25.390625
5907		-19.531250
5908		-27.343750
5909		-23.437500
5910		-31.250000
5911		-27.343750
5912		-33.203125
5913		-29.296875
5914		-37.109375
5915		-33.203125
5916		-39.062500
5917		-35.156250
5918		-41.015625
5919		-37.109375
5920		-44.921875
5921		-39.062500
5922		-46.875000
5923		-42.968750
5924		-48.828125
5925		-44.921875
5926		-50.781250
5927		-46.875000
5928		-52.734375
5929		-48.828125
5930		-54.687500
5931		-50.781250
5932		-54.687500
5933		-52.734375
5934		-56.640625
5935		-52.734375
5936		-58.593750
5937		-54.687500
5938		-58.593750
5939		-56.640625
5940		-60.546875
5941		-56.640625
5942		-60.546875
5943		-58.593750
5944		-60.546875
5945		-58.593750
5946		-60.546875
5947		-58.593750
5948		-60.546875
5949		-58.593750
5950		-60.546875
5951		-58.593750
5952		-60.546875
5953		-58.593750
5954		-60.546875
5955		-58.593750
5956		-60.546875
5957		-58.593750
5958		-58.593750
5959		-56.640625
5960		-58.593750
5961		-56.640625
5962		-58.593750
5963		-54.687500
5964		-56.640625
5965		-52.734375
5966		-54.687500
5967		-52.734375
5968		-52.734375
5969		-50.781250
5970		-52.734375
5971		-48.828125
5972		-50.781250
5973		-46.875000
5974		-48.828125
5975		-44.921875
5976		-46.875000
5977		-42.968750
5978		-42.968750
5979		-39.062500
5980		-41.015625
5981		-37.109375
5982		-39.062500
5983		-35.156250
5984		-35.156250
5985		-31.250000
5986		-33.203125
5987		-29.296875
5988		-31.250000
5989		-25.390625
5990		-27.343750
5991		-23.437500
5992		-25.390625
5993		-19.531250
5994		-21.484375
5995		-17.578125
5996		-17.578125
5997		-13.671875
5998		-15.625000
5999		-9.765625
6000		-11.718750
6001		-5.859375
6002		-7.812500
6003		-3.906250
6004		-5.859375
6005		0.000000
6006		-1.953125
6007		3.906250
6008		1.953125
6009		5.859375
6010		5.859375
6011		9.765625
6012		7.812500
6013		15.625000
6014		11.718750
6015		19.531250
6016		11.718750
6017		23.437500
6018		15.625000
6019		23.437500
6020		21.484375
6021		27.343750
6022		25.390625
6023		29.296875
6024		29.296875
6025		33.203125
6026		31.250000
6027		35.156250
6028		35.156250
6029		39.062500
6030		35.156250
6031		42.968750
6032		37.109375
6033		48.828125
6034		41.015625
6035		48.828125
6036		46.875000
6037		50.781250
6038		48.828125
6039		52.734375
6040		50.781250
6041		54.687500
6042		52.734375
6043		58.593750
6044		56.640625
6045		58.593750
6046		56.640625
6047		64.453125
6048		56.640625
6049		66.406250
6050		60.546875
6051		70.312500
6052		64.453125
6053		66.406250
6054		64.453125
6055		68.359375
6056		66.406250
6057		70.312500
6058		68.359375
6059		70.312500
6060		70.312500
6061		72.265625
6062		68.359375
6063		76.171875
6064		66.406250
6065		78.125000
6066		68.359375
6067		78.125000
6068		70.312500
6069		80.078125
6070		74.218750
6071		76.171875
6072		74.218750
6073		76.171875
6074		74.218750
6075		76.171875
6076		74.218750
6077		78.125000
6078		74.218750
6079		76.171875
6080		70.312500
6081		80.078125
6082		70.312500
6083		80.078125
6084		70.312500
6085		78.125000
6086		72.265625
6087		74.218750
6088		70.312500
6089		74.218750
6090		70.312500
6091		72.265625
6092		68.359375
6093		72.265625
6094		68.359375
6095		70.312500
6096		62.500000
6097		72.265625
6098		60.546875
6099		72.265625
6100		60.546875
6101		70.312500
6102		58.593750
6103		68.359375
6104		58.593750
6105		62.500000
6106		56.640625
6107		60.546875
6108		54.687500
6109		58.593750
6110		52.734375
6111		56.640625
6112		48.828125
6113		54.687500
6114		44.921875
6115		54.687500
6116		42.968750
6117		52.734375
6118		39.062500
6119		48.828125
6120		37.109375
6121		42.968750
6122		35.156250
6123		39.062500
6124		33.203125
6125		37.109375
6126		29.296875
6127		33.203125
6128		25.390625
6129		31.250000
6130		19.531250
6131		29.296875
6132		15.625000
6133		27.343750
6134		11.718750
6135		23.437500
6136		13.671875
6137		17.578125
6138		9.765625
6139		13.671875
6140		5.859375
6141		11.718750
6142		1.953125
6143		7.812500
6144		0.000000
6145		3.906250
6146		-7.812500
6147		1.953125
6148		-9.765625
6149		1.953125
6150		-13.671875
6151		-3.906250
6152		-15.625000
6153		-5.859375
6154		-17.578125
6155		-13.671875
6156		-21.484375
6157		-15.625000
6158		-23.437500
6159		-19.531250
6160		-27.343750
6161		-21.484375
6162		-29.296875
6163		-25.390625
6164		-35.156250
6165		-25.390625
6166		-39.062500
6167		-27.343750
6168		-41.015625
6169		-31.250000
6170		-41.015625
6171		-37.109375
6172		-42.968750
6173		-39.062500
6174		-44.921875
6175		-41.015625
6176		-48.828125
6177		-44.921875
6178		-48.828125
6179		-46.875000
6180		-56.640625
6181		-46.875000
6182		-56.640625
6183		-46.875000
6184		-58.593750
6185		-48.828125
6186		-58.593750
6187		-50.781250
6188		-58.593750
6189		-54.687500
6190		-58.593750
6191		-56.640625
6192		-58.593750
6193		-56.640625
6194		-60.546875
6195		-58.593750
6196		-60.546875
6197		-58.593750
6198		-60.546875
6199		-58.593750
6200		-64.453125
6201		-56.640625
6202		-64.453125
6203		-56.640625
6204		-60.546875
6205		-58.593750
6206		-60.546875
6207		-58.593750
6208		-60.546875
6209		-58.593750
6210		-60.546875
6211		-56.640625
6212		-58.593750
6213		-56.640625
6214		-58.593750
6215		-54.687500
6216		-58.593750
6217		-50.781250
6218		-58.593750
6219		-50.781250
6220		-54.687500
6221		-50.781250
6222		-52.734375
6223		-48.828125
6224		-50.781250
6225		-46.875000
6226		-48.828125
6227		-44.921875
6228		-46.875000
6229		-42.968750
6230		-44.921875
6231		-39.062500
6232		-42.968750
6233		-35.156250
6234		-41.015625
6235		-35.156250
6236		-39.062500
6237		-33.203125
6238		-35.156250
6239		-31.250000
6240		-31.250000
6241		-27.343750
6242		-29.296875
6243		-23.437500
6244		-25.390625
6245		-21.484375
6246		-23.437500
6247		-17.578125
6248		-19.531250
6249		-15.625000
6250		-15.625000
6251		-11.718750
6252		-13.671875
6253		-7.812500
6254		-9.765625
6255		-5.859375
6256		-5.859375
6257		-1.953125
6258		-1.953125
6259		1.953125
6260		0.000000
6261		5.859375
6262		3.906250
6263		7.812500
6264		7.812500
6265		11.718750
6266		9.765625
6267		15.625000
6268		13.671875
6269		17.578125
6270		17.578125
6271		21.484375
6272		19.531250
6273		25.390625
6274		23.437500
6275		27.343750
6276		27.343750
6277		31.250000
6278		29.296875
6279		35.156250
6280		33.203125
6281		37.109375
6282		35.156250
6283		41.015625
6284		39.062500
6285		42.968750
6286		42.968750
6287		46.875000
6288		44.921875
6289		48.828125
6290		46.875000
6291		50.781250
6292		50.781250
6293		54.687500
6294		52.734375
6295		56.640625
6296		54.687500
6297		58.593750
6298		56.640625
6299		60.546875
6300		58.593750
6301		62.500000
6302		60.546875
6303		64.453125
6304		62.500000
6305		66.406250
6306		64.453125
6307		68.359375
6308		66.406250
6309		70.312500
6310		68.359375
6311		70.312500
6312		70.312500
6313		72.265625
6314		70.312500
6315		74.218750
6316		70.312500
6317		74.218750
6318		72.265625
6319		74.218750
6320		74.218750
6321		76.171875
6322		72.265625
6323		78.125000
6324		74.218750
6325		76.171875
6326		74.218750
6327		76.171875
6328		74.218750
6329		76.171875
6330		74.218750
6331		76.171875
6332		74.218750
6333		76.171875
6334		74.218750
6335		76.171875
6336		72.265625
6337		78.125000
6338		72.265625
6339		76.171875
6340		72.265625
6341		76.171875
6342		70.312500
6343		74.218750
6344		70.312500
6345		72.265625
6346		68.359375
6347		70.312500
6348		66.406250
6349		70.312500
6350		64.453125
6351		68.359375
6352		64.453125
6353		66.406250
6354		62.500000
6355		64.453125
6356		58.593750
6357		64.453125
6358		58.593750
6359		62.500000
6360		54.687500
6361		58.593750
6362		52.734375
6363		56.640625
6364		50.781250
6365		54.687500
6366		46.875000
6367		54.687500
6368		44.921875
6369		50.781250
6370		42.968750
6371		46.875000
6372		39.062500
6373		42.968750
6374		37.109375
6375		41.015625
6376		33.203125
6377		39.062500
6378		31.250000
6379		35.156250
6380		27.343750
6381		31.250000
6382		23.437500
6383		29.296875
6384		21.484375
6385		27.343750
6386		17.578125
6387		21.484375
6388		13.671875
6389		19.531250
6390		9.765625
6391		15.625000
6392		7.812500
6393		11.718750
6394		3.906250
6395		7.812500
6396		0.000000
6397		5.859375
6398		-3.906250
6399		1.953125
6400		-5.859375
6401		-1.953125
6402		-9.765625
6403		-3.906250
6404		-13.671875
6405		-7.812500
6406		-15.625000
6407		-11.718750
6408		-19.531250
6409		-13.671875
6410		-23.437500
6411		-17.578125
6412		-25.390625
6413		-21.484375
6414		-29.296875
6415		-25.390625
6416		-31.250000
6417		-25.390625
6418		-35.156250
6419		-29.296875
6420		-37.109375
6421		-33.203125
6422		-41.015625
6423		-35.156250
6424		-42.968750
6425		-37.109375
6426		-44.921875
6427		-41.015625
6428		-46.875000
6429		-42.968750
6430		-48.828125
6431		-44.921875
6432		-52.734375
6433		-46.875000
6434		-52.734375
6435		-48.828125
6436		-54.687500
6437		-50.781250
6438		-56.640625
6439		-52.734375
6440		-56.640625
6441		-52.734375
6442		-58.593750
6443		-54.687500
6444		-58.593750
6445		-56.640625
6446		-60.546875
6447		-56.640625
6448		-60.546875
6449		-58.593750
6450		-62.500000
6451		-56.640625
6452		-62.500000
6453		-58.593750
6454		-60.546875
6455		-58.593750
6456		-62.500000
6457		-58.593750
6458		-62.500000
6459		-58.593750
6460		-60.546875
6461		-58.593750
6462		-60.546875
6463		-58.593750
6464		-58.593750
6465		-56.640625
6466		-58.593750
6467		-54.687500
6468		-58.593750
6469		-54.687500
6470		-56.640625
6471		-52.734375
6472		-54.687500
6473		-50.781250
6474		-54.687500
6475		-48.828125
6476		-52.734375
6477		-48.828125
6478		-48.828125
6479		-46.875000
6480		-48.828125
6481		-44.921875
6482		-44.921875
6483		-41.015625
6484		-42.968750
6485		-39.062500
6486		-41.015625
6487		-37.109375
6488		-39.062500
6489		-35.156250
6490		-35.156250
6491		-31.250000
6492		-33.203125
6493		-29.296875
6494		-29.296875
6495		-25.390625
6496		-27.343750
6497		-21.484375
6498		-23.437500
6499		-19.531250
6500		-21.484375
6501		-15.625000
6502		-17.578125
6503		-13.671875
6504		-13.671875
6505		-9.765625
6506		-11.718750
6507		-5.859375
6508		-7.812500
6509		-3.906250
6510		-3.906250
6511		0.000000
6512		0.000000
6513		3.906250
6514		1.953125
6515		7.812500
6516		5.859375
6517		9.765625
6518		9.765625
6519		13.671875
6520		13.671875
6521		17.578125
6522		15.625000
6523		21.484375
6524		19.531250
6525		23.437500
6526		21.484375
6527		27.343750
6528		25.390625
6529		31.250000
6530		29.296875
6531		33.203125
6532		31.250000
6533		37.109375
6534		35.156250
6535		39.062500
6536		37.109375
6537		42.968750
6538		41.015625
6539		44.921875
6540		42.968750
6541		48.828125
6542		46.875000
6543		50.781250
6544		48.828125
6545		52.734375
6546		50.781250
6547		56.640625
6548		54.687500
6549		58.593750
6550		56.640625
6551		60.546875
6552		58.593750
6553		62.500000
6554		60.546875
6555		64.453125
6556		62.500000
6557		66.406250
6558		64.453125
6559		66.406250
6560		66.406250
6561		68.359375
6562		66.406250
6563		70.312500
6564		68.359375
6565		70.312500
6566		70.312500
6567		72.265625
6568		70.312500
6569		74.218750
6570		72.265625
6571		74.218750
6572		72.265625
6573		74.218750
6574		74.218750
6575		76.171875
6576		74.218750
6577		76.171875
6578		74.218750
6579		78.125000
6580		74.218750
6581		76.171875
6582		74.218750
6583		76.171875
6584		74.218750
6585		76.171875
6586		74.218750
6587		76.171875
6588		72.265625
6589		76.171875
6590		72.265625
6591		76.171875
6592		72.265625
6593		74.218750
6594		70.312500
6595		74.218750
6596		70.312500
6597		72.265625
6598		68.359375
6599		72.265625
6600		66.406250
6601		70.312500
6602		66.406250
6603		70.312500
6604		64.453125
6605		66.406250
6606		62.500000
6607		66.406250
6608		60.546875
6609		64.453125
6610		58.593750
6611		62.500000
6612		56.640625
6613		60.546875
6614		54.687500
6615		58.593750
6616		50.781250
6617		54.687500
6618		48.828125
6619		54.687500
6620		46.875000
6621		50.781250
6622		42.968750
6623		46.875000
6624		39.062500
6625		44.921875
6626		37.109375
6627		42.968750
6628		35.156250
6629		39.062500
6630		31.250000
6631		35.156250
6632		29.296875
6633		33.203125
6634		23.437500
6635		29.296875
6636		21.484375
6637		27.343750
6638		17.578125
6639		23.437500
6640		15.625000
6641		19.531250
6642		11.718750
6643		15.625000
6644		7.812500
6645		13.671875
6646		5.859375
6647		9.765625
6648		1.953125
6649		7.812500
6650		-1.953125
6651		3.906250
6652		-5.859375
6653		1.953125
6654		-7.812500
6655		-1.953125
6656		-11.718750
6657		-7.812500
6658		-15.625000
6659		-9.765625
6660		-17.578125
6661		-13.671875
6662		-21.484375
6663		-17.578125
6664		-25.390625
6665		-19.531250
6666		-27.343750
6667		-23.437500
6668		-31.250000
6669		-25.390625
6670		-33.203125
6671		-27.343750
6672		-37.109375
6673		-31.250000
6674		-39.062500
6675		-35.156250
6676		-41.015625
6677		-37.109375
6678		-42.968750
6679		-41.015625
6680		-46.875000
6681		-42.968750
6682		-48.828125
6683		-44.921875
6684		-52.734375
6685		-46.875000
6686		-54.687500
6687		-46.875000
6688		-54.687500
6689		-48.828125
6690		-54.687500
6691		-52.734375
6692		-56.640625
6693		-54.687500
6694		-58.593750
6695		-54.687500
6696		-58.593750
6697		-56.640625
6698		-58.593750
6699		-56.640625
6700		-60.546875
6701		-58.593750
6702		-62.500000
6703		-56.640625
6704		-62.500000
6705		-56.640625
6706		-60.546875
6707		-58.593750
6708		-62.500000
6709		-58.593750
6710		-60.546875
6711		-58.593750
6712		-60.546875
6713		-58.593750
6714		-60.546875
6715		-58.593750
6716		-60.546875
6717		-56.640625
6718		-60.546875
6719		-54.687500
6720		-60.546875
6721		-52.734375
6722		-56.640625
6723		-54.687500
6724		-54.687500
6725		-52.734375
6726		-54.687500
6727		-50.781250
6728		-52.734375
6729		-48.828125
6730		-50.781250
6731		-46.875000
6732		-48.828125
6733		-44.921875
6734		-46.875000
6735		-42.968750
6736		-46.875000
6737		-39.062500
6738		-42.968750
6739		-37.109375
6740		-39.062500
6741		-35.156250
6742		-37.109375
6743		-31.250000
6744		-33.203125
6745		-29.296875
6746		-31.250000
6747		-27.343750
6748		-27.343750
6749		-23.437500
6750		-25.390625
6751		-19.531250
6752		-21.484375
6753		-15.625000
6754		-19.531250
6755		-13.671875
6756		-15.625000
6757		-11.718750
6758		-11.718750
6759		-7.812500
6760		-7.812500
6761		-3.906250
6762		-5.859375
6763		0.000000
6764		-1.953125
6765		1.953125
6766		1.953125
6767		5.859375
6768		3.906250
6769		11.718750
6770		5.859375
6771		13.671875
6772		9.765625
6773		15.625000
6774		15.625000
6775		19.531250
6776		17.578125
6777		23.437500
6778		21.484375
6779		25.390625
6780		25.390625
6781		29.296875
6782		27.343750
6783		33.203125
6784		31.250000
6785		35.156250
6786		33.203125
6787		39.062500
6788		35.156250
6789		41.015625
6790		39.062500
6791		44.921875
6792		42.968750
6793		46.875000
6794		44.921875
6795		48.828125
6796		48.828125
6797		52.734375
6798		50.781250
6799		54.687500
6800		52.734375
6801		56.640625
6802		54.687500
6803		60.546875
6804		56.640625
6805		62.500000
6806		60.546875
6807		62.500000
6808		62.500000
6809		64.453125
6810		64.453125
6811		66.406250
6812		64.453125
6813		68.359375
6814		66.406250
6815		70.312500
6816		68.359375
6817		72.265625
6818		70.312500
6819		72.265625
6820		70.312500
6821		74.218750
6822		72.265625
6823		74.218750
6824		72.265625
6825		76.171875
6826		74.218750
6827		76.171875
6828		74.218750
6829		76.171875
6830		74.218750
6831		76.171875
6832		74.218750
6833		76.171875
6834		74.218750
6835		76.171875
6836		74.218750
6837		78.125000
6838		74.218750
6839		76.171875
6840		72.265625
6841		76.171875
6842		72.265625
6843		76.171875
6844		72.265625
6845		76.171875
6846		72.265625
6847		74.218750
6848		70.312500
6849		74.218750
6850		70.312500
6851		72.265625
6852		66.406250
6853		72.265625
6854		66.406250
6855		70.312500
6856		64.453125
6857		68.359375
6858		62.500000
6859		66.406250
6860		60.546875
6861		64.453125
6862		60.546875
6863		62.500000
6864		56.640625
6865		60.546875
6866		54.687500
6867		58.593750
6868		52.734375
6869		56.640625
6870		50.781250
6871		54.687500
6872		46.875000
6873		50.781250
6874		44.921875
6875		48.828125
6876		42.968750
6877		46.875000
6878		39.062500
6879		42.968750
6880		37.109375
6881		41.015625
6882		33.203125
6883		37.109375
6884		29.296875
6885		35.156250
6886		27.343750
6887		31.250000
6888		23.437500
6889		27.343750
6890		19.531250
6891		25.390625
6892		15.625000
6893		21.484375
6894		13.671875
6895		17.578125
6896		9.765625
6897		15.625000
6898		5.859375
6899		11.718750
6900		3.906250
6901		7.812500
6902		0.000000
6903		3.906250
6904		-3.906250
6905		1.953125
6906		-7.812500
6907		-1.953125
6908		-9.765625
6909		-5.859375
6910		-13.671875
6911		-9.765625
6912		-17.578125
6913		-11.718750
6914		-19.531250
6915		-15.625000
6916		-23.437500
6917		-17.578125
6918		-25.390625
6919		-21.484375
6920		-29.296875
6921		-25.390625
6922		-33.203125
6923		-27.343750
6924		-35.156250
6925		-31.250000
6926		-37.109375
6927		-33.203125
6928		-41.015625
6929		-37.109375
6930		-42.968750
6931		-39.062500
6932		-44.921875
6933		-41.015625
6934		-46.875000
6935		-42.968750
6936		-48.828125
6937		-44.921875
6938		-50.781250
6939		-48.828125
6940		-52.734375
6941		-50.781250
6942		-54.687500
6943		-50.781250
6944		-56.640625
6945		-52.734375
6946		-56.640625
6947		-54.687500
6948		-58.593750
6949		-56.640625
6950		-58.593750
6951		-56.640625
6952		-60.546875
6953		-56.640625
6954		-60.546875
6955		-58.593750
6956		-60.546875
6957		-58.593750
6958		-60.546875
6959		-58.593750
6960		-60.546875
6961		-58.593750
6962		-60.546875
6963		-58.593750
6964		-60.546875
6965		-58.593750
6966		-60.546875
6967		-58.593750
6968		-60.546875
6969		-56.640625
6970		-58.593750
6971		-56.640625
6972		-58.593750
6973		-54.687500
6974		-56.640625
6975		-54.687500
6976		-56.640625
6977		-52.734375
6978		-54.687500
6979		-50.781250
6980		-52.734375
6981		-48.828125
6982		-50.781250
6983		-46.875000
6984		-48.828125
6985		-44.921875
6986		-46.875000
6987		-42.968750
6988		-44.921875
6989		-41.015625
6990		-42.968750
6991		-39.062500
6992		-39.062500
6993		-35.156250
6994		-37.109375
6995		-33.203125
6996		-35.156250
6997		-31.250000
6998		-31.250000
6999		-27.343750
7000		-29.296875
7001		-23.437500
7002		-25.390625
7003		-21.484375
7004		-23.437500
7005		-17.578125
7006		-19.531250
7007		-15.625000
7008		-15.625000
7009		-11.718750
7010		-13.671875
7011		-7.812500
7012		-9.765625
7013		-5.859375
7014		-5.859375
7015		-1.953125
7016		-3.906250
7017		1.953125
7018		0.000000
7019		3.906250
7020		3.906250
7021		7.812500
7022		7.812500
7023		11.718750
7024		9.765625
7025		15.625000
7026		13.671875
7027		17.578125
7028		17.578125
7029		21.484375
7030		19.531250
7031		25.390625
7032		23.437500
7033		27.343750
7034		27.343750
7035		31.250000
7036		29.296875
7037		35.156250
7038		33.203125
7039		37.109375
7040		35.156250
7041		41.015625
7042		39.062500
7043		42.968750
7044		41.015625
7045		44.921875
7046		44.921875
7047		48.828125
7048		46.875000
7049		50.781250
7050		50.781250
7051		54.687500
7052		52.734375
7053		56.640625
7054		54.687500
7055		58.593750
7056		56.640625
7057		60.546875
7058		58.593750
7059		62.500000
7060		60.546875
7061		64.453125
7062		62.500000
7063		66.406250
7064		64.453125
7065		68.359375
7066		66.406250
7067		70.312500
7068		68.359375
7069		70.312500
7070		68.359375
7071		72.265625
7072		70.312500
7073		72.265625
7074		72.265625
7075		74.218750
7076		72.265625
7077		74.218750
7078		74.218750
7079		76.171875
7080		74.218750
7081		76.171875
7082		74.218750
7083		76.171875
7084		74.218750
7085		76.171875
7086		74.218750
7087		76.171875
7088		74.218750
7089		76.171875
7090		74.218750
7091		76.171875
7092		74.218750
7093		76.171875
7094		72.265625
7095		76.171875
7096		72.265625
7097		76.171875
7098		72.265625
7099		74.218750
7100		70.312500
7101		74.218750
7102		70.312500
7103		72.265625
7104		68.359375
7105		72.265625
7106		68.359375
7107		70.312500
7108		66.406250
7109		68.359375
7110		64.453125
7111		66.406250
7112		62.500000
7113		66.406250
7114		60.546875
7115		64.453125
7116		58.593750
7117		62.500000
7118		56.640625
7119		60.546875
7120		52.734375
7121		56.640625
7122		50.781250
7123		54.687500
7124		48.828125
7125		52.734375
7126		44.921875
7127		50.781250
7128		42.968750
7129		46.875000
7130		41.015625
7131		44.921875
7132		37.109375
7133		42.968750
7134		35.156250
7135		39.062500
7136		31.250000
7137		35.156250
7138		27.343750
7139		33.203125
7140		25.390625
7141		29.296875
7142		21.484375
7143		27.343750
7144		17.578125
7145		23.437500
7146		15.625000
7147		19.531250
7148		11.718750
7149		15.625000
7150		7.812500
7151		13.671875
7152		5.859375
7153		9.765625
7154		1.953125
7155		5.859375
7156		-1.953125
7157		1.953125
7158		-5.859375
7159		0.000000
7160		-7.812500
7161		-3.906250
7162		-11.718750
7163		-7.812500
7164		-15.625000
7165		-9.765625
7166		-19.531250
7167		-13.671875
7168		-21.484375
7169		-17.578125
7170		-25.390625
7171		-19.531250
7172		-27.343750
7173		-23.437500
7174		-31.250000
7175		-27.343750
7176		-33.203125
7177		-29.296875
7178		-37.109375
7179		-33.203125
7180		-39.062500
7181		-35.156250
7182		-41.015625
7183		-37.109375
7184		-44.921875
7185		-41.015625
7186		-46.875000
7187		-42.968750
7188		-48.828125
7189		-44.921875
7190		-50.781250
7191		-46.875000
7192		-52.734375
7193		-48.828125
7194		-54.687500
7195		-50.781250
7196		-54.687500
7197		-52.734375
7198		-56.640625
7199		-52.734375
7200		-58.593750
7201		-54.687500
7202		-58.593750
7203		-56.640625
7204		-60.546875
7205		-56.640625
7206		-60.546875
7207		-58.593750
7208		-60.546875
7209		-58.593750
7210		-60.546875
7211		-58.593750
7212		-60.546875
7213		-58.593750
7214		-60.546875
7215		-58.593750
7216		-60.546875
7217		-58.593750
7218		-60.546875
7219		-58.593750
7220		-60.546875
7221		-56.640625
7222		-58.593750
7223		-56.640625
7224		-58.593750
7225		-56.640625
7226		-56.640625
7227		-54.687500
7228		-56.640625
7229		-52.734375
7230		-54.687500
7231		-52.734375
7232		-52.734375
7233		-50.781250
7234		-50.781250
7235		-48.828125
7236		-48.828125
7237		-46.875000
7238		-46.875000
7239		-42.968750
7240		-44.921875
7241		-41.015625
7242		-42.968750
7243		-39.062500
7244		-41.015625
7245		-37.109375
7246		-39.062500
7247		-35.156250
7248		-35.156250
7249		-31.250000
7250		-33.203125
7251		-29.296875
7252		-29.296875
7253		-25.390625
7254		-27.343750
7255		-23.437500
7256		-23.437500
7257		-19.531250
7258		-21.484375
7259		-15.625000
7260		-17.578125
7261		-13.671875
7262		-13.671875
7263		-9.765625
7264		-11.718750
7265		-5.859375
7266		-7.812500
7267		-1.953125
7268		-3.906250
7269		0.000000
7270		0.000000
7271		3.906250
7272		1.953125
7273		7.812500
7274		5.859375
7275		9.765625
7276		9.765625
7277		13.671875
7278		13.671875
7279		17.578125
7280		15.625000
7281		21.484375
7282		19.531250
7283		23.437500
7284		23.437500
7285		27.343750
7286		25.390625
7287		31.250000
7288		29.296875
7289		33.203125
7290		31.250000
7291		37.109375
7292		35.156250
7293		39.062500
7294		39.062500
7295		42.968750
7296		41.015625
7297		44.921875
7298		44.921875
7299		46.875000
7300		44.921875
7301		50.781250
7302		48.828125
7303		52.734375
7304		52.734375
7305		54.687500
7306		54.687500
7307		58.593750
7308		56.640625
7309		60.546875
7310		58.593750
7311		62.500000
7312		60.546875
7313		64.453125
7314		62.500000
7315		66.406250
7316		64.453125
7317		66.406250
7318		66.406250
7319		68.359375
7320		68.359375
7321		70.312500
7322		68.359375
7323		72.265625
7324		70.312500
7325		72.265625
7326		72.265625
7327		74.218750
7328		72.265625
7329		74.218750
7330		72.265625
7331		76.171875
7332		74.218750
7333		76.171875
7334		74.218750
7335		76.171875
7336		74.218750
7337		76.171875
7338		74.218750
7339		76.171875
7340		74.218750
7341		76.171875
7342		74.218750
7343		76.171875
7344		74.218750
7345		76.171875
7346		72.265625
7347		76.171875
7348		74.218750
7349		76.171875
7350		72.265625
7351		74.218750
7352		72.265625
7353		74.218750
7354		70.312500
7355		72.265625
7356		70.312500
7357		72.265625
7358		68.359375
7359		70.312500
7360		66.406250
7361		70.312500
7362		64.453125
7363		68.359375
7364		62.500000
7365		66.406250
7366		60.546875
7367		64.453125
7368		58.593750
7369		62.500000
7370		56.640625
7371		60.546875
7372		54.687500
7373		58.593750
7374		52.734375
7375		56.640625
7376		48.828125
7377		54.687500
7378		46.875000
7379		50.781250
7380		44.921875
7381		48.828125
7382		41.015625
7383		44.921875
7384		39.062500
7385		42.968750
7386		35.156250
7387		39.062500
7388		33.203125
7389		37.109375
7390		29.296875
7391		33.203125
7392		25.390625
7393		31.250000
7394		23.437500
7395		27.343750
7396		19.531250
7397		23.437500
7398		15.625000
7399		21.484375
7400		13.671875
7401		17.578125
7402		9.765625
7403		13.671875
7404		5.859375
7405		9.765625
7406		1.953125
7407		7.812500
7408		0.000000
7409		3.906250
7410		-3.906250
7411		0.000000
7412		-7.812500
7413		-1.953125
7414		-11.718750
7415		-5.859375
7416		-13.671875
7417		-9.765625
7418		-17.578125
7419		-13.671875
7420		-19.531250
7421		-15.625000
7422		-23.437500
7423		-19.531250
7424		-27.343750
7425		-21.484375
7426		-29.296875
7427		-25.390625
7428		-33.203125
7429		-29.296875
7430		-35.156250
7431		-31.250000
7432		-37.109375
7433		-33.203125
7434		-41.015625
7435		-37.109375
7436		-42.968750
7437		-39.062500
7438		-44.921875
7439		-41.015625
7440		-46.875000
7441		-44.921875
7442		-48.828125
7443		-44.921875
7444		-50.781250
7445		-48.828125
7446		-52.734375
7447		-48.828125
7448		-54.687500
7449		-50.781250
7450		-56.640625
7451		-52.734375
7452		-56.640625
7453		-54.687500
7454		-58.593750
7455		-54.687500
7456		-58.593750
7457		-56.640625
7458		-60.546875
7459		-56.640625
7460		-60.546875
7461		-58.593750
7462		-60.546875
7463		-58.593750
7464		-60.546875
7465		-58.593750
7466		-60.546875
7467		-58.593750
7468		-60.546875
7469		-58.593750
7470		-60.546875
7471		-58.593750
7472		-60.546875
7473		-56.640625
7474		-58.593750
7475		-56.640625
7476		-58.593750
7477		-56.640625
7478		-58.593750
7479		-54.687500
7480		-56.640625
7481		-54.687500
7482		-54.687500
7483		-52.734375
7484		-52.734375
7485		-50.781250
7486		-52.734375
7487		-48.828125
7488		-50.781250
7489		-46.875000
7490		-48.828125
7491		-44.921875
7492		-46.875000
7493		-42.968750
7494		-44.921875
7495		-41.015625
7496		-41.015625
7497		-37.109375
7498		-39.062500
7499		-35.156250
7500		-37.109375
7501		-33.203125
7502		-33.203125
7503		-29.296875
7504		-31.250000
7505		-27.343750
7506		-27.343750
7507		-23.437500
7508		-25.390625
7509		-19.531250
7510		-21.484375
7511		-17.578125
7512		-17.578125
7513		-13.671875
7514		-15.625000
7515		-11.718750
7516		-11.718750
7517		-7.812500
7518		-9.765625
7519		-3.906250
7520		-5.859375
7521		0.000000
7522		-1.953125
7523		3.906250
7524		1.953125
7525		5.859375
7526		3.906250
7527		9.765625
7528		7.812500
7529		13.671875
7530		11.718750
7531		15.625000
7532		15.625000
7533		19.531250
7534		17.578125
7535		23.437500
7536		21.484375
7537		25.390625
7538		25.390625
7539		29.296875
7540		27.343750
7541		33.203125
7542		31.250000
7543		35.156250
7544		35.156250
7545		39.062500
7546		37.109375
7547		41.015625
7548		39.062500
7549		44.921875
7550		42.968750
7551		46.875000
7552		44.921875
7553		48.828125
7554		48.828125
7555		52.734375
7556		50.781250
7557		54.687500
7558		52.734375
7559		56.640625
7560		56.640625
7561		58.593750
7562		58.593750
7563		60.546875
7564		60.546875
7565		64.453125
7566		62.500000
7567		64.453125
7568		62.500000
7569		66.406250
7570		66.406250
7571		68.359375
7572		66.406250
7573		70.312500
7574		68.359375
7575		72.265625
7576		70.312500
7577		72.265625
7578		70.312500
7579		74.218750
7580		72.265625
7581		74.218750
7582		72.265625
7583		76.171875
7584		74.218750
7585		76.171875
7586		74.218750
7587		76.171875
7588		74.218750
7589		76.171875
7590		74.218750
7591		78.125000
7592		74.218750
7593		76.171875
7594		74.218750
7595		76.171875
7596		74.218750
7597		76.171875
7598		74.218750
7599		76.171875
7600		74.218750
7601		76.171875
7602		72.265625
7603		76.171875
7604		72.265625
7605		74.218750
7606		70.312500
7607		74.218750
7608		70.312500
7609		72.265625
7610		68.359375
7611		72.265625
7612		66.406250
7613		70.312500
7614		66.406250
7615		68.359375
7616		64.453125
7617		66.406250
7618		62.500000
7619		64.453125
7620		60.546875
7621		62.500000
7622		58.593750
7623		60.546875
7624		56.640625
7625		58.593750
7626		52.734375
7627		56.640625
7628		50.781250
7629		54.687500
7630		48.828125
7631		52.734375
7632		44.921875
7633		48.828125
7634		42.968750
7635		46.875000
7636		39.062500
7637		44.921875
7638		37.109375
7639		41.015625
7640		33.203125
7641		39.062500
7642		31.250000
7643		35.156250
7644		27.343750
7645		33.203125
7646		23.437500
7647		29.296875
7648		21.484375
7649		25.390625
7650		17.578125
7651		21.484375
7652		13.671875
7653		19.531250
7654		11.718750
7655		15.625000
7656		7.812500
7657		11.718750
7658		3.906250
7659		9.765625
7660		1.953125
7661		5.859375
7662		-1.953125
7663		1.953125
7664		-5.859375
7665		-1.953125
7666		-9.765625
7667		-3.906250
7668		-13.671875
7669		-7.812500
7670		-15.625000
7671		-11.718750
7672		-19.531250
7673		-13.671875
7674		-21.484375
7675		-17.578125
7676		-25.390625
7677		-21.484375
7678		-29.296875
7679		-23.437500
7680		-33.203125
7681		-27.343750
7682		-33.203125
7683		-29.296875
7684		-37.109375
7685		-33.203125
7686		-39.062500
7687		-33.203125
7688		-42.968750
7689		-37.109375
7690		-44.921875
7691		-41.015625
7692		-46.875000
7693		-42.968750
7694		-48.828125
7695		-44.921875
7696		-50.781250
7697		-46.875000
7698		-52.734375
7699		-46.875000
7700		-54.687500
7701		-50.781250
7702		-56.640625
7703		-50.781250
7704		-56.640625
7705		-54.687500
7706		-60.546875
7707		-50.781250
7708		-58.593750
7709		-56.640625
7710		-60.546875
7711		-56.640625
7712		-62.500000
7713		-54.687500
7714		-62.500000
7715		-56.640625
7716		-62.500000
7717		-56.640625
7718		-62.500000
7719		-56.640625
7720		-60.546875
7721		-58.593750
7722		-62.500000
7723		-56.640625
7724		-60.546875
7725		-58.593750
7726		-60.546875
7727		-56.640625
7728		-60.546875
7729		-54.687500
7730		-60.546875
7731		-52.734375
7732		-56.640625
7733		-52.734375
7734		-56.640625
7735		-50.781250
7736		-54.687500
7737		-50.781250
7738		-52.734375
7739		-46.875000
7740		-50.781250
7741		-46.875000
7742		-48.828125
7743		-44.921875
7744		-46.875000
7745		-41.015625
7746		-46.875000
7747		-39.062500
7748		-42.968750
7749		-37.109375
7750		-39.062500
7751		-35.156250
7752		-39.062500
7753		-29.296875
7754		-37.109375
7755		-31.250000
7756		-35.156250
7757		-25.390625
7758		-29.296875
7759		-25.390625
7760		-25.390625
7761		-21.484375
7762		-23.437500
7763		-15.625000
7764		-19.531250
7765		-13.671875
7766		-17.578125
7767		-11.718750
7768		-13.671875
7769		-7.812500
7770		-11.718750
7771		-3.906250
7772		-7.812500
7773		1.953125
7774		-3.906250
7775		1.953125
7776		0.000000
7777		3.906250
7778		1.953125
7779		9.765625
7780		3.906250
7781		13.671875
7782		9.765625
7783		15.625000
7784		13.671875
7785		17.578125
7786		15.625000
7787		25.390625
7788		19.531250
7789		25.390625
7790		19.531250
7791		29.296875
7792		27.343750
7793		31.250000
7794		29.296875
7795		35.156250
7796		31.250000
7797		41.015625
7798		35.156250
7799		41.015625
7800		39.062500
7801		42.968750
7802		41.015625
7803		48.828125
7804		41.015625
7805		50.781250
7806		44.921875
7807		54.687500
7808		50.781250
7809		54.687500
7810		52.734375
7811		56.640625
7812		54.687500
7813		58.593750
7814		54.687500
7815		62.500000
7816		60.546875
7817		62.500000
7818		60.546875
7819		64.453125
7820		60.546875
7821		70.312500
7822		62.500000
7823		72.265625
7824		66.406250
7825		70.312500
7826		68.359375
7827		70.312500
7828		68.359375
7829		74.218750
7830		68.359375
7831		76.171875
7832		70.312500
7833		76.171875
7834		72.265625
7835		76.171875
7836		70.312500
7837		80.078125
7838		70.312500
7839		80.078125
7840		70.312500
7841		80.078125
7842		74.218750
7843		78.125000
7844		74.218750
7845		78.125000
7846		72.265625
7847		80.078125
7848		72.265625
7849		82.031250
7850		74.218750
7851		78.125000
7852		72.265625
7853		76.171875
7854		70.312500
7855		80.078125
7856		70.312500
7857		78.125000
7858		72.265625
7859		74.218750
7860		70.312500
7861		74.218750
7862		68.359375
7863		72.265625
7864		66.406250
7865		74.218750
7866		66.406250
7867		70.312500
7868		64.453125
7869		68.359375
7870		58.593750
7871		68.359375
7872		60.546875
7873		66.406250
7874		58.593750
7875		64.453125
7876		56.640625
7877		60.546875
7878		52.734375
7879		58.593750
7880		48.828125
7881		58.593750
7882		48.828125
7883		54.687500
7884		46.875000
7885		50.781250
7886		41.015625
7887		48.828125
7888		39.062500
7889		48.828125
7890		37.109375
7891		42.968750
7892		35.156250
7893		39.062500
7894		31.250000
7895		37.109375
7896		27.343750
7897		33.203125
7898		23.437500
7899		33.203125
7900		23.437500
7901		27.343750
7902		17.578125
7903		23.437500
7904		13.671875
7905		23.437500
7906		9.765625
7907		17.578125
7908		9.765625
7909		13.671875
7910		5.859375
7911		9.765625
7912		0.000000
7913		7.812500
7914		-1.953125
7915		5.859375
7916		-5.859375
7917		1.953125
7918		-7.812500
7919		-3.906250
7920		-13.671875
7921		-5.859375
7922		-15.625000
7923		-7.812500
7924		-17.578125
7925		-11.718750
7926		-21.484375
7927		-15.625000
7928		-23.437500
7929		-19.531250
7930		-27.343750
7931		-21.484375
7932		-31.250000
7933		-21.484375
7934		-33.203125
7935		-27.343750
7936		-37.109375
7937		-31.250000
7938		-39.062500
7939		-33.203125
7940		-42.968750
7941		-35.156250
7942		-42.968750
7943		-39.062500
7944		-44.921875
7945		-41.015625
7946		-46.875000
7947		-42.968750
7948		-52.734375
7949		-44.921875
7950		-52.734375
7951		-46.875000
7952		-52.734375
7953		-50.781250
7954		-56.640625
7955		-50.781250
7956		-56.640625
7957		-52.734375
7958		-56.640625
7959		-54.687500
7960		-58.593750
7961		-54.687500
7962		-58.593750
7963		-56.640625
7964		-60.546875
7965		-56.640625
7966		-62.500000
7967		-54.687500
7968		-60.546875
7969		-58.593750
7970		-62.500000
7971		-56.640625
7972		-60.546875
7973		-58.593750
7974		-60.546875
7975		-58.593750
7976		-60.546875
7977		-58.593750
7978		-60.546875
7979		-56.640625
7980		-58.593750
7981		-56.640625
7982		-58.593750
7983		-54.687500
7984		-56.640625
7985		-54.687500
7986		-56.640625
7987		-52.734375
7988		-54.687500
7989		-50.781250
7990		-52.734375
7991		-50.781250
7992		-52.734375
7993		-46.875000
7994		-48.828125
7995		-46.875000
7996		-46.875000
7997		-42.968750
7998		-44.921875
7999		-41.015625
8000		-42.968750
8001		-39.062500
8002		-41.015625
8003		-37.109375
8004		-37.109375
8005		-33.203125
8006		-35.156250
8007		-31.250000
8008		-33.203125
8009		-29.296875
8010		-29.296875
8011		-25.390625
8012		-27.343750
8013		-21.484375
8014		-25.390625
8015		-17.578125
8016		-21.484375
8017		-15.625000
8018		-17.578125
8019		-11.718750
8020		-15.625000
8021		-7.812500
8022		-11.718750
8023		-5.859375
8024		-9.765625
8025		-1.953125
8026		-3.906250
8027		0.000000
8028		-1.953125
8029		3.906250
8030		1.953125
8031		7.812500
8032		3.906250
8033		11.718750
8034		7.812500
8035		15.625000
8036		11.718750
8037		17.578125
8038		15.625000
8039		21.484375
8040		19.531250
8041		25.390625
8042		21.484375
8043		27.343750
8044		25.390625
8045		31.250000
8046		29.296875
8047		35.156250
8048		31.250000
8049		37.109375
8050		35.156250
8051		41.015625
8052		37.109375
8053		44.921875
8054		39.062500
8055		46.875000
8056		42.968750
8057		48.828125
8058		46.875000
8059		50.781250
8060		48.828125
8061		52.734375
8062		52.734375
8063		56.640625
8064		52.734375
8065		58.593750
8066		54.687500
8067		62.500000
8068		56.640625
8069		62.500000
8070		58.593750
8071		64.453125
8072		60.546875
8073		68.359375
8074		62.500000
8075		68.359375
8076		64.453125
8077		68.359375
8078		68.359375
8079		70.312500
8080		68.359375
8081		72.265625
8082		70.312500
8083		74.218750
8084		70.312500
8085		76.171875
8086		70.312500
8087		78.125000
8088		72.265625
8089		78.125000
8090		72.265625
8091		78.125000
8092		74.218750
8093		78.125000
8094		74.218750
8095		76.171875
8096		74.218750
8097		78.125000
8098		74.218750
8099		78.125000
8100		74.218750
8101		78.125000
8102		72.265625
8103		78.125000
8104		74.218750
8105		78.125000
8106		72.265625
8107		78.125000
8108		72.265625
8109		76.171875
8110		72.265625
8111		74.218750
8112		72.265625
8113		74.218750
8114		70.312500
8115		74.218750
8116		68.359375
8117		72.265625
8118		66.406250
8119		70.312500
8120		64.453125
8121		70.312500
8122		62.500000
8123		68.359375
8124		62.500000
8125		66.406250
8126		60.546875
8127		64.453125
8128		58.593750
8129		60.546875
8130		54.687500
8131		58.593750
8132		52.734375
8133		56.640625
8134		50.781250
8135		54.687500
8136		46.875000
8137		52.734375
8138		44.921875
8139		48.828125
8140		42.968750
8141		46.875000
8142		39.062500
8143		44.921875
8144		37.109375
8145		41.015625
8146		33.203125
8147		37.109375
8148		31.250000
8149		35.156250
8150		27.343750
8151		31.250000
8152		23.437500
8153		29.296875
8154		19.531250
8155		27.343750
8156		17.578125
8157		21.484375
8158		13.671875
8159		19.531250
8160		9.765625
8161		15.625000
8162		7.812500
8163		11.718750
8164		3.906250
8165		7.812500
8166		0.000000
8167		5.859375
8168		-3.906250
8169		1.953125
8170		-7.812500
8171		-1.953125
8172		-9.765625
8173		-5.859375
8174		-13.671875
8175		-7.812500
8176		-17.578125
8177		-11.718750
8178		-19.531250
8179		-15.625000
8180		-23.437500
8181		-17.578125
8182		-25.390625
8183		-19.531250
8184		-29.296875
8185		-23.437500
8186		-33.203125
8187		-27.343750
8188		-35.156250
8189		-29.296875
8190		-39.062500
8191		-33.203125
8192		-41.015625
8193		-35.156250
8194		-42.968750
8195		-39.062500
8196		-44.921875
8197		-41.015625
8198		-46.875000
8199		-42.968750
8200		-48.828125
8201		-44.921875
8202		-50.781250
8203		-46.875000
8204		-52.734375
8205		-48.828125
8206		-54.687500
8207		-50.781250
8208		-56.640625
8209		-52.734375
8210		-56.640625
8211		-52.734375
8212		-58.593750
8213		-54.687500
8214		-60.546875
8215		-56.640625
8216		-60.546875
8217		-56.640625
8218		-60.546875
8219		-56.640625
8220		-62.500000
8221		-56.640625
8222		-60.546875
8223		-58.593750
8224		-60.546875
8225		-58.593750
8226		-60.546875
8227		-58.593750
8228		-60.546875
8229		-58.593750
8230		-60.546875
8231		-56.640625
8232		-60.546875
8233		-56.640625
8234		-58.593750
8235		-54.687500
8236		-58.593750
8237		-54.687500
8238		-56.640625
8239		-52.734375
8240		-56.640625
8241		-52.734375
8242		-54.687500
8243		-50.781250
8244		-52.734375
8245		-48.828125
8246		-50.781250
8247		-46.875000
8248		-48.828125
8249		-44.921875
8250		-46.875000
8251		-42.968750
8252		-44.921875
8253		-39.062500
8254		-41.015625
8255		-37.109375
8256		-41.015625
8257		-35.156250
8258		-37.109375
8259		-33.203125
8260		-35.156250
8261		-29.296875
8262		-31.250000
8263		-27.343750
8264		-27.343750
8265		-23.437500
8266		-25.390625
8267		-21.484375
8268		-23.437500
8269		-17.578125
8270		-19.531250
8271		-13.671875
8272		-15.625000
8273		-11.718750
8274		-13.671875
8275		-7.812500
8276		-9.765625
8277		-3.906250
8278		-7.812500
8279		-1.953125
8280		-1.953125
8281		1.953125
8282		0.000000
8283		5.859375
8284		3.906250
8285		9.765625
8286		7.812500
8287		11.718750
8288		9.765625
8289		15.625000
8290		13.671875
8291		19.531250
8292		17.578125
8293		21.484375
8294		21.484375
8295		25.390625
8296		23.437500
8297		29.296875
8298		27.343750
8299		33.203125
8300		29.296875
8301		35.156250
8302		33.203125
8303		37.109375
8304		37.109375
8305		41.015625
8306		39.062500
8307		42.968750
8308		41.015625
8309		46.875000
8310		44.921875
8311		50.781250
8312		48.828125
8313		52.734375
8314		50.781250
8315		54.687500
8316		52.734375
8317		56.640625
8318		54.687500
8319		58.593750
8320		56.640625
8321		60.546875
8322		60.546875
8323		62.500000
8324		60.546875
8325		66.406250
8326		62.500000
8327		68.359375
8328		64.453125
8329		68.359375
8330		66.406250
8331		70.312500
8332		68.359375
8333		72.265625
8334		68.359375
8335		72.265625
8336		70.312500
8337		74.218750
8338		72.265625
8339		74.218750
8340		72.265625
8341		76.171875
8342		74.218750
8343		76.171875
8344		72.265625
8345		78.125000
8346		74.218750
8347		76.171875
8348		74.218750
8349		76.171875
8350		74.218750
8351		78.125000
8352		74.218750
8353		78.125000
8354		74.218750
8355		78.125000
8356		74.218750
8357		78.125000
8358		74.218750
8359		76.171875
8360		72.265625
8361		76.171875
8362		72.265625
8363		76.171875
8364		72.265625
8365		74.218750
8366		70.312500
8367		74.218750
8368		68.359375
8369		72.265625
8370		68.359375
8371		70.312500
8372		66.406250
8373		70.312500
8374		64.453125
8375		66.406250
8376		62.500000
8377		66.406250
8378		58.593750
8379		64.453125
8380		58.593750
8381		62.500000
8382		54.687500
8383		60.546875
8384		52.734375
8385		58.593750
8386		50.781250
8387		54.687500
8388		48.828125
8389		52.734375
8390		46.875000
8391		50.781250
8392		42.968750
8393		48.828125
8394		39.062500
8395		44.921875
8396		37.109375
8397		41.015625
8398		35.156250
8399		39.062500
8400		31.250000
8401		37.109375
8402		27.343750
8403		33.203125
8404		23.437500
8405		29.296875
8406		21.484375
8407		25.390625
8408		17.578125
8409		23.437500
8410		15.625000
8411		19.531250
8412		11.718750
8413		17.578125
8414		7.812500
8415		13.671875
8416		3.906250
8417		9.765625
8418		1.953125
8419		5.859375
8420		-1.953125
8421		3.906250
8422		-5.859375
8423		0.000000
8424		-9.765625
8425		-3.906250
8426		-11.718750
8427		-7.812500
8428		-15.625000
8429		-9.765625
8430		-17.578125
8431		-13.671875
8432		-21.484375
8433		-17.578125
8434		-25.390625
8435		-19.531250
8436		-29.296875
8437		-23.437500
8438		-31.250000
8439		-27.343750
8440		-33.203125
8441		-29.296875
8442		-37.109375
8443		-33.203125
8444		-39.062500
8445		-35.156250
8446		-41.015625
8447		-37.109375
8448		-42.968750
8449		-41.015625
8450		-46.875000
8451		-42.968750
8452		-48.828125
8453		-42.968750
8454		-50.781250
8455		-46.875000
8456		-52.734375
8457		-48.828125
8458		-54.687500
8459		-50.781250
8460		-54.687500
8461		-52.734375
8462		-56.640625
8463		-52.734375
8464		-58.593750
8465		-54.687500
8466		-58.593750
8467		-56.640625
8468		-60.546875
8469		-56.640625
8470		-60.546875
8471		-56.640625
8472		-60.546875
8473		-58.593750
8474		-60.546875
8475		-58.593750
8476		-60.546875
8477		-58.593750
8478		-62.500000
8479		-58.593750
8480		-60.546875
8481		-58.593750
8482		-60.546875
8483		-58.593750
8484		-60.546875
8485		-56.640625
8486		-58.593750
8487		-56.640625
8488		-58.593750
8489		-54.687500
8490		-56.640625
8491		-54.687500
8492		-56.640625
8493		-52.734375
8494		-54.687500
8495		-50.781250
8496		-52.734375
8497		-48.828125
8498		-50.781250
8499		-46.875000
8500		-48.828125
8501		-44.921875
8502		-46.875000
8503		-42.968750
8504		-44.921875
8505		-41.015625
8506		-42.968750
8507		-39.062500
8508		-41.015625
8509		-35.156250
8510		-37.109375
8511		-33.203125
8512		-35.156250
8513		-31.250000
8514		-33.203125
8515		-27.343750
8516		-29.296875
8517		-25.390625
8518		-27.343750
8519		-21.484375
8520		-23.437500
8521		-17.578125
8522		-21.484375
8523		-15.625000
8524		-17.578125
8525		-11.718750
8526		-13.671875
8527		-9.765625
8528		-11.718750
8529		-5.859375
8530		-7.812500
8531		-1.953125
8532		-3.906250
8533		0.000000
8534		0.000000
8535		3.906250
8536		1.953125
8537		7.812500
8538		5.859375
8539		11.718750
8540		9.765625
8541		15.625000
8542		13.671875
8543		17.578125
8544		15.625000
8545		21.484375
8546		19.531250
8547		23.437500
8548		23.437500
8549		27.343750
8550		25.390625
8551		31.250000
8552		29.296875
8553		33.203125
8554		33.203125
8555		37.109375
8556		35.156250
8557		39.062500
8558		39.062500
8559		42.968750
8560		41.015625
8561		44.921875
8562		44.921875
8563		48.828125
8564		46.875000
8565		50.781250
8566		48.828125
8567		52.734375
8568		50.781250
8569		56.640625
8570		54.687500
8571		58.593750
8572		56.640625
8573		60.546875
8574		58.593750
8575		62.500000
8576		60.546875
8577		64.453125
8578		62.500000
8579		66.406250
8580		64.453125
8581		68.359375
8582		66.406250
8583		70.312500
8584		68.359375
8585		72.265625
8586		68.359375
8587		72.265625
8588		70.312500
8589		74.218750
8590		72.265625
8591		74.218750
8592		72.265625
8593		76.171875
8594		72.265625
8595		76.171875
8596		74.218750
8597		78.125000
8598		74.218750
8599		76.171875
8600		74.218750
8601		78.125000
8602		74.218750
8603		78.125000
8604		74.218750
8605		78.125000
8606		74.218750
8607		78.125000
8608		74.218750
8609		78.125000
8610		74.218750
8611		76.171875
8612		74.218750
8613		76.171875
8614		72.265625
8615		76.171875
8616		72.265625
8617		74.218750
8618		70.312500
8619		74.218750
8620		68.359375
8621		72.265625
8622		68.359375
8623		70.312500
8624		66.406250
8625		70.312500
8626		64.453125
8627		68.359375
8628		62.500000
8629		66.406250
8630		60.546875
8631		64.453125
8632		58.593750
8633		62.500000
8634		54.687500
8635		60.546875
8636		52.734375
8637		58.593750
8638		52.734375
8639		56.640625
8640		48.828125
8641		54.687500
8642		46.875000
8643		50.781250
8644		44.921875
8645		48.828125
8646		41.015625
8647		44.921875
8648		39.062500
8649		42.968750
8650		35.156250
8651		39.062500
8652		33.203125
8653		37.109375
8654		29.296875
8655		35.156250
8656		25.390625
8657		31.250000
8658		23.437500
8659		27.343750
8660		19.531250
8661		23.437500
8662		15.625000
8663		21.484375
8664		13.671875
8665		17.578125
8666		9.765625
8667		13.671875
8668		5.859375
8669		11.718750
8670		1.953125
8671		7.812500
8672		-1.953125
8673		3.906250
8674		-3.906250
8675		0.000000
8676		-7.812500
8677		-1.953125
8678		-11.718750
8679		-5.859375
8680		-15.625000
8681		-9.765625
8682		-17.578125
8683		-13.671875
8684		-21.484375
8685		-15.625000
8686		-23.437500
8687		-19.531250
8688		-27.343750
8689		-21.484375
8690		-29.296875
8691		-25.390625
8692		-33.203125
8693		-27.343750
8694		-35.156250
8695		-31.250000
8696		-39.062500
8697		-33.203125
8698		-41.015625
8699		-35.156250
8700		-42.968750
8701		-39.062500
8702		-46.875000
8703		-41.015625
8704		-46.875000
8705		-42.968750
8706		-48.828125
8707		-44.921875
8708		-50.781250
8709		-46.875000
8710		-52.734375
8711		-48.828125
8712		-54.687500
8713		-50.781250
8714		-56.640625
8715		-52.734375
8716		-56.640625
8717		-54.687500
8718		-58.593750
8719		-54.687500
8720		-60.546875
8721		-56.640625
8722		-60.546875
8723		-56.640625
8724		-60.546875
8725		-56.640625
8726		-60.546875
8727		-58.593750
8728		-62.500000
8729		-58.593750
8730		-62.500000
8731		-58.593750
8732		-60.546875
8733		-58.593750
8734		-60.546875
8735		-58.593750
8736		-60.546875
8737		-56.640625
8738		-60.546875
8739		-56.640625
8740		-58.593750
8741		-54.687500
8742		-58.593750
8743		-54.687500
8744		-56.640625
8745		-52.734375
8746		-54.687500
8747		-50.781250
8748		-54.687500
8749		-50.781250
8750		-52.734375
8751		-48.828125
8752		-50.781250
8753		-46.875000
8754		-48.828125
8755		-44.921875
8756		-46.875000
8757		-42.968750
8758		-44.921875
8759		-39.062500
8760		-41.015625
8761		-37.109375
8762		-39.062500
8763		-35.156250
8764		-37.109375
8765		-31.250000
8766		-33.203125
8767		-29.296875
8768		-31.250000
8769		-27.343750
8770		-29.296875
8771		-23.437500
8772		-25.390625
8773		-19.531250
8774		-21.484375
8775		-15.625000
8776		-17.578125
8777		-13.671875
8778		-15.625000
8779		-9.765625
8780		-11.718750
8781		-5.859375
8782		-7.812500
8783		-3.906250
8784		-3.906250
8785		0.000000
8786		-1.953125
8787		3.906250
8788		1.953125
8789		5.859375
8790		3.906250
8791		9.765625
8792		7.812500
8793		13.671875
8794		11.718750
8795		15.625000
8796		15.625000
8797		19.531250
8798		17.578125
8799		23.437500
8800		21.484375
8801		25.390625
8802		25.390625
8803		29.296875
8804		27.343750
8805		33.203125
8806		31.250000
8807		35.156250
8808		33.203125
8809		39.062500
8810		37.109375
8811		42.968750
8812		41.015625
8813		44.921875
8814		42.968750
8815		48.828125
8816		44.921875
8817		50.781250
8818		48.828125
8819		52.734375
8820		50.781250
8821		54.687500
8822		52.734375
8823		58.593750
8824		56.640625
8825		60.546875
8826		56.640625
8827		62.500000
8828		60.546875
8829		64.453125
8830		62.500000
8831		66.406250
8832		64.453125
8833		68.359375
8834		64.453125
8835		68.359375
8836		66.406250
8837		70.312500
8838		68.359375
8839		72.265625
8840		68.359375
8841		72.265625
8842		70.312500
8843		74.218750
8844		72.265625
8845		76.171875
8846		72.265625
8847		76.171875
8848		74.218750
8849		76.171875
8850		74.218750
8851		76.171875
8852		74.218750
8853		76.171875
8854		74.218750
8855		78.125000
8856		74.218750
8857		78.125000
8858		74.218750
8859		78.125000
8860		74.218750
8861		78.125000
8862		74.218750
8863		76.171875
8864		74.218750
8865		76.171875
8866		72.265625
8867		76.171875
8868		72.265625
8869		74.218750
8870		70.312500
8871		74.218750
8872		70.312500
8873		72.265625
8874		68.359375
8875		72.265625
8876		66.406250
8877		70.312500
8878		66.406250
8879		70.312500
8880		62.500000
8881		68.359375
8882		60.546875
8883		64.453125
8884		60.546875
8885		62.500000
8886		58.593750
8887		60.546875
8888		54.687500
8889		60.546875
8890		52.734375
8891		56.640625
8892		50.781250
8893		54.687500
8894		48.828125
8895		52.734375
8896		44.921875
8897		48.828125
8898		41.015625
8899		46.875000
8900		39.062500
8901		44.921875
8902		37.109375
8903		41.015625
8904		33.203125
8905		39.062500
8906		29.296875
8907		35.156250
8908		27.343750
8909		31.250000
8910		23.437500
8911		29.296875
8912		21.484375
8913		25.390625
8914		17.578125
8915		23.437500
8916		13.671875
8917		19.531250
8918		11.718750
8919		15.625000
8920		5.859375
8921		11.718750
8922		3.906250
8923		9.765625
8924		0.000000
8925		5.859375
8926		-1.953125
8927		1.953125
8928		-5.859375
8929		-1.953125
8930		-9.765625
8931		-3.906250
8932		-13.671875
8933		-7.812500
8934		-15.625000
8935		-11.718750
8936		-19.531250
8937		-13.671875
8938		-23.437500
8939		-17.578125
8940		-25.390625
8941		-21.484375
8942		-29.296875
8943		-23.437500
8944		-31.250000
8945		-27.343750
8946		-35.156250
8947		-29.296875
8948		-37.109375
8949		-33.203125
8950		-39.062500
8951		-35.156250
8952		-42.968750
8953		-39.062500
8954		-44.921875
8955		-41.015625
8956		-46.875000
8957		-42.968750
8958		-48.828125
8959		-44.921875
8960		-50.781250
8961		-46.875000
8962		-52.734375
8963		-48.828125
8964		-54.687500
8965		-50.781250
8966		-56.640625
8967		-52.734375
8968		-56.640625
8969		-54.687500
8970		-58.593750
8971		-54.687500
8972		-58.593750
8973		-54.687500
8974		-60.546875
8975		-56.640625
8976		-60.546875
8977		-56.640625
8978		-60.546875
8979		-58.593750
8980		-60.546875
8981		-58.593750
8982		-60.546875
8983		-56.640625
8984		-60.546875
8985		-58.593750
8986		-60.546875
8987		-58.593750
8988		-60.546875
8989		-56.640625
8990		-60.546875
8991		-56.640625
8992		-58.593750
8993		-56.640625
8994		-58.593750
8995		-54.687500
8996		-56.640625
8997		-54.687500
8998		-56.640625
8999		-52.734375
9000		-54.687500
9001		-50.781250
9002		-52.734375
9003		-48.828125
9004		-50.781250
9005		-46.875000
9006		-48.828125
9007		-44.921875
9008		-46.875000
9009		-42.968750
9010		-44.921875
9011		-41.015625
9012		-42.968750
9013		-39.062500
9014		-41.015625
9015		-35.156250
9016		-37.109375
9017		-33.203125
9018		-35.156250
9019		-31.250000
9020		-31.250000
9021		-27.343750
9022		-29.296875
9023		-23.437500
9024		-25.390625
9025		-21.484375
9026		-23.437500
9027		-17.578125
9028		-19.531250
9029		-15.625000
9030		-17.578125
9031		-11.718750
9032		-13.671875
9033		-7.812500
9034		-9.765625
9035		-5.859375
9036		-5.859375
9037		-1.953125
9038		-3.906250
9039		1.953125
9040		0.000000
9041		5.859375
9042		3.906250
9043		7.812500
9044		5.859375
9045		11.718750
9046		9.765625
9047		15.625000
9048		13.671875
9049		17.578125
9050		15.625000
9051		21.484375
9052		21.484375
9053		25.390625
9054		23.437500
9055		27.343750
9056		25.390625
9057		31.250000
9058		29.296875
9059		35.156250
9060		33.203125
9061		37.109375
9062		37.109375
9063		41.015625
9064		39.062500
9065		42.968750
9066		41.015625
9067		46.875000
9068		42.968750
9069		48.828125
9070		46.875000
9071		50.781250
9072		50.781250
9073		54.687500
9074		52.734375
9075		56.640625
9076		54.687500
9077		58.593750
9078		56.640625
9079		62.500000
9080		58.593750
9081		62.500000
9082		60.546875
9083		64.453125
9084		62.500000
9085		66.406250
9086		64.453125
9087		68.359375
9088		66.406250
9089		70.312500
9090		68.359375
9091		72.265625
9092		70.312500
9093		72.265625
9094		70.312500
9095		74.218750
9096		70.312500
9097		74.218750
9098		72.265625
9099		76.171875
9100		72.265625
9101		76.171875
9102		74.218750
9103		76.171875
9104		74.218750
9105		76.171875
9106		74.218750
9107		78.125000
9108		74.218750
9109		78.125000
9110		74.218750
9111		78.125000
9112		74.218750
9113		78.125000
9114		74.218750
9115		78.125000
9116		74.218750
9117		76.171875
9118		72.265625
9119		76.171875
9120		72.265625
9121		74.218750
9122		70.312500
9123		74.218750
9124		70.312500
9125		74.218750
9126		68.359375
9127		72.265625
9128		66.406250
9129		70.312500
9130		64.453125
9131		70.312500
9132		64.453125
9133		68.359375
9134		62.500000
9135		66.406250
9136		60.546875
9137		64.453125
9138		58.593750
9139		62.500000
9140		54.687500
9141		60.546875
9142		52.734375
9143		56.640625
9144		50.781250
9145		54.687500
9146		48.828125
9147		52.734375
9148		46.875000
9149		50.781250
9150		42.968750
9151		46.875000
9152		41.015625
9153		44.921875
9154		37.109375
9155		41.015625
9156		35.156250
9157		39.062500
9158		31.250000
9159		35.156250
9160		27.343750
9161		33.203125
9162		25.390625
9163		29.296875
9164		21.484375
9165		25.390625
9166		17.578125
9167		23.437500
9168		15.625000
9169		19.531250
9170		11.718750
9171		17.578125
9172		7.812500
9173		13.671875
9174		3.906250
9175		9.765625
9176		1.953125
9177		5.859375
9178		-1.953125
9179		3.906250
9180		-5.859375
9181		0.000000
9182		-9.765625
9183		-3.906250
9184		-13.671875
9185		-7.812500
9186		-15.625000
9187		-9.765625
9188		-17.578125
9189		-13.671875
9190		-21.484375
9191		-17.578125
9192		-25.390625
9193		-19.531250
9194		-29.296875
9195		-23.437500
9196		-31.250000
9197		-27.343750
9198		-33.203125
9199		-29.296875
9200		-37.109375
9201		-31.250000
9202		-39.062500
9203		-35.156250
9204		-41.015625
9205		-37.109375
9206		-44.921875
9207		-41.015625
9208		-46.875000
9209		-42.968750
9210		-48.828125
9211		-44.921875
9212		-50.781250
9213		-46.875000
9214		-52.734375
9215		-48.828125
9216		-52.734375
9217		-50.781250
9218		-56.640625
9219		-50.781250
9220		-56.640625
9221		-52.734375
9222		-58.593750
9223		-54.687500
9224		-58.593750
9225		-56.640625
9226		-60.546875
9227		-56.640625
9228		-60.546875
9229		-56.640625
9230		-62.500000
9231		-58.593750
9232		-60.546875
9233		-58.593750
9234		-62.500000
9235		-58.593750
9236		-62.500000
9237		-58.593750
9238		-60.546875
9239		-58.593750
9240		-60.546875
9241		-58.593750
9242		-60.546875
9243		-56.640625
9244		-60.546875
9245		-56.640625
9246		-58.593750
9247		-56.640625
9248		-58.593750
9249		-54.687500
9250		-56.640625
9251		-52.734375
9252		-54.687500
9253		-50.781250
9254		-54.687500
9255		-50.781250
9256		-52.734375
9257		-46.875000
9258		-50.781250
9259		-46.875000
9260		-48.828125
9261		-44.921875
9262		-44.921875
9263		-42.968750
9264		-42.968750
9265		-39.062500
9266		-41.015625
9267		-37.109375
9268		-39.062500
9269		-33.203125
9270		-35.156250
9271		-31.250000
9272		-33.203125
9273		-29.296875
9274		-31.250000
9275		-25.390625
9276		-27.343750
9277		-21.484375
9278		-25.390625
9279		-19.531250
9280		-21.484375
9281		-17.578125
9282		-17.578125
9283		-13.671875
9284		-15.625000
9285		-9.765625
9286		-11.718750
9287		-5.859375
9288		-7.812500
9289		-3.906250
9290		-5.859375
9291		0.000000
9292		-1.953125
9293		3.906250
9294		1.953125
9295		7.812500
9296		5.859375
9297		9.765625
9298		7.812500
9299		13.671875
9300		11.718750
9301		17.578125
9302		15.625000
9303		21.484375
9304		19.531250
9305		23.437500
9306		21.484375
9307		27.343750
9308		25.390625
9309		29.296875
9310		27.343750
9311		35.156250
9312		31.250000
9313		37.109375
9314		35.156250
9315		39.062500
9316		37.109375
9317		41.015625
9318		41.015625
9319		44.921875
9320		42.968750
9321		48.828125
9322		46.875000
9323		50.781250
9324		48.828125
9325		52.734375
9326		50.781250
9327		54.687500
9328		52.734375
9329		58.593750
9330		56.640625
9331		60.546875
9332		58.593750
9333		62.500000
9334		60.546875
9335		64.453125
9336		62.500000
9337		66.406250
9338		64.453125
9339		66.406250
9340		66.406250
9341		70.312500
9342		66.406250
9343		70.312500
9344		68.359375
9345		72.265625
9346		68.359375
9347		74.218750
9348		70.312500
9349		74.218750
9350		72.265625
9351		74.218750
9352		72.265625
9353		76.171875
9354		74.218750
9355		76.171875
9356		74.218750
9357		78.125000
9358		74.218750
9359		78.125000
9360		74.218750
9361		78.125000
9362		74.218750
9363		78.125000
9364		74.218750
9365		78.125000
9366		74.218750
9367		78.125000
9368		72.265625
9369		76.171875
9370		72.265625
9371		76.171875
9372		72.265625
9373		74.218750
9374		70.312500
9375		74.218750
9376		70.312500
9377		74.218750
9378		68.359375
9379		72.265625
9380		68.359375
9381		72.265625
9382		66.406250
9383		70.312500
9384		64.453125
9385		68.359375
9386		62.500000
9387		66.406250
9388		60.546875
9389		64.453125
9390		58.593750
9391		62.500000
9392		56.640625
9393		60.546875
9394		54.687500
9395		58.593750
9396		52.734375
9397		56.640625
9398		48.828125
9399		54.687500
9400		46.875000
9401		50.781250
9402		44.921875
9403		48.828125
9404		41.015625
9405		46.875000
9406		39.062500
9407		42.968750
9408		35.156250
9409		41.015625
9410		33.203125
9411		37.109375
9412		29.296875
9413		35.156250
9414		23.437500
9415		31.250000
9416		23.437500
9417		27.343750
9418		19.531250
9419		25.390625
9420		15.625000
9421		21.484375
9422		13.671875
9423		17.578125
9424		9.765625
9425		13.671875
9426		5.859375
9427		13.671875
9428		1.953125
9429		7.812500
9430		0.000000
9431		5.859375
9432		-3.906250
9433		0.000000
9434		-7.812500
9435		-1.953125
9436		-11.718750
9437		-5.859375
9438		-13.671875
9439		-9.765625
9440		-17.578125
9441		-11.718750
9442		-19.531250
9443		-15.625000
9444		-23.437500
9445		-19.531250
9446		-27.343750
9447		-21.484375
9448		-29.296875
9449		-25.390625
9450		-33.203125
9451		-27.343750
9452		-35.156250
9453		-31.250000
9454		-37.109375
9455		-33.203125
9456		-41.015625
9457		-37.109375
9458		-44.921875
9459		-39.062500
9460		-44.921875
9461		-41.015625
9462		-46.875000
9463		-42.968750
9464		-48.828125
9465		-44.921875
9466		-52.734375
9467		-46.875000
9468		-52.734375
9469		-48.828125
9470		-54.687500
9471		-50.781250
9472		-56.640625
9473		-52.734375
9474		-58.593750
9475		-52.734375
9476		-58.593750
9477		-54.687500
9478		-58.593750
9479		-56.640625
9480		-60.546875
9481		-56.640625
9482		-60.546875
9483		-58.593750
9484		-60.546875
9485		-56.640625
9486		-62.500000
9487		-58.593750
9488		-62.500000
9489		-58.593750
9490		-60.546875
9491		-58.593750
9492		-60.546875
9493		-58.593750
9494		-60.546875
9495		-56.640625
9496		-60.546875
9497		-56.640625
9498		-58.593750
9499		-56.640625
9500		-58.593750
9501		-54.687500
9502		-56.640625
9503		-52.734375
9504		-56.640625
9505		-52.734375
9506		-54.687500
9507		-50.781250
9508		-52.734375
9509		-48.828125
9510		-50.781250
9511		-46.875000
9512		-48.828125
9513		-44.921875
9514		-46.875000
9515		-42.968750
9516		-44.921875
9517		-41.015625
9518		-41.015625
9519		-37.109375
9520		-39.062500
9521		-33.203125
9522		-37.109375
9523		-33.203125
9524		-35.156250
9525		-29.296875
9526		-31.250000
9527		-27.343750
9528		-27.343750
9529		-23.437500
9530		-25.390625
9531		-21.484375
9532		-23.437500
9533		-17.578125
9534		-19.531250
9535		-13.671875
9536		-15.625000
9537		-11.718750
9538		-13.671875
9539		-7.812500
9540		-9.765625
9541		-3.906250
9542		-5.859375
9543		0.000000
9544		-1.953125
9545		1.953125
9546		0.000000
9547		5.859375
9548		3.906250
9549		9.765625
9550		7.812500
9551		11.718750
9552		9.765625
9553		15.625000
9554		13.671875
9555		19.531250
9556		17.578125
9557		21.484375
9558		21.484375
9559		25.390625
9560		23.437500
9561		29.296875
9562		27.343750
9563		31.250000
9564		29.296875
9565		35.156250
9566		33.203125
9567		37.109375
9568		37.109375
9569		41.015625
9570		39.062500
9571		44.921875
9572		41.015625
9573		46.875000
9574		44.921875
9575		48.828125
9576		46.875000
9577		52.734375
9578		50.781250
9579		54.687500
9580		52.734375
9581		56.640625
9582		54.687500
9583		58.593750
9584		56.640625
9585		62.500000
9586		58.593750
9587		62.500000
9588		60.546875
9589		64.453125
9590		64.453125
9591		66.406250
9592		64.453125
9593		68.359375
9594		66.406250
9595		70.312500
9596		68.359375
9597		70.312500
9598		68.359375
9599		72.265625
9600		70.312500
9601		74.218750
9602		72.265625
9603		76.171875
9604		72.265625
9605		76.171875
9606		74.218750
9607		76.171875
9608		74.218750
9609		76.171875
9610		74.218750
9611		78.125000
9612		74.218750
9613		78.125000
9614		74.218750
9615		78.125000
9616		74.218750
9617		78.125000
9618		74.218750
9619		76.171875
9620		72.265625
9621		78.125000
9622		72.265625
9623		76.171875
9624		72.265625
9625		76.171875
9626		70.312500
9627		74.218750
9628		70.312500
9629		74.218750
9630		70.312500
9631		72.265625
9632		68.359375
9633		72.265625
9634		66.406250
9635		70.312500
9636		66.406250
9637		70.312500
9638		62.500000
9639		68.359375
9640		62.500000
9641		66.406250
9642		60.546875
9643		62.500000
9644		56.640625
9645		62.500000
9646		54.687500
9647		58.593750
9648		52.734375
9649		56.640625
9650		50.781250
9651		54.687500
9652		48.828125
9653		52.734375
9654		44.921875
9655		50.781250
9656		42.968750
9657		46.875000
9658		39.062500
9659		44.921875
9660		35.156250
9661		41.015625
9662		33.203125
9663		39.062500
9664		31.250000
9665		35.156250
9666		27.343750
9667		33.203125
9668		23.437500
9669		29.296875
9670		21.484375
9671		25.390625
9672		17.578125
9673		23.437500
9674		15.625000
9675		19.531250
9676		11.718750
9677		15.625000
9678		7.812500
9679		13.671875
9680		3.906250
9681		9.765625
9682		1.953125
9683		5.859375
9684		-3.906250
9685		1.953125
9686		-5.859375
9687		0.000000
9688		-9.765625
9689		-3.906250
9690		-11.718750
9691		-5.859375
9692		-15.625000
9693		-11.718750
9694		-19.531250
9695		-13.671875
9696		-23.437500
9697		-17.578125
9698		-25.390625
9699		-21.484375
9700		-29.296875
9701		-23.437500
9702		-31.250000
9703		-27.343750
9704		-35.156250
9705		-29.296875
9706		-37.109375
9707		-33.203125
9708		-39.062500
9709		-35.156250
9710		-42.968750
9711		-37.109375
9712		-44.921875
9713		-41.015625
9714		-46.875000
9715		-42.968750
9716		-48.828125
9717		-44.921875
9718		-50.781250
9719		-46.875000
9720		-52.734375
9721		-48.828125
9722		-54.687500
9723		-50.781250
9724		-54.687500
9725		-52.734375
9726		-56.640625
9727		-54.687500
9728		-60.546875
9729		-54.687500
9730		-58.593750
9731		-56.640625
9732		-60.546875
9733		-56.640625
9734		-60.546875
9735		-58.593750
9736		-60.546875
9737		-58.593750
9738		-62.500000
9739		-58.593750
9740		-60.546875
9741		-58.593750
9742		-60.546875
9743		-58.593750
9744		-62.500000
9745		-58.593750
9746		-60.546875
9747		-56.640625
9748		-60.546875
9749		-56.640625
9750		-60.546875
9751		-56.640625
9752		-58.593750
9753		-54.687500
9754		-56.640625
9755		-54.687500
9756		-56.640625
9757		-52.734375
9758		-54.687500
9759		-50.781250
9760		-52.734375
9761		-48.828125
9762		-52.734375
9763		-48.828125
9764		-48.828125
9765		-44.921875
9766		-46.875000
9767		-42.968750
9768		-44.921875
9769		-41.015625
9770		-42.968750
9771		-39.062500
9772		-41.015625
9773		-35.156250
9774		-39.062500
9775		-33.203125
9776		-35.156250
9777		-31.250000
9778		-33.203125
9779		-27.343750
9780		-29.296875
9781		-25.390625
9782		-27.343750
9783		-21.484375
9784		-23.437500
9785		-17.578125
9786		-19.531250
9787		-15.625000
9788		-17.578125
9789		-11.718750
9790		-13.671875
9791		-7.812500
9792		-9.765625
9793		-5.859375
9794		-7.812500
9795		-1.953125
9796		-3.906250
9797		1.953125
9798		0.000000
9799		3.906250
9800		1.953125
9801		7.812500
9802		5.859375
9803		11.718750
9804		9.765625
9805		15.625000
9806		13.671875
9807		17.578125
9808		15.625000
9809		21.484375
9810		19.531250
9811		25.390625
9812		23.437500
9813		27.343750
9814		25.390625
9815		31.250000
9816		29.296875
9817		35.156250
9818		33.203125
9819		37.109375
9820		35.156250
9821		41.015625
9822		39.062500
9823		42.968750
9824		41.015625
9825		44.921875
9826		44.921875
9827		48.828125
9828		46.875000
9829		52.734375
9830		48.828125
9831		52.734375
9832		50.781250
9833		56.640625
9834		54.687500
9835		58.593750
9836		56.640625
9837		62.500000
9838		58.593750
9839		62.500000
9840		60.546875
9841		64.453125
9842		62.500000
9843		66.406250
9844		64.453125
9845		68.359375
9846		64.453125
9847		70.312500
9848		68.359375
9849		72.265625
9850		68.359375
9851		72.265625
9852		70.312500
9853		74.218750
9854		70.312500
9855		74.218750
9856		72.265625
9857		76.171875
9858		72.265625
9859		76.171875
9860		72.265625
9861		76.171875
9862		72.265625
9863		78.125000
9864		74.218750
9865		78.125000
9866		74.218750
9867		78.125000
9868		74.218750
9869		78.125000
9870		74.218750
9871		78.125000
9872		74.218750
9873		78.125000
9874		72.265625
9875		78.125000
9876		72.265625
9877		76.171875
9878		72.265625
9879		74.218750
9880		72.265625
9881		74.218750
9882		70.312500
9883		74.218750
9884		70.312500
9885		72.265625
9886		68.359375
9887		70.312500
9888		66.406250
9889		70.312500
9890		64.453125
9891		68.359375
9892		62.500000
9893		66.406250
9894		60.546875
9895		64.453125
9896		58.593750
9897		62.500000
9898		56.640625
9899		60.546875
9900		52.734375
9901		58.593750
9902		52.734375
9903		56.640625
9904		48.828125
9905		54.687500
9906		46.875000
9907		50.781250
9908		42.968750
9909		48.828125
9910		41.015625
9911		44.921875
9912		39.062500
9913		42.968750
9914		35.156250
9915		41.015625
9916		31.250000
9917		37.109375
9918		29.296875
9919		33.203125
9920		25.390625
9921		31.250000
9922		23.437500
9923		27.343750
9924		17.578125
9925		23.437500
9926		15.625000
9927		21.484375
9928		11.718750
9929		17.578125
9930		9.765625
9931		13.671875
9932		5.859375
9933		11.718750
9934		1.953125
9935		7.812500
9936		-1.953125
9937		3.906250
9938		-3.906250
9939		0.000000
9940		-7.812500
9941		-1.953125
9942		-11.718750
9943		-5.859375
9944		-13.671875
9945		-9.765625
9946		-17.578125
9947		-13.671875
9948		-21.484375
9949		-15.625000
9950		-23.437500
9951		-19.531250
9952		-27.343750
9953		-21.484375
9954		-31.250000
9955		-25.390625
9956		-33.203125
9957		-29.296875
9958		-35.156250
9959		-31.250000
9960		-39.062500
9961		-35.156250
9962		-41.015625
9963		-37.109375
9964		-42.968750
9965		-39.062500
9966		-44.921875
9967		-41.015625
9968		-46.875000
9969		-44.921875
9970		-50.781250
9971		-44.921875
9972		-52.734375
9973		-46.875000
9974		-54.687500
9975		-48.828125
9976		-54.687500
9977		-50.781250
9978		-56.640625
9979		-52.734375
9980		-56.640625
9981		-52.734375
9982		-58.593750
9983		-54.687500
9984		-58.593750
9985		-56.640625
9986		-60.546875
9987		-56.640625
9988		-60.546875
9989		-58.593750
9990		-62.500000
9991		-56.640625
9992		-62.500000
9993		-58.593750
9994		-60.546875
9995		-58.593750
9996		-60.546875
9997		-58.593750
9998		-60.546875
9999		-58.593750
10000		-60.546875
