Channel              :		CH1
Frequency            :		1.982kHz
Period               :		0.505ms
PK-PK                :		121.1mV
Probe attenuation    :		1X
Voltage per ADC value:		0.122070mV
Time interval        :		2.00000us

index		CH1_Voltage(mV)
1		56.640625
2		56.640625
3		60.546875
4		58.593750
5		62.500000
6		58.593750
7		62.500000
8		58.593750
9		62.500000
10		58.593750
11		62.500000
12		60.546875
13		62.500000
14		60.546875
15		62.500000
16		60.546875
17		62.500000
18		58.593750
19		62.500000
20		58.593750
21		62.500000
22		58.593750
23		62.500000
24		56.640625
25		60.546875
26		56.640625
27		60.546875
28		54.687500
29		60.546875
30		54.687500
31		58.593750
32		54.687500
33		56.640625
34		52.734375
35		56.640625
36		50.781250
37		54.687500
38		48.828125
39		52.734375
40		48.828125
41		52.734375
42		46.875000
43		50.781250
44		42.968750
45		48.828125
46		42.968750
47		46.875000
48		41.015625
49		44.921875
50		39.062500
51		42.968750
52		37.109375
53		41.015625
54		33.203125
55		39.062500
56		31.250000
57		35.156250
58		29.296875
59		33.203125
60		27.343750
61		31.250000
62		25.390625
63		29.296875
64		21.484375
65		25.390625
66		19.531250
67		23.437500
68		17.578125
69		21.484375
70		13.671875
71		19.531250
72		11.718750
73		15.625000
74		7.812500
75		13.671875
76		5.859375
77		9.765625
78		1.953125
79		7.812500
80		0.000000
81		3.906250
82		-1.953125
83		1.953125
84		-5.859375
85		0.000000
86		-7.812500
87		-1.953125
88		-11.718750
89		-5.859375
90		-13.671875
91		-9.765625
92		-15.625000
93		-11.718750
94		-19.531250
95		-13.671875
96		-21.484375
97		-15.625000
98		-23.437500
99		-19.531250
100		-25.390625
101		-21.484375
102		-27.343750
103		-23.437500
104		-29.296875
105		-25.390625
106		-33.203125
107		-27.343750
108		-35.156250
109		-29.296875
110		-35.156250
111		-31.250000
112		-37.109375
113		-33.203125
114		-39.062500
115		-35.156250
116		-42.968750
117		-37.109375
118		-42.968750
119		-39.062500
120		-44.921875
121		-41.015625
122		-44.921875
123		-41.015625
124		-46.875000
125		-42.968750
126		-46.875000
127		-42.968750
128		-48.828125
129		-44.921875
130		-48.828125
131		-44.921875
132		-48.828125
133		-46.875000
134		-50.781250
135		-44.921875
136		-50.781250
137		-46.875000
138		-50.781250
139		-46.875000
140		-48.828125
141		-46.875000
142		-50.781250
143		-46.875000
144		-48.828125
145		-46.875000
146		-50.781250
147		-44.921875
148		-48.828125
149		-44.921875
150		-46.875000
151		-42.968750
152		-46.875000
153		-42.968750
154		-46.875000
155		-41.015625
156		-44.921875
157		-41.015625
158		-42.968750
159		-39.062500
160		-42.968750
161		-39.062500
162		-41.015625
163		-37.109375
164		-39.062500
165		-35.156250
166		-37.109375
167		-33.203125
168		-35.156250
169		-31.250000
170		-35.156250
171		-29.296875
172		-31.250000
173		-27.343750
174		-29.296875
175		-25.390625
176		-27.343750
177		-21.484375
178		-25.390625
179		-19.531250
180		-23.437500
181		-17.578125
182		-19.531250
183		-15.625000
184		-17.578125
185		-13.671875
186		-15.625000
187		-9.765625
188		-11.718750
189		-7.812500
190		-9.765625
191		-5.859375
192		-7.812500
193		-1.953125
194		-3.906250
195		0.000000
196		-1.953125
197		3.906250
198		1.953125
199		5.859375
200		3.906250
201		9.765625
202		5.859375
203		11.718750
204		9.765625
205		13.671875
206		11.718750
207		17.578125
208		15.625000
209		19.531250
210		17.578125
211		21.484375
212		19.531250
213		25.390625
214		23.437500
215		27.343750
216		25.390625
217		29.296875
218		27.343750
219		33.203125
220		31.250000
221		35.156250
222		31.250000
223		37.109375
224		35.156250
225		39.062500
226		37.109375
227		41.015625
228		39.062500
229		44.921875
230		41.015625
231		44.921875
232		42.968750
233		46.875000
234		44.921875
235		48.828125
236		46.875000
237		50.781250
238		48.828125
239		52.734375
240		50.781250
241		54.687500
242		50.781250
243		54.687500
244		52.734375
245		56.640625
246		54.687500
247		58.593750
248		54.687500
249		58.593750
250		56.640625
251		60.546875
252		56.640625
253		60.546875
254		58.593750
255		62.500000
256		58.593750
257		62.500000
258		58.593750
259		62.500000
260		58.593750
261		62.500000
262		60.546875
263		62.500000
264		60.546875
265		62.500000
266		58.593750
267		62.500000
268		58.593750
269		64.453125
270		58.593750
271		62.500000
272		58.593750
273		62.500000
274		58.593750
275		62.500000
276		58.593750
277		62.500000
278		56.640625
279		60.546875
280		56.640625
281		60.546875
282		54.687500
283		58.593750
284		52.734375
285		58.593750
286		52.734375
287		56.640625
288		50.781250
289		54.687500
290		50.781250
291		54.687500
292		48.828125
293		52.734375
294		46.875000
295		50.781250
296		44.921875
297		48.828125
298		42.968750
299		46.875000
300		41.015625
301		44.921875
302		39.062500
303		42.968750
304		37.109375
305		41.015625
306		35.156250
307		39.062500
308		31.250000
309		37.109375
310		29.296875
311		35.156250
312		27.343750
313		33.203125
314		25.390625
315		31.250000
316		23.437500
317		27.343750
318		19.531250
319		23.437500
320		17.578125
321		21.484375
322		13.671875
323		19.531250
324		11.718750
325		17.578125
326		9.765625
327		13.671875
328		5.859375
329		11.718750
330		3.906250
331		7.812500
332		0.000000
333		5.859375
334		-1.953125
335		3.906250
336		-3.906250
337		0.000000
338		-7.812500
339		-1.953125
340		-9.765625
341		-5.859375
342		-11.718750
343		-7.812500
344		-15.625000
345		-11.718750
346		-17.578125
347		-11.718750
348		-19.531250
349		-15.625000
350		-21.484375
351		-17.578125
352		-25.390625
353		-21.484375
354		-27.343750
355		-23.437500
356		-29.296875
357		-25.390625
358		-31.250000
359		-27.343750
360		-33.203125
361		-29.296875
362		-35.156250
363		-31.250000
364		-37.109375
365		-33.203125
366		-39.062500
367		-35.156250
368		-41.015625
369		-37.109375
370		-42.968750
371		-39.062500
372		-42.968750
373		-39.062500
374		-44.921875
375		-41.015625
376		-46.875000
377		-42.968750
378		-46.875000
379		-42.968750
380		-48.828125
381		-44.921875
382		-48.828125
383		-44.921875
384		-48.828125
385		-46.875000
386		-50.781250
387		-46.875000
388		-50.781250
389		-46.875000
390		-50.781250
391		-46.875000
392		-50.781250
393		-46.875000
394		-50.781250
395		-46.875000
396		-48.828125
397		-46.875000
398		-48.828125
399		-46.875000
400		-48.828125
401		-44.921875
402		-48.828125
403		-44.921875
404		-46.875000
405		-42.968750
406		-46.875000
407		-42.968750
408		-46.875000
409		-41.015625
410		-44.921875
411		-39.062500
412		-42.968750
413		-37.109375
414		-41.015625
415		-37.109375
416		-39.062500
417		-35.156250
418		-37.109375
419		-33.203125
420		-37.109375
421		-31.250000
422		-33.203125
423		-29.296875
424		-31.250000
425		-27.343750
426		-29.296875
427		-25.390625
428		-27.343750
429		-23.437500
430		-25.390625
431		-19.531250
432		-23.437500
433		-17.578125
434		-19.531250
435		-15.625000
436		-17.578125
437		-13.671875
438		-15.625000
439		-9.765625
440		-11.718750
441		-7.812500
442		-9.765625
443		-3.906250
444		-7.812500
445		-1.953125
446		-5.859375
447		0.000000
448		-1.953125
449		3.906250
450		0.000000
451		5.859375
452		3.906250
453		9.765625
454		5.859375
455		11.718750
456		9.765625
457		13.671875
458		11.718750
459		15.625000
460		13.671875
461		19.531250
462		17.578125
463		21.484375
464		19.531250
465		25.390625
466		21.484375
467		27.343750
468		25.390625
469		29.296875
470		27.343750
471		31.250000
472		29.296875
473		33.203125
474		31.250000
475		37.109375
476		35.156250
477		39.062500
478		37.109375
479		41.015625
480		39.062500
481		42.968750
482		39.062500
483		44.921875
484		42.968750
485		46.875000
486		44.921875
487		48.828125
488		46.875000
489		50.781250
490		48.828125
491		52.734375
492		50.781250
493		52.734375
494		50.781250
495		54.687500
496		52.734375
497		56.640625
498		54.687500
499		58.593750
500		54.687500
501		58.593750
502		56.640625
503		58.593750
504		56.640625
505		60.546875
506		56.640625
507		62.500000
508		58.593750
509		62.500000
510		58.593750
511		62.500000
512		60.546875
513		62.500000
514		60.546875
515		62.500000
516		58.593750
517		62.500000
518		60.546875
519		62.500000
520		60.546875
521		62.500000
522		60.546875
523		62.500000
524		58.593750
525		62.500000
526		58.593750
527		62.500000
528		58.593750
529		62.500000
530		56.640625
531		60.546875
532		56.640625
533		60.546875
534		56.640625
535		58.593750
536		54.687500
537		58.593750
538		52.734375
539		56.640625
540		52.734375
541		56.640625
542		48.828125
543		54.687500
544		48.828125
545		52.734375
546		46.875000
547		50.781250
548		44.921875
549		48.828125
550		44.921875
551		46.875000
552		41.015625
553		44.921875
554		39.062500
555		44.921875
556		37.109375
557		42.968750
558		35.156250
559		41.015625
560		33.203125
561		37.109375
562		29.296875
563		35.156250
564		29.296875
565		33.203125
566		25.390625
567		31.250000
568		23.437500
569		27.343750
570		19.531250
571		25.390625
572		17.578125
573		23.437500
574		15.625000
575		19.531250
576		13.671875
577		17.578125
578		9.765625
579		15.625000
580		7.812500
581		11.718750
582		3.906250
583		9.765625
584		1.953125
585		5.859375
586		0.000000
587		3.906250
588		-3.906250
589		1.953125
590		-5.859375
591		-1.953125
592		-9.765625
593		-3.906250
594		-11.718750
595		-7.812500
596		-13.671875
597		-9.765625
598		-17.578125
599		-11.718750
600		-19.531250
601		-15.625000
602		-21.484375
603		-17.578125
604		-25.390625
605		-19.531250
606		-27.343750
607		-23.437500
608		-29.296875
609		-23.437500
610		-31.250000
611		-25.390625
612		-33.203125
613		-29.296875
614		-35.156250
615		-31.250000
616		-37.109375
617		-31.250000
618		-39.062500
619		-35.156250
620		-41.015625
621		-37.109375
622		-42.968750
623		-37.109375
624		-42.968750
625		-39.062500
626		-44.921875
627		-41.015625
628		-44.921875
629		-41.015625
630		-46.875000
631		-42.968750
632		-48.828125
633		-44.921875
634		-46.875000
635		-44.921875
636		-48.828125
637		-44.921875
638		-48.828125
639		-46.875000
640		-48.828125
641		-46.875000
642		-50.781250
643		-46.875000
644		-48.828125
645		-46.875000
646		-48.828125
647		-46.875000
648		-50.781250
649		-46.875000
650		-48.828125
651		-44.921875
652		-48.828125
653		-44.921875
654		-48.828125
655		-42.968750
656		-46.875000
657		-42.968750
658		-46.875000
659		-42.968750
660		-44.921875
661		-41.015625
662		-44.921875
663		-41.015625
664		-42.968750
665		-39.062500
666		-41.015625
667		-35.156250
668		-39.062500
669		-35.156250
670		-37.109375
671		-33.203125
672		-37.109375
673		-31.250000
674		-35.156250
675		-29.296875
676		-31.250000
677		-27.343750
678		-29.296875
679		-25.390625
680		-27.343750
681		-23.437500
682		-25.390625
683		-21.484375
684		-23.437500
685		-19.531250
686		-21.484375
687		-15.625000
688		-17.578125
689		-13.671875
690		-15.625000
691		-11.718750
692		-13.671875
693		-7.812500
694		-11.718750
695		-5.859375
696		-7.812500
697		-3.906250
698		-5.859375
699		0.000000
700		-1.953125
701		1.953125
702		0.000000
703		5.859375
704		3.906250
705		7.812500
706		5.859375
707		9.765625
708		7.812500
709		13.671875
710		11.718750
711		15.625000
712		13.671875
713		19.531250
714		17.578125
715		21.484375
716		19.531250
717		25.390625
718		21.484375
719		25.390625
720		25.390625
721		29.296875
722		27.343750
723		31.250000
724		29.296875
725		33.203125
726		31.250000
727		37.109375
728		33.203125
729		39.062500
730		37.109375
731		41.015625
732		39.062500
733		42.968750
734		41.015625
735		44.921875
736		42.968750
737		46.875000
738		44.921875
739		48.828125
740		44.921875
741		50.781250
742		48.828125
743		52.734375
744		48.828125
745		52.734375
746		50.781250
747		54.687500
748		52.734375
749		56.640625
750		54.687500
751		58.593750
752		54.687500
753		58.593750
754		56.640625
755		60.546875
756		56.640625
757		60.546875
758		58.593750
759		60.546875
760		58.593750
761		62.500000
762		58.593750
763		62.500000
764		60.546875
765		62.500000
766		60.546875
767		64.453125
768		60.546875
769		64.453125
770		60.546875
771		62.500000
772		60.546875
773		64.453125
774		60.546875
775		62.500000
776		60.546875
777		62.500000
778		58.593750
779		62.500000
780		58.593750
781		62.500000
782		58.593750
783		62.500000
784		56.640625
785		60.546875
786		56.640625
787		58.593750
788		56.640625
789		58.593750
790		54.687500
791		58.593750
792		52.734375
793		56.640625
794		50.781250
795		54.687500
796		48.828125
797		52.734375
798		48.828125
799		52.734375
800		46.875000
801		50.781250
802		44.921875
803		50.781250
804		42.968750
805		46.875000
806		41.015625
807		44.921875
808		37.109375
809		42.968750
810		37.109375
811		41.015625
812		35.156250
813		39.062500
814		31.250000
815		37.109375
816		29.296875
817		33.203125
818		27.343750
819		31.250000
820		25.390625
821		29.296875
822		21.484375
823		25.390625
824		19.531250
825		25.390625
826		17.578125
827		21.484375
828		13.671875
829		19.531250
830		11.718750
831		15.625000
832		7.812500
833		13.671875
834		5.859375
835		9.765625
836		1.953125
837		7.812500
838		0.000000
839		3.906250
840		-1.953125
841		1.953125
842		-5.859375
843		0.000000
844		-7.812500
845		-1.953125
846		-9.765625
847		-5.859375
848		-13.671875
849		-7.812500
850		-17.578125
851		-11.718750
852		-17.578125
853		-13.671875
854		-21.484375
855		-17.578125
856		-23.437500
857		-19.531250
858		-25.390625
859		-21.484375
860		-29.296875
861		-23.437500
862		-29.296875
863		-25.390625
864		-31.250000
865		-27.343750
866		-33.203125
867		-29.296875
868		-37.109375
869		-31.250000
870		-37.109375
871		-33.203125
872		-39.062500
873		-35.156250
874		-41.015625
875		-37.109375
876		-42.968750
877		-39.062500
878		-42.968750
879		-41.015625
880		-44.921875
881		-41.015625
882		-44.921875
883		-42.968750
884		-46.875000
885		-42.968750
886		-46.875000
887		-42.968750
888		-48.828125
889		-44.921875
890		-48.828125
891		-44.921875
892		-48.828125
893		-44.921875
894		-48.828125
895		-46.875000
896		-48.828125
897		-46.875000
898		-48.828125
899		-44.921875
900		-48.828125
901		-44.921875
902		-48.828125
903		-44.921875
904		-48.828125
905		-44.921875
906		-46.875000
907		-44.921875
908		-46.875000
909		-42.968750
910		-44.921875
911		-42.968750
912		-44.921875
913		-41.015625
914		-42.968750
915		-41.015625
916		-42.968750
917		-39.062500
918		-41.015625
919		-37.109375
920		-39.062500
921		-35.156250
922		-37.109375
923		-33.203125
924		-35.156250
925		-31.250000
926		-33.203125
927		-29.296875
928		-31.250000
929		-27.343750
930		-29.296875
931		-25.390625
932		-29.296875
933		-23.437500
934		-25.390625
935		-21.484375
936		-23.437500
937		-19.531250
938		-21.484375
939		-15.625000
940		-17.578125
941		-13.671875
942		-15.625000
943		-11.718750
944		-13.671875
945		-7.812500
946		-9.765625
947		-5.859375
948		-7.812500
949		-3.906250
950		-5.859375
951		0.000000
952		-3.906250
953		1.953125
954		0.000000
955		3.906250
956		3.906250
957		7.812500
958		3.906250
959		9.765625
960		7.812500
961		13.671875
962		11.718750
963		15.625000
964		13.671875
965		19.531250
966		15.625000
967		21.484375
968		19.531250
969		23.437500
970		21.484375
971		25.390625
972		25.390625
973		29.296875
974		27.343750
975		31.250000
976		29.296875
977		33.203125
978		31.250000
979		35.156250
980		33.203125
981		39.062500
982		37.109375
983		41.015625
984		37.109375
985		42.968750
986		41.015625
987		44.921875
988		42.968750
989		46.875000
990		44.921875
991		48.828125
992		46.875000
993		50.781250
994		48.828125
995		52.734375
996		50.781250
997		52.734375
998		50.781250
999		54.687500
1000		52.734375
1001		56.640625
1002		52.734375
1003		58.593750
1004		56.640625
1005		58.593750
1006		56.640625
1007		58.593750
1008		56.640625
1009		60.546875
1010		58.593750
1011		60.546875
1012		58.593750
1013		62.500000
1014		58.593750
1015		62.500000
1016		60.546875
1017		62.500000
1018		60.546875
1019		64.453125
1020		60.546875
1021		64.453125
1022		60.546875
1023		64.453125
1024		60.546875
1025		64.453125
1026		60.546875
1027		64.453125
1028		60.546875
1029		64.453125
1030		60.546875
1031		62.500000
1032		58.593750
1033		62.500000
1034		58.593750
1035		62.500000
1036		56.640625
1037		60.546875
1038		56.640625
1039		60.546875
1040		56.640625
1041		58.593750
1042		54.687500
1043		58.593750
1044		52.734375
1045		56.640625
1046		52.734375
1047		56.640625
1048		50.781250
1049		54.687500
1050		48.828125
1051		52.734375
1052		46.875000
1053		50.781250
1054		44.921875
1055		50.781250
1056		44.921875
1057		46.875000
1058		41.015625
1059		44.921875
1060		39.062500
1061		42.968750
1062		37.109375
1063		41.015625
1064		35.156250
1065		39.062500
1066		33.203125
1067		37.109375
1068		31.250000
1069		35.156250
1070		27.343750
1071		33.203125
1072		25.390625
1073		29.296875
1074		21.484375
1075		27.343750
1076		19.531250
1077		25.390625
1078		17.578125
1079		21.484375
1080		15.625000
1081		19.531250
1082		11.718750
1083		15.625000
1084		7.812500
1085		13.671875
1086		5.859375
1087		11.718750
1088		3.906250
1089		7.812500
1090		1.953125
1091		5.859375
1092		-1.953125
1093		1.953125
1094		-3.906250
1095		0.000000
1096		-7.812500
1097		-1.953125
1098		-9.765625
1099		-5.859375
1100		-11.718750
1101		-7.812500
1102		-15.625000
1103		-9.765625
1104		-17.578125
1105		-11.718750
1106		-19.531250
1107		-15.625000
1108		-23.437500
1109		-17.578125
1110		-25.390625
1111		-19.531250
1112		-27.343750
1113		-23.437500
1114		-29.296875
1115		-25.390625
1116		-33.203125
1117		-27.343750
1118		-33.203125
1119		-29.296875
1120		-37.109375
1121		-31.250000
1122		-37.109375
1123		-33.203125
1124		-39.062500
1125		-35.156250
1126		-41.015625
1127		-35.156250
1128		-42.968750
1129		-37.109375
1130		-42.968750
1131		-39.062500
1132		-44.921875
1133		-41.015625
1134		-44.921875
1135		-42.968750
1136		-46.875000
1137		-42.968750
1138		-46.875000
1139		-42.968750
1140		-46.875000
1141		-44.921875
1142		-48.828125
1143		-44.921875
1144		-48.828125
1145		-44.921875
1146		-48.828125
1147		-46.875000
1148		-48.828125
1149		-44.921875
1150		-48.828125
1151		-46.875000
1152		-48.828125
1153		-44.921875
1154		-48.828125
1155		-44.921875
1156		-46.875000
1157		-44.921875
1158		-48.828125
1159		-42.968750
1160		-46.875000
1161		-42.968750
1162		-44.921875
1163		-42.968750
1164		-44.921875
1165		-41.015625
1166		-42.968750
1167		-41.015625
1168		-42.968750
1169		-39.062500
1170		-41.015625
1171		-37.109375
1172		-39.062500
1173		-35.156250
1174		-37.109375
1175		-33.203125
1176		-37.109375
1177		-31.250000
1178		-35.156250
1179		-29.296875
1180		-31.250000
1181		-27.343750
1182		-31.250000
1183		-27.343750
1184		-27.343750
1185		-23.437500
1186		-25.390625
1187		-21.484375
1188		-23.437500
1189		-19.531250
1190		-21.484375
1191		-17.578125
1192		-17.578125
1193		-13.671875
1194		-17.578125
1195		-11.718750
1196		-13.671875
1197		-7.812500
1198		-11.718750
1199		-5.859375
1200		-7.812500
1201		-3.906250
1202		-5.859375
1203		-1.953125
1204		-3.906250
1205		1.953125
1206		0.000000
1207		3.906250
1208		1.953125
1209		5.859375
1210		3.906250
1211		9.765625
1212		7.812500
1213		11.718750
1214		9.765625
1215		15.625000
1216		13.671875
1217		17.578125
1218		15.625000
1219		19.531250
1220		17.578125
1221		23.437500
1222		19.531250
1223		25.390625
1224		23.437500
1225		29.296875
1226		25.390625
1227		31.250000
1228		29.296875
1229		33.203125
1230		31.250000
1231		35.156250
1232		33.203125
1233		39.062500
1234		35.156250
1235		41.015625
1236		39.062500
1237		42.968750
1238		41.015625
1239		44.921875
1240		42.968750
1241		46.875000
1242		44.921875
1243		48.828125
1244		44.921875
1245		50.781250
1246		48.828125
1247		52.734375
1248		48.828125
1249		52.734375
1250		50.781250
1251		54.687500
1252		52.734375
1253		56.640625
1254		54.687500
1255		58.593750
1256		54.687500
1257		58.593750
1258		56.640625
1259		58.593750
1260		56.640625
1261		60.546875
1262		58.593750
1263		62.500000
1264		58.593750
1265		62.500000
1266		60.546875
1267		62.500000
1268		60.546875
1269		62.500000
1270		60.546875
1271		64.453125
1272		60.546875
1273		64.453125
1274		60.546875
1275		64.453125
1276		60.546875
1277		64.453125
1278		60.546875
1279		64.453125
1280		60.546875
1281		64.453125
1282		60.546875
1283		64.453125
1284		58.593750
1285		62.500000
1286		58.593750
1287		62.500000
1288		58.593750
1289		62.500000
1290		56.640625
1291		60.546875
1292		56.640625
1293		60.546875
1294		54.687500
1295		58.593750
1296		54.687500
1297		56.640625
1298		52.734375
1299		56.640625
1300		50.781250
1301		54.687500
1302		48.828125
1303		52.734375
1304		46.875000
1305		52.734375
1306		46.875000
1307		50.781250
1308		44.921875
1309		46.875000
1310		41.015625
1311		46.875000
1312		41.015625
1313		44.921875
1314		37.109375
1315		42.968750
1316		35.156250
1317		39.062500
1318		33.203125
1319		37.109375
1320		31.250000
1321		35.156250
1322		29.296875
1323		33.203125
1324		25.390625
1325		31.250000
1326		23.437500
1327		27.343750
1328		21.484375
1329		27.343750
1330		17.578125
1331		23.437500
1332		15.625000
1333		19.531250
1334		13.671875
1335		17.578125
1336		9.765625
1337		15.625000
1338		5.859375
1339		11.718750
1340		5.859375
1341		9.765625
1342		1.953125
1343		5.859375
1344		0.000000
1345		3.906250
1346		-3.906250
1347		1.953125
1348		-5.859375
1349		-1.953125
1350		-7.812500
1351		-3.906250
1352		-11.718750
1353		-7.812500
1354		-13.671875
1355		-9.765625
1356		-17.578125
1357		-11.718750
1358		-19.531250
1359		-15.625000
1360		-21.484375
1361		-17.578125
1362		-23.437500
1363		-19.531250
1364		-25.390625
1365		-21.484375
1366		-29.296875
1367		-23.437500
1368		-31.250000
1369		-27.343750
1370		-33.203125
1371		-27.343750
1372		-35.156250
1373		-31.250000
1374		-35.156250
1375		-33.203125
1376		-37.109375
1377		-35.156250
1378		-39.062500
1379		-35.156250
1380		-41.015625
1381		-37.109375
1382		-42.968750
1383		-39.062500
1384		-44.921875
1385		-41.015625
1386		-44.921875
1387		-41.015625
1388		-46.875000
1389		-42.968750
1390		-46.875000
1391		-42.968750
1392		-46.875000
1393		-44.921875
1394		-48.828125
1395		-44.921875
1396		-48.828125
1397		-44.921875
1398		-48.828125
1399		-44.921875
1400		-48.828125
1401		-46.875000
1402		-48.828125
1403		-44.921875
1404		-50.781250
1405		-44.921875
1406		-48.828125
1407		-44.921875
1408		-46.875000
1409		-44.921875
1410		-46.875000
1411		-44.921875
1412		-46.875000
1413		-42.968750
1414		-46.875000
1415		-42.968750
1416		-44.921875
1417		-41.015625
1418		-42.968750
1419		-41.015625
1420		-42.968750
1421		-39.062500
1422		-42.968750
1423		-37.109375
1424		-41.015625
1425		-37.109375
1426		-37.109375
1427		-35.156250
1428		-37.109375
1429		-31.250000
1430		-37.109375
1431		-29.296875
1432		-33.203125
1433		-29.296875
1434		-31.250000
1435		-27.343750
1436		-29.296875
1437		-25.390625
1438		-27.343750
1439		-19.531250
1440		-23.437500
1441		-19.531250
1442		-21.484375
1443		-17.578125
1444		-19.531250
1445		-13.671875
1446		-17.578125
1447		-11.718750
1448		-15.625000
1449		-7.812500
1450		-11.718750
1451		-7.812500
1452		-9.765625
1453		-3.906250
1454		-5.859375
1455		-1.953125
1456		-3.906250
1457		1.953125
1458		0.000000
1459		3.906250
1460		1.953125
1461		5.859375
1462		3.906250
1463		9.765625
1464		5.859375
1465		13.671875
1466		9.765625
1467		15.625000
1468		13.671875
1469		17.578125
1470		13.671875
1471		21.484375
1472		15.625000
1473		25.390625
1474		19.531250
1475		25.390625
1476		23.437500
1477		27.343750
1478		25.390625
1479		33.203125
1480		27.343750
1481		35.156250
1482		29.296875
1483		37.109375
1484		33.203125
1485		37.109375
1486		35.156250
1487		39.062500
1488		37.109375
1489		42.968750
1490		39.062500
1491		44.921875
1492		42.968750
1493		46.875000
1494		42.968750
1495		46.875000
1496		44.921875
1497		52.734375
1498		46.875000
1499		52.734375
1500		46.875000
1501		54.687500
1502		48.828125
1503		56.640625
1504		50.781250
1505		58.593750
1506		52.734375
1507		58.593750
1508		54.687500
1509		58.593750
1510		56.640625
1511		58.593750
1512		54.687500
1513		62.500000
1514		56.640625
1515		62.500000
1516		56.640625
1517		64.453125
1518		58.593750
1519		64.453125
1520		58.593750
1521		64.453125
1522		58.593750
1523		66.406250
1524		58.593750
1525		66.406250
1526		60.546875
1527		64.453125
1528		58.593750
1529		66.406250
1530		58.593750
1531		66.406250
1532		58.593750
1533		66.406250
1534		58.593750
1535		66.406250
1536		58.593750
1537		64.453125
1538		56.640625
1539		64.453125
1540		56.640625
1541		62.500000
1542		58.593750
1543		60.546875
1544		56.640625
1545		58.593750
1546		52.734375
1547		60.546875
1548		52.734375
1549		58.593750
1550		50.781250
1551		58.593750
1552		48.828125
1553		56.640625
1554		46.875000
1555		56.640625
1556		46.875000
1557		54.687500
1558		44.921875
1559		52.734375
1560		44.921875
1561		48.828125
1562		41.015625
1563		46.875000
1564		39.062500
1565		46.875000
1566		37.109375
1567		44.921875
1568		33.203125
1569		42.968750
1570		31.250000
1571		41.015625
1572		29.296875
1573		37.109375
1574		29.296875
1575		35.156250
1576		25.390625
1577		31.250000
1578		23.437500
1579		29.296875
1580		19.531250
1581		27.343750
1582		15.625000
1583		25.390625
1584		13.671875
1585		23.437500
1586		11.718750
1587		19.531250
1588		9.765625
1589		17.578125
1590		5.859375
1591		13.671875
1592		5.859375
1593		9.765625
1594		1.953125
1595		7.812500
1596		-1.953125
1597		3.906250
1598		-3.906250
1599		3.906250
1600		-7.812500
1601		0.000000
1602		-11.718750
1603		-1.953125
1604		-13.671875
1605		-5.859375
1606		-15.625000
1607		-5.859375
1608		-17.578125
1609		-9.765625
1610		-17.578125
1611		-13.671875
1612		-23.437500
1613		-17.578125
1614		-25.390625
1615		-17.578125
1616		-27.343750
1617		-19.531250
1618		-29.296875
1619		-21.484375
1620		-31.250000
1621		-23.437500
1622		-35.156250
1623		-25.390625
1624		-37.109375
1625		-27.343750
1626		-35.156250
1627		-33.203125
1628		-37.109375
1629		-35.156250
1630		-41.015625
1631		-33.203125
1632		-42.968750
1633		-35.156250
1634		-44.921875
1635		-37.109375
1636		-44.921875
1637		-39.062500
1638		-46.875000
1639		-39.062500
1640		-46.875000
1641		-41.015625
1642		-48.828125
1643		-41.015625
1644		-46.875000
1645		-44.921875
1646		-48.828125
1647		-42.968750
1648		-50.781250
1649		-42.968750
1650		-50.781250
1651		-42.968750
1652		-50.781250
1653		-42.968750
1654		-50.781250
1655		-42.968750
1656		-50.781250
1657		-42.968750
1658		-50.781250
1659		-42.968750
1660		-46.875000
1661		-44.921875
1662		-48.828125
1663		-44.921875
1664		-48.828125
1665		-41.015625
1666		-48.828125
1667		-41.015625
1668		-46.875000
1669		-39.062500
1670		-44.921875
1671		-37.109375
1672		-44.921875
1673		-37.109375
1674		-42.968750
1675		-35.156250
1676		-41.015625
1677		-37.109375
1678		-37.109375
1679		-35.156250
1680		-37.109375
1681		-31.250000
1682		-37.109375
1683		-29.296875
1684		-35.156250
1685		-27.343750
1686		-33.203125
1687		-23.437500
1688		-31.250000
1689		-23.437500
1690		-29.296875
1691		-19.531250
1692		-27.343750
1693		-19.531250
1694		-21.484375
1695		-17.578125
1696		-19.531250
1697		-13.671875
1698		-19.531250
1699		-9.765625
1700		-17.578125
1701		-7.812500
1702		-13.671875
1703		-5.859375
1704		-11.718750
1705		-3.906250
1706		-9.765625
1707		0.000000
1708		-5.859375
1709		1.953125
1710		-1.953125
1711		3.906250
1712		1.953125
1713		5.859375
1714		3.906250
1715		9.765625
1716		5.859375
1717		13.671875
1718		7.812500
1719		15.625000
1720		11.718750
1721		17.578125
1722		13.671875
1723		21.484375
1724		15.625000
1725		23.437500
1726		19.531250
1727		25.390625
1728		23.437500
1729		27.343750
1730		25.390625
1731		31.250000
1732		25.390625
1733		33.203125
1734		27.343750
1735		37.109375
1736		31.250000
1737		39.062500
1738		33.203125
1739		41.015625
1740		35.156250
1741		42.968750
1742		37.109375
1743		44.921875
1744		41.015625
1745		44.921875
1746		44.921875
1747		46.875000
1748		42.968750
1749		52.734375
1750		44.921875
1751		52.734375
1752		46.875000
1753		54.687500
1754		48.828125
1755		56.640625
1756		50.781250
1757		58.593750
1758		50.781250
1759		58.593750
1760		54.687500
1761		58.593750
1762		56.640625
1763		58.593750
1764		54.687500
1765		62.500000
1766		56.640625
1767		62.500000
1768		56.640625
1769		64.453125
1770		56.640625
1771		64.453125
1772		58.593750
1773		66.406250
1774		58.593750
1775		66.406250
1776		58.593750
1777		66.406250
1778		60.546875
1779		64.453125
1780		60.546875
1781		64.453125
1782		58.593750
1783		66.406250
1784		58.593750
1785		66.406250
1786		58.593750
1787		66.406250
1788		58.593750
1789		66.406250
1790		56.640625
1791		64.453125
1792		56.640625
1793		64.453125
1794		58.593750
1795		60.546875
1796		56.640625
1797		60.546875
1798		54.687500
1799		60.546875
1800		52.734375
1801		60.546875
1802		50.781250
1803		58.593750
1804		48.828125
1805		58.593750
1806		48.828125
1807		56.640625
1808		46.875000
1809		54.687500
1810		46.875000
1811		52.734375
1812		44.921875
1813		48.828125
1814		41.015625
1815		48.828125
1816		39.062500
1817		46.875000
1818		37.109375
1819		44.921875
1820		35.156250
1821		42.968750
1822		33.203125
1823		41.015625
1824		31.250000
1825		39.062500
1826		29.296875
1827		37.109375
1828		27.343750
1829		31.250000
1830		25.390625
1831		29.296875
1832		19.531250
1833		29.296875
1834		17.578125
1835		27.343750
1836		15.625000
1837		23.437500
1838		11.718750
1839		21.484375
1840		9.765625
1841		17.578125
1842		5.859375
1843		15.625000
1844		5.859375
1845		13.671875
1846		3.906250
1847		7.812500
1848		0.000000
1849		5.859375
1850		-3.906250
1851		3.906250
1852		-5.859375
1853		1.953125
1854		-9.765625
1855		-1.953125
1856		-11.718750
1857		-3.906250
1858		-15.625000
1859		-5.859375
1860		-15.625000
1861		-7.812500
1862		-17.578125
1863		-13.671875
1864		-19.531250
1865		-15.625000
1866		-25.390625
1867		-15.625000
1868		-27.343750
1869		-19.531250
1870		-29.296875
1871		-21.484375
1872		-31.250000
1873		-23.437500
1874		-33.203125
1875		-25.390625
1876		-35.156250
1877		-27.343750
1878		-35.156250
1879		-31.250000
1880		-37.109375
1881		-33.203125
1882		-41.015625
1883		-33.203125
1884		-42.968750
1885		-35.156250
1886		-42.968750
1887		-35.156250
1888		-44.921875
1889		-37.109375
1890		-46.875000
1891		-39.062500
1892		-46.875000
1893		-39.062500
1894		-48.828125
1895		-41.015625
1896		-46.875000
1897		-42.968750
1898		-48.828125
1899		-42.968750
1900		-50.781250
1901		-42.968750
1902		-50.781250
1903		-42.968750
1904		-50.781250
1905		-42.968750
1906		-50.781250
1907		-42.968750
1908		-50.781250
1909		-42.968750
1910		-50.781250
1911		-42.968750
1912		-46.875000
1913		-44.921875
1914		-46.875000
1915		-44.921875
1916		-48.828125
1917		-41.015625
1918		-46.875000
1919		-41.015625
1920		-46.875000
1921		-39.062500
1922		-44.921875
1923		-39.062500
1924		-44.921875
1925		-37.109375
1926		-42.968750
1927		-35.156250
1928		-42.968750
1929		-35.156250
1930		-39.062500
1931		-35.156250
1932		-37.109375
1933		-31.250000
1934		-37.109375
1935		-29.296875
1936		-35.156250
1937		-27.343750
1938		-33.203125
1939		-23.437500
1940		-31.250000
1941		-23.437500
1942		-29.296875
1943		-19.531250
1944		-27.343750
1945		-19.531250
1946		-21.484375
1947		-17.578125
1948		-19.531250
1949		-15.625000
1950		-19.531250
1951		-11.718750
1952		-17.578125
1953		-7.812500
1954		-13.671875
1955		-5.859375
1956		-11.718750
1957		-3.906250
1958		-9.765625
1959		0.000000
1960		-5.859375
1961		1.953125
1962		-1.953125
1963		1.953125
1964		1.953125
1965		5.859375
1966		1.953125
1967		11.718750
1968		3.906250
1969		13.671875
1970		7.812500
1971		15.625000
1972		9.765625
1973		19.531250
1974		11.718750
1975		21.484375
1976		15.625000
1977		25.390625
1978		17.578125
1979		25.390625
1980		23.437500
1981		27.343750
1982		25.390625
1983		31.250000
1984		25.390625
1985		33.203125
1986		27.343750
1987		37.109375
1988		31.250000
1989		39.062500
1990		33.203125
1991		41.015625
1992		35.156250
1993		42.968750
1994		37.109375
1995		44.921875
1996		41.015625
1997		44.921875
1998		42.968750
1999		46.875000
2000		42.968750
2001		50.781250
2002		44.921875
2003		52.734375
2004		46.875000
2005		54.687500
2006		48.828125
2007		56.640625
2008		50.781250
2009		56.640625
2010		50.781250
2011		58.593750
2012		52.734375
2013		58.593750
2014		56.640625
2015		60.546875
2016		54.687500
2017		62.500000
2018		56.640625
2019		62.500000
2020		56.640625
2021		64.453125
2022		56.640625
2023		64.453125
2024		58.593750
2025		64.453125
2026		58.593750
2027		66.406250
2028		58.593750
2029		66.406250
2030		62.500000
2031		64.453125
2032		62.500000
2033		64.453125
2034		58.593750
2035		66.406250
2036		58.593750
2037		66.406250
2038		58.593750
2039		66.406250
2040		58.593750
2041		66.406250
2042		58.593750
2043		64.453125
2044		56.640625
2045		64.453125
2046		56.640625
2047		62.500000
2048		58.593750
2049		60.546875
2050		54.687500
2051		62.500000
2052		52.734375
2053		60.546875
2054		52.734375
2055		58.593750
2056		50.781250
2057		58.593750
2058		48.828125
2059		56.640625
2060		46.875000
2061		54.687500
2062		46.875000
2063		52.734375
2064		46.875000
2065		48.828125
2066		41.015625
2067		48.828125
2068		39.062500
2069		46.875000
2070		37.109375
2071		44.921875
2072		35.156250
2073		42.968750
2074		33.203125
2075		41.015625
2076		31.250000
2077		39.062500
2078		29.296875
2079		37.109375
2080		29.296875
2081		33.203125
2082		25.390625
2083		29.296875
2084		21.484375
2085		29.296875
2086		19.531250
2087		27.343750
2088		15.625000
2089		23.437500
2090		13.671875
2091		21.484375
2092		9.765625
2093		19.531250
2094		7.812500
2095		15.625000
2096		5.859375
2097		13.671875
2098		3.906250
2099		7.812500
2100		-1.953125
2101		5.859375
2102		-3.906250
2103		5.859375
2104		-5.859375
2105		1.953125
2106		-7.812500
2107		0.000000
2108		-11.718750
2109		-3.906250
2110		-13.671875
2111		-5.859375
2112		-15.625000
2113		-7.812500
2114		-17.578125
2115		-13.671875
2116		-19.531250
2117		-15.625000
2118		-23.437500
2119		-15.625000
2120		-27.343750
2121		-17.578125
2122		-29.296875
2123		-19.531250
2124		-31.250000
2125		-23.437500
2126		-33.203125
2127		-25.390625
2128		-35.156250
2129		-25.390625
2130		-35.156250
2131		-29.296875
2132		-37.109375
2133		-33.203125
2134		-41.015625
2135		-33.203125
2136		-41.015625
2137		-35.156250
2138		-42.968750
2139		-35.156250
2140		-44.921875
2141		-37.109375
2142		-46.875000
2143		-39.062500
2144		-46.875000
2145		-39.062500
2146		-46.875000
2147		-39.062500
2148		-46.875000
2149		-42.968750
2150		-46.875000
2151		-42.968750
2152		-50.781250
2153		-42.968750
2154		-50.781250
2155		-42.968750
2156		-50.781250
2157		-42.968750
2158		-50.781250
2159		-42.968750
2160		-50.781250
2161		-42.968750
2162		-50.781250
2163		-42.968750
2164		-46.875000
2165		-44.921875
2166		-46.875000
2167		-44.921875
2168		-48.828125
2169		-41.015625
2170		-48.828125
2171		-41.015625
2172		-46.875000
2173		-41.015625
2174		-46.875000
2175		-39.062500
2176		-44.921875
2177		-37.109375
2178		-44.921875
2179		-35.156250
2180		-42.968750
2181		-35.156250
2182		-39.062500
2183		-35.156250
2184		-37.109375
2185		-31.250000
2186		-37.109375
2187		-29.296875
2188		-35.156250
2189		-27.343750
2190		-33.203125
2191		-25.390625
2192		-31.250000
2193		-23.437500
2194		-29.296875
2195		-21.484375
2196		-27.343750
2197		-19.531250
2198		-23.437500
2199		-17.578125
2200		-19.531250
2201		-15.625000
2202		-19.531250
2203		-11.718750
2204		-17.578125
2205		-9.765625
2206		-15.625000
2207		-5.859375
2208		-11.718750
2209		-3.906250
2210		-9.765625
2211		-1.953125
2212		-7.812500
2213		1.953125
2214		-1.953125
2215		1.953125
2216		0.000000
2217		5.859375
2218		1.953125
2219		9.765625
2220		3.906250
2221		11.718750
2222		5.859375
2223		15.625000
2224		9.765625
2225		17.578125
2226		11.718750
2227		21.484375
2228		13.671875
2229		23.437500
2230		15.625000
2231		23.437500
2232		21.484375
2233		25.390625
2234		23.437500
2235		31.250000
2236		25.390625
2237		33.203125
2238		27.343750
2239		35.156250
2240		29.296875
2241		39.062500
2242		33.203125
2243		41.015625
2244		35.156250
2245		42.968750
2246		37.109375
2247		44.921875
2248		41.015625
2249		44.921875
2250		42.968750
2251		46.875000
2252		42.968750
2253		50.781250
2254		44.921875
2255		52.734375
2256		46.875000
2257		54.687500
2258		48.828125
2259		56.640625
2260		50.781250
2261		56.640625
2262		50.781250
2263		58.593750
2264		52.734375
2265		58.593750
2266		56.640625
2267		58.593750
2268		54.687500
2269		62.500000
2270		56.640625
2271		62.500000
2272		56.640625
2273		64.453125
2274		58.593750
2275		64.453125
2276		58.593750
2277		64.453125
2278		58.593750
2279		66.406250
2280		58.593750
2281		66.406250
2282		62.500000
2283		64.453125
2284		62.500000
2285		64.453125
2286		58.593750
2287		66.406250
2288		58.593750
2289		66.406250
2290		58.593750
2291		66.406250
2292		58.593750
2293		66.406250
2294		58.593750
2295		64.453125
2296		58.593750
2297		64.453125
2298		58.593750
2299		62.500000
2300		58.593750
2301		62.500000
2302		54.687500
2303		60.546875
2304		52.734375
2305		60.546875
2306		52.734375
2307		60.546875
2308		50.781250
2309		58.593750
2310		48.828125
2311		56.640625
2312		48.828125
2313		56.640625
2314		46.875000
2315		52.734375
2316		46.875000
2317		50.781250
2318		42.968750
2319		48.828125
2320		41.015625
2321		48.828125
2322		39.062500
2323		46.875000
2324		37.109375
2325		44.921875
2326		35.156250
2327		42.968750
2328		31.250000
2329		41.015625
2330		29.296875
2331		37.109375
2332		29.296875
2333		33.203125
2334		27.343750
2335		31.250000
2336		21.484375
2337		29.296875
2338		19.531250
2339		27.343750
2340		15.625000
2341		25.390625
2342		13.671875
2343		23.437500
2344		11.718750
2345		19.531250
2346		7.812500
2347		17.578125
2348		7.812500
2349		13.671875
2350		5.859375
2351		9.765625
2352		1.953125
2353		7.812500
2354		-1.953125
2355		5.859375
2356		-3.906250
2357		3.906250
2358		-7.812500
2359		0.000000
2360		-9.765625
2361		-1.953125
2362		-13.671875
2363		-3.906250
2364		-13.671875
2365		-7.812500
2366		-15.625000
2367		-11.718750
2368		-17.578125
2369		-13.671875
2370		-23.437500
2371		-15.625000
2372		-25.390625
2373		-17.578125
2374		-27.343750
2375		-19.531250
2376		-29.296875
2377		-21.484375
2378		-31.250000
2379		-23.437500
2380		-33.203125
2381		-25.390625
2382		-33.203125
2383		-29.296875
2384		-35.156250
2385		-31.250000
2386		-39.062500
2387		-33.203125
2388		-41.015625
2389		-33.203125
2390		-42.968750
2391		-35.156250
2392		-44.921875
2393		-37.109375
2394		-44.921875
2395		-37.109375
2396		-46.875000
2397		-39.062500
2398		-46.875000
2399		-39.062500
2400		-44.921875
2401		-42.968750
2402		-46.875000
2403		-42.968750
2404		-48.828125
2405		-42.968750
2406		-50.781250
2407		-42.968750
2408		-50.781250
2409		-42.968750
2410		-50.781250
2411		-42.968750
2412		-50.781250
2413		-42.968750
2414		-50.781250
2415		-42.968750
2416		-46.875000
2417		-44.921875
2418		-46.875000
2419		-44.921875
2420		-48.828125
2421		-41.015625
2422		-48.828125
2423		-41.015625
2424		-46.875000
2425		-39.062500
2426		-44.921875
2427		-37.109375
2428		-44.921875
2429		-37.109375
2430		-42.968750
2431		-35.156250
2432		-42.968750
2433		-35.156250
2434		-39.062500
2435		-35.156250
2436		-37.109375
2437		-31.250000
2438		-37.109375
2439		-29.296875
2440		-35.156250
2441		-27.343750
2442		-33.203125
2443		-25.390625
2444		-31.250000
2445		-23.437500
2446		-29.296875
2447		-21.484375
2448		-27.343750
2449		-19.531250
2450		-23.437500
2451		-19.531250
2452		-21.484375
2453		-15.625000
2454		-19.531250
2455		-11.718750
2456		-17.578125
2457		-9.765625
2458		-15.625000
2459		-5.859375
2460		-13.671875
2461		-3.906250
2462		-9.765625
2463		-1.953125
2464		-7.812500
2465		1.953125
2466		-3.906250
2467		1.953125
2468		0.000000
2469		3.906250
2470		1.953125
2471		9.765625
2472		3.906250
2473		11.718750
2474		5.859375
2475		15.625000
2476		7.812500
2477		17.578125
2478		11.718750
2479		21.484375
2480		15.625000
2481		23.437500
2482		17.578125
2483		25.390625
2484		21.484375
2485		25.390625
2486		25.390625
2487		29.296875
2488		25.390625
2489		33.203125
2490		27.343750
2491		35.156250
2492		29.296875
2493		37.109375
2494		31.250000
2495		41.015625
2496		35.156250
2497		42.968750
2498		37.109375
2499		44.921875
2500		41.015625
2501		44.921875
2502		42.968750
2503		46.875000
2504		42.968750
2505		50.781250
2506		44.921875
2507		52.734375
2508		46.875000
2509		54.687500
2510		48.828125
2511		56.640625
2512		48.828125
2513		56.640625
2514		50.781250
2515		58.593750
2516		52.734375
2517		58.593750
2518		56.640625
2519		58.593750
2520		56.640625
2521		62.500000
2522		56.640625
2523		62.500000
2524		56.640625
2525		64.453125
2526		58.593750
2527		64.453125
2528		58.593750
2529		66.406250
2530		58.593750
2531		66.406250
2532		58.593750
2533		66.406250
2534		60.546875
2535		64.453125
2536		62.500000
2537		64.453125
2538		60.546875
2539		66.406250
2540		58.593750
2541		66.406250
2542		58.593750
2543		66.406250
2544		58.593750
2545		66.406250
2546		58.593750
2547		66.406250
2548		56.640625
2549		64.453125
2550		58.593750
2551		64.453125
2552		58.593750
2553		60.546875
2554		56.640625
2555		62.500000
2556		54.687500
2557		62.500000
2558		52.734375
2559		60.546875
2560		52.734375
2561		58.593750
2562		50.781250
2563		58.593750
2564		48.828125
2565		56.640625
2566		46.875000
2567		54.687500
2568		46.875000
2569		50.781250
2570		44.921875
2571		48.828125
2572		41.015625
2573		48.828125
2574		39.062500
2575		46.875000
2576		37.109375
2577		44.921875
2578		35.156250
2579		44.921875
2580		31.250000
2581		41.015625
2582		31.250000
2583		39.062500
2584		31.250000
2585		35.156250
2586		27.343750
2587		31.250000
2588		23.437500
2589		31.250000
2590		19.531250
2591		29.296875
2592		17.578125
2593		25.390625
2594		15.625000
2595		23.437500
2596		11.718750
2597		21.484375
2598		9.765625
2599		17.578125
2600		7.812500
2601		15.625000
2602		5.859375
2603		9.765625
2604		1.953125
2605		7.812500
2606		-1.953125
2607		7.812500
2608		-3.906250
2609		3.906250
2610		-7.812500
2611		1.953125
2612		-7.812500
2613		0.000000
2614		-11.718750
2615		-3.906250
2616		-15.625000
2617		-5.859375
2618		-15.625000
2619		-9.765625
2620		-17.578125
2621		-13.671875
2622		-21.484375
2623		-13.671875
2624		-25.390625
2625		-17.578125
2626		-27.343750
2627		-17.578125
2628		-29.296875
2629		-21.484375
2630		-31.250000
2631		-23.437500
2632		-33.203125
2633		-25.390625
2634		-33.203125
2635		-27.343750
2636		-35.156250
2637		-31.250000
2638		-39.062500
2639		-33.203125
2640		-41.015625
2641		-33.203125
2642		-42.968750
2643		-35.156250
2644		-42.968750
2645		-35.156250
2646		-44.921875
2647		-37.109375
2648		-46.875000
2649		-39.062500
2650		-46.875000
2651		-39.062500
2652		-44.921875
2653		-42.968750
2654		-44.921875
2655		-42.968750
2656		-48.828125
2657		-41.015625
2658		-48.828125
2659		-42.968750
2660		-48.828125
2661		-42.968750
2662		-50.781250
2663		-42.968750
2664		-50.781250
2665		-42.968750
2666		-50.781250
2667		-42.968750
2668		-46.875000
2669		-42.968750
2670		-46.875000
2671		-44.921875
2672		-48.828125
2673		-41.015625
2674		-48.828125
2675		-41.015625
2676		-46.875000
2677		-39.062500
2678		-44.921875
2679		-39.062500
2680		-44.921875
2681		-37.109375
2682		-44.921875
2683		-35.156250
2684		-42.968750
2685		-35.156250
2686		-39.062500
2687		-35.156250
2688		-37.109375
2689		-33.203125
2690		-39.062500
2691		-29.296875
2692		-35.156250
2693		-27.343750
2694		-35.156250
2695		-25.390625
2696		-33.203125
2697		-23.437500
2698		-29.296875
2699		-21.484375
2700		-27.343750
2701		-19.531250
2702		-23.437500
2703		-19.531250
2704		-21.484375
2705		-17.578125
2706		-19.531250
2707		-13.671875
2708		-17.578125
2709		-9.765625
2710		-15.625000
2711		-7.812500
2712		-13.671875
2713		-3.906250
2714		-9.765625
2715		-1.953125
2716		-7.812500
2717		0.000000
2718		-5.859375
2719		1.953125
2720		0.000000
2721		3.906250
2722		1.953125
2723		9.765625
2724		1.953125
2725		11.718750
2726		5.859375
2727		15.625000
2728		7.812500
2729		17.578125
2730		11.718750
2731		19.531250
2732		13.671875
2733		23.437500
2734		17.578125
2735		25.390625
2736		21.484375
2737		25.390625
2738		23.437500
2739		27.343750
2740		25.390625
2741		33.203125
2742		27.343750
2743		35.156250
2744		29.296875
2745		37.109375
2746		31.250000
2747		41.015625
2748		33.203125
2749		42.968750
2750		37.109375
2751		44.921875
2752		37.109375
2753		44.921875
2754		42.968750
2755		46.875000
2756		42.968750
2757		50.781250
2758		44.921875
2759		52.734375
2760		46.875000
2761		54.687500
2762		46.875000
2763		56.640625
2764		48.828125
2765		56.640625
2766		50.781250
2767		58.593750
2768		52.734375
2769		58.593750
2770		56.640625
2771		58.593750
2772		56.640625
2773		62.500000
2774		56.640625
2775		62.500000
2776		56.640625
2777		64.453125
2778		58.593750
2779		64.453125
2780		58.593750
2781		66.406250
2782		58.593750
2783		66.406250
2784		58.593750
2785		66.406250
2786		62.500000
2787		64.453125
2788		62.500000
2789		64.453125
2790		60.546875
2791		66.406250
2792		60.546875
2793		68.359375
2794		60.546875
2795		66.406250
2796		60.546875
2797		66.406250
2798		58.593750
2799		66.406250
2800		58.593750
2801		66.406250
2802		58.593750
2803		64.453125
2804		58.593750
2805		62.500000
2806		54.687500
2807		62.500000
2808		54.687500
2809		62.500000
2810		52.734375
2811		60.546875
2812		52.734375
2813		60.546875
2814		50.781250
2815		58.593750
2816		48.828125
2817		56.640625
2818		48.828125
2819		56.640625
2820		48.828125
2821		52.734375
2822		46.875000
2823		50.781250
2824		42.968750
2825		50.781250
2826		41.015625
2827		48.828125
2828		37.109375
2829		46.875000
2830		35.156250
2831		44.921875
2832		33.203125
2833		42.968750
2834		31.250000
2835		41.015625
2836		31.250000
2837		37.109375
2838		29.296875
2839		33.203125
2840		23.437500
2841		31.250000
2842		21.484375
2843		29.296875
2844		19.531250
2845		27.343750
2846		15.625000
2847		25.390625
2848		13.671875
2849		21.484375
2850		9.765625
2851		19.531250
2852		9.765625
2853		15.625000
2854		7.812500
2855		11.718750
2856		3.906250
2857		9.765625
2858		0.000000
2859		7.812500
2860		-3.906250
2861		5.859375
2862		-5.859375
2863		1.953125
2864		-7.812500
2865		0.000000
2866		-11.718750
2867		-1.953125
2868		-13.671875
2869		-5.859375
2870		-13.671875
2871		-9.765625
2872		-15.625000
2873		-11.718750
2874		-21.484375
2875		-13.671875
2876		-23.437500
2877		-15.625000
2878		-25.390625
2879		-17.578125
2880		-27.343750
2881		-19.531250
2882		-31.250000
2883		-21.484375
2884		-33.203125
2885		-25.390625
2886		-33.203125
2887		-27.343750
2888		-33.203125
2889		-31.250000
2890		-37.109375
2891		-31.250000
2892		-39.062500
2893		-31.250000
2894		-41.015625
2895		-33.203125
2896		-42.968750
2897		-35.156250
2898		-42.968750
2899		-37.109375
2900		-44.921875
2901		-37.109375
2902		-44.921875
2903		-39.062500
2904		-44.921875
2905		-41.015625
2906		-44.921875
2907		-42.968750
2908		-48.828125
2909		-41.015625
2910		-48.828125
2911		-41.015625
2912		-48.828125
2913		-42.968750
2914		-48.828125
2915		-42.968750
2916		-50.781250
2917		-42.968750
2918		-50.781250
2919		-42.968750
2920		-48.828125
2921		-42.968750
2922		-46.875000
2923		-44.921875
2924		-48.828125
2925		-41.015625
2926		-46.875000
2927		-41.015625
2928		-46.875000
2929		-39.062500
2930		-44.921875
2931		-39.062500
2932		-44.921875
2933		-37.109375
2934		-44.921875
2935		-37.109375
2936		-42.968750
2937		-35.156250
2938		-39.062500
2939		-35.156250
2940		-37.109375
2941		-33.203125
2942		-39.062500
2943		-29.296875
2944		-37.109375
2945		-29.296875
2946		-35.156250
2947		-27.343750
2948		-33.203125
2949		-23.437500
2950		-29.296875
2951		-21.484375
2952		-27.343750
2953		-19.531250
2954		-23.437500
2955		-19.531250
2956		-21.484375
2957		-17.578125
2958		-19.531250
2959		-11.718750
2960		-19.531250
2961		-9.765625
2962		-15.625000
2963		-7.812500
2964		-13.671875
2965		-3.906250
2966		-11.718750
2967		-3.906250
2968		-9.765625
2969		0.000000
2970		-5.859375
2971		1.953125
2972		0.000000
2973		3.906250
2974		1.953125
2975		7.812500
2976		1.953125
2977		11.718750
2978		5.859375
2979		13.671875
2980		7.812500
2981		17.578125
2982		11.718750
2983		19.531250
2984		13.671875
2985		21.484375
2986		15.625000
2987		23.437500
2988		21.484375
2989		25.390625
2990		23.437500
2991		27.343750
2992		23.437500
2993		31.250000
2994		27.343750
2995		35.156250
2996		29.296875
2997		37.109375
2998		31.250000
2999		39.062500
3000		33.203125
3001		41.015625
3002		35.156250
3003		44.921875
3004		37.109375
3005		44.921875
3006		42.968750
3007		46.875000
3008		42.968750
3009		50.781250
3010		44.921875
3011		52.734375
3012		44.921875
3013		52.734375
3014		48.828125
3015		54.687500
3016		48.828125
3017		56.640625
3018		50.781250
3019		58.593750
3020		52.734375
3021		58.593750
3022		54.687500
3023		58.593750
3024		56.640625
3025		60.546875
3026		56.640625
3027		62.500000
3028		56.640625
3029		64.453125
3030		56.640625
3031		64.453125
3032		58.593750
3033		66.406250
3034		58.593750
3035		66.406250
3036		58.593750
3037		66.406250
3038		62.500000
3039		64.453125
3040		62.500000
3041		64.453125
3042		60.546875
3043		66.406250
3044		60.546875
3045		66.406250
3046		58.593750
3047		66.406250
3048		58.593750
3049		66.406250
3050		58.593750
3051		66.406250
3052		58.593750
3053		66.406250
3054		58.593750
3055		64.453125
3056		58.593750
3057		62.500000
3058		56.640625
3059		62.500000
3060		54.687500
3061		62.500000
3062		52.734375
3063		60.546875
3064		52.734375
3065		60.546875
3066		50.781250
3067		58.593750
3068		50.781250
3069		56.640625
3070		48.828125
3071		56.640625
3072		48.828125
3073		52.734375
3074		46.875000
3075		50.781250
3076		41.015625
3077		48.828125
3078		39.062500
3079		48.828125
3080		39.062500
3081		46.875000
3082		35.156250
3083		44.921875
3084		33.203125
3085		42.968750
3086		31.250000
3087		41.015625
3088		31.250000
3089		39.062500
3090		29.296875
3091		33.203125
3092		23.437500
3093		31.250000
3094		21.484375
3095		29.296875
3096		19.531250
3097		27.343750
3098		15.625000
3099		25.390625
3100		13.671875
3101		23.437500
3102		9.765625
3103		19.531250
3104		9.765625
3105		17.578125
3106		7.812500
3107		11.718750
3108		3.906250
3109		9.765625
3110		0.000000
3111		7.812500
3112		-3.906250
3113		5.859375
3114		-5.859375
3115		3.906250
3116		-7.812500
3117		0.000000
3118		-9.765625
3119		-1.953125
3120		-13.671875
3121		-3.906250
3122		-13.671875
3123		-9.765625
3124		-15.625000
3125		-11.718750
3126		-21.484375
3127		-13.671875
3128		-23.437500
3129		-15.625000
3130		-25.390625
3131		-17.578125
3132		-29.296875
3133		-19.531250
3134		-29.296875
3135		-21.484375
3136		-31.250000
3137		-23.437500
3138		-33.203125
3139		-25.390625
3140		-33.203125
3141		-29.296875
3142		-39.062500
3143		-31.250000
3144		-39.062500
3145		-31.250000
3146		-41.015625
3147		-33.203125
3148		-42.968750
3149		-35.156250
3150		-44.921875
3151		-37.109375
3152		-46.875000
3153		-37.109375
3154		-46.875000
3155		-39.062500
3156		-44.921875
3157		-42.968750
3158		-44.921875
3159		-42.968750
3160		-48.828125
3161		-41.015625
3162		-48.828125
3163		-41.015625
3164		-48.828125
3165		-42.968750
3166		-48.828125
3167		-42.968750
3168		-50.781250
3169		-42.968750
3170		-48.828125
3171		-42.968750
3172		-48.828125
3173		-42.968750
3174		-46.875000
3175		-44.921875
3176		-48.828125
3177		-41.015625
3178		-48.828125
3179		-41.015625
3180		-46.875000
3181		-39.062500
3182		-46.875000
3183		-39.062500
3184		-44.921875
3185		-37.109375
3186		-44.921875
3187		-37.109375
3188		-42.968750
3189		-35.156250
3190		-39.062500
3191		-35.156250
3192		-37.109375
3193		-33.203125
3194		-37.109375
3195		-29.296875
3196		-37.109375
3197		-29.296875
3198		-35.156250
3199		-25.390625
3200		-35.156250
3201		-25.390625
3202		-31.250000
3203		-21.484375
3204		-29.296875
3205		-19.531250
3206		-25.390625
3207		-19.531250
3208		-21.484375
3209		-17.578125
3210		-19.531250
3211		-13.671875
3212		-17.578125
3213		-9.765625
3214		-17.578125
3215		-7.812500
3216		-15.625000
3217		-5.859375
3218		-11.718750
3219		-1.953125
3220		-9.765625
3221		0.000000
3222		-5.859375
3223		1.953125
3224		-1.953125
3225		1.953125
3226		1.953125
3227		7.812500
3228		1.953125
3229		11.718750
3230		5.859375
3231		13.671875
3232		7.812500
3233		15.625000
3234		9.765625
3235		19.531250
3236		13.671875
3237		21.484375
3238		15.625000
3239		23.437500
3240		19.531250
3241		25.390625
3242		21.484375
3243		27.343750
3244		23.437500
3245		31.250000
3246		25.390625
3247		33.203125
3248		27.343750
3249		37.109375
3250		29.296875
3251		39.062500
3252		33.203125
3253		41.015625
3254		35.156250
3255		42.968750
3256		37.109375
3257		42.968750
3258		41.015625
3259		44.921875
3260		42.968750
3261		48.828125
3262		44.921875
3263		50.781250
3264		44.921875
3265		52.734375
3266		46.875000
3267		54.687500
3268		48.828125
3269		56.640625
3270		50.781250
3271		58.593750
3272		52.734375
3273		58.593750
3274		54.687500
3275		58.593750
3276		56.640625
3277		58.593750
3278		56.640625
3279		62.500000
3280		56.640625
3281		64.453125
3282		58.593750
3283		64.453125
3284		58.593750
3285		66.406250
3286		58.593750
3287		66.406250
3288		58.593750
3289		66.406250
3290		60.546875
3291		64.453125
3292		62.500000
3293		64.453125
3294		60.546875
3295		66.406250
3296		60.546875
3297		68.359375
3298		58.593750
3299		66.406250
3300		58.593750
3301		66.406250
3302		58.593750
3303		66.406250
3304		58.593750
3305		66.406250
3306		58.593750
3307		64.453125
3308		58.593750
3309		62.500000
3310		56.640625
3311		62.500000
3312		54.687500
3313		62.500000
3314		54.687500
3315		62.500000
3316		52.734375
3317		60.546875
3318		50.781250
3319		58.593750
3320		48.828125
3321		56.640625
3322		48.828125
3323		56.640625
3324		48.828125
3325		52.734375
3326		46.875000
3327		50.781250
3328		42.968750
3329		50.781250
3330		41.015625
3331		48.828125
3332		39.062500
3333		46.875000
3334		37.109375
3335		44.921875
3336		35.156250
3337		42.968750
3338		33.203125
3339		41.015625
3340		31.250000
3341		37.109375
3342		29.296875
3343		33.203125
3344		27.343750
3345		31.250000
3346		23.437500
3347		31.250000
3348		19.531250
3349		27.343750
3350		17.578125
3351		25.390625
3352		13.671875
3353		23.437500
3354		11.718750
3355		19.531250
3356		9.765625
3357		17.578125
3358		7.812500
3359		13.671875
3360		5.859375
3361		9.765625
3362		1.953125
3363		9.765625
3364		-1.953125
3365		7.812500
3366		-3.906250
3367		3.906250
3368		-5.859375
3369		1.953125
3370		-9.765625
3371		-1.953125
3372		-11.718750
3373		-3.906250
3374		-13.671875
3375		-7.812500
3376		-15.625000
3377		-11.718750
3378		-21.484375
3379		-13.671875
3380		-23.437500
3381		-13.671875
3382		-25.390625
3383		-15.625000
3384		-27.343750
3385		-19.531250
3386		-29.296875
3387		-21.484375
3388		-31.250000
3389		-23.437500
3390		-31.250000
3391		-27.343750
3392		-33.203125
3393		-29.296875
3394		-37.109375
3395		-31.250000
3396		-37.109375
3397		-33.203125
3398		-39.062500
3399		-33.203125
3400		-41.015625
3401		-35.156250
3402		-42.968750
3403		-37.109375
3404		-42.968750
3405		-39.062500
3406		-44.921875
3407		-39.062500
3408		-44.921875
3409		-41.015625
3410		-44.921875
3411		-42.968750
3412		-46.875000
3413		-42.968750
3414		-48.828125
3415		-41.015625
3416		-48.828125
3417		-42.968750
3418		-48.828125
3419		-42.968750
3420		-48.828125
3421		-42.968750
3422		-48.828125
3423		-42.968750
3424		-48.828125
3425		-44.921875
3426		-46.875000
3427		-44.921875
3428		-46.875000
3429		-42.968750
3430		-46.875000
3431		-41.015625
3432		-46.875000
3433		-41.015625
3434		-46.875000
3435		-39.062500
3436		-46.875000
3437		-39.062500
3438		-42.968750
3439		-39.062500
3440		-42.968750
3441		-37.109375
3442		-39.062500
3443		-35.156250
3444		-39.062500
3445		-35.156250
3446		-37.109375
3447		-33.203125
3448		-35.156250
3449		-31.250000
3450		-33.203125
3451		-29.296875
3452		-31.250000
3453		-27.343750
3454		-31.250000
3455		-25.390625
3456		-27.343750
3457		-23.437500
3458		-25.390625
3459		-21.484375
3460		-21.484375
3461		-17.578125
3462		-19.531250
3463		-15.625000
3464		-17.578125
3465		-11.718750
3466		-15.625000
3467		-11.718750
3468		-11.718750
3469		-7.812500
3470		-11.718750
3471		-5.859375
3472		-7.812500
3473		-1.953125
3474		-5.859375
3475		0.000000
3476		-1.953125
3477		1.953125
3478		0.000000
3479		5.859375
3480		3.906250
3481		7.812500
3482		5.859375
3483		9.765625
3484		7.812500
3485		13.671875
3486		11.718750
3487		15.625000
3488		13.671875
3489		19.531250
3490		17.578125
3491		21.484375
3492		19.531250
3493		23.437500
3494		21.484375
3495		25.390625
3496		25.390625
3497		29.296875
3498		27.343750
3499		31.250000
3500		29.296875
3501		35.156250
3502		33.203125
3503		37.109375
3504		35.156250
3505		39.062500
3506		37.109375
3507		41.015625
3508		39.062500
3509		42.968750
3510		41.015625
3511		44.921875
3512		42.968750
3513		46.875000
3514		44.921875
3515		48.828125
3516		46.875000
3517		50.781250
3518		48.828125
3519		52.734375
3520		50.781250
3521		54.687500
3522		52.734375
3523		56.640625
3524		52.734375
3525		56.640625
3526		54.687500
3527		58.593750
3528		56.640625
3529		58.593750
3530		56.640625
3531		60.546875
3532		58.593750
3533		62.500000
3534		58.593750
3535		62.500000
3536		60.546875
3537		62.500000
3538		60.546875
3539		64.453125
3540		60.546875
3541		64.453125
3542		60.546875
3543		64.453125
3544		62.500000
3545		64.453125
3546		62.500000
3547		66.406250
3548		62.500000
3549		66.406250
3550		60.546875
3551		66.406250
3552		60.546875
3553		64.453125
3554		62.500000
3555		64.453125
3556		60.546875
3557		64.453125
3558		60.546875
3559		64.453125
3560		60.546875
3561		62.500000
3562		58.593750
3563		60.546875
3564		56.640625
3565		62.500000
3566		56.640625
3567		60.546875
3568		54.687500
3569		58.593750
3570		54.687500
3571		58.593750
3572		50.781250
3573		56.640625
3574		50.781250
3575		54.687500
3576		48.828125
3577		52.734375
3578		46.875000
3579		50.781250
3580		44.921875
3581		48.828125
3582		42.968750
3583		48.828125
3584		41.015625
3585		44.921875
3586		39.062500
3587		42.968750
3588		37.109375
3589		41.015625
3590		35.156250
3591		39.062500
3592		33.203125
3593		37.109375
3594		29.296875
3595		35.156250
3596		27.343750
3597		31.250000
3598		25.390625
3599		29.296875
3600		23.437500
3601		27.343750
3602		19.531250
3603		23.437500
3604		15.625000
3605		21.484375
3606		15.625000
3607		19.531250
3608		11.718750
3609		15.625000
3610		9.765625
3611		13.671875
3612		5.859375
3613		9.765625
3614		3.906250
3615		9.765625
3616		0.000000
3617		5.859375
3618		-1.953125
3619		1.953125
3620		-5.859375
3621		0.000000
3622		-7.812500
3623		-1.953125
3624		-9.765625
3625		-5.859375
3626		-13.671875
3627		-7.812500
3628		-15.625000
3629		-11.718750
3630		-17.578125
3631		-13.671875
3632		-19.531250
3633		-15.625000
3634		-23.437500
3635		-17.578125
3636		-25.390625
3637		-19.531250
3638		-27.343750
3639		-23.437500
3640		-29.296875
3641		-25.390625
3642		-31.250000
3643		-27.343750
3644		-33.203125
3645		-29.296875
3646		-35.156250
3647		-31.250000
3648		-37.109375
3649		-33.203125
3650		-39.062500
3651		-33.203125
3652		-39.062500
3653		-35.156250
3654		-41.015625
3655		-37.109375
3656		-42.968750
3657		-39.062500
3658		-42.968750
3659		-41.015625
3660		-44.921875
3661		-41.015625
3662		-44.921875
3663		-42.968750
3664		-46.875000
3665		-42.968750
3666		-46.875000
3667		-42.968750
3668		-46.875000
3669		-44.921875
3670		-46.875000
3671		-44.921875
3672		-48.828125
3673		-44.921875
3674		-46.875000
3675		-44.921875
3676		-48.828125
3677		-42.968750
3678		-46.875000
3679		-44.921875
3680		-46.875000
3681		-42.968750
3682		-46.875000
3683		-42.968750
3684		-44.921875
3685		-42.968750
3686		-44.921875
3687		-41.015625
3688		-44.921875
3689		-41.015625
3690		-42.968750
3691		-39.062500
3692		-42.968750
3693		-37.109375
3694		-41.015625
3695		-37.109375
3696		-39.062500
3697		-35.156250
3698		-37.109375
3699		-33.203125
3700		-35.156250
3701		-31.250000
3702		-33.203125
3703		-29.296875
3704		-31.250000
3705		-27.343750
3706		-29.296875
3707		-25.390625
3708		-27.343750
3709		-23.437500
3710		-25.390625
3711		-21.484375
3712		-23.437500
3713		-19.531250
3714		-21.484375
3715		-15.625000
3716		-17.578125
3717		-13.671875
3718		-17.578125
3719		-11.718750
3720		-13.671875
3721		-7.812500
3722		-11.718750
3723		-5.859375
3724		-7.812500
3725		-3.906250
3726		-5.859375
3727		-1.953125
3728		-1.953125
3729		1.953125
3730		0.000000
3731		3.906250
3732		1.953125
3733		7.812500
3734		3.906250
3735		9.765625
3736		7.812500
3737		13.671875
3738		9.765625
3739		15.625000
3740		13.671875
3741		19.531250
3742		15.625000
3743		21.484375
3744		19.531250
3745		23.437500
3746		21.484375
3747		25.390625
3748		23.437500
3749		29.296875
3750		25.390625
3751		31.250000
3752		29.296875
3753		33.203125
3754		31.250000
3755		37.109375
3756		33.203125
3757		39.062500
3758		37.109375
3759		41.015625
3760		39.062500
3761		42.968750
3762		41.015625
3763		44.921875
3764		42.968750
3765		46.875000
3766		44.921875
3767		48.828125
3768		46.875000
3769		50.781250
3770		48.828125
3771		52.734375
3772		50.781250
3773		54.687500
3774		50.781250
3775		56.640625
3776		52.734375
3777		56.640625
3778		54.687500
3779		58.593750
3780		56.640625
3781		58.593750
3782		56.640625
3783		60.546875
3784		58.593750
3785		60.546875
3786		58.593750
3787		62.500000
3788		60.546875
3789		62.500000
3790		60.546875
3791		64.453125
3792		60.546875
3793		64.453125
3794		62.500000
3795		64.453125
3796		62.500000
3797		64.453125
3798		60.546875
3799		66.406250
3800		62.500000
3801		64.453125
3802		62.500000
3803		64.453125
3804		62.500000
3805		64.453125
3806		60.546875
3807		64.453125
3808		60.546875
3809		64.453125
3810		60.546875
3811		62.500000
3812		60.546875
3813		62.500000
3814		58.593750
3815		62.500000
3816		58.593750
3817		62.500000
3818		56.640625
3819		60.546875
3820		54.687500
3821		60.546875
3822		54.687500
3823		58.593750
3824		52.734375
3825		56.640625
3826		50.781250
3827		54.687500
3828		48.828125
3829		52.734375
3830		48.828125
3831		50.781250
3832		46.875000
3833		50.781250
3834		44.921875
3835		48.828125
3836		42.968750
3837		46.875000
3838		39.062500
3839		44.921875
3840		37.109375
3841		42.968750
3842		35.156250
3843		39.062500
3844		33.203125
3845		37.109375
3846		31.250000
3847		35.156250
3848		27.343750
3849		33.203125
3850		25.390625
3851		29.296875
3852		23.437500
3853		27.343750
3854		21.484375
3855		25.390625
3856		17.578125
3857		23.437500
3858		15.625000
3859		19.531250
3860		11.718750
3861		17.578125
3862		9.765625
3863		13.671875
3864		5.859375
3865		11.718750
3866		3.906250
3867		9.765625
3868		1.953125
3869		5.859375
3870		-1.953125
3871		3.906250
3872		-3.906250
3873		0.000000
3874		-7.812500
3875		-1.953125
3876		-9.765625
3877		-5.859375
3878		-11.718750
3879		-7.812500
3880		-13.671875
3881		-9.765625
3882		-17.578125
3883		-13.671875
3884		-19.531250
3885		-15.625000
3886		-21.484375
3887		-17.578125
3888		-23.437500
3889		-19.531250
3890		-27.343750
3891		-21.484375
3892		-29.296875
3893		-25.390625
3894		-31.250000
3895		-27.343750
3896		-33.203125
3897		-29.296875
3898		-35.156250
3899		-31.250000
3900		-37.109375
3901		-31.250000
3902		-39.062500
3903		-33.203125
3904		-39.062500
3905		-35.156250
3906		-41.015625
3907		-37.109375
3908		-42.968750
3909		-39.062500
3910		-42.968750
3911		-39.062500
3912		-44.921875
3913		-41.015625
3914		-44.921875
3915		-42.968750
3916		-46.875000
3917		-42.968750
3918		-46.875000
3919		-42.968750
3920		-46.875000
3921		-42.968750
3922		-46.875000
3923		-44.921875
3924		-46.875000
3925		-44.921875
3926		-46.875000
3927		-44.921875
3928		-46.875000
3929		-44.921875
3930		-46.875000
3931		-44.921875
3932		-46.875000
3933		-42.968750
3934		-46.875000
3935		-42.968750
3936		-46.875000
3937		-41.015625
3938		-44.921875
3939		-41.015625
3940		-44.921875
3941		-41.015625
3942		-42.968750
3943		-39.062500
3944		-41.015625
3945		-37.109375
3946		-39.062500
3947		-37.109375
3948		-39.062500
3949		-35.156250
3950		-37.109375
3951		-33.203125
3952		-35.156250
3953		-31.250000
3954		-35.156250
3955		-29.296875
3956		-31.250000
3957		-29.296875
3958		-31.250000
3959		-25.390625
3960		-27.343750
3961		-23.437500
3962		-27.343750
3963		-21.484375
3964		-23.437500
3965		-19.531250
3966		-21.484375
3967		-15.625000
3968		-19.531250
3969		-13.671875
3970		-15.625000
3971		-11.718750
3972		-13.671875
3973		-9.765625
3974		-11.718750
3975		-7.812500
3976		-7.812500
3977		-3.906250
3978		-5.859375
3979		-1.953125
3980		-3.906250
3981		0.000000
3982		0.000000
3983		3.906250
3984		1.953125
3985		5.859375
3986		3.906250
3987		9.765625
3988		7.812500
3989		11.718750
3990		9.765625
3991		15.625000
3992		13.671875
3993		17.578125
3994		15.625000
3995		21.484375
3996		17.578125
3997		23.437500
3998		21.484375
3999		25.390625
4000		23.437500
4001		27.343750
4002		25.390625
4003		31.250000
4004		29.296875
4005		33.203125
4006		31.250000
4007		35.156250
4008		33.203125
4009		37.109375
4010		35.156250
4011		39.062500
4012		37.109375
4013		41.015625
4014		41.015625
4015		42.968750
4016		42.968750
4017		46.875000
4018		42.968750
4019		48.828125
4020		46.875000
4021		50.781250
4022		48.828125
4023		50.781250
4024		48.828125
4025		52.734375
4026		50.781250
4027		54.687500
4028		52.734375
4029		56.640625
4030		54.687500
4031		56.640625
4032		56.640625
4033		58.593750
4034		56.640625
4035		60.546875
4036		58.593750
4037		60.546875
4038		58.593750
4039		62.500000
4040		60.546875
4041		62.500000
4042		60.546875
4043		64.453125
4044		60.546875
4045		64.453125
4046		60.546875
4047		64.453125
4048		62.500000
4049		64.453125
4050		62.500000
4051		64.453125
4052		62.500000
4053		64.453125
4054		62.500000
4055		66.406250
4056		62.500000
4057		64.453125
4058		60.546875
4059		64.453125
4060		60.546875
4061		64.453125
4062		60.546875
4063		64.453125
4064		60.546875
4065		62.500000
4066		58.593750
4067		62.500000
4068		56.640625
4069		62.500000
4070		56.640625
4071		60.546875
4072		56.640625
4073		58.593750
4074		54.687500
4075		58.593750
4076		52.734375
4077		56.640625
4078		50.781250
4079		54.687500
4080		50.781250
4081		54.687500
4082		48.828125
4083		52.734375
4084		44.921875
4085		50.781250
4086		44.921875
4087		48.828125
4088		42.968750
4089		46.875000
4090		41.015625
4091		44.921875
4092		39.062500
4093		42.968750
4094		35.156250
4095		41.015625
4096		33.203125
4097		39.062500
4098		31.250000
4099		35.156250
4100		29.296875
4101		33.203125
4102		25.390625
4103		31.250000
4104		23.437500
4105		27.343750
4106		21.484375
4107		25.390625
4108		19.531250
4109		23.437500
4110		15.625000
4111		19.531250
4112		11.718750
4113		17.578125
4114		9.765625
4115		15.625000
4116		7.812500
4117		11.718750
4118		3.906250
4119		9.765625
4120		1.953125
4121		5.859375
4122		-1.953125
4123		3.906250
4124		-3.906250
4125		1.953125
4126		-5.859375
4127		-1.953125
4128		-7.812500
4129		-3.906250
4130		-11.718750
4131		-5.859375
4132		-13.671875
4133		-9.765625
4134		-17.578125
4135		-11.718750
4136		-19.531250
4137		-13.671875
4138		-21.484375
4139		-17.578125
4140		-23.437500
4141		-19.531250
4142		-25.390625
4143		-21.484375
4144		-27.343750
4145		-23.437500
4146		-29.296875
4147		-25.390625
4148		-31.250000
4149		-29.296875
4150		-35.156250
4151		-31.250000
4152		-37.109375
4153		-31.250000
4154		-37.109375
4155		-33.203125
4156		-39.062500
4157		-35.156250
4158		-41.015625
4159		-37.109375
4160		-41.015625
4161		-39.062500
4162		-42.968750
4163		-39.062500
4164		-44.921875
4165		-39.062500
4166		-44.921875
4167		-41.015625
4168		-44.921875
4169		-42.968750
4170		-46.875000
4171		-42.968750
4172		-46.875000
4173		-42.968750
4174		-46.875000
4175		-44.921875
4176		-46.875000
4177		-44.921875
4178		-46.875000
4179		-44.921875
4180		-48.828125
4181		-44.921875
4182		-46.875000
4183		-44.921875
4184		-46.875000
4185		-42.968750
4186		-46.875000
4187		-42.968750
4188		-46.875000
4189		-41.015625
4190		-44.921875
4191		-41.015625
4192		-42.968750
4193		-41.015625
4194		-42.968750
4195		-39.062500
4196		-41.015625
4197		-37.109375
4198		-41.015625
4199		-37.109375
4200		-39.062500
4201		-37.109375
4202		-39.062500
4203		-33.203125
4204		-37.109375
4205		-31.250000
4206		-35.156250
4207		-29.296875
4208		-33.203125
4209		-29.296875
4210		-31.250000
4211		-25.390625
4212		-29.296875
4213		-23.437500
4214		-27.343750
4215		-23.437500
4216		-23.437500
4217		-19.531250
4218		-21.484375
4219		-15.625000
4220		-19.531250
4221		-15.625000
4222		-17.578125
4223		-11.718750
4224		-15.625000
4225		-9.765625
4226		-11.718750
4227		-7.812500
4228		-9.765625
4229		-5.859375
4230		-7.812500
4231		-1.953125
4232		-3.906250
4233		0.000000
4234		-1.953125
4235		3.906250
4236		1.953125
4237		5.859375
4238		3.906250
4239		7.812500
4240		7.812500
4241		11.718750
4242		9.765625
4243		13.671875
4244		11.718750
4245		15.625000
4246		15.625000
4247		19.531250
4248		15.625000
4249		21.484375
4250		21.484375
4251		25.390625
4252		23.437500
4253		27.343750
4254		25.390625
4255		29.296875
4256		27.343750
4257		33.203125
4258		29.296875
4259		35.156250
4260		33.203125
4261		37.109375
4262		35.156250
4263		39.062500
4264		37.109375
4265		42.968750
4266		39.062500
4267		42.968750
4268		41.015625
4269		46.875000
4270		42.968750
4271		46.875000
4272		44.921875
4273		50.781250
4274		48.828125
4275		50.781250
4276		48.828125
4277		52.734375
4278		50.781250
4279		54.687500
4280		52.734375
4281		56.640625
4282		54.687500
4283		56.640625
4284		56.640625
4285		58.593750
4286		56.640625
4287		60.546875
4288		56.640625
4289		60.546875
4290		58.593750
4291		62.500000
4292		58.593750
4293		62.500000
4294		60.546875
4295		62.500000
4296		60.546875
4297		64.453125
4298		60.546875
4299		64.453125
4300		62.500000
4301		64.453125
4302		60.546875
4303		66.406250
4304		60.546875
4305		66.406250
4306		62.500000
4307		66.406250
4308		62.500000
4309		66.406250
4310		62.500000
4311		64.453125
4312		60.546875
4313		64.453125
4314		60.546875
4315		64.453125
4316		60.546875
4317		62.500000
4318		60.546875
4319		62.500000
4320		58.593750
4321		62.500000
4322		58.593750
4323		60.546875
4324		56.640625
4325		60.546875
4326		54.687500
4327		58.593750
4328		52.734375
4329		56.640625
4330		52.734375
4331		56.640625
4332		50.781250
4333		54.687500
4334		48.828125
4335		52.734375
4336		46.875000
4337		50.781250
4338		44.921875
4339		48.828125
4340		42.968750
4341		46.875000
4342		41.015625
4343		44.921875
4344		39.062500
4345		42.968750
4346		35.156250
4347		41.015625
4348		35.156250
4349		39.062500
4350		33.203125
4351		35.156250
4352		29.296875
4353		33.203125
4354		27.343750
4355		33.203125
4356		23.437500
4357		29.296875
4358		21.484375
4359		27.343750
4360		19.531250
4361		23.437500
4362		15.625000
4363		21.484375
4364		11.718750
4365		19.531250
4366		11.718750
4367		15.625000
4368		7.812500
4369		13.671875
4370		5.859375
4371		9.765625
4372		1.953125
4373		7.812500
4374		0.000000
4375		3.906250
4376		-1.953125
4377		1.953125
4378		-5.859375
4379		0.000000
4380		-7.812500
4381		-3.906250
4382		-9.765625
4383		-5.859375
4384		-13.671875
4385		-9.765625
4386		-15.625000
4387		-11.718750
4388		-17.578125
4389		-13.671875
4390		-21.484375
4391		-15.625000
4392		-23.437500
4393		-17.578125
4394		-25.390625
4395		-21.484375
4396		-27.343750
4397		-23.437500
4398		-29.296875
4399		-25.390625
4400		-31.250000
4401		-27.343750
4402		-33.203125
4403		-29.296875
4404		-35.156250
4405		-31.250000
4406		-37.109375
4407		-33.203125
4408		-39.062500
4409		-35.156250
4410		-39.062500
4411		-35.156250
4412		-41.015625
4413		-37.109375
4414		-42.968750
4415		-39.062500
4416		-42.968750
4417		-39.062500
4418		-44.921875
4419		-41.015625
4420		-46.875000
4421		-41.015625
4422		-44.921875
4423		-42.968750
4424		-46.875000
4425		-42.968750
4426		-46.875000
4427		-44.921875
4428		-46.875000
4429		-44.921875
4430		-46.875000
4431		-44.921875
4432		-46.875000
4433		-44.921875
4434		-46.875000
4435		-44.921875
4436		-46.875000
4437		-44.921875
4438		-48.828125
4439		-42.968750
4440		-46.875000
4441		-42.968750
4442		-44.921875
4443		-41.015625
4444		-44.921875
4445		-41.015625
4446		-42.968750
4447		-39.062500
4448		-42.968750
4449		-39.062500
4450		-42.968750
4451		-37.109375
4452		-39.062500
4453		-37.109375
4454		-39.062500
4455		-33.203125
4456		-37.109375
4457		-33.203125
4458		-35.156250
4459		-31.250000
4460		-33.203125
4461		-29.296875
4462		-31.250000
4463		-27.343750
4464		-29.296875
4465		-25.390625
4466		-27.343750
4467		-23.437500
4468		-25.390625
4469		-21.484375
4470		-21.484375
4471		-17.578125
4472		-19.531250
4473		-15.625000
4474		-17.578125
4475		-13.671875
4476		-15.625000
4477		-11.718750
4478		-11.718750
4479		-7.812500
4480		-9.765625
4481		-5.859375
4482		-7.812500
4483		-1.953125
4484		-3.906250
4485		0.000000
4486		-1.953125
4487		1.953125
4488		0.000000
4489		5.859375
4490		3.906250
4491		7.812500
4492		5.859375
4493		11.718750
4494		9.765625
4495		13.671875
4496		11.718750
4497		15.625000
4498		13.671875
4499		19.531250
4500		15.625000
4501		21.484375
4502		19.531250
4503		23.437500
4504		21.484375
4505		27.343750
4506		25.390625
4507		29.296875
4508		27.343750
4509		31.250000
4510		29.296875
4511		33.203125
4512		31.250000
4513		37.109375
4514		35.156250
4515		39.062500
4516		37.109375
4517		41.015625
4518		39.062500
4519		42.968750
4520		41.015625
4521		44.921875
4522		42.968750
4523		46.875000
4524		44.921875
4525		48.828125
4526		46.875000
4527		50.781250
4528		48.828125
4529		52.734375
4530		50.781250
4531		54.687500
4532		50.781250
4533		56.640625
4534		52.734375
4535		56.640625
4536		54.687500
4537		58.593750
4538		56.640625
4539		60.546875
4540		56.640625
4541		60.546875
4542		58.593750
4543		62.500000
4544		58.593750
4545		62.500000
4546		58.593750
4547		64.453125
4548		60.546875
4549		64.453125
4550		60.546875
4551		64.453125
4552		62.500000
4553		64.453125
4554		62.500000
4555		64.453125
4556		62.500000
4557		66.406250
4558		62.500000
4559		66.406250
4560		60.546875
4561		66.406250
4562		60.546875
4563		64.453125
4564		60.546875
4565		64.453125
4566		60.546875
4567		64.453125
4568		60.546875
4569		62.500000
4570		60.546875
4571		62.500000
4572		58.593750
4573		62.500000
4574		58.593750
4575		60.546875
4576		56.640625
4577		60.546875
4578		54.687500
4579		60.546875
4580		52.734375
4581		56.640625
4582		52.734375
4583		56.640625
4584		50.781250
4585		54.687500
4586		48.828125
4587		52.734375
4588		46.875000
4589		50.781250
4590		44.921875
4591		48.828125
4592		42.968750
4593		48.828125
4594		42.968750
4595		44.921875
4596		39.062500
4597		44.921875
4598		37.109375
4599		41.015625
4600		33.203125
4601		39.062500
4602		33.203125
4603		37.109375
4604		29.296875
4605		35.156250
4606		27.343750
4607		33.203125
4608		25.390625
4609		29.296875
4610		23.437500
4611		27.343750
4612		19.531250
4613		23.437500
4614		17.578125
4615		21.484375
4616		13.671875
4617		19.531250
4618		11.718750
4619		17.578125
4620		9.765625
4621		13.671875
4622		5.859375
4623		11.718750
4624		1.953125
4625		7.812500
4626		0.000000
4627		5.859375
4628		-1.953125
4629		3.906250
4630		-3.906250
4631		0.000000
4632		-7.812500
4633		-1.953125
4634		-9.765625
4635		-5.859375
4636		-11.718750
4637		-7.812500
4638		-15.625000
4639		-11.718750
4640		-17.578125
4641		-13.671875
4642		-19.531250
4643		-15.625000
4644		-21.484375
4645		-17.578125
4646		-25.390625
4647		-21.484375
4648		-27.343750
4649		-21.484375
4650		-31.250000
4651		-25.390625
4652		-31.250000
4653		-27.343750
4654		-33.203125
4655		-29.296875
4656		-35.156250
4657		-31.250000
4658		-37.109375
4659		-33.203125
4660		-39.062500
4661		-33.203125
4662		-39.062500
4663		-37.109375
4664		-41.015625
4665		-37.109375
4666		-42.968750
4667		-39.062500
4668		-42.968750
4669		-39.062500
4670		-44.921875
4671		-41.015625
4672		-44.921875
4673		-42.968750
4674		-46.875000
4675		-42.968750
4676		-46.875000
4677		-42.968750
4678		-46.875000
4679		-44.921875
4680		-46.875000
4681		-44.921875
4682		-48.828125
4683		-42.968750
4684		-48.828125
4685		-44.921875
4686		-46.875000
4687		-44.921875
4688		-46.875000
4689		-44.921875
4690		-46.875000
4691		-42.968750
4692		-46.875000
4693		-42.968750
4694		-44.921875
4695		-41.015625
4696		-44.921875
4697		-41.015625
4698		-42.968750
4699		-41.015625
4700		-42.968750
4701		-39.062500
4702		-41.015625
4703		-37.109375
4704		-39.062500
4705		-37.109375
4706		-39.062500
4707		-35.156250
4708		-37.109375
4709		-33.203125
4710		-35.156250
4711		-31.250000
4712		-33.203125
4713		-29.296875
4714		-31.250000
4715		-27.343750
4716		-29.296875
4717		-25.390625
4718		-27.343750
4719		-23.437500
4720		-25.390625
4721		-21.484375
4722		-23.437500
4723		-17.578125
4724		-21.484375
4725		-15.625000
4726		-17.578125
4727		-13.671875
4728		-15.625000
4729		-11.718750
4730		-13.671875
4731		-9.765625
4732		-11.718750
4733		-5.859375
4734		-7.812500
4735		-1.953125
4736		-5.859375
4737		-1.953125
4738		-1.953125
4739		1.953125
4740		0.000000
4741		3.906250
4742		1.953125
4743		7.812500
4744		5.859375
4745		9.765625
4746		7.812500
4747		13.671875
4748		9.765625
4749		15.625000
4750		13.671875
4751		17.578125
4752		15.625000
4753		21.484375
4754		19.531250
4755		23.437500
4756		21.484375
4757		27.343750
4758		23.437500
4759		29.296875
4760		25.390625
4761		31.250000
4762		29.296875
4763		33.203125
4764		31.250000
4765		37.109375
4766		35.156250
4767		37.109375
4768		35.156250
4769		41.015625
4770		39.062500
4771		42.968750
4772		41.015625
4773		44.921875
4774		42.968750
4775		46.875000
4776		44.921875
4777		48.828125
4778		46.875000
4779		50.781250
4780		48.828125
4781		52.734375
4782		50.781250
4783		54.687500
4784		50.781250
4785		56.640625
4786		52.734375
4787		56.640625
4788		54.687500
4789		58.593750
4790		54.687500
4791		60.546875
4792		56.640625
4793		60.546875
4794		58.593750
4795		60.546875
4796		58.593750
4797		62.500000
4798		58.593750
4799		62.500000
4800		60.546875
4801		64.453125
4802		60.546875
4803		64.453125
4804		62.500000
4805		64.453125
4806		62.500000
4807		64.453125
4808		62.500000
4809		64.453125
4810		62.500000
4811		64.453125
4812		62.500000
4813		66.406250
4814		60.546875
4815		66.406250
4816		60.546875
4817		64.453125
4818		58.593750
4819		64.453125
4820		60.546875
4821		62.500000
4822		60.546875
4823		62.500000
4824		58.593750
4825		62.500000
4826		58.593750
4827		60.546875
4828		54.687500
4829		60.546875
4830		54.687500
4831		58.593750
4832		54.687500
4833		58.593750
4834		52.734375
4835		56.640625
4836		50.781250
4837		54.687500
4838		48.828125
4839		52.734375
4840		46.875000
4841		50.781250
4842		46.875000
4843		50.781250
4844		44.921875
4845		48.828125
4846		42.968750
4847		46.875000
4848		39.062500
4849		44.921875
4850		37.109375
4851		41.015625
4852		35.156250
4853		39.062500
4854		33.203125
4855		37.109375
4856		31.250000
4857		35.156250
4858		27.343750
4859		33.203125
4860		25.390625
4861		29.296875
4862		23.437500
4863		27.343750
4864		19.531250
4865		25.390625
4866		17.578125
4867		21.484375
4868		15.625000
4869		19.531250
4870		11.718750
4871		17.578125
4872		9.765625
4873		13.671875
4874		5.859375
4875		11.718750
4876		3.906250
4877		7.812500
4878		1.953125
4879		5.859375
4880		-1.953125
4881		3.906250
4882		-3.906250
4883		0.000000
4884		-7.812500
4885		-1.953125
4886		-9.765625
4887		-5.859375
4888		-11.718750
4889		-7.812500
4890		-15.625000
4891		-9.765625
4892		-17.578125
4893		-11.718750
4894		-19.531250
4895		-15.625000
4896		-21.484375
4897		-17.578125
4898		-25.390625
4899		-19.531250
4900		-27.343750
4901		-21.484375
4902		-29.296875
4903		-25.390625
4904		-31.250000
4905		-27.343750
4906		-33.203125
4907		-29.296875
4908		-35.156250
4909		-31.250000
4910		-37.109375
4911		-33.203125
4912		-39.062500
4913		-35.156250
4914		-39.062500
4915		-35.156250
4916		-41.015625
4917		-37.109375
4918		-42.968750
4919		-39.062500
4920		-44.921875
4921		-39.062500
4922		-44.921875
4923		-41.015625
4924		-46.875000
4925		-42.968750
4926		-46.875000
4927		-42.968750
4928		-46.875000
4929		-42.968750
4930		-46.875000
4931		-42.968750
4932		-46.875000
4933		-44.921875
4934		-46.875000
4935		-44.921875
4936		-48.828125
4937		-44.921875
4938		-46.875000
4939		-44.921875
4940		-46.875000
4941		-44.921875
4942		-46.875000
4943		-42.968750
4944		-46.875000
4945		-42.968750
4946		-46.875000
4947		-42.968750
4948		-44.921875
4949		-41.015625
4950		-44.921875
4951		-41.015625
4952		-42.968750
4953		-39.062500
4954		-42.968750
4955		-39.062500
4956		-41.015625
4957		-37.109375
4958		-39.062500
4959		-35.156250
4960		-37.109375
4961		-33.203125
4962		-37.109375
4963		-31.250000
4964		-33.203125
4965		-31.250000
4966		-33.203125
4967		-27.343750
4968		-29.296875
4969		-25.390625
4970		-27.343750
4971		-23.437500
4972		-25.390625
4973		-21.484375
4974		-23.437500
4975		-19.531250
4976		-23.437500
4977		-17.578125
4978		-19.531250
4979		-13.671875
4980		-17.578125
4981		-11.718750
4982		-13.671875
4983		-9.765625
4984		-11.718750
4985		-5.859375
4986		-9.765625
4987		-3.906250
4988		-5.859375
4989		-1.953125
4990		-3.906250
4991		0.000000
4992		-1.953125
4993		3.906250
4994		1.953125
4995		5.859375
4996		3.906250
4997		9.765625
4998		7.812500
4999		11.718750
5000		9.765625
5001		15.625000
5002		13.671875
5003		17.578125
5004		15.625000
5005		19.531250
5006		17.578125
5007		21.484375
5008		21.484375
5009		25.390625
5010		23.437500
5011		27.343750
5012		25.390625
5013		31.250000
5014		27.343750
5015		33.203125
5016		31.250000
5017		35.156250
5018		33.203125
5019		37.109375
5020		35.156250
5021		41.015625
5022		37.109375
5023		42.968750
5024		39.062500
5025		42.968750
5026		41.015625
5027		46.875000
5028		44.921875
5029		48.828125
5030		46.875000
5031		50.781250
5032		48.828125
5033		50.781250
5034		48.828125
5035		52.734375
5036		50.781250
5037		54.687500
5038		52.734375
5039		56.640625
5040		54.687500
5041		58.593750
5042		54.687500
5043		58.593750
5044		56.640625
5045		60.546875
5046		56.640625
5047		60.546875
5048		58.593750
5049		62.500000
5050		58.593750
5051		62.500000
5052		60.546875
5053		64.453125
5054		60.546875
5055		64.453125
5056		60.546875
5057		64.453125
5058		62.500000
5059		64.453125
5060		60.546875
5061		66.406250
5062		62.500000
5063		64.453125
5064		60.546875
5065		64.453125
5066		62.500000
5067		64.453125
5068		60.546875
5069		64.453125
5070		60.546875
5071		64.453125
5072		58.593750
5073		64.453125
5074		60.546875
5075		62.500000
5076		58.593750
5077		62.500000
5078		58.593750
5079		60.546875
5080		56.640625
5081		60.546875
5082		56.640625
5083		58.593750
5084		54.687500
5085		56.640625
5086		52.734375
5087		56.640625
5088		50.781250
5089		54.687500
5090		50.781250
5091		52.734375
5092		46.875000
5093		50.781250
5094		46.875000
5095		50.781250
5096		44.921875
5097		48.828125
5098		42.968750
5099		46.875000
5100		41.015625
5101		44.921875
5102		37.109375
5103		42.968750
5104		35.156250
5105		41.015625
5106		33.203125
5107		37.109375
5108		31.250000
5109		35.156250
5110		29.296875
5111		33.203125
5112		25.390625
5113		31.250000
5114		23.437500
5115		27.343750
5116		21.484375
5117		25.390625
5118		17.578125
5119		23.437500
5120		15.625000
5121		19.531250
5122		11.718750
5123		17.578125
5124		9.765625
5125		13.671875
5126		5.859375
5127		11.718750
5128		3.906250
5129		9.765625
5130		1.953125
5131		5.859375
5132		0.000000
5133		3.906250
5134		-3.906250
5135		1.953125
5136		-5.859375
5137		-1.953125
5138		-9.765625
5139		-3.906250
5140		-11.718750
5141		-7.812500
5142		-13.671875
5143		-9.765625
5144		-17.578125
5145		-11.718750
5146		-19.531250
5147		-15.625000
5148		-21.484375
5149		-17.578125
5150		-23.437500
5151		-19.531250
5152		-25.390625
5153		-21.484375
5154		-29.296875
5155		-23.437500
5156		-29.296875
5157		-25.390625
5158		-33.203125
5159		-29.296875
5160		-35.156250
5161		-31.250000
5162		-37.109375
5163		-33.203125
5164		-39.062500
5165		-35.156250
5166		-39.062500
5167		-35.156250
5168		-41.015625
5169		-37.109375
5170		-42.968750
5171		-39.062500
5172		-42.968750
5173		-39.062500
5174		-44.921875
5175		-41.015625
5176		-46.875000
5177		-41.015625
5178		-46.875000
5179		-42.968750
5180		-46.875000
5181		-42.968750
5182		-46.875000
5183		-44.921875
5184		-46.875000
5185		-44.921875
5186		-48.828125
5187		-44.921875
5188		-48.828125
5189		-44.921875
5190		-48.828125
5191		-44.921875
5192		-46.875000
5193		-44.921875
5194		-48.828125
5195		-42.968750
5196		-46.875000
5197		-42.968750
5198		-46.875000
5199		-42.968750
5200		-44.921875
5201		-42.968750
5202		-44.921875
5203		-41.015625
5204		-42.968750
5205		-39.062500
5206		-42.968750
5207		-39.062500
5208		-41.015625
5209		-37.109375
5210		-39.062500
5211		-35.156250
5212		-39.062500
5213		-35.156250
5214		-37.109375
5215		-33.203125
5216		-35.156250
5217		-31.250000
5218		-33.203125
5219		-29.296875
5220		-31.250000
5221		-27.343750
5222		-29.296875
5223		-23.437500
5224		-27.343750
5225		-23.437500
5226		-23.437500
5227		-19.531250
5228		-23.437500
5229		-17.578125
5230		-19.531250
5231		-15.625000
5232		-17.578125
5233		-13.671875
5234		-15.625000
5235		-9.765625
5236		-11.718750
5237		-7.812500
5238		-9.765625
5239		-5.859375
5240		-7.812500
5241		-1.953125
5242		-3.906250
5243		0.000000
5244		-1.953125
5245		1.953125
5246		1.953125
5247		5.859375
5248		3.906250
5249		7.812500
5250		5.859375
5251		11.718750
5252		7.812500
5253		13.671875
5254		11.718750
5255		17.578125
5256		13.671875
5257		19.531250
5258		17.578125
5259		21.484375
5260		19.531250
5261		25.390625
5262		21.484375
5263		27.343750
5264		25.390625
5265		29.296875
5266		27.343750
5267		31.250000
5268		31.250000
5269		35.156250
5270		33.203125
5271		37.109375
5272		35.156250
5273		39.062500
5274		37.109375
5275		41.015625
5276		39.062500
5277		42.968750
5278		41.015625
5279		46.875000
5280		42.968750
5281		46.875000
5282		44.921875
5283		48.828125
5284		46.875000
5285		50.781250
5286		48.828125
5287		52.734375
5288		50.781250
5289		54.687500
5290		50.781250
5291		56.640625
5292		52.734375
5293		56.640625
5294		54.687500
5295		58.593750
5296		56.640625
5297		60.546875
5298		56.640625
5299		60.546875
5300		58.593750
5301		60.546875
5302		58.593750
5303		62.500000
5304		60.546875
5305		62.500000
5306		60.546875
5307		64.453125
5308		60.546875
5309		64.453125
5310		60.546875
5311		64.453125
5312		60.546875
5313		64.453125
5314		60.546875
5315		64.453125
5316		62.500000
5317		64.453125
5318		60.546875
5319		64.453125
5320		60.546875
5321		64.453125
5322		60.546875
5323		64.453125
5324		60.546875
5325		64.453125
5326		58.593750
5327		62.500000
5328		58.593750
5329		62.500000
5330		56.640625
5331		60.546875
5332		56.640625
5333		60.546875
5334		54.687500
5335		58.593750
5336		54.687500
5337		58.593750
5338		52.734375
5339		56.640625
5340		50.781250
5341		54.687500
5342		50.781250
5343		52.734375
5344		46.875000
5345		52.734375
5346		46.875000
5347		50.781250
5348		42.968750
5349		48.828125
5350		42.968750
5351		46.875000
5352		41.015625
5353		44.921875
5354		39.062500
5355		42.968750
5356		35.156250
5357		41.015625
5358		33.203125
5359		37.109375
5360		31.250000
5361		35.156250
5362		29.296875
5363		33.203125
5364		27.343750
5365		31.250000
5366		23.437500
5367		27.343750
5368		21.484375
5369		25.390625
5370		17.578125
5371		23.437500
5372		15.625000
5373		21.484375
5374		13.671875
5375		17.578125
5376		9.765625
5377		15.625000
5378		7.812500
5379		11.718750
5380		3.906250
5381		9.765625
5382		1.953125
5383		5.859375
5384		0.000000
5385		3.906250
5386		-3.906250
5387		1.953125
5388		-5.859375
5389		-1.953125
5390		-7.812500
5391		-3.906250
5392		-11.718750
5393		-7.812500
5394		-13.671875
5395		-9.765625
5396		-15.625000
5397		-11.718750
5398		-19.531250
5399		-13.671875
5400		-21.484375
5401		-17.578125
5402		-23.437500
5403		-19.531250
5404		-25.390625
5405		-21.484375
5406		-29.296875
5407		-23.437500
5408		-31.250000
5409		-25.390625
5410		-31.250000
5411		-29.296875
5412		-35.156250
5413		-29.296875
5414		-37.109375
5415		-31.250000
5416		-37.109375
5417		-35.156250
5418		-39.062500
5419		-35.156250
5420		-41.015625
5421		-37.109375
5422		-42.968750
5423		-39.062500
5424		-44.921875
5425		-39.062500
5426		-44.921875
5427		-41.015625
5428		-44.921875
5429		-41.015625
5430		-46.875000
5431		-42.968750
5432		-46.875000
5433		-42.968750
5434		-46.875000
5435		-44.921875
5436		-48.828125
5437		-44.921875
5438		-48.828125
5439		-44.921875
5440		-48.828125
5441		-44.921875
5442		-46.875000
5443		-44.921875
5444		-46.875000
5445		-44.921875
5446		-48.828125
5447		-44.921875
5448		-46.875000
5449		-44.921875
5450		-46.875000
5451		-42.968750
5452		-46.875000
5453		-42.968750
5454		-44.921875
5455		-41.015625
5456		-44.921875
5457		-41.015625
5458		-42.968750
5459		-39.062500
5460		-41.015625
5461		-39.062500
5462		-41.015625
5463		-37.109375
5464		-39.062500
5465		-35.156250
5466		-37.109375
5467		-33.203125
5468		-35.156250
5469		-31.250000
5470		-33.203125
5471		-29.296875
5472		-31.250000
5473		-27.343750
5474		-29.296875
5475		-25.390625
5476		-27.343750
5477		-23.437500
5478		-25.390625
5479		-21.484375
5480		-23.437500
5481		-19.531250
5482		-21.484375
5483		-15.625000
5484		-19.531250
5485		-13.671875
5486		-15.625000
5487		-11.718750
5488		-13.671875
5489		-7.812500
5490		-11.718750
5491		-5.859375
5492		-9.765625
5493		-3.906250
5494		-5.859375
5495		0.000000
5496		-1.953125
5497		1.953125
5498		0.000000
5499		3.906250
5500		1.953125
5501		7.812500
5502		5.859375
5503		11.718750
5504		7.812500
5505		11.718750
5506		9.765625
5507		15.625000
5508		13.671875
5509		17.578125
5510		15.625000
5511		21.484375
5512		19.531250
5513		23.437500
5514		21.484375
5515		27.343750
5516		23.437500
5517		29.296875
5518		27.343750
5519		31.250000
5520		29.296875
5521		33.203125
5522		31.250000
5523		37.109375
5524		33.203125
5525		39.062500
5526		37.109375
5527		41.015625
5528		39.062500
5529		42.968750
5530		39.062500
5531		44.921875
5532		42.968750
5533		46.875000
5534		44.921875
5535		48.828125
5536		44.921875
5537		50.781250
5538		48.828125
5539		52.734375
5540		50.781250
5541		52.734375
5542		50.781250
5543		54.687500
5544		52.734375
5545		56.640625
5546		54.687500
5547		58.593750
5548		54.687500
5549		60.546875
5550		56.640625
5551		60.546875
5552		56.640625
5553		60.546875
5554		58.593750
5555		62.500000
5556		58.593750
5557		62.500000
5558		58.593750
5559		64.453125
5560		60.546875
5561		62.500000
5562		60.546875
5563		62.500000
5564		60.546875
5565		64.453125
5566		60.546875
5567		64.453125
5568		62.500000
5569		64.453125
5570		60.546875
5571		64.453125
5572		60.546875
5573		64.453125
5574		60.546875
5575		64.453125
5576		58.593750
5577		64.453125
5578		60.546875
5579		62.500000
5580		58.593750
5581		62.500000
5582		58.593750
5583		60.546875
5584		56.640625
5585		60.546875
5586		54.687500
5587		58.593750
5588		54.687500
5589		58.593750
5590		52.734375
5591		56.640625
5592		50.781250
5593		56.640625
5594		50.781250
5595		52.734375
5596		48.828125
5597		52.734375
5598		46.875000
5599		50.781250
5600		44.921875
5601		48.828125
5602		42.968750
5603		46.875000
5604		41.015625
5605		44.921875
5606		39.062500
5607		42.968750
5608		35.156250
5609		41.015625
5610		35.156250
5611		39.062500
5612		31.250000
5613		35.156250
5614		29.296875
5615		33.203125
5616		27.343750
5617		31.250000
5618		25.390625
5619		29.296875
5620		21.484375
5621		27.343750
5622		19.531250
5623		23.437500
5624		15.625000
5625		21.484375
5626		13.671875
5627		17.578125
5628		9.765625
5629		15.625000
5630		7.812500
5631		13.671875
5632		5.859375
5633		9.765625
5634		1.953125
5635		7.812500
5636		0.000000
5637		5.859375
5638		-3.906250
5639		1.953125
5640		-5.859375
5641		0.000000
5642		-7.812500
5643		-3.906250
5644		-11.718750
5645		-5.859375
5646		-13.671875
5647		-9.765625
5648		-15.625000
5649		-11.718750
5650		-17.578125
5651		-13.671875
5652		-21.484375
5653		-17.578125
5654		-23.437500
5655		-19.531250
5656		-25.390625
5657		-21.484375
5658		-27.343750
5659		-23.437500
5660		-29.296875
5661		-25.390625
5662		-31.250000
5663		-27.343750
5664		-35.156250
5665		-29.296875
5666		-35.156250
5667		-33.203125
5668		-37.109375
5669		-33.203125
5670		-39.062500
5671		-35.156250
5672		-41.015625
5673		-37.109375
5674		-42.968750
5675		-39.062500
5676		-42.968750
5677		-39.062500
5678		-44.921875
5679		-41.015625
5680		-44.921875
5681		-42.968750
5682		-46.875000
5683		-41.015625
5684		-46.875000
5685		-42.968750
5686		-48.828125
5687		-44.921875
5688		-48.828125
5689		-44.921875
5690		-48.828125
5691		-44.921875
5692		-48.828125
5693		-44.921875
5694		-48.828125
5695		-44.921875
5696		-48.828125
5697		-44.921875
5698		-48.828125
5699		-44.921875
5700		-46.875000
5701		-44.921875
5702		-46.875000
5703		-42.968750
5704		-46.875000
5705		-42.968750
5706		-46.875000
5707		-41.015625
5708		-44.921875
5709		-41.015625
5710		-44.921875
5711		-39.062500
5712		-42.968750
5713		-39.062500
5714		-41.015625
5715		-37.109375
5716		-39.062500
5717		-35.156250
5718		-37.109375
5719		-35.156250
5720		-37.109375
5721		-33.203125
5722		-35.156250
5723		-31.250000
5724		-33.203125
5725		-27.343750
5726		-31.250000
5727		-25.390625
5728		-29.296875
5729		-25.390625
5730		-25.390625
5731		-21.484375
5732		-23.437500
5733		-19.531250
5734		-21.484375
5735		-17.578125
5736		-19.531250
5737		-15.625000
5738		-15.625000
5739		-11.718750
5740		-15.625000
5741		-9.765625
5742		-11.718750
5743		-5.859375
5744		-9.765625
5745		-3.906250
5746		-5.859375
5747		-1.953125
5748		-3.906250
5749		1.953125
5750		-1.953125
5751		3.906250
5752		0.000000
5753		5.859375
5754		3.906250
5755		9.765625
5756		5.859375
5757		11.718750
5758		9.765625
5759		13.671875
5760		11.718750
5761		17.578125
5762		15.625000
5763		19.531250
5764		17.578125
5765		21.484375
5766		19.531250
5767		25.390625
5768		23.437500
5769		27.343750
5770		25.390625
5771		31.250000
5772		27.343750
5773		33.203125
5774		31.250000
5775		35.156250
5776		33.203125
5777		37.109375
5778		35.156250
5779		39.062500
5780		37.109375
5781		41.015625
5782		39.062500
5783		42.968750
5784		42.968750
5785		46.875000
5786		44.921875
5787		46.875000
5788		44.921875
5789		48.828125
5790		46.875000
5791		50.781250
5792		48.828125
5793		52.734375
5794		50.781250
5795		54.687500
5796		52.734375
5797		54.687500
5798		52.734375
5799		58.593750
5800		54.687500
5801		58.593750
5802		56.640625
5803		60.546875
5804		56.640625
5805		60.546875
5806		56.640625
5807		62.500000
5808		58.593750
5809		62.500000
5810		58.593750
5811		62.500000
5812		60.546875
5813		62.500000
5814		60.546875
5815		62.500000
5816		60.546875
5817		64.453125
5818		60.546875
5819		64.453125
5820		60.546875
5821		64.453125
5822		60.546875
5823		64.453125
5824		60.546875
5825		64.453125
5826		60.546875
5827		64.453125
5828		58.593750
5829		64.453125
5830		60.546875
5831		62.500000
5832		58.593750
5833		62.500000
5834		56.640625
5835		62.500000
5836		54.687500
5837		60.546875
5838		54.687500
5839		58.593750
5840		52.734375
5841		58.593750
5842		52.734375
5843		56.640625
5844		50.781250
5845		56.640625
5846		50.781250
5847		52.734375
5848		48.828125
5849		52.734375
5850		44.921875
5851		50.781250
5852		44.921875
5853		50.781250
5854		42.968750
5855		46.875000
5856		39.062500
5857		44.921875
5858		37.109375
5859		42.968750
5860		35.156250
5861		41.015625
5862		33.203125
5863		39.062500
5864		31.250000
5865		35.156250
5866		29.296875
5867		33.203125
5868		25.390625
5869		31.250000
5870		23.437500
5871		29.296875
5872		21.484375
5873		27.343750
5874		19.531250
5875		25.390625
5876		15.625000
5877		21.484375
5878		13.671875
5879		19.531250
5880		11.718750
5881		15.625000
5882		7.812500
5883		11.718750
5884		5.859375
5885		11.718750
5886		1.953125
5887		7.812500
5888		-1.953125
5889		5.859375
5890		-3.906250
5891		1.953125
5892		-5.859375
5893		0.000000
5894		-9.765625
5895		-1.953125
5896		-11.718750
5897		-5.859375
5898		-13.671875
5899		-9.765625
5900		-17.578125
5901		-11.718750
5902		-19.531250
5903		-13.671875
5904		-21.484375
5905		-15.625000
5906		-23.437500
5907		-17.578125
5908		-27.343750
5909		-21.484375
5910		-29.296875
5911		-23.437500
5912		-29.296875
5913		-25.390625
5914		-31.250000
5915		-29.296875
5916		-35.156250
5917		-31.250000
5918		-35.156250
5919		-33.203125
5920		-37.109375
5921		-33.203125
5922		-39.062500
5923		-35.156250
5924		-41.015625
5925		-37.109375
5926		-42.968750
5927		-39.062500
5928		-42.968750
5929		-41.015625
5930		-44.921875
5931		-41.015625
5932		-44.921875
5933		-42.968750
5934		-46.875000
5935		-42.968750
5936		-46.875000
5937		-44.921875
5938		-46.875000
5939		-44.921875
5940		-48.828125
5941		-44.921875
5942		-48.828125
5943		-46.875000
5944		-48.828125
5945		-46.875000
5946		-48.828125
5947		-44.921875
5948		-48.828125
5949		-44.921875
5950		-48.828125
5951		-44.921875
5952		-48.828125
5953		-44.921875
5954		-46.875000
5955		-44.921875
5956		-46.875000
5957		-44.921875
5958		-46.875000
5959		-42.968750
5960		-44.921875
5961		-42.968750
5962		-44.921875
5963		-41.015625
5964		-42.968750
5965		-39.062500
5966		-41.015625
5967		-39.062500
5968		-41.015625
5969		-37.109375
5970		-39.062500
5971		-35.156250
5972		-37.109375
5973		-33.203125
5974		-35.156250
5975		-31.250000
5976		-33.203125
5977		-29.296875
5978		-31.250000
5979		-27.343750
5980		-29.296875
5981		-25.390625
5982		-27.343750
5983		-23.437500
5984		-25.390625
5985		-21.484375
5986		-23.437500
5987		-19.531250
5988		-19.531250
5989		-15.625000
5990		-17.578125
5991		-13.671875
5992		-15.625000
5993		-11.718750
5994		-11.718750
5995		-7.812500
5996		-9.765625
5997		-5.859375
5998		-7.812500
5999		-3.906250
6000		-3.906250
6001		0.000000
6002		-1.953125
6003		1.953125
6004		0.000000
6005		5.859375
6006		3.906250
6007		7.812500
6008		5.859375
6009		9.765625
6010		9.765625
6011		13.671875
6012		11.718750
6013		15.625000
6014		13.671875
6015		19.531250
6016		17.578125
6017		21.484375
6018		17.578125
6019		25.390625
6020		19.531250
6021		29.296875
6022		21.484375
6023		31.250000
6024		27.343750
6025		31.250000
6026		29.296875
6027		33.203125
6028		33.203125
6029		37.109375
6030		35.156250
6031		39.062500
6032		37.109375
6033		41.015625
6034		37.109375
6035		44.921875
6036		39.062500
6037		48.828125
6038		41.015625
6039		50.781250
6040		44.921875
6041		48.828125
6042		46.875000
6043		50.781250
6044		48.828125
6045		52.734375
6046		50.781250
6047		52.734375
6048		52.734375
6049		54.687500
6050		52.734375
6051		58.593750
6052		50.781250
6053		60.546875
6054		50.781250
6055		62.500000
6056		52.734375
6057		62.500000
6058		58.593750
6059		60.546875
6060		58.593750
6061		62.500000
6062		58.593750
6063		62.500000
6064		60.546875
6065		62.500000
6066		60.546875
6067		62.500000
6068		56.640625
6069		66.406250
6070		56.640625
6071		66.406250
6072		56.640625
6073		68.359375
6074		60.546875
6075		64.453125
6076		60.546875
6077		62.500000
6078		60.546875
6079		62.500000
6080		60.546875
6081		62.500000
6082		58.593750
6083		62.500000
6084		54.687500
6085		64.453125
6086		54.687500
6087		64.453125
6088		52.734375
6089		62.500000
6090		52.734375
6091		62.500000
6092		54.687500
6093		58.593750
6094		52.734375
6095		56.640625
6096		52.734375
6097		54.687500
6098		50.781250
6099		54.687500
6100		48.828125
6101		52.734375
6102		42.968750
6103		54.687500
6104		41.015625
6105		50.781250
6106		41.015625
6107		50.781250
6108		41.015625
6109		44.921875
6110		39.062500
6111		42.968750
6112		37.109375
6113		41.015625
6114		35.156250
6115		39.062500
6116		31.250000
6117		37.109375
6118		25.390625
6119		37.109375
6120		23.437500
6121		33.203125
6122		21.484375
6123		31.250000
6124		21.484375
6125		27.343750
6126		19.531250
6127		23.437500
6128		17.578125
6129		21.484375
6130		13.671875
6131		17.578125
6132		11.718750
6133		15.625000
6134		9.765625
6135		13.671875
6136		3.906250
6137		13.671875
6138		0.000000
6139		11.718750
6140		-1.953125
6141		7.812500
6142		-1.953125
6143		1.953125
6144		-3.906250
6145		0.000000
6146		-7.812500
6147		-3.906250
6148		-9.765625
6149		-5.859375
6150		-13.671875
6151		-7.812500
6152		-17.578125
6153		-7.812500
6154		-21.484375
6155		-11.718750
6156		-23.437500
6157		-13.671875
6158		-23.437500
6159		-19.531250
6160		-25.390625
6161		-21.484375
6162		-27.343750
6163		-23.437500
6164		-29.296875
6165		-25.390625
6166		-31.250000
6167		-27.343750
6168		-37.109375
6169		-27.343750
6170		-39.062500
6171		-29.296875
6172		-41.015625
6173		-31.250000
6174		-41.015625
6175		-31.250000
6176		-41.015625
6177		-37.109375
6178		-41.015625
6179		-39.062500
6180		-42.968750
6181		-41.015625
6182		-44.921875
6183		-41.015625
6184		-44.921875
6185		-42.968750
6186		-48.828125
6187		-39.062500
6188		-50.781250
6189		-41.015625
6190		-50.781250
6191		-41.015625
6192		-48.828125
6193		-44.921875
6194		-48.828125
6195		-46.875000
6196		-48.828125
6197		-46.875000
6198		-48.828125
6199		-44.921875
6200		-48.828125
6201		-46.875000
6202		-48.828125
6203		-46.875000
6204		-50.781250
6205		-42.968750
6206		-50.781250
6207		-42.968750
6208		-46.875000
6209		-44.921875
6210		-46.875000
6211		-42.968750
6212		-44.921875
6213		-42.968750
6214		-44.921875
6215		-41.015625
6216		-42.968750
6217		-41.015625
6218		-41.015625
6219		-39.062500
6220		-41.015625
6221		-35.156250
6222		-41.015625
6223		-35.156250
6224		-39.062500
6225		-33.203125
6226		-35.156250
6227		-31.250000
6228		-33.203125
6229		-31.250000
6230		-31.250000
6231		-27.343750
6232		-29.296875
6233		-25.390625
6234		-27.343750
6235		-23.437500
6236		-25.390625
6237		-21.484375
6238		-23.437500
6239		-15.625000
6240		-21.484375
6241		-15.625000
6242		-17.578125
6243		-13.671875
6244		-15.625000
6245		-11.718750
6246		-13.671875
6247		-9.765625
6248		-11.718750
6249		-5.859375
6250		-7.812500
6251		-3.906250
6252		-5.859375
6253		0.000000
6254		-1.953125
6255		1.953125
6256		0.000000
6257		3.906250
6258		1.953125
6259		7.812500
6260		5.859375
6261		9.765625
6262		7.812500
6263		13.671875
6264		11.718750
6265		15.625000
6266		13.671875
6267		17.578125
6268		15.625000
6269		21.484375
6270		17.578125
6271		23.437500
6272		21.484375
6273		25.390625
6274		23.437500
6275		29.296875
6276		27.343750
6277		31.250000
6278		29.296875
6279		33.203125
6280		31.250000
6281		35.156250
6282		33.203125
6283		37.109375
6284		37.109375
6285		41.015625
6286		39.062500
6287		42.968750
6288		41.015625
6289		44.921875
6290		42.968750
6291		46.875000
6292		44.921875
6293		48.828125
6294		46.875000
6295		50.781250
6296		48.828125
6297		50.781250
6298		50.781250
6299		52.734375
6300		50.781250
6301		54.687500
6302		52.734375
6303		56.640625
6304		54.687500
6305		58.593750
6306		54.687500
6307		58.593750
6308		56.640625
6309		60.546875
6310		56.640625
6311		60.546875
6312		56.640625
6313		60.546875
6314		58.593750
6315		62.500000
6316		60.546875
6317		62.500000
6318		60.546875
6319		62.500000
6320		58.593750
6321		64.453125
6322		60.546875
6323		64.453125
6324		60.546875
6325		64.453125
6326		60.546875
6327		64.453125
6328		60.546875
6329		64.453125
6330		60.546875
6331		62.500000
6332		60.546875
6333		62.500000
6334		60.546875
6335		62.500000
6336		58.593750
6337		62.500000
6338		58.593750
6339		62.500000
6340		56.640625
6341		60.546875
6342		56.640625
6343		58.593750
6344		54.687500
6345		58.593750
6346		52.734375
6347		56.640625
6348		52.734375
6349		54.687500
6350		50.781250
6351		54.687500
6352		48.828125
6353		52.734375
6354		46.875000
6355		52.734375
6356		44.921875
6357		48.828125
6358		42.968750
6359		46.875000
6360		41.015625
6361		44.921875
6362		39.062500
6363		42.968750
6364		37.109375
6365		41.015625
6366		35.156250
6367		39.062500
6368		33.203125
6369		37.109375
6370		29.296875
6371		35.156250
6372		27.343750
6373		33.203125
6374		25.390625
6375		29.296875
6376		21.484375
6377		27.343750
6378		19.531250
6379		25.390625
6380		17.578125
6381		21.484375
6382		15.625000
6383		19.531250
6384		11.718750
6385		15.625000
6386		9.765625
6387		13.671875
6388		5.859375
6389		11.718750
6390		3.906250
6391		9.765625
6392		1.953125
6393		5.859375
6394		-1.953125
6395		3.906250
6396		-3.906250
6397		0.000000
6398		-7.812500
6399		-1.953125
6400		-9.765625
6401		-5.859375
6402		-11.718750
6403		-7.812500
6404		-15.625000
6405		-9.765625
6406		-17.578125
6407		-13.671875
6408		-19.531250
6409		-15.625000
6410		-23.437500
6411		-17.578125
6412		-25.390625
6413		-19.531250
6414		-27.343750
6415		-23.437500
6416		-29.296875
6417		-25.390625
6418		-31.250000
6419		-27.343750
6420		-33.203125
6421		-29.296875
6422		-35.156250
6423		-31.250000
6424		-37.109375
6425		-33.203125
6426		-39.062500
6427		-35.156250
6428		-41.015625
6429		-37.109375
6430		-41.015625
6431		-37.109375
6432		-42.968750
6433		-39.062500
6434		-44.921875
6435		-41.015625
6436		-44.921875
6437		-42.968750
6438		-48.828125
6439		-41.015625
6440		-46.875000
6441		-42.968750
6442		-48.828125
6443		-44.921875
6444		-48.828125
6445		-44.921875
6446		-48.828125
6447		-44.921875
6448		-48.828125
6449		-46.875000
6450		-48.828125
6451		-46.875000
6452		-48.828125
6453		-46.875000
6454		-50.781250
6455		-44.921875
6456		-48.828125
6457		-44.921875
6458		-48.828125
6459		-44.921875
6460		-46.875000
6461		-44.921875
6462		-46.875000
6463		-42.968750
6464		-44.921875
6465		-42.968750
6466		-44.921875
6467		-41.015625
6468		-42.968750
6469		-41.015625
6470		-42.968750
6471		-39.062500
6472		-41.015625
6473		-37.109375
6474		-41.015625
6475		-37.109375
6476		-37.109375
6477		-35.156250
6478		-35.156250
6479		-31.250000
6480		-35.156250
6481		-31.250000
6482		-33.203125
6483		-29.296875
6484		-31.250000
6485		-27.343750
6486		-27.343750
6487		-23.437500
6488		-25.390625
6489		-21.484375
6490		-23.437500
6491		-19.531250
6492		-21.484375
6493		-17.578125
6494		-19.531250
6495		-15.625000
6496		-15.625000
6497		-11.718750
6498		-13.671875
6499		-9.765625
6500		-11.718750
6501		-7.812500
6502		-7.812500
6503		-3.906250
6504		-5.859375
6505		0.000000
6506		-3.906250
6507		0.000000
6508		0.000000
6509		3.906250
6510		1.953125
6511		5.859375
6512		5.859375
6513		9.765625
6514		7.812500
6515		11.718750
6516		9.765625
6517		15.625000
6518		13.671875
6519		17.578125
6520		15.625000
6521		19.531250
6522		17.578125
6523		23.437500
6524		21.484375
6525		25.390625
6526		23.437500
6527		27.343750
6528		25.390625
6529		31.250000
6530		29.296875
6531		33.203125
6532		31.250000
6533		35.156250
6534		33.203125
6535		37.109375
6536		35.156250
6537		39.062500
6538		39.062500
6539		41.015625
6540		41.015625
6541		42.968750
6542		42.968750
6543		44.921875
6544		44.921875
6545		46.875000
6546		46.875000
6547		48.828125
6548		46.875000
6549		50.781250
6550		48.828125
6551		52.734375
6552		50.781250
6553		54.687500
6554		52.734375
6555		54.687500
6556		52.734375
6557		56.640625
6558		54.687500
6559		58.593750
6560		56.640625
6561		58.593750
6562		56.640625
6563		60.546875
6564		58.593750
6565		60.546875
6566		58.593750
6567		62.500000
6568		60.546875
6569		62.500000
6570		60.546875
6571		62.500000
6572		60.546875
6573		62.500000
6574		60.546875
6575		62.500000
6576		60.546875
6577		62.500000
6578		60.546875
6579		62.500000
6580		60.546875
6581		64.453125
6582		60.546875
6583		62.500000
6584		60.546875
6585		62.500000
6586		60.546875
6587		62.500000
6588		58.593750
6589		62.500000
6590		58.593750
6591		60.546875
6592		56.640625
6593		60.546875
6594		56.640625
6595		58.593750
6596		54.687500
6597		58.593750
6598		54.687500
6599		56.640625
6600		52.734375
6601		56.640625
6602		50.781250
6603		54.687500
6604		48.828125
6605		52.734375
6606		46.875000
6607		52.734375
6608		44.921875
6609		48.828125
6610		44.921875
6611		48.828125
6612		42.968750
6613		44.921875
6614		41.015625
6615		42.968750
6616		37.109375
6617		41.015625
6618		35.156250
6619		39.062500
6620		33.203125
6621		37.109375
6622		31.250000
6623		35.156250
6624		29.296875
6625		33.203125
6626		25.390625
6627		31.250000
6628		23.437500
6629		27.343750
6630		21.484375
6631		25.390625
6632		17.578125
6633		21.484375
6634		15.625000
6635		19.531250
6636		13.671875
6637		17.578125
6638		9.765625
6639		13.671875
6640		5.859375
6641		13.671875
6642		3.906250
6643		9.765625
6644		1.953125
6645		5.859375
6646		0.000000
6647		3.906250
6648		-3.906250
6649		0.000000
6650		-5.859375
6651		-1.953125
6652		-9.765625
6653		-3.906250
6654		-11.718750
6655		-7.812500
6656		-15.625000
6657		-9.765625
6658		-17.578125
6659		-11.718750
6660		-19.531250
6661		-15.625000
6662		-21.484375
6663		-17.578125
6664		-23.437500
6665		-19.531250
6666		-25.390625
6667		-23.437500
6668		-29.296875
6669		-25.390625
6670		-31.250000
6671		-27.343750
6672		-35.156250
6673		-29.296875
6674		-37.109375
6675		-29.296875
6676		-37.109375
6677		-31.250000
6678		-39.062500
6679		-35.156250
6680		-41.015625
6681		-37.109375
6682		-41.015625
6683		-39.062500
6684		-42.968750
6685		-39.062500
6686		-44.921875
6687		-41.015625
6688		-44.921875
6689		-42.968750
6690		-46.875000
6691		-41.015625
6692		-46.875000
6693		-42.968750
6694		-46.875000
6695		-44.921875
6696		-46.875000
6697		-44.921875
6698		-48.828125
6699		-46.875000
6700		-48.828125
6701		-46.875000
6702		-48.828125
6703		-46.875000
6704		-48.828125
6705		-46.875000
6706		-50.781250
6707		-44.921875
6708		-50.781250
6709		-44.921875
6710		-46.875000
6711		-44.921875
6712		-46.875000
6713		-44.921875
6714		-46.875000
6715		-44.921875
6716		-44.921875
6717		-42.968750
6718		-44.921875
6719		-41.015625
6720		-42.968750
6721		-41.015625
6722		-42.968750
6723		-39.062500
6724		-42.968750
6725		-35.156250
6726		-41.015625
6727		-35.156250
6728		-39.062500
6729		-35.156250
6730		-37.109375
6731		-33.203125
6732		-35.156250
6733		-31.250000
6734		-33.203125
6735		-29.296875
6736		-31.250000
6737		-27.343750
6738		-29.296875
6739		-25.390625
6740		-27.343750
6741		-21.484375
6742		-25.390625
6743		-19.531250
6744		-21.484375
6745		-17.578125
6746		-19.531250
6747		-15.625000
6748		-17.578125
6749		-13.671875
6750		-13.671875
6751		-9.765625
6752		-11.718750
6753		-7.812500
6754		-9.765625
6755		-3.906250
6756		-5.859375
6757		-1.953125
6758		-5.859375
6759		1.953125
6760		-1.953125
6761		3.906250
6762		1.953125
6763		5.859375
6764		3.906250
6765		7.812500
6766		7.812500
6767		11.718750
6768		9.765625
6769		13.671875
6770		11.718750
6771		17.578125
6772		15.625000
6773		19.531250
6774		17.578125
6775		23.437500
6776		19.531250
6777		25.390625
6778		23.437500
6779		27.343750
6780		25.390625
6781		29.296875
6782		29.296875
6783		33.203125
6784		31.250000
6785		35.156250
6786		33.203125
6787		37.109375
6788		35.156250
6789		39.062500
6790		37.109375
6791		42.968750
6792		39.062500
6793		44.921875
6794		42.968750
6795		44.921875
6796		44.921875
6797		46.875000
6798		44.921875
6799		48.828125
6800		46.875000
6801		50.781250
6802		48.828125
6803		52.734375
6804		50.781250
6805		54.687500
6806		52.734375
6807		54.687500
6808		52.734375
6809		58.593750
6810		52.734375
6811		58.593750
6812		54.687500
6813		58.593750
6814		56.640625
6815		60.546875
6816		58.593750
6817		60.546875
6818		58.593750
6819		62.500000
6820		58.593750
6821		62.500000
6822		60.546875
6823		62.500000
6824		60.546875
6825		62.500000
6826		60.546875
6827		62.500000
6828		60.546875
6829		62.500000
6830		60.546875
6831		62.500000
6832		60.546875
6833		64.453125
6834		60.546875
6835		62.500000
6836		60.546875
6837		62.500000
6838		60.546875
6839		62.500000
6840		58.593750
6841		62.500000
6842		58.593750
6843		60.546875
6844		56.640625
6845		60.546875
6846		56.640625
6847		58.593750
6848		54.687500
6849		58.593750
6850		54.687500
6851		56.640625
6852		52.734375
6853		56.640625
6854		50.781250
6855		54.687500
6856		48.828125
6857		54.687500
6858		46.875000
6859		50.781250
6860		46.875000
6861		48.828125
6862		44.921875
6863		48.828125
6864		42.968750
6865		46.875000
6866		41.015625
6867		42.968750
6868		39.062500
6869		41.015625
6870		35.156250
6871		39.062500
6872		33.203125
6873		37.109375
6874		31.250000
6875		35.156250
6876		29.296875
6877		33.203125
6878		27.343750
6879		31.250000
6880		23.437500
6881		27.343750
6882		21.484375
6883		25.390625
6884		19.531250
6885		23.437500
6886		15.625000
6887		19.531250
6888		13.671875
6889		17.578125
6890		9.765625
6891		15.625000
6892		7.812500
6893		11.718750
6894		5.859375
6895		9.765625
6896		1.953125
6897		5.859375
6898		0.000000
6899		3.906250
6900		-3.906250
6901		1.953125
6902		-5.859375
6903		-1.953125
6904		-7.812500
6905		-3.906250
6906		-11.718750
6907		-7.812500
6908		-13.671875
6909		-9.765625
6910		-15.625000
6911		-11.718750
6912		-19.531250
6913		-15.625000
6914		-21.484375
6915		-17.578125
6916		-23.437500
6917		-19.531250
6918		-27.343750
6919		-21.484375
6920		-29.296875
6921		-25.390625
6922		-31.250000
6923		-27.343750
6924		-33.203125
6925		-29.296875
6926		-35.156250
6927		-31.250000
6928		-37.109375
6929		-33.203125
6930		-39.062500
6931		-35.156250
6932		-39.062500
6933		-37.109375
6934		-41.015625
6935		-37.109375
6936		-42.968750
6937		-39.062500
6938		-42.968750
6939		-41.015625
6940		-44.921875
6941		-41.015625
6942		-46.875000
6943		-42.968750
6944		-46.875000
6945		-44.921875
6946		-46.875000
6947		-44.921875
6948		-48.828125
6949		-44.921875
6950		-48.828125
6951		-46.875000
6952		-48.828125
6953		-46.875000
6954		-48.828125
6955		-46.875000
6956		-48.828125
6957		-46.875000
6958		-48.828125
6959		-44.921875
6960		-48.828125
6961		-46.875000
6962		-48.828125
6963		-44.921875
6964		-48.828125
6965		-44.921875
6966		-46.875000
6967		-44.921875
6968		-46.875000
6969		-42.968750
6970		-44.921875
6971		-42.968750
6972		-44.921875
6973		-41.015625
6974		-42.968750
6975		-41.015625
6976		-41.015625
6977		-39.062500
6978		-41.015625
6979		-37.109375
6980		-39.062500
6981		-35.156250
6982		-37.109375
6983		-33.203125
6984		-35.156250
6985		-31.250000
6986		-35.156250
6987		-29.296875
6988		-31.250000
6989		-27.343750
6990		-29.296875
6991		-25.390625
6992		-27.343750
6993		-23.437500
6994		-25.390625
6995		-21.484375
6996		-23.437500
6997		-17.578125
6998		-19.531250
6999		-15.625000
7000		-17.578125
7001		-13.671875
7002		-15.625000
7003		-11.718750
7004		-11.718750
7005		-7.812500
7006		-9.765625
7007		-5.859375
7008		-7.812500
7009		-1.953125
7010		-3.906250
7011		0.000000
7012		-1.953125
7013		1.953125
7014		0.000000
7015		5.859375
7016		3.906250
7017		7.812500
7018		5.859375
7019		9.765625
7020		9.765625
7021		13.671875
7022		11.718750
7023		15.625000
7024		13.671875
7025		17.578125
7026		15.625000
7027		21.484375
7028		19.531250
7029		23.437500
7030		23.437500
7031		27.343750
7032		25.390625
7033		29.296875
7034		27.343750
7035		31.250000
7036		29.296875
7037		33.203125
7038		31.250000
7039		37.109375
7040		35.156250
7041		39.062500
7042		37.109375
7043		41.015625
7044		39.062500
7045		42.968750
7046		41.015625
7047		44.921875
7048		42.968750
7049		46.875000
7050		44.921875
7051		48.828125
7052		46.875000
7053		50.781250
7054		48.828125
7055		50.781250
7056		50.781250
7057		52.734375
7058		50.781250
7059		54.687500
7060		52.734375
7061		56.640625
7062		54.687500
7063		56.640625
7064		54.687500
7065		58.593750
7066		56.640625
7067		58.593750
7068		56.640625
7069		60.546875
7070		58.593750
7071		60.546875
7072		58.593750
7073		62.500000
7074		60.546875
7075		62.500000
7076		60.546875
7077		62.500000
7078		60.546875
7079		62.500000
7080		60.546875
7081		62.500000
7082		60.546875
7083		62.500000
7084		60.546875
7085		62.500000
7086		60.546875
7087		62.500000
7088		60.546875
7089		62.500000
7090		60.546875
7091		62.500000
7092		58.593750
7093		62.500000
7094		58.593750
7095		60.546875
7096		56.640625
7097		60.546875
7098		56.640625
7099		58.593750
7100		54.687500
7101		58.593750
7102		54.687500
7103		56.640625
7104		52.734375
7105		56.640625
7106		50.781250
7107		54.687500
7108		48.828125
7109		52.734375
7110		48.828125
7111		50.781250
7112		46.875000
7113		50.781250
7114		44.921875
7115		48.828125
7116		42.968750
7117		46.875000
7118		41.015625
7119		44.921875
7120		39.062500
7121		42.968750
7122		37.109375
7123		41.015625
7124		33.203125
7125		39.062500
7126		31.250000
7127		35.156250
7128		29.296875
7129		33.203125
7130		27.343750
7131		31.250000
7132		25.390625
7133		29.296875
7134		21.484375
7135		25.390625
7136		19.531250
7137		23.437500
7138		15.625000
7139		21.484375
7140		13.671875
7141		17.578125
7142		11.718750
7143		15.625000
7144		7.812500
7145		11.718750
7146		5.859375
7147		9.765625
7148		3.906250
7149		7.812500
7150		0.000000
7151		3.906250
7152		-1.953125
7153		1.953125
7154		-5.859375
7155		0.000000
7156		-7.812500
7157		-3.906250
7158		-11.718750
7159		-5.859375
7160		-13.671875
7161		-9.765625
7162		-15.625000
7163		-11.718750
7164		-17.578125
7165		-13.671875
7166		-21.484375
7167		-17.578125
7168		-23.437500
7169		-19.531250
7170		-25.390625
7171		-21.484375
7172		-27.343750
7173		-23.437500
7174		-29.296875
7175		-27.343750
7176		-33.203125
7177		-29.296875
7178		-35.156250
7179		-31.250000
7180		-35.156250
7181		-31.250000
7182		-37.109375
7183		-33.203125
7184		-39.062500
7185		-37.109375
7186		-41.015625
7187		-37.109375
7188		-42.968750
7189		-39.062500
7190		-42.968750
7191		-41.015625
7192		-44.921875
7193		-41.015625
7194		-44.921875
7195		-42.968750
7196		-46.875000
7197		-44.921875
7198		-46.875000
7199		-44.921875
7200		-48.828125
7201		-44.921875
7202		-48.828125
7203		-44.921875
7204		-48.828125
7205		-46.875000
7206		-48.828125
7207		-46.875000
7208		-48.828125
7209		-46.875000
7210		-50.781250
7211		-46.875000
7212		-48.828125
7213		-46.875000
7214		-48.828125
7215		-46.875000
7216		-48.828125
7217		-44.921875
7218		-46.875000
7219		-44.921875
7220		-46.875000
7221		-42.968750
7222		-44.921875
7223		-42.968750
7224		-44.921875
7225		-41.015625
7226		-42.968750
7227		-41.015625
7228		-42.968750
7229		-39.062500
7230		-41.015625
7231		-37.109375
7232		-41.015625
7233		-37.109375
7234		-37.109375
7235		-35.156250
7236		-35.156250
7237		-31.250000
7238		-33.203125
7239		-31.250000
7240		-31.250000
7241		-29.296875
7242		-29.296875
7243		-25.390625
7244		-27.343750
7245		-23.437500
7246		-25.390625
7247		-21.484375
7248		-23.437500
7249		-19.531250
7250		-21.484375
7251		-17.578125
7252		-17.578125
7253		-13.671875
7254		-15.625000
7255		-11.718750
7256		-13.671875
7257		-9.765625
7258		-11.718750
7259		-5.859375
7260		-7.812500
7261		-3.906250
7262		-5.859375
7263		0.000000
7264		-1.953125
7265		1.953125
7266		0.000000
7267		3.906250
7268		1.953125
7269		7.812500
7270		5.859375
7271		9.765625
7272		7.812500
7273		11.718750
7274		9.765625
7275		15.625000
7276		13.671875
7277		17.578125
7278		15.625000
7279		21.484375
7280		19.531250
7281		23.437500
7282		21.484375
7283		25.390625
7284		23.437500
7285		27.343750
7286		27.343750
7287		31.250000
7288		29.296875
7289		33.203125
7290		31.250000
7291		35.156250
7292		33.203125
7293		37.109375
7294		35.156250
7295		41.015625
7296		39.062500
7297		42.968750
7298		41.015625
7299		44.921875
7300		42.968750
7301		46.875000
7302		44.921875
7303		48.828125
7304		46.875000
7305		48.828125
7306		46.875000
7307		50.781250
7308		48.828125
7309		52.734375
7310		50.781250
7311		54.687500
7312		52.734375
7313		56.640625
7314		52.734375
7315		56.640625
7316		54.687500
7317		58.593750
7318		56.640625
7319		58.593750
7320		56.640625
7321		60.546875
7322		58.593750
7323		60.546875
7324		58.593750
7325		60.546875
7326		58.593750
7327		62.500000
7328		60.546875
7329		62.500000
7330		60.546875
7331		62.500000
7332		60.546875
7333		62.500000
7334		60.546875
7335		62.500000
7336		60.546875
7337		62.500000
7338		60.546875
7339		64.453125
7340		60.546875
7341		62.500000
7342		60.546875
7343		62.500000
7344		58.593750
7345		60.546875
7346		58.593750
7347		60.546875
7348		56.640625
7349		60.546875
7350		56.640625
7351		58.593750
7352		54.687500
7353		58.593750
7354		54.687500
7355		56.640625
7356		52.734375
7357		56.640625
7358		50.781250
7359		54.687500
7360		50.781250
7361		52.734375
7362		48.828125
7363		52.734375
7364		46.875000
7365		50.781250
7366		44.921875
7367		48.828125
7368		42.968750
7369		46.875000
7370		41.015625
7371		44.921875
7372		39.062500
7373		42.968750
7374		37.109375
7375		41.015625
7376		35.156250
7377		39.062500
7378		31.250000
7379		35.156250
7380		29.296875
7381		33.203125
7382		27.343750
7383		31.250000
7384		25.390625
7385		29.296875
7386		21.484375
7387		25.390625
7388		19.531250
7389		23.437500
7390		15.625000
7391		21.484375
7392		13.671875
7393		17.578125
7394		11.718750
7395		15.625000
7396		7.812500
7397		13.671875
7398		5.859375
7399		9.765625
7400		1.953125
7401		7.812500
7402		0.000000
7403		3.906250
7404		-1.953125
7405		1.953125
7406		-5.859375
7407		-1.953125
7408		-7.812500
7409		-3.906250
7410		-9.765625
7411		-5.859375
7412		-13.671875
7413		-9.765625
7414		-15.625000
7415		-11.718750
7416		-17.578125
7417		-13.671875
7418		-21.484375
7419		-15.625000
7420		-23.437500
7421		-19.531250
7422		-25.390625
7423		-21.484375
7424		-27.343750
7425		-23.437500
7426		-29.296875
7427		-27.343750
7428		-33.203125
7429		-29.296875
7430		-35.156250
7431		-31.250000
7432		-37.109375
7433		-33.203125
7434		-37.109375
7435		-35.156250
7436		-39.062500
7437		-37.109375
7438		-41.015625
7439		-39.062500
7440		-42.968750
7441		-39.062500
7442		-42.968750
7443		-41.015625
7444		-44.921875
7445		-42.968750
7446		-46.875000
7447		-42.968750
7448		-46.875000
7449		-44.921875
7450		-46.875000
7451		-44.921875
7452		-48.828125
7453		-46.875000
7454		-48.828125
7455		-46.875000
7456		-50.781250
7457		-46.875000
7458		-48.828125
7459		-46.875000
7460		-50.781250
7461		-46.875000
7462		-50.781250
7463		-46.875000
7464		-48.828125
7465		-46.875000
7466		-50.781250
7467		-46.875000
7468		-48.828125
7469		-46.875000
7470		-48.828125
7471		-44.921875
7472		-46.875000
7473		-44.921875
7474		-46.875000
7475		-44.921875
7476		-46.875000
7477		-42.968750
7478		-44.921875
7479		-41.015625
7480		-42.968750
7481		-39.062500
7482		-41.015625
7483		-39.062500
7484		-41.015625
7485		-37.109375
7486		-39.062500
7487		-35.156250
7488		-37.109375
7489		-33.203125
7490		-35.156250
7491		-31.250000
7492		-33.203125
7493		-29.296875
7494		-31.250000
7495		-27.343750
7496		-29.296875
7497		-25.390625
7498		-27.343750
7499		-23.437500
7500		-25.390625
7501		-21.484375
7502		-21.484375
7503		-17.578125
7504		-19.531250
7505		-15.625000
7506		-17.578125
7507		-13.671875
7508		-15.625000
7509		-11.718750
7510		-11.718750
7511		-7.812500
7512		-9.765625
7513		-5.859375
7514		-5.859375
7515		-1.953125
7516		-3.906250
7517		0.000000
7518		-1.953125
7519		3.906250
7520		1.953125
7521		5.859375
7522		3.906250
7523		7.812500
7524		5.859375
7525		11.718750
7526		9.765625
7527		13.671875
7528		11.718750
7529		15.625000
7530		15.625000
7531		19.531250
7532		17.578125
7533		21.484375
7534		19.531250
7535		23.437500
7536		23.437500
7537		27.343750
7538		25.390625
7539		29.296875
7540		27.343750
7541		31.250000
7542		31.250000
7543		35.156250
7544		33.203125
7545		37.109375
7546		35.156250
7547		39.062500
7548		37.109375
7549		41.015625
7550		39.062500
7551		42.968750
7552		41.015625
7553		44.921875
7554		42.968750
7555		46.875000
7556		44.921875
7557		48.828125
7558		46.875000
7559		50.781250
7560		48.828125
7561		52.734375
7562		50.781250
7563		52.734375
7564		50.781250
7565		54.687500
7566		52.734375
7567		56.640625
7568		54.687500
7569		56.640625
7570		54.687500
7571		58.593750
7572		56.640625
7573		60.546875
7574		56.640625
7575		60.546875
7576		58.593750
7577		60.546875
7578		58.593750
7579		60.546875
7580		58.593750
7581		62.500000
7582		58.593750
7583		62.500000
7584		58.593750
7585		62.500000
7586		60.546875
7587		62.500000
7588		60.546875
7589		62.500000
7590		60.546875
7591		62.500000
7592		58.593750
7593		62.500000
7594		58.593750
7595		62.500000
7596		58.593750
7597		60.546875
7598		58.593750
7599		60.546875
7600		56.640625
7601		60.546875
7602		56.640625
7603		58.593750
7604		54.687500
7605		58.593750
7606		54.687500
7607		58.593750
7608		52.734375
7609		56.640625
7610		50.781250
7611		54.687500
7612		50.781250
7613		54.687500
7614		48.828125
7615		50.781250
7616		46.875000
7617		50.781250
7618		44.921875
7619		48.828125
7620		42.968750
7621		46.875000
7622		41.015625
7623		44.921875
7624		39.062500
7625		42.968750
7626		35.156250
7627		41.015625
7628		33.203125
7629		39.062500
7630		31.250000
7631		37.109375
7632		29.296875
7633		33.203125
7634		27.343750
7635		31.250000
7636		25.390625
7637		29.296875
7638		21.484375
7639		25.390625
7640		19.531250
7641		23.437500
7642		17.578125
7643		21.484375
7644		13.671875
7645		17.578125
7646		11.718750
7647		15.625000
7648		7.812500
7649		13.671875
7650		5.859375
7651		11.718750
7652		3.906250
7653		7.812500
7654		0.000000
7655		3.906250
7656		-1.953125
7657		1.953125
7658		-5.859375
7659		0.000000
7660		-7.812500
7661		-3.906250
7662		-9.765625
7663		-5.859375
7664		-13.671875
7665		-9.765625
7666		-15.625000
7667		-11.718750
7668		-19.531250
7669		-13.671875
7670		-21.484375
7671		-15.625000
7672		-25.390625
7673		-19.531250
7674		-25.390625
7675		-19.531250
7676		-27.343750
7677		-23.437500
7678		-29.296875
7679		-27.343750
7680		-31.250000
7681		-29.296875
7682		-35.156250
7683		-31.250000
7684		-37.109375
7685		-33.203125
7686		-39.062500
7687		-33.203125
7688		-39.062500
7689		-37.109375
7690		-42.968750
7691		-37.109375
7692		-42.968750
7693		-39.062500
7694		-46.875000
7695		-39.062500
7696		-44.921875
7697		-42.968750
7698		-46.875000
7699		-42.968750
7700		-46.875000
7701		-44.921875
7702		-50.781250
7703		-42.968750
7704		-48.828125
7705		-44.921875
7706		-50.781250
7707		-44.921875
7708		-50.781250
7709		-46.875000
7710		-52.734375
7711		-44.921875
7712		-50.781250
7713		-48.828125
7714		-50.781250
7715		-46.875000
7716		-50.781250
7717		-46.875000
7718		-52.734375
7719		-44.921875
7720		-50.781250
7721		-46.875000
7722		-50.781250
7723		-44.921875
7724		-50.781250
7725		-44.921875
7726		-48.828125
7727		-42.968750
7728		-46.875000
7729		-42.968750
7730		-46.875000
7731		-42.968750
7732		-44.921875
7733		-41.015625
7734		-44.921875
7735		-37.109375
7736		-41.015625
7737		-37.109375
7738		-39.062500
7739		-35.156250
7740		-39.062500
7741		-33.203125
7742		-37.109375
7743		-33.203125
7744		-35.156250
7745		-31.250000
7746		-33.203125
7747		-29.296875
7748		-29.296875
7749		-25.390625
7750		-29.296875
7751		-21.484375
7752		-27.343750
7753		-19.531250
7754		-23.437500
7755		-17.578125
7756		-21.484375
7757		-15.625000
7758		-21.484375
7759		-11.718750
7760		-19.531250
7761		-9.765625
7762		-13.671875
7763		-9.765625
7764		-9.765625
7765		-5.859375
7766		-7.812500
7767		-3.906250
7768		-5.859375
7769		1.953125
7770		-3.906250
7771		1.953125
7772		0.000000
7773		3.906250
7774		1.953125
7775		11.718750
7776		5.859375
7777		9.765625
7778		3.906250
7779		13.671875
7780		11.718750
7781		15.625000
7782		13.671875
7783		19.531250
7784		15.625000
7785		23.437500
7786		19.531250
7787		25.390625
7788		21.484375
7789		25.390625
7790		23.437500
7791		29.296875
7792		23.437500
7793		33.203125
7794		27.343750
7795		35.156250
7796		31.250000
7797		35.156250
7798		33.203125
7799		37.109375
7800		35.156250
7801		42.968750
7802		35.156250
7803		42.968750
7804		41.015625
7805		44.921875
7806		42.968750
7807		46.875000
7808		41.015625
7809		50.781250
7810		44.921875
7811		52.734375
7812		46.875000
7813		52.734375
7814		48.828125
7815		52.734375
7816		48.828125
7817		54.687500
7818		50.781250
7819		58.593750
7820		52.734375
7821		56.640625
7822		54.687500
7823		58.593750
7824		52.734375
7825		62.500000
7826		52.734375
7827		62.500000
7828		54.687500
7829		62.500000
7830		58.593750
7831		60.546875
7832		58.593750
7833		62.500000
7834		58.593750
7835		64.453125
7836		56.640625
7837		64.453125
7838		58.593750
7839		62.500000
7840		60.546875
7841		62.500000
7842		56.640625
7843		66.406250
7844		54.687500
7845		64.453125
7846		58.593750
7847		62.500000
7848		58.593750
7849		60.546875
7850		56.640625
7851		60.546875
7852		52.734375
7853		62.500000
7854		54.687500
7855		60.546875
7856		54.687500
7857		58.593750
7858		50.781250
7859		60.546875
7860		50.781250
7861		58.593750
7862		48.828125
7863		56.640625
7864		50.781250
7865		52.734375
7866		46.875000
7867		52.734375
7868		42.968750
7869		52.734375
7870		42.968750
7871		48.828125
7872		42.968750
7873		46.875000
7874		41.015625
7875		44.921875
7876		37.109375
7877		44.921875
7878		35.156250
7879		41.015625
7880		35.156250
7881		39.062500
7882		33.203125
7883		37.109375
7884		29.296875
7885		35.156250
7886		25.390625
7887		35.156250
7888		25.390625
7889		31.250000
7890		23.437500
7891		27.343750
7892		17.578125
7893		27.343750
7894		15.625000
7895		21.484375
7896		13.671875
7897		19.531250
7898		11.718750
7899		15.625000
7900		7.812500
7901		13.671875
7902		3.906250
7903		11.718750
7904		1.953125
7905		9.765625
7906		0.000000
7907		5.859375
7908		-3.906250
7909		3.906250
7910		-5.859375
7911		3.906250
7912		-7.812500
7913		0.000000
7914		-9.765625
7915		-5.859375
7916		-13.671875
7917		-7.812500
7918		-17.578125
7919		-9.765625
7920		-19.531250
7921		-11.718750
7922		-19.531250
7923		-15.625000
7924		-23.437500
7925		-19.531250
7926		-29.296875
7927		-17.578125
7928		-29.296875
7929		-21.484375
7930		-29.296875
7931		-25.390625
7932		-31.250000
7933		-27.343750
7934		-35.156250
7935		-29.296875
7936		-37.109375
7937		-29.296875
7938		-39.062500
7939		-33.203125
7940		-39.062500
7941		-37.109375
7942		-41.015625
7943		-37.109375
7944		-42.968750
7945		-39.062500
7946		-44.921875
7947		-37.109375
7948		-44.921875
7949		-42.968750
7950		-46.875000
7951		-42.968750
7952		-50.781250
7953		-42.968750
7954		-48.828125
7955		-44.921875
7956		-48.828125
7957		-44.921875
7958		-50.781250
7959		-44.921875
7960		-48.828125
7961		-46.875000
7962		-50.781250
7963		-46.875000
7964		-50.781250
7965		-48.828125
7966		-50.781250
7967		-48.828125
7968		-50.781250
7969		-46.875000
7970		-50.781250
7971		-46.875000
7972		-50.781250
7973		-46.875000
7974		-48.828125
7975		-46.875000
7976		-50.781250
7977		-44.921875
7978		-48.828125
7979		-44.921875
7980		-46.875000
7981		-44.921875
7982		-44.921875
7983		-42.968750
7984		-44.921875
7985		-41.015625
7986		-42.968750
7987		-41.015625
7988		-41.015625
7989		-39.062500
7990		-41.015625
7991		-37.109375
7992		-39.062500
7993		-35.156250
7994		-37.109375
7995		-33.203125
7996		-35.156250
7997		-31.250000
7998		-33.203125
7999		-29.296875
8000		-31.250000
8001		-27.343750
8002		-29.296875
8003		-23.437500
8004		-27.343750
8005		-21.484375
8006		-23.437500
8007		-19.531250
8008		-23.437500
8009		-17.578125
8010		-19.531250
8011		-13.671875
8012		-15.625000
8013		-11.718750
8014		-13.671875
8015		-9.765625
8016		-11.718750
8017		-7.812500
8018		-7.812500
8019		-1.953125
8020		-5.859375
8021		0.000000
8022		-3.906250
8023		1.953125
8024		-1.953125
8025		3.906250
8026		1.953125
8027		7.812500
8028		3.906250
8029		9.765625
8030		5.859375
8031		11.718750
8032		9.765625
8033		15.625000
8034		11.718750
8035		19.531250
8036		15.625000
8037		21.484375
8038		17.578125
8039		23.437500
8040		21.484375
8041		27.343750
8042		23.437500
8043		29.296875
8044		25.390625
8045		31.250000
8046		27.343750
8047		33.203125
8048		31.250000
8049		35.156250
8050		33.203125
8051		37.109375
8052		35.156250
8053		41.015625
8054		37.109375
8055		42.968750
8056		39.062500
8057		44.921875
8058		41.015625
8059		46.875000
8060		42.968750
8061		48.828125
8062		44.921875
8063		50.781250
8064		46.875000
8065		50.781250
8066		48.828125
8067		52.734375
8068		50.781250
8069		54.687500
8070		50.781250
8071		56.640625
8072		52.734375
8073		56.640625
8074		52.734375
8075		60.546875
8076		54.687500
8077		58.593750
8078		54.687500
8079		60.546875
8080		56.640625
8081		60.546875
8082		58.593750
8083		60.546875
8084		58.593750
8085		62.500000
8086		58.593750
8087		62.500000
8088		58.593750
8089		62.500000
8090		56.640625
8091		64.453125
8092		58.593750
8093		64.453125
8094		58.593750
8095		62.500000
8096		58.593750
8097		62.500000
8098		58.593750
8099		62.500000
8100		58.593750
8101		60.546875
8102		56.640625
8103		62.500000
8104		56.640625
8105		60.546875
8106		56.640625
8107		60.546875
8108		52.734375
8109		60.546875
8110		52.734375
8111		58.593750
8112		52.734375
8113		56.640625
8114		50.781250
8115		54.687500
8116		50.781250
8117		52.734375
8118		46.875000
8119		52.734375
8120		46.875000
8121		50.781250
8122		42.968750
8123		48.828125
8124		41.015625
8125		48.828125
8126		41.015625
8127		44.921875
8128		39.062500
8129		44.921875
8130		37.109375
8131		41.015625
8132		35.156250
8133		39.062500
8134		33.203125
8135		37.109375
8136		29.296875
8137		35.156250
8138		27.343750
8139		33.203125
8140		25.390625
8141		31.250000
8142		21.484375
8143		29.296875
8144		19.531250
8145		25.390625
8146		17.578125
8147		21.484375
8148		15.625000
8149		21.484375
8150		11.718750
8151		17.578125
8152		9.765625
8153		13.671875
8154		7.812500
8155		11.718750
8156		3.906250
8157		9.765625
8158		0.000000
8159		5.859375
8160		-1.953125
8161		3.906250
8162		-3.906250
8163		0.000000
8164		-5.859375
8165		-1.953125
8166		-9.765625
8167		-5.859375
8168		-11.718750
8169		-7.812500
8170		-15.625000
8171		-9.765625
8172		-17.578125
8173		-11.718750
8174		-19.531250
8175		-15.625000
8176		-23.437500
8177		-15.625000
8178		-25.390625
8179		-19.531250
8180		-27.343750
8181		-23.437500
8182		-29.296875
8183		-23.437500
8184		-31.250000
8185		-27.343750
8186		-33.203125
8187		-29.296875
8188		-35.156250
8189		-31.250000
8190		-37.109375
8191		-33.203125
8192		-39.062500
8193		-33.203125
8194		-41.015625
8195		-37.109375
8196		-42.968750
8197		-37.109375
8198		-44.921875
8199		-39.062500
8200		-44.921875
8201		-41.015625
8202		-46.875000
8203		-42.968750
8204		-46.875000
8205		-42.968750
8206		-48.828125
8207		-44.921875
8208		-50.781250
8209		-44.921875
8210		-48.828125
8211		-46.875000
8212		-50.781250
8213		-46.875000
8214		-50.781250
8215		-46.875000
8216		-50.781250
8217		-46.875000
8218		-50.781250
8219		-48.828125
8220		-50.781250
8221		-46.875000
8222		-50.781250
8223		-46.875000
8224		-50.781250
8225		-46.875000
8226		-50.781250
8227		-44.921875
8228		-48.828125
8229		-44.921875
8230		-48.828125
8231		-44.921875
8232		-46.875000
8233		-44.921875
8234		-46.875000
8235		-42.968750
8236		-44.921875
8237		-41.015625
8238		-42.968750
8239		-39.062500
8240		-42.968750
8241		-39.062500
8242		-41.015625
8243		-37.109375
8244		-39.062500
8245		-35.156250
8246		-37.109375
8247		-33.203125
8248		-35.156250
8249		-31.250000
8250		-33.203125
8251		-29.296875
8252		-31.250000
8253		-27.343750
8254		-29.296875
8255		-25.390625
8256		-27.343750
8257		-21.484375
8258		-25.390625
8259		-19.531250
8260		-23.437500
8261		-17.578125
8262		-19.531250
8263		-15.625000
8264		-17.578125
8265		-11.718750
8266		-15.625000
8267		-9.765625
8268		-11.718750
8269		-7.812500
8270		-9.765625
8271		-3.906250
8272		-7.812500
8273		-1.953125
8274		-3.906250
8275		1.953125
8276		0.000000
8277		3.906250
8278		1.953125
8279		5.859375
8280		3.906250
8281		9.765625
8282		5.859375
8283		11.718750
8284		9.765625
8285		13.671875
8286		13.671875
8287		17.578125
8288		15.625000
8289		19.531250
8290		17.578125
8291		21.484375
8292		19.531250
8293		25.390625
8294		23.437500
8295		27.343750
8296		25.390625
8297		29.296875
8298		27.343750
8299		33.203125
8300		31.250000
8301		35.156250
8302		33.203125
8303		37.109375
8304		35.156250
8305		39.062500
8306		37.109375
8307		41.015625
8308		39.062500
8309		42.968750
8310		41.015625
8311		44.921875
8312		42.968750
8313		48.828125
8314		44.921875
8315		48.828125
8316		46.875000
8317		50.781250
8318		48.828125
8319		52.734375
8320		50.781250
8321		54.687500
8322		50.781250
8323		54.687500
8324		52.734375
8325		56.640625
8326		54.687500
8327		56.640625
8328		54.687500
8329		58.593750
8330		56.640625
8331		60.546875
8332		56.640625
8333		60.546875
8334		58.593750
8335		60.546875
8336		58.593750
8337		60.546875
8338		58.593750
8339		62.500000
8340		58.593750
8341		62.500000
8342		58.593750
8343		62.500000
8344		58.593750
8345		62.500000
8346		58.593750
8347		62.500000
8348		58.593750
8349		62.500000
8350		58.593750
8351		62.500000
8352		58.593750
8353		60.546875
8354		58.593750
8355		60.546875
8356		56.640625
8357		60.546875
8358		56.640625
8359		60.546875
8360		54.687500
8361		58.593750
8362		54.687500
8363		56.640625
8364		52.734375
8365		56.640625
8366		50.781250
8367		56.640625
8368		50.781250
8369		54.687500
8370		46.875000
8371		52.734375
8372		46.875000
8373		52.734375
8374		44.921875
8375		48.828125
8376		44.921875
8377		46.875000
8378		42.968750
8379		44.921875
8380		39.062500
8381		44.921875
8382		35.156250
8383		42.968750
8384		35.156250
8385		39.062500
8386		33.203125
8387		37.109375
8388		31.250000
8389		35.156250
8390		29.296875
8391		33.203125
8392		25.390625
8393		31.250000
8394		23.437500
8395		27.343750
8396		21.484375
8397		25.390625
8398		17.578125
8399		23.437500
8400		15.625000
8401		21.484375
8402		13.671875
8403		17.578125
8404		9.765625
8405		15.625000
8406		7.812500
8407		11.718750
8408		3.906250
8409		9.765625
8410		1.953125
8411		5.859375
8412		0.000000
8413		3.906250
8414		-3.906250
8415		1.953125
8416		-5.859375
8417		-1.953125
8418		-9.765625
8419		-3.906250
8420		-11.718750
8421		-7.812500
8422		-13.671875
8423		-7.812500
8424		-17.578125
8425		-11.718750
8426		-19.531250
8427		-15.625000
8428		-21.484375
8429		-17.578125
8430		-23.437500
8431		-19.531250
8432		-27.343750
8433		-21.484375
8434		-29.296875
8435		-23.437500
8436		-31.250000
8437		-27.343750
8438		-33.203125
8439		-29.296875
8440		-35.156250
8441		-31.250000
8442		-37.109375
8443		-33.203125
8444		-39.062500
8445		-35.156250
8446		-41.015625
8447		-37.109375
8448		-42.968750
8449		-39.062500
8450		-42.968750
8451		-39.062500
8452		-44.921875
8453		-41.015625
8454		-46.875000
8455		-42.968750
8456		-46.875000
8457		-42.968750
8458		-48.828125
8459		-44.921875
8460		-48.828125
8461		-44.921875
8462		-48.828125
8463		-46.875000
8464		-50.781250
8465		-46.875000
8466		-50.781250
8467		-46.875000
8468		-50.781250
8469		-48.828125
8470		-50.781250
8471		-46.875000
8472		-50.781250
8473		-46.875000
8474		-50.781250
8475		-46.875000
8476		-50.781250
8477		-46.875000
8478		-50.781250
8479		-46.875000
8480		-48.828125
8481		-44.921875
8482		-48.828125
8483		-44.921875
8484		-48.828125
8485		-42.968750
8486		-46.875000
8487		-42.968750
8488		-44.921875
8489		-41.015625
8490		-42.968750
8491		-39.062500
8492		-42.968750
8493		-39.062500
8494		-41.015625
8495		-37.109375
8496		-39.062500
8497		-35.156250
8498		-37.109375
8499		-33.203125
8500		-35.156250
8501		-31.250000
8502		-33.203125
8503		-29.296875
8504		-31.250000
8505		-27.343750
8506		-31.250000
8507		-25.390625
8508		-27.343750
8509		-23.437500
8510		-25.390625
8511		-21.484375
8512		-21.484375
8513		-17.578125
8514		-19.531250
8515		-15.625000
8516		-17.578125
8517		-13.671875
8518		-15.625000
8519		-9.765625
8520		-11.718750
8521		-7.812500
8522		-9.765625
8523		-5.859375
8524		-7.812500
8525		-1.953125
8526		-5.859375
8527		0.000000
8528		-1.953125
8529		3.906250
8530		1.953125
8531		5.859375
8532		3.906250
8533		9.765625
8534		5.859375
8535		11.718750
8536		9.765625
8537		13.671875
8538		11.718750
8539		17.578125
8540		13.671875
8541		19.531250
8542		17.578125
8543		21.484375
8544		19.531250
8545		23.437500
8546		21.484375
8547		27.343750
8548		25.390625
8549		29.296875
8550		27.343750
8551		33.203125
8552		31.250000
8553		33.203125
8554		33.203125
8555		37.109375
8556		35.156250
8557		39.062500
8558		35.156250
8559		41.015625
8560		39.062500
8561		42.968750
8562		41.015625
8563		44.921875
8564		42.968750
8565		46.875000
8566		44.921875
8567		48.828125
8568		46.875000
8569		50.781250
8570		48.828125
8571		50.781250
8572		48.828125
8573		54.687500
8574		50.781250
8575		54.687500
8576		52.734375
8577		56.640625
8578		52.734375
8579		56.640625
8580		54.687500
8581		58.593750
8582		56.640625
8583		60.546875
8584		56.640625
8585		60.546875
8586		58.593750
8587		60.546875
8588		58.593750
8589		60.546875
8590		58.593750
8591		62.500000
8592		58.593750
8593		62.500000
8594		58.593750
8595		62.500000
8596		58.593750
8597		62.500000
8598		58.593750
8599		62.500000
8600		58.593750
8601		62.500000
8602		58.593750
8603		62.500000
8604		58.593750
8605		62.500000
8606		58.593750
8607		62.500000
8608		58.593750
8609		60.546875
8610		56.640625
8611		60.546875
8612		54.687500
8613		60.546875
8614		54.687500
8615		58.593750
8616		52.734375
8617		56.640625
8618		50.781250
8619		56.640625
8620		50.781250
8621		54.687500
8622		48.828125
8623		52.734375
8624		48.828125
8625		52.734375
8626		46.875000
8627		50.781250
8628		44.921875
8629		48.828125
8630		42.968750
8631		46.875000
8632		39.062500
8633		44.921875
8634		37.109375
8635		42.968750
8636		37.109375
8637		41.015625
8638		35.156250
8639		39.062500
8640		31.250000
8641		37.109375
8642		29.296875
8643		33.203125
8644		27.343750
8645		31.250000
8646		23.437500
8647		29.296875
8648		21.484375
8649		27.343750
8650		19.531250
8651		23.437500
8652		17.578125
8653		21.484375
8654		13.671875
8655		17.578125
8656		9.765625
8657		15.625000
8658		7.812500
8659		13.671875
8660		5.859375
8661		9.765625
8662		3.906250
8663		7.812500
8664		0.000000
8665		5.859375
8666		-1.953125
8667		1.953125
8668		-5.859375
8669		0.000000
8670		-7.812500
8671		-3.906250
8672		-11.718750
8673		-5.859375
8674		-13.671875
8675		-7.812500
8676		-15.625000
8677		-9.765625
8678		-17.578125
8679		-13.671875
8680		-21.484375
8681		-17.578125
8682		-23.437500
8683		-17.578125
8684		-27.343750
8685		-21.484375
8686		-27.343750
8687		-23.437500
8688		-29.296875
8689		-25.390625
8690		-33.203125
8691		-29.296875
8692		-35.156250
8693		-31.250000
8694		-37.109375
8695		-31.250000
8696		-37.109375
8697		-35.156250
8698		-41.015625
8699		-35.156250
8700		-41.015625
8701		-37.109375
8702		-42.968750
8703		-39.062500
8704		-44.921875
8705		-41.015625
8706		-44.921875
8707		-42.968750
8708		-46.875000
8709		-42.968750
8710		-46.875000
8711		-44.921875
8712		-48.828125
8713		-44.921875
8714		-48.828125
8715		-44.921875
8716		-50.781250
8717		-46.875000
8718		-50.781250
8719		-46.875000
8720		-50.781250
8721		-46.875000
8722		-50.781250
8723		-46.875000
8724		-50.781250
8725		-46.875000
8726		-50.781250
8727		-46.875000
8728		-50.781250
8729		-46.875000
8730		-48.828125
8731		-46.875000
8732		-48.828125
8733		-44.921875
8734		-48.828125
8735		-44.921875
8736		-48.828125
8737		-42.968750
8738		-46.875000
8739		-42.968750
8740		-44.921875
8741		-41.015625
8742		-44.921875
8743		-41.015625
8744		-42.968750
8745		-39.062500
8746		-41.015625
8747		-37.109375
8748		-39.062500
8749		-35.156250
8750		-37.109375
8751		-35.156250
8752		-37.109375
8753		-31.250000
8754		-33.203125
8755		-31.250000
8756		-31.250000
8757		-27.343750
8758		-29.296875
8759		-25.390625
8760		-27.343750
8761		-23.437500
8762		-25.390625
8763		-21.484375
8764		-23.437500
8765		-19.531250
8766		-21.484375
8767		-15.625000
8768		-19.531250
8769		-13.671875
8770		-15.625000
8771		-11.718750
8772		-13.671875
8773		-9.765625
8774		-9.765625
8775		-5.859375
8776		-7.812500
8777		-3.906250
8778		-3.906250
8779		0.000000
8780		-1.953125
8781		1.953125
8782		0.000000
8783		5.859375
8784		3.906250
8785		7.812500
8786		5.859375
8787		9.765625
8788		9.765625
8789		13.671875
8790		11.718750
8791		15.625000
8792		13.671875
8793		19.531250
8794		17.578125
8795		23.437500
8796		19.531250
8797		23.437500
8798		21.484375
8799		27.343750
8800		25.390625
8801		29.296875
8802		27.343750
8803		31.250000
8804		29.296875
8805		33.203125
8806		31.250000
8807		37.109375
8808		33.203125
8809		39.062500
8810		35.156250
8811		41.015625
8812		39.062500
8813		42.968750
8814		41.015625
8815		44.921875
8816		42.968750
8817		46.875000
8818		42.968750
8819		48.828125
8820		44.921875
8821		50.781250
8822		48.828125
8823		50.781250
8824		50.781250
8825		54.687500
8826		50.781250
8827		54.687500
8828		52.734375
8829		56.640625
8830		52.734375
8831		56.640625
8832		54.687500
8833		58.593750
8834		56.640625
8835		58.593750
8836		56.640625
8837		60.546875
8838		58.593750
8839		60.546875
8840		58.593750
8841		60.546875
8842		58.593750
8843		62.500000
8844		58.593750
8845		62.500000
8846		60.546875
8847		62.500000
8848		58.593750
8849		62.500000
8850		58.593750
8851		62.500000
8852		58.593750
8853		62.500000
8854		58.593750
8855		62.500000
8856		58.593750
8857		60.546875
8858		58.593750
8859		60.546875
8860		58.593750
8861		60.546875
8862		56.640625
8863		60.546875
8864		56.640625
8865		58.593750
8866		54.687500
8867		58.593750
8868		54.687500
8869		56.640625
8870		52.734375
8871		56.640625
8872		52.734375
8873		54.687500
8874		50.781250
8875		54.687500
8876		48.828125
8877		52.734375
8878		46.875000
8879		50.781250
8880		44.921875
8881		48.828125
8882		42.968750
8883		46.875000
8884		41.015625
8885		44.921875
8886		39.062500
8887		42.968750
8888		37.109375
8889		42.968750
8890		35.156250
8891		39.062500
8892		33.203125
8893		37.109375
8894		29.296875
8895		35.156250
8896		27.343750
8897		31.250000
8898		23.437500
8899		29.296875
8900		21.484375
8901		27.343750
8902		19.531250
8903		25.390625
8904		17.578125
8905		21.484375
8906		15.625000
8907		19.531250
8908		11.718750
8909		15.625000
8910		7.812500
8911		13.671875
8912		5.859375
8913		11.718750
8914		3.906250
8915		7.812500
8916		1.953125
8917		5.859375
8918		-1.953125
8919		3.906250
8920		-3.906250
8921		0.000000
8922		-7.812500
8923		-3.906250
8924		-9.765625
8925		-5.859375
8926		-13.671875
8927		-7.812500
8928		-15.625000
8929		-11.718750
8930		-17.578125
8931		-13.671875
8932		-19.531250
8933		-15.625000
8934		-23.437500
8935		-17.578125
8936		-25.390625
8937		-21.484375
8938		-27.343750
8939		-23.437500
8940		-29.296875
8941		-25.390625
8942		-33.203125
8943		-27.343750
8944		-33.203125
8945		-29.296875
8946		-37.109375
8947		-31.250000
8948		-37.109375
8949		-33.203125
8950		-39.062500
8951		-35.156250
8952		-41.015625
8953		-37.109375
8954		-42.968750
8955		-39.062500
8956		-42.968750
8957		-41.015625
8958		-44.921875
8959		-42.968750
8960		-46.875000
8961		-42.968750
8962		-48.828125
8963		-42.968750
8964		-48.828125
8965		-44.921875
8966		-48.828125
8967		-44.921875
8968		-50.781250
8969		-46.875000
8970		-50.781250
8971		-46.875000
8972		-50.781250
8973		-46.875000
8974		-50.781250
8975		-46.875000
8976		-50.781250
8977		-46.875000
8978		-50.781250
8979		-46.875000
8980		-50.781250
8981		-46.875000
8982		-50.781250
8983		-46.875000
8984		-48.828125
8985		-46.875000
8986		-48.828125
8987		-44.921875
8988		-48.828125
8989		-44.921875
8990		-46.875000
8991		-42.968750
8992		-46.875000
8993		-41.015625
8994		-44.921875
8995		-41.015625
8996		-42.968750
8997		-39.062500
8998		-41.015625
8999		-39.062500
9000		-41.015625
9001		-35.156250
9002		-39.062500
9003		-35.156250
9004		-37.109375
9005		-31.250000
9006		-35.156250
9007		-31.250000
9008		-33.203125
9009		-29.296875
9010		-31.250000
9011		-25.390625
9012		-29.296875
9013		-23.437500
9014		-27.343750
9015		-21.484375
9016		-23.437500
9017		-19.531250
9018		-21.484375
9019		-17.578125
9020		-19.531250
9021		-13.671875
9022		-17.578125
9023		-11.718750
9024		-13.671875
9025		-9.765625
9026		-11.718750
9027		-5.859375
9028		-9.765625
9029		-3.906250
9030		-5.859375
9031		0.000000
9032		-3.906250
9033		1.953125
9034		0.000000
9035		3.906250
9036		1.953125
9037		5.859375
9038		5.859375
9039		9.765625
9040		7.812500
9041		11.718750
9042		9.765625
9043		15.625000
9044		13.671875
9045		17.578125
9046		15.625000
9047		21.484375
9048		19.531250
9049		23.437500
9050		21.484375
9051		27.343750
9052		23.437500
9053		29.296875
9054		25.390625
9055		31.250000
9056		29.296875
9057		33.203125
9058		31.250000
9059		35.156250
9060		33.203125
9061		37.109375
9062		35.156250
9063		41.015625
9064		37.109375
9065		42.968750
9066		39.062500
9067		44.921875
9068		42.968750
9069		46.875000
9070		42.968750
9071		48.828125
9072		44.921875
9073		48.828125
9074		46.875000
9075		50.781250
9076		48.828125
9077		52.734375
9078		48.828125
9079		54.687500
9080		52.734375
9081		54.687500
9082		52.734375
9083		56.640625
9084		54.687500
9085		58.593750
9086		54.687500
9087		58.593750
9088		54.687500
9089		60.546875
9090		56.640625
9091		60.546875
9092		58.593750
9093		60.546875
9094		56.640625
9095		62.500000
9096		58.593750
9097		62.500000
9098		58.593750
9099		62.500000
9100		58.593750
9101		62.500000
9102		58.593750
9103		62.500000
9104		58.593750
9105		62.500000
9106		58.593750
9107		62.500000
9108		58.593750
9109		60.546875
9110		56.640625
9111		62.500000
9112		56.640625
9113		60.546875
9114		56.640625
9115		60.546875
9116		56.640625
9117		60.546875
9118		54.687500
9119		58.593750
9120		54.687500
9121		56.640625
9122		52.734375
9123		56.640625
9124		50.781250
9125		54.687500
9126		48.828125
9127		52.734375
9128		48.828125
9129		52.734375
9130		46.875000
9131		50.781250
9132		44.921875
9133		50.781250
9134		42.968750
9135		46.875000
9136		41.015625
9137		44.921875
9138		39.062500
9139		42.968750
9140		37.109375
9141		42.968750
9142		35.156250
9143		39.062500
9144		31.250000
9145		37.109375
9146		31.250000
9147		35.156250
9148		27.343750
9149		33.203125
9150		25.390625
9151		29.296875
9152		23.437500
9153		27.343750
9154		19.531250
9155		25.390625
9156		17.578125
9157		21.484375
9158		15.625000
9159		19.531250
9160		11.718750
9161		17.578125
9162		9.765625
9163		13.671875
9164		5.859375
9165		11.718750
9166		3.906250
9167		7.812500
9168		1.953125
9169		5.859375
9170		-1.953125
9171		3.906250
9172		-5.859375
9173		0.000000
9174		-5.859375
9175		-1.953125
9176		-9.765625
9177		-5.859375
9178		-11.718750
9179		-7.812500
9180		-15.625000
9181		-9.765625
9182		-17.578125
9183		-13.671875
9184		-19.531250
9185		-15.625000
9186		-23.437500
9187		-17.578125
9188		-25.390625
9189		-21.484375
9190		-27.343750
9191		-21.484375
9192		-29.296875
9193		-25.390625
9194		-33.203125
9195		-27.343750
9196		-33.203125
9197		-29.296875
9198		-35.156250
9199		-31.250000
9200		-37.109375
9201		-33.203125
9202		-39.062500
9203		-35.156250
9204		-41.015625
9205		-37.109375
9206		-42.968750
9207		-37.109375
9208		-42.968750
9209		-41.015625
9210		-44.921875
9211		-41.015625
9212		-46.875000
9213		-41.015625
9214		-46.875000
9215		-42.968750
9216		-48.828125
9217		-44.921875
9218		-48.828125
9219		-44.921875
9220		-50.781250
9221		-46.875000
9222		-50.781250
9223		-46.875000
9224		-50.781250
9225		-46.875000
9226		-50.781250
9227		-48.828125
9228		-50.781250
9229		-46.875000
9230		-50.781250
9231		-46.875000
9232		-50.781250
9233		-46.875000
9234		-48.828125
9235		-46.875000
9236		-48.828125
9237		-44.921875
9238		-48.828125
9239		-44.921875
9240		-48.828125
9241		-42.968750
9242		-46.875000
9243		-42.968750
9244		-44.921875
9245		-42.968750
9246		-44.921875
9247		-41.015625
9248		-44.921875
9249		-39.062500
9250		-41.015625
9251		-39.062500
9252		-41.015625
9253		-37.109375
9254		-39.062500
9255		-33.203125
9256		-37.109375
9257		-33.203125
9258		-35.156250
9259		-31.250000
9260		-33.203125
9261		-29.296875
9262		-31.250000
9263		-27.343750
9264		-29.296875
9265		-23.437500
9266		-27.343750
9267		-21.484375
9268		-23.437500
9269		-19.531250
9270		-21.484375
9271		-17.578125
9272		-19.531250
9273		-15.625000
9274		-17.578125
9275		-13.671875
9276		-13.671875
9277		-9.765625
9278		-11.718750
9279		-5.859375
9280		-9.765625
9281		-3.906250
9282		-7.812500
9283		-1.953125
9284		-3.906250
9285		0.000000
9286		0.000000
9287		3.906250
9288		1.953125
9289		5.859375
9290		3.906250
9291		9.765625
9292		7.812500
9293		11.718750
9294		9.765625
9295		13.671875
9296		11.718750
9297		17.578125
9298		15.625000
9299		19.531250
9300		17.578125
9301		21.484375
9302		21.484375
9303		25.390625
9304		23.437500
9305		27.343750
9306		25.390625
9307		31.250000
9308		27.343750
9309		33.203125
9310		31.250000
9311		35.156250
9312		33.203125
9313		37.109375
9314		35.156250
9315		41.015625
9316		37.109375
9317		41.015625
9318		39.062500
9319		42.968750
9320		41.015625
9321		44.921875
9322		42.968750
9323		48.828125
9324		44.921875
9325		48.828125
9326		46.875000
9327		50.781250
9328		48.828125
9329		52.734375
9330		48.828125
9331		54.687500
9332		50.781250
9333		54.687500
9334		52.734375
9335		56.640625
9336		54.687500
9337		58.593750
9338		54.687500
9339		60.546875
9340		56.640625
9341		60.546875
9342		56.640625
9343		60.546875
9344		58.593750
9345		60.546875
9346		56.640625
9347		62.500000
9348		58.593750
9349		62.500000
9350		58.593750
9351		62.500000
9352		60.546875
9353		62.500000
9354		58.593750
9355		62.500000
9356		58.593750
9357		62.500000
9358		58.593750
9359		62.500000
9360		58.593750
9361		62.500000
9362		58.593750
9363		62.500000
9364		56.640625
9365		60.546875
9366		56.640625
9367		60.546875
9368		54.687500
9369		60.546875
9370		54.687500
9371		58.593750
9372		54.687500
9373		58.593750
9374		52.734375
9375		56.640625
9376		52.734375
9377		54.687500
9378		50.781250
9379		54.687500
9380		48.828125
9381		52.734375
9382		46.875000
9383		50.781250
9384		44.921875
9385		48.828125
9386		42.968750
9387		46.875000
9388		41.015625
9389		46.875000
9390		39.062500
9391		42.968750
9392		37.109375
9393		41.015625
9394		35.156250
9395		39.062500
9396		33.203125
9397		37.109375
9398		31.250000
9399		35.156250
9400		29.296875
9401		33.203125
9402		25.390625
9403		31.250000
9404		23.437500
9405		27.343750
9406		21.484375
9407		25.390625
9408		17.578125
9409		23.437500
9410		15.625000
9411		19.531250
9412		13.671875
9413		17.578125
9414		9.765625
9415		15.625000
9416		5.859375
9417		11.718750
9418		5.859375
9419		9.765625
9420		1.953125
9421		5.859375
9422		0.000000
9423		3.906250
9424		-3.906250
9425		1.953125
9426		-5.859375
9427		0.000000
9428		-7.812500
9429		-3.906250
9430		-11.718750
9431		-7.812500
9432		-13.671875
9433		-9.765625
9434		-17.578125
9435		-11.718750
9436		-19.531250
9437		-15.625000
9438		-21.484375
9439		-17.578125
9440		-23.437500
9441		-19.531250
9442		-27.343750
9443		-21.484375
9444		-29.296875
9445		-25.390625
9446		-31.250000
9447		-27.343750
9448		-33.203125
9449		-29.296875
9450		-35.156250
9451		-31.250000
9452		-37.109375
9453		-33.203125
9454		-39.062500
9455		-35.156250
9456		-41.015625
9457		-37.109375
9458		-42.968750
9459		-39.062500
9460		-42.968750
9461		-41.015625
9462		-44.921875
9463		-41.015625
9464		-46.875000
9465		-42.968750
9466		-46.875000
9467		-42.968750
9468		-48.828125
9469		-44.921875
9470		-48.828125
9471		-44.921875
9472		-48.828125
9473		-44.921875
9474		-50.781250
9475		-46.875000
9476		-50.781250
9477		-46.875000
9478		-50.781250
9479		-46.875000
9480		-52.734375
9481		-46.875000
9482		-50.781250
9483		-46.875000
9484		-50.781250
9485		-46.875000
9486		-50.781250
9487		-46.875000
9488		-50.781250
9489		-46.875000
9490		-48.828125
9491		-44.921875
9492		-48.828125
9493		-44.921875
9494		-46.875000
9495		-44.921875
9496		-46.875000
9497		-42.968750
9498		-46.875000
9499		-41.015625
9500		-44.921875
9501		-39.062500
9502		-42.968750
9503		-39.062500
9504		-41.015625
9505		-37.109375
9506		-39.062500
9507		-35.156250
9508		-37.109375
9509		-33.203125
9510		-37.109375
9511		-31.250000
9512		-33.203125
9513		-29.296875
9514		-31.250000
9515		-27.343750
9516		-29.296875
9517		-25.390625
9518		-27.343750
9519		-23.437500
9520		-25.390625
9521		-19.531250
9522		-21.484375
9523		-17.578125
9524		-21.484375
9525		-15.625000
9526		-17.578125
9527		-13.671875
9528		-15.625000
9529		-9.765625
9530		-11.718750
9531		-7.812500
9532		-9.765625
9533		-3.906250
9534		-7.812500
9535		-1.953125
9536		-3.906250
9537		0.000000
9538		-1.953125
9539		3.906250
9540		1.953125
9541		5.859375
9542		3.906250
9543		9.765625
9544		5.859375
9545		11.718750
9546		9.765625
9547		13.671875
9548		11.718750
9549		17.578125
9550		15.625000
9551		19.531250
9552		17.578125
9553		21.484375
9554		19.531250
9555		23.437500
9556		23.437500
9557		27.343750
9558		25.390625
9559		29.296875
9560		27.343750
9561		31.250000
9562		29.296875
9563		35.156250
9564		33.203125
9565		37.109375
9566		35.156250
9567		39.062500
9568		37.109375
9569		41.015625
9570		39.062500
9571		42.968750
9572		41.015625
9573		44.921875
9574		42.968750
9575		46.875000
9576		44.921875
9577		48.828125
9578		46.875000
9579		50.781250
9580		48.828125
9581		50.781250
9582		48.828125
9583		54.687500
9584		50.781250
9585		56.640625
9586		52.734375
9587		56.640625
9588		54.687500
9589		56.640625
9590		54.687500
9591		58.593750
9592		54.687500
9593		60.546875
9594		56.640625
9595		60.546875
9596		58.593750
9597		60.546875
9598		58.593750
9599		60.546875
9600		58.593750
9601		62.500000
9602		58.593750
9603		62.500000
9604		58.593750
9605		62.500000
9606		58.593750
9607		62.500000
9608		58.593750
9609		62.500000
9610		58.593750
9611		62.500000
9612		58.593750
9613		60.546875
9614		58.593750
9615		60.546875
9616		58.593750
9617		60.546875
9618		56.640625
9619		60.546875
9620		56.640625
9621		58.593750
9622		54.687500
9623		58.593750
9624		54.687500
9625		58.593750
9626		52.734375
9627		56.640625
9628		52.734375
9629		56.640625
9630		50.781250
9631		54.687500
9632		48.828125
9633		52.734375
9634		46.875000
9635		52.734375
9636		46.875000
9637		48.828125
9638		44.921875
9639		48.828125
9640		42.968750
9641		46.875000
9642		41.015625
9643		44.921875
9644		39.062500
9645		42.968750
9646		37.109375
9647		39.062500
9648		33.203125
9649		37.109375
9650		31.250000
9651		37.109375
9652		29.296875
9653		33.203125
9654		27.343750
9655		31.250000
9656		23.437500
9657		29.296875
9658		21.484375
9659		25.390625
9660		17.578125
9661		23.437500
9662		15.625000
9663		21.484375
9664		13.671875
9665		17.578125
9666		9.765625
9667		15.625000
9668		7.812500
9669		13.671875
9670		5.859375
9671		9.765625
9672		1.953125
9673		7.812500
9674		0.000000
9675		3.906250
9676		-1.953125
9677		1.953125
9678		-5.859375
9679		0.000000
9680		-7.812500
9681		-3.906250
9682		-11.718750
9683		-5.859375
9684		-13.671875
9685		-9.765625
9686		-15.625000
9687		-11.718750
9688		-19.531250
9689		-13.671875
9690		-21.484375
9691		-17.578125
9692		-23.437500
9693		-19.531250
9694		-25.390625
9695		-21.484375
9696		-27.343750
9697		-23.437500
9698		-31.250000
9699		-25.390625
9700		-33.203125
9701		-29.296875
9702		-35.156250
9703		-31.250000
9704		-37.109375
9705		-33.203125
9706		-39.062500
9707		-35.156250
9708		-39.062500
9709		-37.109375
9710		-41.015625
9711		-39.062500
9712		-42.968750
9713		-39.062500
9714		-44.921875
9715		-41.015625
9716		-44.921875
9717		-41.015625
9718		-46.875000
9719		-42.968750
9720		-46.875000
9721		-44.921875
9722		-48.828125
9723		-44.921875
9724		-48.828125
9725		-44.921875
9726		-48.828125
9727		-46.875000
9728		-50.781250
9729		-46.875000
9730		-50.781250
9731		-46.875000
9732		-50.781250
9733		-46.875000
9734		-50.781250
9735		-46.875000
9736		-50.781250
9737		-46.875000
9738		-48.828125
9739		-46.875000
9740		-50.781250
9741		-46.875000
9742		-48.828125
9743		-44.921875
9744		-48.828125
9745		-44.921875
9746		-46.875000
9747		-44.921875
9748		-46.875000
9749		-42.968750
9750		-46.875000
9751		-41.015625
9752		-44.921875
9753		-41.015625
9754		-42.968750
9755		-39.062500
9756		-41.015625
9757		-37.109375
9758		-39.062500
9759		-35.156250
9760		-37.109375
9761		-33.203125
9762		-35.156250
9763		-33.203125
9764		-33.203125
9765		-29.296875
9766		-31.250000
9767		-27.343750
9768		-29.296875
9769		-25.390625
9770		-27.343750
9771		-23.437500
9772		-25.390625
9773		-21.484375
9774		-23.437500
9775		-17.578125
9776		-19.531250
9777		-15.625000
9778		-17.578125
9779		-13.671875
9780		-15.625000
9781		-11.718750
9782		-11.718750
9783		-7.812500
9784		-11.718750
9785		-5.859375
9786		-7.812500
9787		-1.953125
9788		-3.906250
9789		0.000000
9790		-1.953125
9791		1.953125
9792		0.000000
9793		5.859375
9794		3.906250
9795		9.765625
9796		5.859375
9797		9.765625
9798		9.765625
9799		13.671875
9800		11.718750
9801		15.625000
9802		13.671875
9803		17.578125
9804		17.578125
9805		21.484375
9806		19.531250
9807		23.437500
9808		23.437500
9809		27.343750
9810		25.390625
9811		29.296875
9812		27.343750
9813		31.250000
9814		29.296875
9815		33.203125
9816		33.203125
9817		37.109375
9818		33.203125
9819		39.062500
9820		37.109375
9821		41.015625
9822		39.062500
9823		42.968750
9824		41.015625
9825		44.921875
9826		42.968750
9827		46.875000
9828		44.921875
9829		48.828125
9830		46.875000
9831		50.781250
9832		48.828125
9833		50.781250
9834		48.828125
9835		52.734375
9836		50.781250
9837		54.687500
9838		52.734375
9839		56.640625
9840		54.687500
9841		56.640625
9842		54.687500
9843		58.593750
9844		56.640625
9845		58.593750
9846		54.687500
9847		60.546875
9848		56.640625
9849		60.546875
9850		58.593750
9851		62.500000
9852		58.593750
9853		62.500000
9854		58.593750
9855		62.500000
9856		60.546875
9857		62.500000
9858		58.593750
9859		62.500000
9860		58.593750
9861		62.500000
9862		58.593750
9863		62.500000
9864		60.546875
9865		62.500000
9866		58.593750
9867		62.500000
9868		58.593750
9869		62.500000
9870		56.640625
9871		60.546875
9872		56.640625
9873		60.546875
9874		54.687500
9875		60.546875
9876		54.687500
9877		58.593750
9878		52.734375
9879		58.593750
9880		52.734375
9881		56.640625
9882		50.781250
9883		54.687500
9884		48.828125
9885		52.734375
9886		48.828125
9887		52.734375
9888		46.875000
9889		50.781250
9890		44.921875
9891		48.828125
9892		42.968750
9893		46.875000
9894		41.015625
9895		44.921875
9896		39.062500
9897		42.968750
9898		37.109375
9899		41.015625
9900		33.203125
9901		39.062500
9902		33.203125
9903		37.109375
9904		29.296875
9905		35.156250
9906		27.343750
9907		31.250000
9908		23.437500
9909		29.296875
9910		23.437500
9911		27.343750
9912		19.531250
9913		25.390625
9914		17.578125
9915		21.484375
9916		13.671875
9917		19.531250
9918		11.718750
9919		15.625000
9920		9.765625
9921		13.671875
9922		5.859375
9923		11.718750
9924		3.906250
9925		7.812500
9926		0.000000
9927		5.859375
9928		-1.953125
9929		1.953125
9930		-3.906250
9931		0.000000
9932		-7.812500
9933		-1.953125
9934		-9.765625
9935		-5.859375
9936		-13.671875
9937		-7.812500
9938		-15.625000
9939		-11.718750
9940		-17.578125
9941		-13.671875
9942		-19.531250
9943		-15.625000
9944		-23.437500
9945		-19.531250
9946		-25.390625
9947		-21.484375
9948		-27.343750
9949		-23.437500
9950		-29.296875
9951		-25.390625
9952		-31.250000
9953		-27.343750
9954		-33.203125
9955		-29.296875
9956		-37.109375
9957		-31.250000
9958		-39.062500
9959		-33.203125
9960		-39.062500
9961		-35.156250
9962		-41.015625
9963		-37.109375
9964		-42.968750
9965		-37.109375
9966		-42.968750
9967		-41.015625
9968		-46.875000
9969		-41.015625
9970		-46.875000
9971		-42.968750
9972		-46.875000
9973		-42.968750
9974		-48.828125
9975		-44.921875
9976		-48.828125
9977		-44.921875
9978		-48.828125
9979		-46.875000
9980		-48.828125
9981		-46.875000
9982		-50.781250
9983		-46.875000
9984		-50.781250
9985		-46.875000
9986		-50.781250
9987		-46.875000
9988		-50.781250
9989		-46.875000
9990		-50.781250
9991		-46.875000
9992		-48.828125
9993		-46.875000
9994		-48.828125
9995		-44.921875
9996		-48.828125
9997		-44.921875
9998		-46.875000
9999		-44.921875
10000		-46.875000
