Channel              :		CH1
Frequency            :		1.978kHz
Period               :		0.506ms
PK-PK                :		175.8mV
Probe attenuation    :		1X
Voltage per ADC value:		0.122070mV
Time interval        :		2.00000us

index		CH1_Voltage(mV)
1		83.984375
2		83.984375
3		87.890625
4		83.984375
5		87.890625
6		83.984375
7		87.890625
8		85.937500
9		87.890625
10		83.984375
11		87.890625
12		83.984375
13		87.890625
14		83.984375
15		87.890625
16		83.984375
17		85.937500
18		82.031250
19		85.937500
20		82.031250
21		85.937500
22		80.078125
23		85.937500
24		78.125000
25		83.984375
26		78.125000
27		82.031250
28		76.171875
29		80.078125
30		74.218750
31		78.125000
32		72.265625
33		76.171875
34		70.312500
35		74.218750
36		68.359375
37		72.265625
38		64.453125
39		70.312500
40		62.500000
41		66.406250
42		60.546875
43		64.453125
44		56.640625
45		62.500000
46		52.734375
47		58.593750
48		50.781250
49		54.687500
50		46.875000
51		52.734375
52		42.968750
53		48.828125
54		41.015625
55		46.875000
56		37.109375
57		42.968750
58		33.203125
59		39.062500
60		29.296875
61		35.156250
62		25.390625
63		31.250000
64		21.484375
65		27.343750
66		17.578125
67		23.437500
68		13.671875
69		17.578125
70		7.812500
71		15.625000
72		3.906250
73		11.718750
74		0.000000
75		5.859375
76		-3.906250
77		1.953125
78		-7.812500
79		-1.953125
80		-11.718750
81		-5.859375
82		-15.625000
83		-9.765625
84		-19.531250
85		-13.671875
86		-23.437500
87		-17.578125
88		-29.296875
89		-21.484375
90		-31.250000
91		-25.390625
92		-35.156250
93		-29.296875
94		-39.062500
95		-33.203125
96		-42.968750
97		-37.109375
98		-46.875000
99		-41.015625
100		-48.828125
101		-44.921875
102		-52.734375
103		-48.828125
104		-56.640625
105		-50.781250
106		-58.593750
107		-54.687500
108		-62.500000
109		-56.640625
110		-64.453125
111		-58.593750
112		-66.406250
113		-60.546875
114		-68.359375
115		-64.453125
116		-70.312500
117		-66.406250
118		-72.265625
119		-68.359375
120		-74.218750
121		-70.312500
122		-76.171875
123		-72.265625
124		-76.171875
125		-74.218750
126		-78.125000
127		-74.218750
128		-80.078125
129		-74.218750
130		-78.125000
131		-76.171875
132		-80.078125
133		-76.171875
134		-80.078125
135		-76.171875
136		-78.125000
137		-76.171875
138		-80.078125
139		-76.171875
140		-78.125000
141		-76.171875
142		-78.125000
143		-74.218750
144		-78.125000
145		-74.218750
146		-76.171875
147		-72.265625
148		-74.218750
149		-70.312500
150		-74.218750
151		-70.312500
152		-70.312500
153		-66.406250
154		-70.312500
155		-64.453125
156		-68.359375
157		-62.500000
158		-64.453125
159		-60.546875
160		-62.500000
161		-58.593750
162		-58.593750
163		-54.687500
164		-56.640625
165		-52.734375
166		-54.687500
167		-48.828125
168		-50.781250
169		-44.921875
170		-46.875000
171		-42.968750
172		-42.968750
173		-39.062500
174		-41.015625
175		-35.156250
176		-37.109375
177		-31.250000
178		-33.203125
179		-27.343750
180		-29.296875
181		-23.437500
182		-25.390625
183		-19.531250
184		-21.484375
185		-15.625000
186		-17.578125
187		-11.718750
188		-13.671875
189		-7.812500
190		-9.765625
191		-3.906250
192		-3.906250
193		1.953125
194		0.000000
195		3.906250
196		3.906250
197		9.765625
198		7.812500
199		13.671875
200		11.718750
201		17.578125
202		15.625000
203		21.484375
204		19.531250
205		25.390625
206		23.437500
207		29.296875
208		27.343750
209		33.203125
210		31.250000
211		37.109375
212		35.156250
213		41.015625
214		39.062500
215		42.968750
216		42.968750
217		48.828125
218		44.921875
219		50.781250
220		48.828125
221		54.687500
222		52.734375
223		56.640625
224		54.687500
225		60.546875
226		58.593750
227		62.500000
228		62.500000
229		66.406250
230		64.453125
231		68.359375
232		66.406250
233		72.265625
234		68.359375
235		74.218750
236		72.265625
237		74.218750
238		74.218750
239		78.125000
240		76.171875
241		80.078125
242		76.171875
243		80.078125
244		78.125000
245		82.031250
246		80.078125
247		83.984375
248		82.031250
249		83.984375
250		82.031250
251		85.937500
252		83.984375
253		85.937500
254		83.984375
255		87.890625
256		83.984375
257		87.890625
258		85.937500
259		87.890625
260		85.937500
261		87.890625
262		85.937500
263		87.890625
264		85.937500
265		87.890625
266		85.937500
267		87.890625
268		83.984375
269		87.890625
270		83.984375
271		85.937500
272		82.031250
273		85.937500
274		82.031250
275		83.984375
276		80.078125
277		83.984375
278		78.125000
279		82.031250
280		76.171875
281		80.078125
282		76.171875
283		80.078125
284		72.265625
285		78.125000
286		72.265625
287		74.218750
288		68.359375
289		72.265625
290		66.406250
291		70.312500
292		62.500000
293		68.359375
294		60.546875
295		66.406250
296		58.593750
297		64.453125
298		54.687500
299		60.546875
300		52.734375
301		58.593750
302		48.828125
303		54.687500
304		44.921875
305		50.781250
306		41.015625
307		46.875000
308		37.109375
309		42.968750
310		35.156250
311		39.062500
312		31.250000
313		37.109375
314		25.390625
315		33.203125
316		23.437500
317		29.296875
318		19.531250
319		25.390625
320		15.625000
321		21.484375
322		9.765625
323		15.625000
324		5.859375
325		11.718750
326		1.953125
327		7.812500
328		-1.953125
329		3.906250
330		-5.859375
331		0.000000
332		-9.765625
333		-3.906250
334		-13.671875
335		-7.812500
336		-17.578125
337		-11.718750
338		-23.437500
339		-15.625000
340		-27.343750
341		-21.484375
342		-29.296875
343		-23.437500
344		-33.203125
345		-29.296875
346		-37.109375
347		-31.250000
348		-42.968750
349		-35.156250
350		-46.875000
351		-39.062500
352		-48.828125
353		-42.968750
354		-50.781250
355		-46.875000
356		-54.687500
357		-48.828125
358		-56.640625
359		-52.734375
360		-60.546875
361		-54.687500
362		-62.500000
363		-58.593750
364		-66.406250
365		-60.546875
366		-66.406250
367		-64.453125
368		-70.312500
369		-64.453125
370		-72.265625
371		-68.359375
372		-74.218750
373		-70.312500
374		-74.218750
375		-70.312500
376		-76.171875
377		-72.265625
378		-78.125000
379		-74.218750
380		-78.125000
381		-74.218750
382		-78.125000
383		-76.171875
384		-80.078125
385		-76.171875
386		-78.125000
387		-76.171875
388		-78.125000
389		-76.171875
390		-80.078125
391		-76.171875
392		-78.125000
393		-76.171875
394		-78.125000
395		-74.218750
396		-76.171875
397		-74.218750
398		-76.171875
399		-72.265625
400		-76.171875
401		-70.312500
402		-74.218750
403		-70.312500
404		-72.265625
405		-68.359375
406		-70.312500
407		-66.406250
408		-68.359375
409		-62.500000
410		-66.406250
411		-60.546875
412		-62.500000
413		-58.593750
414		-60.546875
415		-56.640625
416		-58.593750
417		-52.734375
418		-54.687500
419		-50.781250
420		-50.781250
421		-46.875000
422		-48.828125
423		-42.968750
424		-44.921875
425		-39.062500
426		-42.968750
427		-37.109375
428		-39.062500
429		-33.203125
430		-33.203125
431		-29.296875
432		-31.250000
433		-25.390625
434		-25.390625
435		-19.531250
436		-23.437500
437		-17.578125
438		-17.578125
439		-13.671875
440		-15.625000
441		-7.812500
442		-11.718750
443		-3.906250
444		-5.859375
445		0.000000
446		-1.953125
447		3.906250
448		1.953125
449		7.812500
450		5.859375
451		11.718750
452		9.765625
453		15.625000
454		13.671875
455		19.531250
456		17.578125
457		25.390625
458		21.484375
459		27.343750
460		27.343750
461		33.203125
462		29.296875
463		35.156250
464		33.203125
465		39.062500
466		37.109375
467		42.968750
468		41.015625
469		46.875000
470		44.921875
471		48.828125
472		48.828125
473		52.734375
474		50.781250
475		56.640625
476		54.687500
477		58.593750
478		56.640625
479		62.500000
480		60.546875
481		66.406250
482		62.500000
483		68.359375
484		66.406250
485		70.312500
486		68.359375
487		72.265625
488		70.312500
489		74.218750
490		72.265625
491		76.171875
492		74.218750
493		78.125000
494		76.171875
495		80.078125
496		78.125000
497		82.031250
498		80.078125
499		83.984375
500		82.031250
501		83.984375
502		82.031250
503		85.937500
504		83.984375
505		85.937500
506		83.984375
507		87.890625
508		83.984375
509		87.890625
510		85.937500
511		87.890625
512		83.984375
513		89.843750
514		85.937500
515		87.890625
516		85.937500
517		89.843750
518		83.984375
519		87.890625
520		83.984375
521		87.890625
522		83.984375
523		87.890625
524		82.031250
525		85.937500
526		82.031250
527		85.937500
528		80.078125
529		83.984375
530		80.078125
531		83.984375
532		78.125000
533		82.031250
534		76.171875
535		80.078125
536		74.218750
537		78.125000
538		72.265625
539		76.171875
540		70.312500
541		74.218750
542		68.359375
543		72.265625
544		64.453125
545		70.312500
546		62.500000
547		68.359375
548		58.593750
549		64.453125
550		56.640625
551		60.546875
552		52.734375
553		58.593750
554		50.781250
555		54.687500
556		46.875000
557		52.734375
558		42.968750
559		48.828125
560		41.015625
561		44.921875
562		37.109375
563		42.968750
564		33.203125
565		37.109375
566		29.296875
567		35.156250
568		25.390625
569		31.250000
570		21.484375
571		27.343750
572		17.578125
573		23.437500
574		11.718750
575		17.578125
576		9.765625
577		13.671875
578		3.906250
579		9.765625
580		0.000000
581		5.859375
582		-3.906250
583		3.906250
584		-7.812500
585		-1.953125
586		-11.718750
587		-5.859375
588		-15.625000
589		-9.765625
590		-19.531250
591		-15.625000
592		-23.437500
593		-17.578125
594		-29.296875
595		-21.484375
596		-31.250000
597		-27.343750
598		-35.156250
599		-31.250000
600		-41.015625
601		-33.203125
602		-42.968750
603		-37.109375
604		-46.875000
605		-41.015625
606		-48.828125
607		-44.921875
608		-52.734375
609		-46.875000
610		-56.640625
611		-50.781250
612		-58.593750
613		-54.687500
614		-62.500000
615		-56.640625
616		-64.453125
617		-60.546875
618		-66.406250
619		-62.500000
620		-68.359375
621		-64.453125
622		-70.312500
623		-66.406250
624		-72.265625
625		-68.359375
626		-74.218750
627		-70.312500
628		-76.171875
629		-72.265625
630		-76.171875
631		-72.265625
632		-78.125000
633		-74.218750
634		-78.125000
635		-74.218750
636		-78.125000
637		-74.218750
638		-78.125000
639		-76.171875
640		-78.125000
641		-76.171875
642		-78.125000
643		-74.218750
644		-78.125000
645		-76.171875
646		-78.125000
647		-74.218750
648		-76.171875
649		-74.218750
650		-76.171875
651		-72.265625
652		-76.171875
653		-72.265625
654		-74.218750
655		-70.312500
656		-72.265625
657		-68.359375
658		-70.312500
659		-66.406250
660		-68.359375
661		-64.453125
662		-66.406250
663		-60.546875
664		-64.453125
665		-58.593750
666		-60.546875
667		-56.640625
668		-58.593750
669		-52.734375
670		-54.687500
671		-50.781250
672		-52.734375
673		-46.875000
674		-48.828125
675		-44.921875
676		-46.875000
677		-41.015625
678		-42.968750
679		-37.109375
680		-39.062500
681		-33.203125
682		-35.156250
683		-29.296875
684		-31.250000
685		-25.390625
686		-27.343750
687		-21.484375
688		-23.437500
689		-17.578125
690		-19.531250
691		-13.671875
692		-15.625000
693		-9.765625
694		-11.718750
695		-5.859375
696		-7.812500
697		-1.953125
698		-3.906250
699		3.906250
700		0.000000
701		5.859375
702		3.906250
703		11.718750
704		7.812500
705		15.625000
706		13.671875
707		19.531250
708		17.578125
709		23.437500
710		21.484375
711		27.343750
712		25.390625
713		31.250000
714		29.296875
715		35.156250
716		33.203125
717		39.062500
718		37.109375
719		41.015625
720		39.062500
721		44.921875
722		42.968750
723		48.828125
724		46.875000
725		52.734375
726		50.781250
727		54.687500
728		54.687500
729		58.593750
730		56.640625
731		62.500000
732		60.546875
733		64.453125
734		62.500000
735		66.406250
736		64.453125
737		70.312500
738		68.359375
739		72.265625
740		70.312500
741		74.218750
742		72.265625
743		76.171875
744		74.218750
745		78.125000
746		76.171875
747		80.078125
748		78.125000
749		82.031250
750		80.078125
751		83.984375
752		80.078125
753		83.984375
754		82.031250
755		85.937500
756		83.984375
757		85.937500
758		83.984375
759		87.890625
760		83.984375
761		87.890625
762		85.937500
763		87.890625
764		85.937500
765		87.890625
766		85.937500
767		89.843750
768		85.937500
769		89.843750
770		85.937500
771		89.843750
772		83.984375
773		89.843750
774		83.984375
775		87.890625
776		83.984375
777		87.890625
778		82.031250
779		85.937500
780		80.078125
781		85.937500
782		80.078125
783		83.984375
784		78.125000
785		82.031250
786		76.171875
787		82.031250
788		74.218750
789		80.078125
790		74.218750
791		78.125000
792		70.312500
793		76.171875
794		68.359375
795		74.218750
796		66.406250
797		70.312500
798		64.453125
799		68.359375
800		60.546875
801		66.406250
802		58.593750
803		62.500000
804		54.687500
805		60.546875
806		52.734375
807		56.640625
808		48.828125
809		52.734375
810		44.921875
811		50.781250
812		41.015625
813		46.875000
814		37.109375
815		42.968750
816		33.203125
817		39.062500
818		29.296875
819		37.109375
820		25.390625
821		31.250000
822		23.437500
823		29.296875
824		17.578125
825		23.437500
826		13.671875
827		19.531250
828		9.765625
829		15.625000
830		5.859375
831		11.718750
832		1.953125
833		7.812500
834		-1.953125
835		3.906250
836		-5.859375
837		0.000000
838		-9.765625
839		-3.906250
840		-13.671875
841		-7.812500
842		-17.578125
843		-13.671875
844		-23.437500
845		-15.625000
846		-27.343750
847		-21.484375
848		-31.250000
849		-25.390625
850		-33.203125
851		-29.296875
852		-37.109375
853		-33.203125
854		-42.968750
855		-35.156250
856		-44.921875
857		-39.062500
858		-48.828125
859		-42.968750
860		-50.781250
861		-46.875000
862		-54.687500
863		-50.781250
864		-56.640625
865		-52.734375
866		-60.546875
867		-54.687500
868		-62.500000
869		-58.593750
870		-66.406250
871		-60.546875
872		-68.359375
873		-62.500000
874		-70.312500
875		-66.406250
876		-72.265625
877		-68.359375
878		-74.218750
879		-68.359375
880		-74.218750
881		-70.312500
882		-78.125000
883		-72.265625
884		-80.078125
885		-72.265625
886		-80.078125
887		-72.265625
888		-78.125000
889		-74.218750
890		-78.125000
891		-76.171875
892		-78.125000
893		-76.171875
894		-80.078125
895		-76.171875
896		-80.078125
897		-76.171875
898		-80.078125
899		-74.218750
900		-78.125000
901		-74.218750
902		-78.125000
903		-72.265625
904		-76.171875
905		-72.265625
906		-76.171875
907		-70.312500
908		-72.265625
909		-70.312500
910		-70.312500
911		-66.406250
912		-72.265625
913		-64.453125
914		-66.406250
915		-62.500000
916		-64.453125
917		-60.546875
918		-62.500000
919		-56.640625
920		-60.546875
921		-52.734375
922		-58.593750
923		-50.781250
924		-54.687500
925		-48.828125
926		-50.781250
927		-44.921875
928		-48.828125
929		-41.015625
930		-44.921875
931		-39.062500
932		-41.015625
933		-35.156250
934		-37.109375
935		-29.296875
936		-33.203125
937		-27.343750
938		-31.250000
939		-21.484375
940		-25.390625
941		-19.531250
942		-21.484375
943		-15.625000
944		-17.578125
945		-9.765625
946		-15.625000
947		-5.859375
948		-11.718750
949		-1.953125
950		-5.859375
951		1.953125
952		-1.953125
953		5.859375
954		1.953125
955		11.718750
956		5.859375
957		13.671875
958		11.718750
959		17.578125
960		15.625000
961		21.484375
962		17.578125
963		25.390625
964		21.484375
965		31.250000
966		27.343750
967		33.203125
968		29.296875
969		39.062500
970		33.203125
971		42.968750
972		37.109375
973		44.921875
974		42.968750
975		46.875000
976		44.921875
977		50.781250
978		46.875000
979		56.640625
980		50.781250
981		58.593750
982		52.734375
983		62.500000
984		56.640625
985		64.453125
986		60.546875
987		68.359375
988		62.500000
989		70.312500
990		64.453125
991		70.312500
992		68.359375
993		72.265625
994		70.312500
995		76.171875
996		70.312500
997		80.078125
998		72.265625
999		82.031250
1000		74.218750
1001		82.031250
1002		76.171875
1003		83.984375
1004		78.125000
1005		85.937500
1006		80.078125
1007		85.937500
1008		82.031250
1009		85.937500
1010		83.984375
1011		85.937500
1012		82.031250
1013		89.843750
1014		82.031250
1015		89.843750
1016		82.031250
1017		89.843750
1018		83.984375
1019		89.843750
1020		83.984375
1021		89.843750
1022		83.984375
1023		89.843750
1024		85.937500
1025		87.890625
1026		83.984375
1027		87.890625
1028		82.031250
1029		87.890625
1030		80.078125
1031		87.890625
1032		80.078125
1033		87.890625
1034		78.125000
1035		85.937500
1036		76.171875
1037		83.984375
1038		74.218750
1039		83.984375
1040		74.218750
1041		82.031250
1042		74.218750
1043		78.125000
1044		70.312500
1045		76.171875
1046		68.359375
1047		74.218750
1048		66.406250
1049		74.218750
1050		62.500000
1051		70.312500
1052		60.546875
1053		68.359375
1054		56.640625
1055		64.453125
1056		54.687500
1057		62.500000
1058		52.734375
1059		56.640625
1060		48.828125
1061		54.687500
1062		42.968750
1063		50.781250
1064		41.015625
1065		50.781250
1066		37.109375
1067		46.875000
1068		33.203125
1069		42.968750
1070		29.296875
1071		37.109375
1072		25.390625
1073		35.156250
1074		23.437500
1075		31.250000
1076		19.531250
1077		25.390625
1078		15.625000
1079		21.484375
1080		9.765625
1081		19.531250
1082		5.859375
1083		15.625000
1084		1.953125
1085		11.718750
1086		-1.953125
1087		7.812500
1088		-5.859375
1089		1.953125
1090		-9.765625
1091		-1.953125
1092		-13.671875
1093		-7.812500
1094		-17.578125
1095		-11.718750
1096		-25.390625
1097		-13.671875
1098		-27.343750
1099		-17.578125
1100		-31.250000
1101		-21.484375
1102		-35.156250
1103		-25.390625
1104		-39.062500
1105		-29.296875
1106		-42.968750
1107		-33.203125
1108		-44.921875
1109		-37.109375
1110		-46.875000
1111		-42.968750
1112		-52.734375
1113		-44.921875
1114		-56.640625
1115		-46.875000
1116		-58.593750
1117		-48.828125
1118		-62.500000
1119		-52.734375
1120		-64.453125
1121		-56.640625
1122		-66.406250
1123		-58.593750
1124		-68.359375
1125		-62.500000
1126		-70.312500
1127		-64.453125
1128		-70.312500
1129		-68.359375
1130		-76.171875
1131		-66.406250
1132		-76.171875
1133		-68.359375
1134		-78.125000
1135		-70.312500
1136		-78.125000
1137		-72.265625
1138		-80.078125
1139		-72.265625
1140		-80.078125
1141		-74.218750
1142		-78.125000
1143		-76.171875
1144		-78.125000
1145		-76.171875
1146		-82.031250
1147		-74.218750
1148		-82.031250
1149		-74.218750
1150		-80.078125
1151		-74.218750
1152		-80.078125
1153		-72.265625
1154		-80.078125
1155		-72.265625
1156		-78.125000
1157		-70.312500
1158		-78.125000
1159		-70.312500
1160		-74.218750
1161		-70.312500
1162		-72.265625
1163		-66.406250
1164		-72.265625
1165		-64.453125
1166		-70.312500
1167		-62.500000
1168		-68.359375
1169		-60.546875
1170		-66.406250
1171		-58.593750
1172		-62.500000
1173		-54.687500
1174		-60.546875
1175		-52.734375
1176		-54.687500
1177		-50.781250
1178		-52.734375
1179		-46.875000
1180		-50.781250
1181		-41.015625
1182		-48.828125
1183		-39.062500
1184		-44.921875
1185		-35.156250
1186		-41.015625
1187		-31.250000
1188		-37.109375
1189		-27.343750
1190		-35.156250
1191		-23.437500
1192		-29.296875
1193		-21.484375
1194		-23.437500
1195		-17.578125
1196		-19.531250
1197		-11.718750
1198		-17.578125
1199		-7.812500
1200		-13.671875
1201		-3.906250
1202		-9.765625
1203		0.000000
1204		-3.906250
1205		3.906250
1206		0.000000
1207		7.812500
1208		3.906250
1209		11.718750
1210		9.765625
1211		15.625000
1212		13.671875
1213		19.531250
1214		15.625000
1215		25.390625
1216		19.531250
1217		29.296875
1218		23.437500
1219		33.203125
1220		25.390625
1221		37.109375
1222		31.250000
1223		41.015625
1224		35.156250
1225		42.968750
1226		39.062500
1227		46.875000
1228		44.921875
1229		48.828125
1230		46.875000
1231		54.687500
1232		48.828125
1233		58.593750
1234		50.781250
1235		60.546875
1236		54.687500
1237		62.500000
1238		58.593750
1239		66.406250
1240		60.546875
1241		68.359375
1242		62.500000
1243		70.312500
1244		68.359375
1245		72.265625
1246		70.312500
1247		76.171875
1248		70.312500
1249		78.125000
1250		72.265625
1251		80.078125
1252		74.218750
1253		82.031250
1254		76.171875
1255		83.984375
1256		78.125000
1257		85.937500
1258		78.125000
1259		85.937500
1260		82.031250
1261		85.937500
1262		83.984375
1263		85.937500
1264		82.031250
1265		89.843750
1266		82.031250
1267		89.843750
1268		82.031250
1269		89.843750
1270		83.984375
1271		89.843750
1272		83.984375
1273		89.843750
1274		83.984375
1275		89.843750
1276		83.984375
1277		89.843750
1278		85.937500
1279		87.890625
1280		82.031250
1281		87.890625
1282		82.031250
1283		87.890625
1284		80.078125
1285		87.890625
1286		78.125000
1287		85.937500
1288		78.125000
1289		85.937500
1290		76.171875
1291		83.984375
1292		76.171875
1293		82.031250
1294		74.218750
1295		78.125000
1296		72.265625
1297		76.171875
1298		68.359375
1299		76.171875
1300		66.406250
1301		74.218750
1302		64.453125
1303		72.265625
1304		60.546875
1305		70.312500
1306		58.593750
1307		66.406250
1308		54.687500
1309		64.453125
1310		54.687500
1311		60.546875
1312		50.781250
1313		56.640625
1314		44.921875
1315		52.734375
1316		41.015625
1317		50.781250
1318		39.062500
1319		46.875000
1320		35.156250
1321		44.921875
1322		31.250000
1323		41.015625
1324		27.343750
1325		37.109375
1326		25.390625
1327		33.203125
1328		21.484375
1329		27.343750
1330		15.625000
1331		23.437500
1332		11.718750
1333		21.484375
1334		7.812500
1335		17.578125
1336		1.953125
1337		11.718750
1338		0.000000
1339		7.812500
1340		-5.859375
1341		5.859375
1342		-7.812500
1343		0.000000
1344		-11.718750
1345		-5.859375
1346		-15.625000
1347		-9.765625
1348		-21.484375
1349		-13.671875
1350		-25.390625
1351		-15.625000
1352		-31.250000
1353		-19.531250
1354		-33.203125
1355		-23.437500
1356		-37.109375
1357		-27.343750
1358		-41.015625
1359		-31.250000
1360		-42.968750
1361		-35.156250
1362		-44.921875
1363		-41.015625
1364		-50.781250
1365		-44.921875
1366		-54.687500
1367		-44.921875
1368		-58.593750
1369		-48.828125
1370		-60.546875
1371		-52.734375
1372		-64.453125
1373		-54.687500
1374		-66.406250
1375		-58.593750
1376		-66.406250
1377		-60.546875
1378		-68.359375
1379		-64.453125
1380		-70.312500
1381		-66.406250
1382		-74.218750
1383		-66.406250
1384		-76.171875
1385		-68.359375
1386		-78.125000
1387		-70.312500
1388		-78.125000
1389		-70.312500
1390		-80.078125
1391		-72.265625
1392		-80.078125
1393		-72.265625
1394		-80.078125
1395		-74.218750
1396		-78.125000
1397		-76.171875
1398		-82.031250
1399		-74.218750
1400		-80.078125
1401		-74.218750
1402		-82.031250
1403		-74.218750
1404		-80.078125
1405		-72.265625
1406		-80.078125
1407		-72.265625
1408		-78.125000
1409		-72.265625
1410		-78.125000
1411		-70.312500
1412		-74.218750
1413		-70.312500
1414		-72.265625
1415		-66.406250
1416		-72.265625
1417		-64.453125
1418		-72.265625
1419		-62.500000
1420		-68.359375
1421		-60.546875
1422		-66.406250
1423		-56.640625
1424		-64.453125
1425		-54.687500
1426		-60.546875
1427		-52.734375
1428		-56.640625
1429		-50.781250
1430		-52.734375
1431		-48.828125
1432		-50.781250
1433		-42.968750
1434		-48.828125
1435		-39.062500
1436		-44.921875
1437		-35.156250
1438		-41.015625
1439		-31.250000
1440		-39.062500
1441		-29.296875
1442		-33.203125
1443		-25.390625
1444		-31.250000
1445		-23.437500
1446		-23.437500
1447		-19.531250
1448		-19.531250
1449		-13.671875
1450		-17.578125
1451		-7.812500
1452		-13.671875
1453		-3.906250
1454		-9.765625
1455		0.000000
1456		-5.859375
1457		3.906250
1458		-1.953125
1459		7.812500
1460		1.953125
1461		9.765625
1462		7.812500
1463		13.671875
1464		11.718750
1465		17.578125
1466		15.625000
1467		23.437500
1468		19.531250
1469		27.343750
1470		21.484375
1471		31.250000
1472		27.343750
1473		35.156250
1474		29.296875
1475		39.062500
1476		33.203125
1477		42.968750
1478		39.062500
1479		44.921875
1480		42.968750
1481		48.828125
1482		46.875000
1483		52.734375
1484		48.828125
1485		56.640625
1486		50.781250
1487		60.546875
1488		54.687500
1489		64.453125
1490		56.640625
1491		66.406250
1492		60.546875
1493		68.359375
1494		62.500000
1495		70.312500
1496		66.406250
1497		72.265625
1498		70.312500
1499		76.171875
1500		70.312500
1501		78.125000
1502		72.265625
1503		80.078125
1504		74.218750
1505		82.031250
1506		76.171875
1507		83.984375
1508		78.125000
1509		83.984375
1510		78.125000
1511		85.937500
1512		82.031250
1513		85.937500
1514		83.984375
1515		85.937500
1516		82.031250
1517		89.843750
1518		82.031250
1519		89.843750
1520		83.984375
1521		89.843750
1522		83.984375
1523		89.843750
1524		83.984375
1525		91.796875
1526		83.984375
1527		91.796875
1528		83.984375
1529		91.796875
1530		85.937500
1531		87.890625
1532		82.031250
1533		89.843750
1534		82.031250
1535		89.843750
1536		80.078125
1537		87.890625
1538		80.078125
1539		87.890625
1540		78.125000
1541		85.937500
1542		76.171875
1543		83.984375
1544		76.171875
1545		83.984375
1546		76.171875
1547		80.078125
1548		74.218750
1549		78.125000
1550		70.312500
1551		76.171875
1552		68.359375
1553		74.218750
1554		66.406250
1555		72.265625
1556		62.500000
1557		70.312500
1558		60.546875
1559		68.359375
1560		56.640625
1561		64.453125
1562		56.640625
1563		60.546875
1564		52.734375
1565		56.640625
1566		46.875000
1567		54.687500
1568		42.968750
1569		52.734375
1570		41.015625
1571		48.828125
1572		37.109375
1573		44.921875
1574		33.203125
1575		42.968750
1576		29.296875
1577		39.062500
1578		27.343750
1579		35.156250
1580		23.437500
1581		29.296875
1582		17.578125
1583		25.390625
1584		13.671875
1585		23.437500
1586		9.765625
1587		19.531250
1588		5.859375
1589		15.625000
1590		0.000000
1591		9.765625
1592		-3.906250
1593		5.859375
1594		-7.812500
1595		1.953125
1596		-9.765625
1597		-3.906250
1598		-13.671875
1599		-7.812500
1600		-19.531250
1601		-11.718750
1602		-23.437500
1603		-13.671875
1604		-27.343750
1605		-17.578125
1606		-31.250000
1607		-21.484375
1608		-35.156250
1609		-25.390625
1610		-39.062500
1611		-29.296875
1612		-41.015625
1613		-33.203125
1614		-44.921875
1615		-39.062500
1616		-48.828125
1617		-42.968750
1618		-52.734375
1619		-42.968750
1620		-56.640625
1621		-46.875000
1622		-58.593750
1623		-50.781250
1624		-60.546875
1625		-52.734375
1626		-64.453125
1627		-56.640625
1628		-66.406250
1629		-58.593750
1630		-66.406250
1631		-62.500000
1632		-68.359375
1633		-64.453125
1634		-74.218750
1635		-66.406250
1636		-74.218750
1637		-66.406250
1638		-76.171875
1639		-68.359375
1640		-78.125000
1641		-70.312500
1642		-80.078125
1643		-72.265625
1644		-80.078125
1645		-72.265625
1646		-80.078125
1647		-72.265625
1648		-78.125000
1649		-76.171875
1650		-80.078125
1651		-74.218750
1652		-80.078125
1653		-74.218750
1654		-80.078125
1655		-74.218750
1656		-80.078125
1657		-74.218750
1658		-80.078125
1659		-72.265625
1660		-80.078125
1661		-72.265625
1662		-78.125000
1663		-70.312500
1664		-74.218750
1665		-70.312500
1666		-72.265625
1667		-68.359375
1668		-72.265625
1669		-66.406250
1670		-72.265625
1671		-64.453125
1672		-70.312500
1673		-60.546875
1674		-66.406250
1675		-58.593750
1676		-64.453125
1677		-56.640625
1678		-62.500000
1679		-54.687500
1680		-56.640625
1681		-52.734375
1682		-54.687500
1683		-48.828125
1684		-52.734375
1685		-44.921875
1686		-50.781250
1687		-41.015625
1688		-46.875000
1689		-37.109375
1690		-42.968750
1691		-33.203125
1692		-39.062500
1693		-29.296875
1694		-35.156250
1695		-27.343750
1696		-31.250000
1697		-25.390625
1698		-25.390625
1699		-19.531250
1700		-21.484375
1701		-15.625000
1702		-19.531250
1703		-9.765625
1704		-15.625000
1705		-5.859375
1706		-11.718750
1707		-1.953125
1708		-7.812500
1709		1.953125
1710		-3.906250
1711		5.859375
1712		0.000000
1713		9.765625
1714		7.812500
1715		11.718750
1716		11.718750
1717		17.578125
1718		13.671875
1719		21.484375
1720		15.625000
1721		25.390625
1722		19.531250
1723		31.250000
1724		25.390625
1725		33.203125
1726		29.296875
1727		37.109375
1728		33.203125
1729		42.968750
1730		37.109375
1731		42.968750
1732		41.015625
1733		46.875000
1734		44.921875
1735		52.734375
1736		46.875000
1737		54.687500
1738		48.828125
1739		58.593750
1740		52.734375
1741		60.546875
1742		56.640625
1743		64.453125
1744		58.593750
1745		68.359375
1746		60.546875
1747		68.359375
1748		66.406250
1749		70.312500
1750		68.359375
1751		72.265625
1752		68.359375
1753		76.171875
1754		70.312500
1755		78.125000
1756		74.218750
1757		82.031250
1758		74.218750
1759		82.031250
1760		76.171875
1761		83.984375
1762		78.125000
1763		85.937500
1764		82.031250
1765		83.984375
1766		83.984375
1767		85.937500
1768		82.031250
1769		87.890625
1770		82.031250
1771		89.843750
1772		82.031250
1773		89.843750
1774		83.984375
1775		89.843750
1776		82.031250
1777		89.843750
1778		83.984375
1779		89.843750
1780		83.984375
1781		89.843750
1782		85.937500
1783		87.890625
1784		82.031250
1785		89.843750
1786		82.031250
1787		89.843750
1788		80.078125
1789		87.890625
1790		80.078125
1791		87.890625
1792		78.125000
1793		85.937500
1794		78.125000
1795		85.937500
1796		76.171875
1797		83.984375
1798		76.171875
1799		80.078125
1800		74.218750
1801		78.125000
1802		70.312500
1803		78.125000
1804		68.359375
1805		76.171875
1806		66.406250
1807		74.218750
1808		62.500000
1809		70.312500
1810		60.546875
1811		68.359375
1812		58.593750
1813		66.406250
1814		56.640625
1815		62.500000
1816		54.687500
1817		58.593750
1818		46.875000
1819		54.687500
1820		44.921875
1821		54.687500
1822		41.015625
1823		50.781250
1824		37.109375
1825		46.875000
1826		35.156250
1827		42.968750
1828		31.250000
1829		41.015625
1830		29.296875
1831		37.109375
1832		25.390625
1833		29.296875
1834		21.484375
1835		25.390625
1836		15.625000
1837		23.437500
1838		9.765625
1839		19.531250
1840		5.859375
1841		15.625000
1842		1.953125
1843		11.718750
1844		-1.953125
1845		7.812500
1846		-5.859375
1847		3.906250
1848		-7.812500
1849		-1.953125
1850		-11.718750
1851		-5.859375
1852		-17.578125
1853		-9.765625
1854		-23.437500
1855		-13.671875
1856		-27.343750
1857		-17.578125
1858		-29.296875
1859		-21.484375
1860		-33.203125
1861		-25.390625
1862		-37.109375
1863		-27.343750
1864		-41.015625
1865		-33.203125
1866		-42.968750
1867		-39.062500
1868		-48.828125
1869		-41.015625
1870		-50.781250
1871		-42.968750
1872		-54.687500
1873		-46.875000
1874		-58.593750
1875		-48.828125
1876		-60.546875
1877		-52.734375
1878		-62.500000
1879		-54.687500
1880		-64.453125
1881		-58.593750
1882		-66.406250
1883		-62.500000
1884		-68.359375
1885		-64.453125
1886		-72.265625
1887		-64.453125
1888		-74.218750
1889		-66.406250
1890		-76.171875
1891		-68.359375
1892		-78.125000
1893		-70.312500
1894		-78.125000
1895		-70.312500
1896		-80.078125
1897		-72.265625
1898		-78.125000
1899		-72.265625
1900		-78.125000
1901		-76.171875
1902		-82.031250
1903		-74.218750
1904		-80.078125
1905		-74.218750
1906		-80.078125
1907		-74.218750
1908		-80.078125
1909		-74.218750
1910		-80.078125
1911		-72.265625
1912		-80.078125
1913		-72.265625
1914		-78.125000
1915		-72.265625
1916		-74.218750
1917		-72.265625
1918		-74.218750
1919		-68.359375
1920		-76.171875
1921		-66.406250
1922		-72.265625
1923		-64.453125
1924		-70.312500
1925		-62.500000
1926		-68.359375
1927		-60.546875
1928		-66.406250
1929		-56.640625
1930		-62.500000
1931		-54.687500
1932		-60.546875
1933		-54.687500
1934		-54.687500
1935		-50.781250
1936		-52.734375
1937		-44.921875
1938		-50.781250
1939		-42.968750
1940		-46.875000
1941		-39.062500
1942		-42.968750
1943		-35.156250
1944		-41.015625
1945		-31.250000
1946		-37.109375
1947		-27.343750
1948		-33.203125
1949		-25.390625
1950		-27.343750
1951		-21.484375
1952		-23.437500
1953		-15.625000
1954		-21.484375
1955		-11.718750
1956		-17.578125
1957		-7.812500
1958		-13.671875
1959		-3.906250
1960		-9.765625
1961		0.000000
1962		-3.906250
1963		3.906250
1964		-1.953125
1965		7.812500
1966		5.859375
1967		9.765625
1968		9.765625
1969		15.625000
1970		11.718750
1971		21.484375
1972		15.625000
1973		25.390625
1974		19.531250
1975		29.296875
1976		23.437500
1977		33.203125
1978		27.343750
1979		37.109375
1980		31.250000
1981		39.062500
1982		33.203125
1983		41.015625
1984		41.015625
1985		44.921875
1986		42.968750
1987		50.781250
1988		44.921875
1989		54.687500
1990		48.828125
1991		58.593750
1992		50.781250
1993		60.546875
1994		54.687500
1995		62.500000
1996		58.593750
1997		66.406250
1998		60.546875
1999		68.359375
2000		64.453125
2001		68.359375
2002		68.359375
2003		72.265625
2004		68.359375
2005		76.171875
2006		70.312500
2007		78.125000
2008		72.265625
2009		80.078125
2010		74.218750
2011		82.031250
2012		76.171875
2013		83.984375
2014		76.171875
2015		85.937500
2016		80.078125
2017		83.984375
2018		82.031250
2019		85.937500
2020		82.031250
2021		87.890625
2022		82.031250
2023		89.843750
2024		82.031250
2025		89.843750
2026		83.984375
2027		89.843750
2028		83.984375
2029		89.843750
2030		83.984375
2031		89.843750
2032		83.984375
2033		91.796875
2034		85.937500
2035		87.890625
2036		83.984375
2037		89.843750
2038		82.031250
2039		89.843750
2040		82.031250
2041		89.843750
2042		80.078125
2043		87.890625
2044		80.078125
2045		87.890625
2046		78.125000
2047		85.937500
2048		76.171875
2049		83.984375
2050		78.125000
2051		80.078125
2052		74.218750
2053		78.125000
2054		70.312500
2055		80.078125
2056		68.359375
2057		78.125000
2058		66.406250
2059		76.171875
2060		64.453125
2061		74.218750
2062		60.546875
2063		70.312500
2064		58.593750
2065		68.359375
2066		58.593750
2067		64.453125
2068		54.687500
2069		60.546875
2070		50.781250
2071		56.640625
2072		46.875000
2073		56.640625
2074		44.921875
2075		52.734375
2076		39.062500
2077		48.828125
2078		35.156250
2079		44.921875
2080		31.250000
2081		41.015625
2082		29.296875
2083		39.062500
2084		27.343750
2085		31.250000
2086		19.531250
2087		27.343750
2088		17.578125
2089		25.390625
2090		13.671875
2091		23.437500
2092		7.812500
2093		17.578125
2094		3.906250
2095		13.671875
2096		0.000000
2097		9.765625
2098		-3.906250
2099		5.859375
2100		-5.859375
2101		0.000000
2102		-9.765625
2103		-3.906250
2104		-15.625000
2105		-7.812500
2106		-21.484375
2107		-11.718750
2108		-25.390625
2109		-15.625000
2110		-29.296875
2111		-19.531250
2112		-33.203125
2113		-23.437500
2114		-37.109375
2115		-25.390625
2116		-37.109375
2117		-31.250000
2118		-41.015625
2119		-37.109375
2120		-46.875000
2121		-41.015625
2122		-50.781250
2123		-41.015625
2124		-54.687500
2125		-44.921875
2126		-56.640625
2127		-46.875000
2128		-58.593750
2129		-50.781250
2130		-62.500000
2131		-54.687500
2132		-64.453125
2133		-56.640625
2134		-64.453125
2135		-60.546875
2136		-68.359375
2137		-64.453125
2138		-72.265625
2139		-64.453125
2140		-74.218750
2141		-66.406250
2142		-76.171875
2143		-68.359375
2144		-76.171875
2145		-68.359375
2146		-78.125000
2147		-70.312500
2148		-78.125000
2149		-72.265625
2150		-78.125000
2151		-72.265625
2152		-78.125000
2153		-76.171875
2154		-80.078125
2155		-74.218750
2156		-80.078125
2157		-74.218750
2158		-80.078125
2159		-74.218750
2160		-82.031250
2161		-74.218750
2162		-80.078125
2163		-72.265625
2164		-80.078125
2165		-72.265625
2166		-78.125000
2167		-70.312500
2168		-74.218750
2169		-72.265625
2170		-74.218750
2171		-70.312500
2172		-74.218750
2173		-66.406250
2174		-72.265625
2175		-64.453125
2176		-72.265625
2177		-62.500000
2178		-68.359375
2179		-60.546875
2180		-66.406250
2181		-58.593750
2182		-66.406250
2183		-54.687500
2184		-62.500000
2185		-54.687500
2186		-56.640625
2187		-50.781250
2188		-54.687500
2189		-46.875000
2190		-52.734375
2191		-42.968750
2192		-48.828125
2193		-41.015625
2194		-44.921875
2195		-37.109375
2196		-42.968750
2197		-31.250000
2198		-37.109375
2199		-29.296875
2200		-33.203125
2201		-27.343750
2202		-29.296875
2203		-23.437500
2204		-25.390625
2205		-17.578125
2206		-21.484375
2207		-13.671875
2208		-17.578125
2209		-9.765625
2210		-15.625000
2211		-5.859375
2212		-11.718750
2213		-1.953125
2214		-5.859375
2215		3.906250
2216		-3.906250
2217		7.812500
2218		3.906250
2219		9.765625
2220		7.812500
2221		13.671875
2222		11.718750
2223		19.531250
2224		13.671875
2225		23.437500
2226		17.578125
2227		27.343750
2228		21.484375
2229		31.250000
2230		25.390625
2231		35.156250
2232		29.296875
2233		39.062500
2234		33.203125
2235		41.015625
2236		39.062500
2237		44.921875
2238		42.968750
2239		48.828125
2240		42.968750
2241		52.734375
2242		46.875000
2243		56.640625
2244		50.781250
2245		58.593750
2246		52.734375
2247		62.500000
2248		56.640625
2249		64.453125
2250		58.593750
2251		66.406250
2252		64.453125
2253		68.359375
2254		66.406250
2255		70.312500
2256		68.359375
2257		76.171875
2258		70.312500
2259		78.125000
2260		72.265625
2261		80.078125
2262		74.218750
2263		82.031250
2264		76.171875
2265		83.984375
2266		78.125000
2267		83.984375
2268		78.125000
2269		85.937500
2270		82.031250
2271		85.937500
2272		82.031250
2273		87.890625
2274		82.031250
2275		89.843750
2276		82.031250
2277		89.843750
2278		83.984375
2279		89.843750
2280		83.984375
2281		91.796875
2282		83.984375
2283		91.796875
2284		83.984375
2285		91.796875
2286		85.937500
2287		87.890625
2288		85.937500
2289		89.843750
2290		82.031250
2291		89.843750
2292		82.031250
2293		89.843750
2294		82.031250
2295		87.890625
2296		80.078125
2297		87.890625
2298		78.125000
2299		85.937500
2300		78.125000
2301		85.937500
2302		78.125000
2303		82.031250
2304		76.171875
2305		80.078125
2306		72.265625
2307		80.078125
2308		70.312500
2309		78.125000
2310		68.359375
2311		76.171875
2312		64.453125
2313		72.265625
2314		62.500000
2315		70.312500
2316		60.546875
2317		68.359375
2318		58.593750
2319		66.406250
2320		56.640625
2321		60.546875
2322		50.781250
2323		58.593750
2324		46.875000
2325		56.640625
2326		44.921875
2327		54.687500
2328		41.015625
2329		50.781250
2330		37.109375
2331		46.875000
2332		35.156250
2333		42.968750
2334		31.250000
2335		39.062500
2336		27.343750
2337		33.203125
2338		23.437500
2339		29.296875
2340		17.578125
2341		27.343750
2342		13.671875
2343		23.437500
2344		9.765625
2345		19.531250
2346		5.859375
2347		15.625000
2348		1.953125
2349		11.718750
2350		-1.953125
2351		7.812500
2352		-3.906250
2353		3.906250
2354		-7.812500
2355		-1.953125
2356		-15.625000
2357		-7.812500
2358		-19.531250
2359		-7.812500
2360		-23.437500
2361		-13.671875
2362		-27.343750
2363		-17.578125
2364		-31.250000
2365		-21.484375
2366		-33.203125
2367		-25.390625
2368		-37.109375
2369		-29.296875
2370		-41.015625
2371		-35.156250
2372		-42.968750
2373		-37.109375
2374		-48.828125
2375		-39.062500
2376		-52.734375
2377		-42.968750
2378		-56.640625
2379		-46.875000
2380		-58.593750
2381		-50.781250
2382		-62.500000
2383		-52.734375
2384		-64.453125
2385		-54.687500
2386		-64.453125
2387		-60.546875
2388		-66.406250
2389		-62.500000
2390		-70.312500
2391		-62.500000
2392		-72.265625
2393		-64.453125
2394		-74.218750
2395		-66.406250
2396		-76.171875
2397		-68.359375
2398		-76.171875
2399		-70.312500
2400		-78.125000
2401		-70.312500
2402		-78.125000
2403		-72.265625
2404		-78.125000
2405		-74.218750
2406		-80.078125
2407		-74.218750
2408		-80.078125
2409		-74.218750
2410		-80.078125
2411		-74.218750
2412		-80.078125
2413		-72.265625
2414		-80.078125
2415		-74.218750
2416		-80.078125
2417		-72.265625
2418		-78.125000
2419		-72.265625
2420		-76.171875
2421		-72.265625
2422		-74.218750
2423		-70.312500
2424		-74.218750
2425		-66.406250
2426		-74.218750
2427		-66.406250
2428		-70.312500
2429		-64.453125
2430		-70.312500
2431		-60.546875
2432		-68.359375
2433		-58.593750
2434		-64.453125
2435		-56.640625
2436		-60.546875
2437		-56.640625
2438		-56.640625
2439		-52.734375
2440		-54.687500
2441		-46.875000
2442		-52.734375
2443		-42.968750
2444		-50.781250
2445		-41.015625
2446		-46.875000
2447		-37.109375
2448		-44.921875
2449		-33.203125
2450		-39.062500
2451		-31.250000
2452		-37.109375
2453		-27.343750
2454		-29.296875
2455		-23.437500
2456		-25.390625
2457		-21.484375
2458		-25.390625
2459		-15.625000
2460		-19.531250
2461		-11.718750
2462		-15.625000
2463		-7.812500
2464		-11.718750
2465		-1.953125
2466		-7.812500
2467		1.953125
2468		-3.906250
2469		5.859375
2470		1.953125
2471		7.812500
2472		5.859375
2473		11.718750
2474		9.765625
2475		19.531250
2476		11.718750
2477		23.437500
2478		15.625000
2479		25.390625
2480		19.531250
2481		29.296875
2482		23.437500
2483		33.203125
2484		27.343750
2485		37.109375
2486		31.250000
2487		39.062500
2488		37.109375
2489		42.968750
2490		41.015625
2491		48.828125
2492		42.968750
2493		52.734375
2494		46.875000
2495		54.687500
2496		50.781250
2497		58.593750
2498		52.734375
2499		62.500000
2500		54.687500
2501		64.453125
2502		58.593750
2503		66.406250
2504		62.500000
2505		68.359375
2506		66.406250
2507		70.312500
2508		66.406250
2509		74.218750
2510		68.359375
2511		78.125000
2512		70.312500
2513		80.078125
2514		72.265625
2515		80.078125
2516		74.218750
2517		82.031250
2518		76.171875
2519		83.984375
2520		78.125000
2521		83.984375
2522		82.031250
2523		83.984375
2524		82.031250
2525		87.890625
2526		82.031250
2527		89.843750
2528		82.031250
2529		89.843750
2530		83.984375
2531		89.843750
2532		83.984375
2533		91.796875
2534		83.984375
2535		91.796875
2536		83.984375
2537		89.843750
2538		85.937500
2539		87.890625
2540		85.937500
2541		87.890625
2542		83.984375
2543		89.843750
2544		82.031250
2545		89.843750
2546		82.031250
2547		87.890625
2548		80.078125
2549		87.890625
2550		80.078125
2551		85.937500
2552		76.171875
2553		85.937500
2554		78.125000
2555		83.984375
2556		76.171875
2557		80.078125
2558		72.265625
2559		80.078125
2560		70.312500
2561		78.125000
2562		68.359375
2563		76.171875
2564		66.406250
2565		74.218750
2566		64.453125
2567		72.265625
2568		60.546875
2569		70.312500
2570		58.593750
2571		66.406250
2572		58.593750
2573		62.500000
2574		54.687500
2575		58.593750
2576		48.828125
2577		58.593750
2578		44.921875
2579		54.687500
2580		42.968750
2581		50.781250
2582		39.062500
2583		46.875000
2584		35.156250
2585		44.921875
2586		31.250000
2587		41.015625
2588		29.296875
2589		35.156250
2590		25.390625
2591		31.250000
2592		19.531250
2593		27.343750
2594		15.625000
2595		25.390625
2596		11.718750
2597		21.484375
2598		5.859375
2599		17.578125
2600		3.906250
2601		13.671875
2602		0.000000
2603		7.812500
2604		-3.906250
2605		5.859375
2606		-7.812500
2607		-1.953125
2608		-13.671875
2609		-5.859375
2610		-17.578125
2611		-7.812500
2612		-21.484375
2613		-11.718750
2614		-25.390625
2615		-15.625000
2616		-29.296875
2617		-19.531250
2618		-33.203125
2619		-23.437500
2620		-35.156250
2621		-27.343750
2622		-39.062500
2623		-33.203125
2624		-42.968750
2625		-37.109375
2626		-46.875000
2627		-39.062500
2628		-50.781250
2629		-42.968750
2630		-54.687500
2631		-44.921875
2632		-56.640625
2633		-48.828125
2634		-60.546875
2635		-50.781250
2636		-62.500000
2637		-54.687500
2638		-64.453125
2639		-58.593750
2640		-66.406250
2641		-62.500000
2642		-70.312500
2643		-62.500000
2644		-72.265625
2645		-64.453125
2646		-74.218750
2647		-66.406250
2648		-76.171875
2649		-68.359375
2650		-76.171875
2651		-70.312500
2652		-78.125000
2653		-70.312500
2654		-78.125000
2655		-72.265625
2656		-78.125000
2657		-74.218750
2658		-78.125000
2659		-74.218750
2660		-80.078125
2661		-74.218750
2662		-82.031250
2663		-74.218750
2664		-80.078125
2665		-74.218750
2666		-80.078125
2667		-74.218750
2668		-80.078125
2669		-72.265625
2670		-80.078125
2671		-72.265625
2672		-76.171875
2673		-72.265625
2674		-74.218750
2675		-72.265625
2676		-74.218750
2677		-68.359375
2678		-74.218750
2679		-66.406250
2680		-72.265625
2681		-64.453125
2682		-70.312500
2683		-62.500000
2684		-68.359375
2685		-58.593750
2686		-66.406250
2687		-56.640625
2688		-64.453125
2689		-56.640625
2690		-58.593750
2691		-54.687500
2692		-54.687500
2693		-48.828125
2694		-54.687500
2695		-44.921875
2696		-52.734375
2697		-42.968750
2698		-48.828125
2699		-39.062500
2700		-44.921875
2701		-35.156250
2702		-41.015625
2703		-31.250000
2704		-37.109375
2705		-29.296875
2706		-31.250000
2707		-27.343750
2708		-29.296875
2709		-23.437500
2710		-25.390625
2711		-15.625000
2712		-21.484375
2713		-13.671875
2714		-17.578125
2715		-9.765625
2716		-13.671875
2717		-3.906250
2718		-11.718750
2719		0.000000
2720		-5.859375
2721		3.906250
2722		-1.953125
2723		5.859375
2724		3.906250
2725		9.765625
2726		7.812500
2727		15.625000
2728		9.765625
2729		21.484375
2730		15.625000
2731		23.437500
2732		19.531250
2733		27.343750
2734		23.437500
2735		33.203125
2736		27.343750
2737		37.109375
2738		29.296875
2739		37.109375
2740		35.156250
2741		41.015625
2742		39.062500
2743		44.921875
2744		41.015625
2745		50.781250
2746		44.921875
2747		54.687500
2748		46.875000
2749		56.640625
2750		50.781250
2751		60.546875
2752		54.687500
2753		62.500000
2754		58.593750
2755		66.406250
2756		62.500000
2757		66.406250
2758		64.453125
2759		68.359375
2760		66.406250
2761		74.218750
2762		68.359375
2763		76.171875
2764		68.359375
2765		78.125000
2766		72.265625
2767		80.078125
2768		74.218750
2769		82.031250
2770		76.171875
2771		83.984375
2772		76.171875
2773		83.984375
2774		82.031250
2775		83.984375
2776		82.031250
2777		87.890625
2778		82.031250
2779		87.890625
2780		82.031250
2781		89.843750
2782		82.031250
2783		89.843750
2784		83.984375
2785		89.843750
2786		83.984375
2787		89.843750
2788		83.984375
2789		89.843750
2790		85.937500
2791		87.890625
2792		85.937500
2793		87.890625
2794		82.031250
2795		89.843750
2796		82.031250
2797		89.843750
2798		82.031250
2799		89.843750
2800		82.031250
2801		87.890625
2802		80.078125
2803		85.937500
2804		78.125000
2805		85.937500
2806		78.125000
2807		83.984375
2808		78.125000
2809		80.078125
2810		74.218750
2811		80.078125
2812		70.312500
2813		80.078125
2814		70.312500
2815		76.171875
2816		66.406250
2817		74.218750
2818		64.453125
2819		72.265625
2820		62.500000
2821		70.312500
2822		60.546875
2823		68.359375
2824		58.593750
2825		62.500000
2826		52.734375
2827		60.546875
2828		48.828125
2829		58.593750
2830		46.875000
2831		56.640625
2832		42.968750
2833		52.734375
2834		41.015625
2835		48.828125
2836		37.109375
2837		44.921875
2838		33.203125
2839		42.968750
2840		31.250000
2841		35.156250
2842		25.390625
2843		33.203125
2844		21.484375
2845		29.296875
2846		17.578125
2847		25.390625
2848		11.718750
2849		21.484375
2850		7.812500
2851		17.578125
2852		3.906250
2853		13.671875
2854		0.000000
2855		9.765625
2856		-1.953125
2857		5.859375
2858		-5.859375
2859		0.000000
2860		-11.718750
2861		-3.906250
2862		-15.625000
2863		-5.859375
2864		-21.484375
2865		-11.718750
2866		-23.437500
2867		-13.671875
2868		-27.343750
2869		-19.531250
2870		-33.203125
2871		-23.437500
2872		-35.156250
2873		-27.343750
2874		-37.109375
2875		-31.250000
2876		-41.015625
2877		-37.109375
2878		-46.875000
2879		-39.062500
2880		-50.781250
2881		-41.015625
2882		-54.687500
2883		-44.921875
2884		-56.640625
2885		-46.875000
2886		-58.593750
2887		-50.781250
2888		-62.500000
2889		-54.687500
2890		-62.500000
2891		-56.640625
2892		-64.453125
2893		-60.546875
2894		-70.312500
2895		-62.500000
2896		-72.265625
2897		-64.453125
2898		-74.218750
2899		-66.406250
2900		-76.171875
2901		-68.359375
2902		-76.171875
2903		-70.312500
2904		-78.125000
2905		-70.312500
2906		-78.125000
2907		-72.265625
2908		-78.125000
2909		-74.218750
2910		-80.078125
2911		-74.218750
2912		-82.031250
2913		-74.218750
2914		-82.031250
2915		-74.218750
2916		-82.031250
2917		-74.218750
2918		-80.078125
2919		-74.218750
2920		-80.078125
2921		-74.218750
2922		-80.078125
2923		-72.265625
2924		-76.171875
2925		-74.218750
2926		-76.171875
2927		-72.265625
2928		-76.171875
2929		-68.359375
2930		-74.218750
2931		-68.359375
2932		-74.218750
2933		-66.406250
2934		-72.265625
2935		-62.500000
2936		-70.312500
2937		-60.546875
2938		-68.359375
2939		-58.593750
2940		-64.453125
2941		-58.593750
2942		-60.546875
2943		-56.640625
2944		-56.640625
2945		-50.781250
2946		-56.640625
2947		-46.875000
2948		-54.687500
2949		-44.921875
2950		-48.828125
2951		-41.015625
2952		-46.875000
2953		-37.109375
2954		-42.968750
2955		-33.203125
2956		-41.015625
2957		-31.250000
2958		-33.203125
2959		-29.296875
2960		-29.296875
2961		-25.390625
2962		-27.343750
2963		-19.531250
2964		-23.437500
2965		-13.671875
2966		-21.484375
2967		-9.765625
2968		-15.625000
2969		-5.859375
2970		-11.718750
2971		-1.953125
2972		-7.812500
2973		1.953125
2974		-1.953125
2975		3.906250
2976		1.953125
2977		7.812500
2978		5.859375
2979		13.671875
2980		7.812500
2981		17.578125
2982		11.718750
2983		21.484375
2984		17.578125
2985		25.390625
2986		21.484375
2987		31.250000
2988		23.437500
2989		35.156250
2990		29.296875
2991		37.109375
2992		35.156250
2993		39.062500
2994		37.109375
2995		42.968750
2996		39.062500
2997		48.828125
2998		42.968750
2999		52.734375
3000		44.921875
3001		54.687500
3002		50.781250
3003		58.593750
3004		52.734375
3005		62.500000
3006		56.640625
3007		64.453125
3008		60.546875
3009		64.453125
3010		62.500000
3011		68.359375
3012		64.453125
3013		72.265625
3014		66.406250
3015		74.218750
3016		68.359375
3017		76.171875
3018		70.312500
3019		78.125000
3020		72.265625
3021		82.031250
3022		74.218750
3023		82.031250
3024		76.171875
3025		83.984375
3026		80.078125
3027		83.984375
3028		80.078125
3029		85.937500
3030		80.078125
3031		87.890625
3032		80.078125
3033		87.890625
3034		82.031250
3035		87.890625
3036		82.031250
3037		89.843750
3038		83.984375
3039		89.843750
3040		83.984375
3041		89.843750
3042		85.937500
3043		87.890625
3044		85.937500
3045		87.890625
3046		82.031250
3047		89.843750
3048		82.031250
3049		89.843750
3050		82.031250
3051		87.890625
3052		80.078125
3053		87.890625
3054		80.078125
3055		87.890625
3056		78.125000
3057		85.937500
3058		78.125000
3059		83.984375
3060		78.125000
3061		82.031250
3062		74.218750
3063		80.078125
3064		72.265625
3065		80.078125
3066		70.312500
3067		78.125000
3068		66.406250
3069		76.171875
3070		64.453125
3071		72.265625
3072		62.500000
3073		70.312500
3074		60.546875
3075		68.359375
3076		58.593750
3077		64.453125
3078		54.687500
3079		60.546875
3080		50.781250
3081		60.546875
3082		46.875000
3083		56.640625
3084		44.921875
3085		54.687500
3086		41.015625
3087		50.781250
3088		37.109375
3089		46.875000
3090		33.203125
3091		42.968750
3092		31.250000
3093		39.062500
3094		29.296875
3095		33.203125
3096		21.484375
3097		29.296875
3098		17.578125
3099		27.343750
3100		13.671875
3101		23.437500
3102		9.765625
3103		19.531250
3104		5.859375
3105		15.625000
3106		1.953125
3107		11.718750
3108		0.000000
3109		7.812500
3110		-3.906250
3111		0.000000
3112		-9.765625
3113		-3.906250
3114		-13.671875
3115		-3.906250
3116		-19.531250
3117		-9.765625
3118		-23.437500
3119		-13.671875
3120		-27.343750
3121		-17.578125
3122		-31.250000
3123		-21.484375
3124		-33.203125
3125		-25.390625
3126		-37.109375
3127		-31.250000
3128		-41.015625
3129		-35.156250
3130		-46.875000
3131		-37.109375
3132		-48.828125
3133		-39.062500
3134		-52.734375
3135		-42.968750
3136		-56.640625
3137		-46.875000
3138		-58.593750
3139		-48.828125
3140		-62.500000
3141		-52.734375
3142		-62.500000
3143		-56.640625
3144		-64.453125
3145		-60.546875
3146		-68.359375
3147		-62.500000
3148		-72.265625
3149		-62.500000
3150		-72.265625
3151		-64.453125
3152		-74.218750
3153		-66.406250
3154		-76.171875
3155		-70.312500
3156		-78.125000
3157		-70.312500
3158		-78.125000
3159		-72.265625
3160		-78.125000
3161		-74.218750
3162		-78.125000
3163		-76.171875
3164		-82.031250
3165		-74.218750
3166		-82.031250
3167		-74.218750
3168		-82.031250
3169		-74.218750
3170		-82.031250
3171		-74.218750
3172		-82.031250
3173		-74.218750
3174		-80.078125
3175		-74.218750
3176		-80.078125
3177		-74.218750
3178		-76.171875
3179		-74.218750
3180		-76.171875
3181		-70.312500
3182		-76.171875
3183		-68.359375
3184		-74.218750
3185		-66.406250
3186		-72.265625
3187		-64.453125
3188		-72.265625
3189		-62.500000
3190		-68.359375
3191		-60.546875
3192		-66.406250
3193		-58.593750
3194		-62.500000
3195		-56.640625
3196		-58.593750
3197		-52.734375
3198		-58.593750
3199		-48.828125
3200		-54.687500
3201		-46.875000
3202		-50.781250
3203		-42.968750
3204		-48.828125
3205		-39.062500
3206		-44.921875
3207		-35.156250
3208		-41.015625
3209		-31.250000
3210		-35.156250
3211		-31.250000
3212		-31.250000
3213		-27.343750
3214		-29.296875
3215		-21.484375
3216		-27.343750
3217		-17.578125
3218		-21.484375
3219		-11.718750
3220		-17.578125
3221		-7.812500
3222		-13.671875
3223		-3.906250
3224		-9.765625
3225		0.000000
3226		-5.859375
3227		1.953125
3228		0.000000
3229		5.859375
3230		5.859375
3231		11.718750
3232		7.812500
3233		15.625000
3234		11.718750
3235		19.531250
3236		15.625000
3237		23.437500
3238		19.531250
3239		27.343750
3240		23.437500
3241		31.250000
3242		27.343750
3243		35.156250
3244		33.203125
3245		39.062500
3246		37.109375
3247		41.015625
3248		39.062500
3249		46.875000
3250		41.015625
3251		50.781250
3252		44.921875
3253		52.734375
3254		46.875000
3255		56.640625
3256		52.734375
3257		60.546875
3258		54.687500
3259		62.500000
3260		56.640625
3261		64.453125
3262		62.500000
3263		66.406250
3264		64.453125
3265		70.312500
3266		66.406250
3267		74.218750
3268		68.359375
3269		76.171875
3270		70.312500
3271		78.125000
3272		72.265625
3273		80.078125
3274		74.218750
3275		82.031250
3276		76.171875
3277		82.031250
3278		80.078125
3279		82.031250
3280		80.078125
3281		83.984375
3282		80.078125
3283		85.937500
3284		80.078125
3285		87.890625
3286		82.031250
3287		87.890625
3288		82.031250
3289		89.843750
3290		82.031250
3291		89.843750
3292		83.984375
3293		89.843750
3294		85.937500
3295		87.890625
3296		85.937500
3297		87.890625
3298		83.984375
3299		89.843750
3300		82.031250
3301		89.843750
3302		82.031250
3303		89.843750
3304		80.078125
3305		87.890625
3306		80.078125
3307		87.890625
3308		78.125000
3309		85.937500
3310		78.125000
3311		85.937500
3312		78.125000
3313		82.031250
3314		74.218750
3315		80.078125
3316		72.265625
3317		80.078125
3318		70.312500
3319		80.078125
3320		68.359375
3321		76.171875
3322		66.406250
3323		74.218750
3324		64.453125
3325		72.265625
3326		62.500000
3327		70.312500
3328		60.546875
3329		64.453125
3330		58.593750
3331		62.500000
3332		52.734375
3333		60.546875
3334		48.828125
3335		58.593750
3336		46.875000
3337		54.687500
3338		42.968750
3339		50.781250
3340		39.062500
3341		48.828125
3342		35.156250
3343		44.921875
3344		33.203125
3345		41.015625
3346		29.296875
3347		35.156250
3348		23.437500
3349		31.250000
3350		19.531250
3351		29.296875
3352		15.625000
3353		25.390625
3354		11.718750
3355		21.484375
3356		7.812500
3357		17.578125
3358		3.906250
3359		13.671875
3360		1.953125
3361		9.765625
3362		-1.953125
3363		3.906250
3364		-7.812500
3365		-1.953125
3366		-11.718750
3367		-3.906250
3368		-17.578125
3369		-7.812500
3370		-21.484375
3371		-11.718750
3372		-25.390625
3373		-15.625000
3374		-29.296875
3375		-19.531250
3376		-33.203125
3377		-23.437500
3378		-35.156250
3379		-29.296875
3380		-39.062500
3381		-33.203125
3382		-44.921875
3383		-37.109375
3384		-48.828125
3385		-39.062500
3386		-50.781250
3387		-42.968750
3388		-54.687500
3389		-44.921875
3390		-56.640625
3391		-48.828125
3392		-60.546875
3393		-52.734375
3394		-62.500000
3395		-54.687500
3396		-64.453125
3397		-60.546875
3398		-68.359375
3399		-62.500000
3400		-70.312500
3401		-62.500000
3402		-72.265625
3403		-64.453125
3404		-74.218750
3405		-66.406250
3406		-76.171875
3407		-68.359375
3408		-78.125000
3409		-68.359375
3410		-80.078125
3411		-70.312500
3412		-78.125000
3413		-74.218750
3414		-78.125000
3415		-76.171875
3416		-82.031250
3417		-74.218750
3418		-82.031250
3419		-74.218750
3420		-82.031250
3421		-74.218750
3422		-82.031250
3423		-74.218750
3424		-82.031250
3425		-74.218750
3426		-80.078125
3427		-74.218750
3428		-80.078125
3429		-74.218750
3430		-76.171875
3431		-74.218750
3432		-78.125000
3433		-70.312500
3434		-78.125000
3435		-70.312500
3436		-76.171875
3437		-68.359375
3438		-74.218750
3439		-66.406250
3440		-72.265625
3441		-62.500000
3442		-70.312500
3443		-60.546875
3444		-68.359375
3445		-60.546875
3446		-62.500000
3447		-58.593750
3448		-60.546875
3449		-54.687500
3450		-58.593750
3451		-50.781250
3452		-56.640625
3453		-46.875000
3454		-52.734375
3455		-44.921875
3456		-50.781250
3457		-41.015625
3458		-46.875000
3459		-37.109375
3460		-42.968750
3461		-33.203125
3462		-37.109375
3463		-31.250000
3464		-33.203125
3465		-27.343750
3466		-29.296875
3467		-21.484375
3468		-27.343750
3469		-17.578125
3470		-23.437500
3471		-13.671875
3472		-19.531250
3473		-9.765625
3474		-15.625000
3475		-5.859375
3476		-11.718750
3477		-1.953125
3478		-7.812500
3479		0.000000
3480		-1.953125
3481		3.906250
3482		3.906250
3483		9.765625
3484		5.859375
3485		15.625000
3486		7.812500
3487		19.531250
3488		13.671875
3489		23.437500
3490		17.578125
3491		27.343750
3492		21.484375
3493		31.250000
3494		25.390625
3495		33.203125
3496		31.250000
3497		35.156250
3498		35.156250
3499		39.062500
3500		37.109375
3501		44.921875
3502		39.062500
3503		48.828125
3504		42.968750
3505		52.734375
3506		46.875000
3507		54.687500
3508		48.828125
3509		58.593750
3510		52.734375
3511		60.546875
3512		56.640625
3513		62.500000
3514		60.546875
3515		64.453125
3516		62.500000
3517		70.312500
3518		64.453125
3519		72.265625
3520		66.406250
3521		74.218750
3522		68.359375
3523		76.171875
3524		70.312500
3525		78.125000
3526		72.265625
3527		80.078125
3528		74.218750
3529		82.031250
3530		78.125000
3531		82.031250
3532		80.078125
3533		83.984375
3534		78.125000
3535		85.937500
3536		80.078125
3537		87.890625
3538		80.078125
3539		87.890625
3540		82.031250
3541		89.843750
3542		82.031250
3543		89.843750
3544		82.031250
3545		89.843750
3546		85.937500
3547		87.890625
3548		85.937500
3549		87.890625
3550		82.031250
3551		89.843750
3552		82.031250
3553		89.843750
3554		82.031250
3555		87.890625
3556		80.078125
3557		87.890625
3558		80.078125
3559		87.890625
3560		80.078125
3561		85.937500
3562		78.125000
3563		85.937500
3564		78.125000
3565		82.031250
3566		76.171875
3567		80.078125
3568		74.218750
3569		82.031250
3570		70.312500
3571		78.125000
3572		68.359375
3573		76.171875
3574		66.406250
3575		74.218750
3576		64.453125
3577		72.265625
3578		62.500000
3579		70.312500
3580		60.546875
3581		64.453125
3582		58.593750
3583		62.500000
3584		52.734375
3585		60.546875
3586		48.828125
3587		58.593750
3588		46.875000
3589		56.640625
3590		42.968750
3591		52.734375
3592		39.062500
3593		48.828125
3594		37.109375
3595		46.875000
3596		35.156250
3597		42.968750
3598		31.250000
3599		37.109375
3600		25.390625
3601		33.203125
3602		21.484375
3603		31.250000
3604		17.578125
3605		27.343750
3606		11.718750
3607		21.484375
3608		9.765625
3609		17.578125
3610		5.859375
3611		13.671875
3612		1.953125
3613		11.718750
3614		-1.953125
3615		3.906250
3616		-5.859375
3617		0.000000
3618		-11.718750
3619		-1.953125
3620		-15.625000
3621		-5.859375
3622		-21.484375
3623		-9.765625
3624		-23.437500
3625		-15.625000
3626		-27.343750
3627		-17.578125
3628		-31.250000
3629		-23.437500
3630		-33.203125
3631		-29.296875
3632		-37.109375
3633		-33.203125
3634		-42.968750
3635		-35.156250
3636		-46.875000
3637		-37.109375
3638		-50.781250
3639		-41.015625
3640		-54.687500
3641		-44.921875
3642		-56.640625
3643		-48.828125
3644		-58.593750
3645		-50.781250
3646		-60.546875
3647		-54.687500
3648		-62.500000
3649		-58.593750
3650		-66.406250
3651		-60.546875
3652		-70.312500
3653		-62.500000
3654		-72.265625
3655		-64.453125
3656		-74.218750
3657		-66.406250
3658		-76.171875
3659		-68.359375
3660		-78.125000
3661		-70.312500
3662		-78.125000
3663		-70.312500
3664		-78.125000
3665		-74.218750
3666		-78.125000
3667		-76.171875
3668		-80.078125
3669		-74.218750
3670		-82.031250
3671		-74.218750
3672		-82.031250
3673		-74.218750
3674		-82.031250
3675		-74.218750
3676		-82.031250
3677		-74.218750
3678		-82.031250
3679		-74.218750
3680		-82.031250
3681		-74.218750
3682		-78.125000
3683		-74.218750
3684		-78.125000
3685		-72.265625
3686		-78.125000
3687		-70.312500
3688		-76.171875
3689		-68.359375
3690		-74.218750
3691		-66.406250
3692		-74.218750
3693		-64.453125
3694		-70.312500
3695		-62.500000
3696		-68.359375
3697		-60.546875
3698		-64.453125
3699		-60.546875
3700		-60.546875
3701		-56.640625
3702		-60.546875
3703		-52.734375
3704		-58.593750
3705		-48.828125
3706		-54.687500
3707		-46.875000
3708		-52.734375
3709		-42.968750
3710		-48.828125
3711		-39.062500
3712		-44.921875
3713		-35.156250
3714		-39.062500
3715		-33.203125
3716		-35.156250
3717		-29.296875
3718		-31.250000
3719		-23.437500
3720		-29.296875
3721		-19.531250
3722		-25.390625
3723		-15.625000
3724		-21.484375
3725		-11.718750
3726		-17.578125
3727		-7.812500
3728		-13.671875
3729		-3.906250
3730		-9.765625
3731		-1.953125
3732		-3.906250
3733		1.953125
3734		1.953125
3735		7.812500
3736		1.953125
3737		11.718750
3738		7.812500
3739		15.625000
3740		9.765625
3741		19.531250
3742		15.625000
3743		25.390625
3744		19.531250
3745		29.296875
3746		23.437500
3747		31.250000
3748		29.296875
3749		35.156250
3750		33.203125
3751		37.109375
3752		35.156250
3753		42.968750
3754		39.062500
3755		46.875000
3756		41.015625
3757		50.781250
3758		44.921875
3759		54.687500
3760		46.875000
3761		58.593750
3762		52.734375
3763		60.546875
3764		54.687500
3765		60.546875
3766		58.593750
3767		64.453125
3768		62.500000
3769		68.359375
3770		62.500000
3771		70.312500
3772		64.453125
3773		74.218750
3774		68.359375
3775		76.171875
3776		70.312500
3777		78.125000
3778		72.265625
3779		80.078125
3780		74.218750
3781		82.031250
3782		78.125000
3783		82.031250
3784		80.078125
3785		82.031250
3786		78.125000
3787		85.937500
3788		80.078125
3789		87.890625
3790		82.031250
3791		87.890625
3792		82.031250
3793		87.890625
3794		82.031250
3795		87.890625
3796		82.031250
3797		87.890625
3798		83.984375
3799		87.890625
3800		85.937500
3801		87.890625
3802		83.984375
3803		87.890625
3804		82.031250
3805		89.843750
3806		82.031250
3807		89.843750
3808		82.031250
3809		87.890625
3810		82.031250
3811		87.890625
3812		82.031250
3813		83.984375
3814		80.078125
3815		83.984375
3816		80.078125
3817		82.031250
3818		76.171875
3819		80.078125
3820		74.218750
3821		80.078125
3822		72.265625
3823		80.078125
3824		70.312500
3825		78.125000
3826		68.359375
3827		74.218750
3828		66.406250
3829		72.265625
3830		62.500000
3831		68.359375
3832		62.500000
3833		66.406250
3834		58.593750
3835		62.500000
3836		56.640625
3837		60.546875
3838		50.781250
3839		58.593750
3840		48.828125
3841		56.640625
3842		46.875000
3843		50.781250
3844		42.968750
3845		48.828125
3846		39.062500
3847		44.921875
3848		35.156250
3849		42.968750
3850		33.203125
3851		37.109375
3852		27.343750
3853		33.203125
3854		23.437500
3855		29.296875
3856		19.531250
3857		27.343750
3858		15.625000
3859		21.484375
3860		11.718750
3861		17.578125
3862		7.812500
3863		13.671875
3864		3.906250
3865		9.765625
3866		0.000000
3867		5.859375
3868		-3.906250
3869		1.953125
3870		-7.812500
3871		-1.953125
3872		-13.671875
3873		-7.812500
3874		-17.578125
3875		-11.718750
3876		-21.484375
3877		-15.625000
3878		-25.390625
3879		-19.531250
3880		-29.296875
3881		-23.437500
3882		-33.203125
3883		-27.343750
3884		-37.109375
3885		-31.250000
3886		-41.015625
3887		-35.156250
3888		-42.968750
3889		-39.062500
3890		-46.875000
3891		-41.015625
3892		-50.781250
3893		-44.921875
3894		-52.734375
3895		-48.828125
3896		-56.640625
3897		-52.734375
3898		-58.593750
3899		-54.687500
3900		-62.500000
3901		-58.593750
3902		-66.406250
3903		-60.546875
3904		-68.359375
3905		-62.500000
3906		-70.312500
3907		-66.406250
3908		-72.265625
3909		-68.359375
3910		-74.218750
3911		-70.312500
3912		-76.171875
3913		-70.312500
3914		-76.171875
3915		-74.218750
3916		-78.125000
3917		-74.218750
3918		-78.125000
3919		-76.171875
3920		-80.078125
3921		-76.171875
3922		-80.078125
3923		-76.171875
3924		-80.078125
3925		-78.125000
3926		-80.078125
3927		-76.171875
3928		-80.078125
3929		-76.171875
3930		-80.078125
3931		-76.171875
3932		-80.078125
3933		-76.171875
3934		-78.125000
3935		-76.171875
3936		-78.125000
3937		-74.218750
3938		-76.171875
3939		-72.265625
3940		-76.171875
3941		-70.312500
3942		-74.218750
3943		-70.312500
3944		-72.265625
3945		-66.406250
3946		-70.312500
3947		-66.406250
3948		-68.359375
3949		-62.500000
3950		-64.453125
3951		-60.546875
3952		-62.500000
3953		-58.593750
3954		-60.546875
3955		-54.687500
3956		-56.640625
3957		-52.734375
3958		-54.687500
3959		-48.828125
3960		-50.781250
3961		-44.921875
3962		-46.875000
3963		-42.968750
3964		-44.921875
3965		-39.062500
3966		-41.015625
3967		-35.156250
3968		-37.109375
3969		-31.250000
3970		-33.203125
3971		-27.343750
3972		-29.296875
3973		-23.437500
3974		-25.390625
3975		-19.531250
3976		-21.484375
3977		-15.625000
3978		-17.578125
3979		-11.718750
3980		-13.671875
3981		-7.812500
3982		-9.765625
3983		-3.906250
3984		-5.859375
3985		0.000000
3986		0.000000
3987		5.859375
3988		3.906250
3989		9.765625
3990		7.812500
3991		13.671875
3992		11.718750
3993		17.578125
3994		15.625000
3995		21.484375
3996		19.531250
3997		25.390625
3998		23.437500
3999		29.296875
4000		27.343750
4001		33.203125
4002		31.250000
4003		37.109375
4004		35.156250
4005		41.015625
4006		39.062500
4007		42.968750
4008		41.015625
4009		48.828125
4010		44.921875
4011		50.781250
4012		48.828125
4013		54.687500
4014		52.734375
4015		56.640625
4016		54.687500
4017		60.546875
4018		58.593750
4019		62.500000
4020		60.546875
4021		66.406250
4022		62.500000
4023		68.359375
4024		66.406250
4025		70.312500
4026		68.359375
4027		72.265625
4028		70.312500
4029		76.171875
4030		72.265625
4031		76.171875
4032		74.218750
4033		80.078125
4034		76.171875
4035		80.078125
4036		78.125000
4037		82.031250
4038		80.078125
4039		83.984375
4040		80.078125
4041		83.984375
4042		82.031250
4043		85.937500
4044		83.984375
4045		85.937500
4046		83.984375
4047		85.937500
4048		83.984375
4049		87.890625
4050		83.984375
4051		87.890625
4052		83.984375
4053		87.890625
4054		83.984375
4055		87.890625
4056		83.984375
4057		87.890625
4058		83.984375
4059		87.890625
4060		83.984375
4061		85.937500
4062		82.031250
4063		85.937500
4064		82.031250
4065		85.937500
4066		80.078125
4067		83.984375
4068		80.078125
4069		82.031250
4070		76.171875
4071		82.031250
4072		76.171875
4073		80.078125
4074		74.218750
4075		78.125000
4076		72.265625
4077		76.171875
4078		70.312500
4079		74.218750
4080		68.359375
4081		72.265625
4082		64.453125
4083		70.312500
4084		62.500000
4085		66.406250
4086		60.546875
4087		64.453125
4088		56.640625
4089		62.500000
4090		54.687500
4091		60.546875
4092		50.781250
4093		56.640625
4094		46.875000
4095		52.734375
4096		42.968750
4097		48.828125
4098		41.015625
4099		44.921875
4100		37.109375
4101		42.968750
4102		33.203125
4103		39.062500
4104		29.296875
4105		35.156250
4106		25.390625
4107		31.250000
4108		19.531250
4109		27.343750
4110		17.578125
4111		23.437500
4112		13.671875
4113		19.531250
4114		9.765625
4115		15.625000
4116		3.906250
4117		11.718750
4118		1.953125
4119		7.812500
4120		-1.953125
4121		1.953125
4122		-7.812500
4123		-1.953125
4124		-11.718750
4125		-5.859375
4126		-15.625000
4127		-9.765625
4128		-19.531250
4129		-13.671875
4130		-23.437500
4131		-17.578125
4132		-27.343750
4133		-21.484375
4134		-31.250000
4135		-25.390625
4136		-35.156250
4137		-29.296875
4138		-39.062500
4139		-33.203125
4140		-42.968750
4141		-37.109375
4142		-46.875000
4143		-41.015625
4144		-50.781250
4145		-44.921875
4146		-52.734375
4147		-48.828125
4148		-56.640625
4149		-50.781250
4150		-58.593750
4151		-54.687500
4152		-62.500000
4153		-56.640625
4154		-64.453125
4155		-60.546875
4156		-66.406250
4157		-60.546875
4158		-70.312500
4159		-64.453125
4160		-70.312500
4161		-66.406250
4162		-72.265625
4163		-70.312500
4164		-74.218750
4165		-70.312500
4166		-78.125000
4167		-72.265625
4168		-78.125000
4169		-74.218750
4170		-78.125000
4171		-76.171875
4172		-80.078125
4173		-76.171875
4174		-80.078125
4175		-76.171875
4176		-80.078125
4177		-76.171875
4178		-80.078125
4179		-78.125000
4180		-80.078125
4181		-76.171875
4182		-80.078125
4183		-76.171875
4184		-80.078125
4185		-76.171875
4186		-80.078125
4187		-76.171875
4188		-78.125000
4189		-74.218750
4190		-78.125000
4191		-74.218750
4192		-76.171875
4193		-72.265625
4194		-76.171875
4195		-70.312500
4196		-72.265625
4197		-68.359375
4198		-70.312500
4199		-66.406250
4200		-70.312500
4201		-64.453125
4202		-66.406250
4203		-62.500000
4204		-64.453125
4205		-60.546875
4206		-62.500000
4207		-56.640625
4208		-58.593750
4209		-54.687500
4210		-56.640625
4211		-50.781250
4212		-52.734375
4213		-46.875000
4214		-48.828125
4215		-44.921875
4216		-44.921875
4217		-39.062500
4218		-41.015625
4219		-37.109375
4220		-39.062500
4221		-33.203125
4222		-35.156250
4223		-29.296875
4224		-31.250000
4225		-25.390625
4226		-27.343750
4227		-21.484375
4228		-23.437500
4229		-17.578125
4230		-19.531250
4231		-13.671875
4232		-15.625000
4233		-7.812500
4234		-11.718750
4235		-3.906250
4236		-5.859375
4237		0.000000
4238		-3.906250
4239		3.906250
4240		0.000000
4241		7.812500
4242		5.859375
4243		11.718750
4244		9.765625
4245		15.625000
4246		11.718750
4247		19.531250
4248		17.578125
4249		23.437500
4250		21.484375
4251		27.343750
4252		25.390625
4253		31.250000
4254		29.296875
4255		35.156250
4256		33.203125
4257		39.062500
4258		37.109375
4259		42.968750
4260		41.015625
4261		44.921875
4262		42.968750
4263		48.828125
4264		48.828125
4265		52.734375
4266		50.781250
4267		56.640625
4268		52.734375
4269		58.593750
4270		56.640625
4271		60.546875
4272		60.546875
4273		64.453125
4274		62.500000
4275		66.406250
4276		64.453125
4277		70.312500
4278		66.406250
4279		72.265625
4280		70.312500
4281		74.218750
4282		72.265625
4283		76.171875
4284		74.218750
4285		78.125000
4286		76.171875
4287		80.078125
4288		78.125000
4289		82.031250
4290		78.125000
4291		82.031250
4292		80.078125
4293		83.984375
4294		82.031250
4295		83.984375
4296		82.031250
4297		85.937500
4298		82.031250
4299		87.890625
4300		83.984375
4301		87.890625
4302		82.031250
4303		87.890625
4304		83.984375
4305		87.890625
4306		83.984375
4307		87.890625
4308		83.984375
4309		87.890625
4310		83.984375
4311		87.890625
4312		83.984375
4313		87.890625
4314		83.984375
4315		85.937500
4316		82.031250
4317		85.937500
4318		80.078125
4319		83.984375
4320		80.078125
4321		83.984375
4322		78.125000
4323		82.031250
4324		76.171875
4325		82.031250
4326		76.171875
4327		80.078125
4328		74.218750
4329		78.125000
4330		70.312500
4331		74.218750
4332		68.359375
4333		74.218750
4334		66.406250
4335		72.265625
4336		64.453125
4337		68.359375
4338		60.546875
4339		66.406250
4340		58.593750
4341		62.500000
4342		54.687500
4343		60.546875
4344		52.734375
4345		56.640625
4346		48.828125
4347		54.687500
4348		44.921875
4349		50.781250
4350		41.015625
4351		46.875000
4352		39.062500
4353		44.921875
4354		35.156250
4355		39.062500
4356		31.250000
4357		37.109375
4358		27.343750
4359		33.203125
4360		23.437500
4361		29.296875
4362		19.531250
4363		25.390625
4364		15.625000
4365		21.484375
4366		11.718750
4367		17.578125
4368		5.859375
4369		11.718750
4370		3.906250
4371		7.812500
4372		-1.953125
4373		3.906250
4374		-5.859375
4375		0.000000
4376		-9.765625
4377		-3.906250
4378		-13.671875
4379		-7.812500
4380		-17.578125
4381		-11.718750
4382		-21.484375
4383		-15.625000
4384		-27.343750
4385		-19.531250
4386		-29.296875
4387		-23.437500
4388		-33.203125
4389		-29.296875
4390		-37.109375
4391		-31.250000
4392		-41.015625
4393		-35.156250
4394		-44.921875
4395		-39.062500
4396		-48.828125
4397		-42.968750
4398		-50.781250
4399		-44.921875
4400		-54.687500
4401		-48.828125
4402		-58.593750
4403		-52.734375
4404		-60.546875
4405		-56.640625
4406		-62.500000
4407		-58.593750
4408		-64.453125
4409		-60.546875
4410		-68.359375
4411		-62.500000
4412		-70.312500
4413		-66.406250
4414		-72.265625
4415		-68.359375
4416		-74.218750
4417		-70.312500
4418		-76.171875
4419		-72.265625
4420		-76.171875
4421		-72.265625
4422		-78.125000
4423		-74.218750
4424		-80.078125
4425		-74.218750
4426		-80.078125
4427		-76.171875
4428		-80.078125
4429		-76.171875
4430		-80.078125
4431		-76.171875
4432		-80.078125
4433		-76.171875
4434		-80.078125
4435		-78.125000
4436		-80.078125
4437		-76.171875
4438		-80.078125
4439		-76.171875
4440		-78.125000
4441		-74.218750
4442		-78.125000
4443		-74.218750
4444		-76.171875
4445		-72.265625
4446		-74.218750
4447		-72.265625
4448		-72.265625
4449		-70.312500
4450		-72.265625
4451		-68.359375
4452		-68.359375
4453		-64.453125
4454		-66.406250
4455		-62.500000
4456		-64.453125
4457		-60.546875
4458		-62.500000
4459		-56.640625
4460		-58.593750
4461		-54.687500
4462		-56.640625
4463		-50.781250
4464		-54.687500
4465		-48.828125
4466		-50.781250
4467		-44.921875
4468		-46.875000
4469		-41.015625
4470		-42.968750
4471		-39.062500
4472		-39.062500
4473		-35.156250
4474		-35.156250
4475		-31.250000
4476		-33.203125
4477		-27.343750
4478		-29.296875
4479		-21.484375
4480		-25.390625
4481		-19.531250
4482		-21.484375
4483		-13.671875
4484		-17.578125
4485		-11.718750
4486		-13.671875
4487		-5.859375
4488		-7.812500
4489		-1.953125
4490		-3.906250
4491		1.953125
4492		-1.953125
4493		5.859375
4494		3.906250
4495		9.765625
4496		7.812500
4497		13.671875
4498		11.718750
4499		17.578125
4500		17.578125
4501		21.484375
4502		19.531250
4503		25.390625
4504		23.437500
4505		29.296875
4506		29.296875
4507		33.203125
4508		31.250000
4509		37.109375
4510		35.156250
4511		42.968750
4512		39.062500
4513		44.921875
4514		42.968750
4515		48.828125
4516		46.875000
4517		50.781250
4518		48.828125
4519		54.687500
4520		52.734375
4521		56.640625
4522		56.640625
4523		60.546875
4524		58.593750
4525		64.453125
4526		62.500000
4527		66.406250
4528		64.453125
4529		68.359375
4530		66.406250
4531		70.312500
4532		68.359375
4533		72.265625
4534		72.265625
4535		76.171875
4536		72.265625
4537		78.125000
4538		76.171875
4539		78.125000
4540		78.125000
4541		80.078125
4542		78.125000
4543		82.031250
4544		80.078125
4545		83.984375
4546		82.031250
4547		85.937500
4548		82.031250
4549		85.937500
4550		82.031250
4551		85.937500
4552		83.984375
4553		87.890625
4554		83.984375
4555		87.890625
4556		85.937500
4557		87.890625
4558		83.984375
4559		87.890625
4560		83.984375
4561		87.890625
4562		83.984375
4563		87.890625
4564		83.984375
4565		87.890625
4566		82.031250
4567		85.937500
4568		82.031250
4569		85.937500
4570		82.031250
4571		83.984375
4572		80.078125
4573		83.984375
4574		78.125000
4575		82.031250
4576		78.125000
4577		82.031250
4578		74.218750
4579		80.078125
4580		74.218750
4581		78.125000
4582		72.265625
4583		76.171875
4584		70.312500
4585		74.218750
4586		66.406250
4587		72.265625
4588		64.453125
4589		70.312500
4590		62.500000
4591		66.406250
4592		60.546875
4593		64.453125
4594		56.640625
4595		60.546875
4596		52.734375
4597		58.593750
4598		48.828125
4599		54.687500
4600		46.875000
4601		52.734375
4602		42.968750
4603		48.828125
4604		39.062500
4605		44.921875
4606		37.109375
4607		41.015625
4608		31.250000
4609		37.109375
4610		27.343750
4611		33.203125
4612		25.390625
4613		29.296875
4614		21.484375
4615		27.343750
4616		17.578125
4617		21.484375
4618		11.718750
4619		17.578125
4620		7.812500
4621		13.671875
4622		3.906250
4623		9.765625
4624		0.000000
4625		5.859375
4626		-3.906250
4627		1.953125
4628		-7.812500
4629		-1.953125
4630		-13.671875
4631		-5.859375
4632		-15.625000
4633		-11.718750
4634		-19.531250
4635		-15.625000
4636		-25.390625
4637		-19.531250
4638		-29.296875
4639		-23.437500
4640		-33.203125
4641		-27.343750
4642		-37.109375
4643		-31.250000
4644		-39.062500
4645		-33.203125
4646		-42.968750
4647		-37.109375
4648		-46.875000
4649		-42.968750
4650		-50.781250
4651		-44.921875
4652		-52.734375
4653		-48.828125
4654		-56.640625
4655		-52.734375
4656		-58.593750
4657		-54.687500
4658		-62.500000
4659		-58.593750
4660		-64.453125
4661		-60.546875
4662		-68.359375
4663		-62.500000
4664		-70.312500
4665		-66.406250
4666		-72.265625
4667		-68.359375
4668		-74.218750
4669		-70.312500
4670		-74.218750
4671		-72.265625
4672		-76.171875
4673		-72.265625
4674		-78.125000
4675		-74.218750
4676		-80.078125
4677		-76.171875
4678		-80.078125
4679		-76.171875
4680		-80.078125
4681		-76.171875
4682		-80.078125
4683		-78.125000
4684		-80.078125
4685		-78.125000
4686		-80.078125
4687		-78.125000
4688		-80.078125
4689		-76.171875
4690		-80.078125
4691		-76.171875
4692		-80.078125
4693		-76.171875
4694		-78.125000
4695		-74.218750
4696		-78.125000
4697		-74.218750
4698		-76.171875
4699		-72.265625
4700		-74.218750
4701		-70.312500
4702		-72.265625
4703		-68.359375
4704		-70.312500
4705		-66.406250
4706		-68.359375
4707		-64.453125
4708		-66.406250
4709		-62.500000
4710		-64.453125
4711		-58.593750
4712		-60.546875
4713		-56.640625
4714		-58.593750
4715		-52.734375
4716		-54.687500
4717		-50.781250
4718		-52.734375
4719		-46.875000
4720		-48.828125
4721		-42.968750
4722		-44.921875
4723		-41.015625
4724		-41.015625
4725		-37.109375
4726		-39.062500
4727		-33.203125
4728		-35.156250
4729		-29.296875
4730		-31.250000
4731		-23.437500
4732		-27.343750
4733		-21.484375
4734		-23.437500
4735		-15.625000
4736		-19.531250
4737		-13.671875
4738		-13.671875
4739		-7.812500
4740		-9.765625
4741		-3.906250
4742		-5.859375
4743		0.000000
4744		-1.953125
4745		3.906250
4746		1.953125
4747		7.812500
4748		5.859375
4749		11.718750
4750		9.765625
4751		15.625000
4752		13.671875
4753		19.531250
4754		17.578125
4755		25.390625
4756		21.484375
4757		27.343750
4758		27.343750
4759		31.250000
4760		29.296875
4761		35.156250
4762		33.203125
4763		39.062500
4764		37.109375
4765		42.968750
4766		41.015625
4767		46.875000
4768		44.921875
4769		48.828125
4770		48.828125
4771		52.734375
4772		50.781250
4773		54.687500
4774		54.687500
4775		58.593750
4776		56.640625
4777		62.500000
4778		58.593750
4779		64.453125
4780		62.500000
4781		68.359375
4782		64.453125
4783		70.312500
4784		68.359375
4785		72.265625
4786		70.312500
4787		74.218750
4788		72.265625
4789		76.171875
4790		74.218750
4791		78.125000
4792		76.171875
4793		80.078125
4794		76.171875
4795		82.031250
4796		78.125000
4797		82.031250
4798		80.078125
4799		83.984375
4800		82.031250
4801		85.937500
4802		82.031250
4803		85.937500
4804		83.984375
4805		85.937500
4806		82.031250
4807		87.890625
4808		83.984375
4809		85.937500
4810		83.984375
4811		87.890625
4812		83.984375
4813		87.890625
4814		83.984375
4815		87.890625
4816		83.984375
4817		87.890625
4818		82.031250
4819		85.937500
4820		82.031250
4821		85.937500
4822		82.031250
4823		85.937500
4824		80.078125
4825		83.984375
4826		80.078125
4827		82.031250
4828		78.125000
4829		82.031250
4830		76.171875
4831		80.078125
4832		74.218750
4833		78.125000
4834		72.265625
4835		76.171875
4836		70.312500
4837		74.218750
4838		68.359375
4839		72.265625
4840		66.406250
4841		70.312500
4842		62.500000
4843		66.406250
4844		60.546875
4845		64.453125
4846		56.640625
4847		60.546875
4848		54.687500
4849		60.546875
4850		50.781250
4851		56.640625
4852		46.875000
4853		52.734375
4854		42.968750
4855		48.828125
4856		41.015625
4857		44.921875
4858		37.109375
4859		42.968750
4860		33.203125
4861		39.062500
4862		29.296875
4863		37.109375
4864		25.390625
4865		31.250000
4866		21.484375
4867		27.343750
4868		17.578125
4869		23.437500
4870		13.671875
4871		19.531250
4872		7.812500
4873		15.625000
4874		5.859375
4875		11.718750
4876		1.953125
4877		7.812500
4878		-1.953125
4879		1.953125
4880		-7.812500
4881		0.000000
4882		-11.718750
4883		-5.859375
4884		-15.625000
4885		-9.765625
4886		-21.484375
4887		-13.671875
4888		-23.437500
4889		-17.578125
4890		-27.343750
4891		-21.484375
4892		-31.250000
4893		-25.390625
4894		-37.109375
4895		-29.296875
4896		-39.062500
4897		-33.203125
4898		-42.968750
4899		-37.109375
4900		-46.875000
4901		-41.015625
4902		-48.828125
4903		-44.921875
4904		-52.734375
4905		-46.875000
4906		-56.640625
4907		-50.781250
4908		-58.593750
4909		-54.687500
4910		-62.500000
4911		-56.640625
4912		-64.453125
4913		-58.593750
4914		-66.406250
4915		-62.500000
4916		-68.359375
4917		-64.453125
4918		-70.312500
4919		-68.359375
4920		-72.265625
4921		-70.312500
4922		-74.218750
4923		-72.265625
4924		-76.171875
4925		-72.265625
4926		-78.125000
4927		-74.218750
4928		-80.078125
4929		-76.171875
4930		-80.078125
4931		-76.171875
4932		-80.078125
4933		-78.125000
4934		-80.078125
4935		-78.125000
4936		-82.031250
4937		-78.125000
4938		-82.031250
4939		-78.125000
4940		-82.031250
4941		-78.125000
4942		-80.078125
4943		-78.125000
4944		-80.078125
4945		-78.125000
4946		-80.078125
4947		-76.171875
4948		-78.125000
4949		-74.218750
4950		-76.171875
4951		-74.218750
4952		-76.171875
4953		-72.265625
4954		-74.218750
4955		-68.359375
4956		-72.265625
4957		-68.359375
4958		-70.312500
4959		-66.406250
4960		-66.406250
4961		-64.453125
4962		-64.453125
4963		-60.546875
4964		-62.500000
4965		-58.593750
4966		-60.546875
4967		-54.687500
4968		-56.640625
4969		-50.781250
4970		-54.687500
4971		-48.828125
4972		-50.781250
4973		-44.921875
4974		-46.875000
4975		-42.968750
4976		-42.968750
4977		-39.062500
4978		-39.062500
4979		-35.156250
4980		-37.109375
4981		-29.296875
4982		-33.203125
4983		-27.343750
4984		-29.296875
4985		-23.437500
4986		-25.390625
4987		-19.531250
4988		-21.484375
4989		-15.625000
4990		-15.625000
4991		-9.765625
4992		-11.718750
4993		-5.859375
4994		-7.812500
4995		-1.953125
4996		-3.906250
4997		1.953125
4998		0.000000
4999		5.859375
5000		3.906250
5001		9.765625
5002		7.812500
5003		13.671875
5004		11.718750
5005		17.578125
5006		15.625000
5007		23.437500
5008		19.531250
5009		25.390625
5010		25.390625
5011		29.296875
5012		27.343750
5013		33.203125
5014		31.250000
5015		37.109375
5016		35.156250
5017		41.015625
5018		39.062500
5019		44.921875
5020		42.968750
5021		48.828125
5022		46.875000
5023		50.781250
5024		48.828125
5025		54.687500
5026		52.734375
5027		56.640625
5028		56.640625
5029		60.546875
5030		56.640625
5031		62.500000
5032		60.546875
5033		66.406250
5034		64.453125
5035		68.359375
5036		66.406250
5037		70.312500
5038		68.359375
5039		72.265625
5040		70.312500
5041		76.171875
5042		72.265625
5043		76.171875
5044		74.218750
5045		78.125000
5046		76.171875
5047		80.078125
5048		78.125000
5049		82.031250
5050		80.078125
5051		82.031250
5052		80.078125
5053		83.984375
5054		82.031250
5055		85.937500
5056		82.031250
5057		85.937500
5058		83.984375
5059		85.937500
5060		83.984375
5061		85.937500
5062		83.984375
5063		87.890625
5064		83.984375
5065		87.890625
5066		83.984375
5067		85.937500
5068		83.984375
5069		85.937500
5070		82.031250
5071		85.937500
5072		82.031250
5073		85.937500
5074		80.078125
5075		85.937500
5076		80.078125
5077		83.984375
5078		80.078125
5079		82.031250
5080		78.125000
5081		82.031250
5082		76.171875
5083		80.078125
5084		74.218750
5085		78.125000
5086		72.265625
5087		78.125000
5088		70.312500
5089		74.218750
5090		68.359375
5091		72.265625
5092		66.406250
5093		70.312500
5094		64.453125
5095		68.359375
5096		60.546875
5097		64.453125
5098		58.593750
5099		62.500000
5100		54.687500
5101		60.546875
5102		52.734375
5103		56.640625
5104		48.828125
5105		54.687500
5106		44.921875
5107		50.781250
5108		42.968750
5109		46.875000
5110		39.062500
5111		42.968750
5112		35.156250
5113		39.062500
5114		31.250000
5115		37.109375
5116		27.343750
5117		33.203125
5118		23.437500
5119		29.296875
5120		19.531250
5121		25.390625
5122		15.625000
5123		19.531250
5124		9.765625
5125		15.625000
5126		7.812500
5127		13.671875
5128		1.953125
5129		7.812500
5130		-1.953125
5131		3.906250
5132		-5.859375
5133		0.000000
5134		-9.765625
5135		-3.906250
5136		-13.671875
5137		-7.812500
5138		-17.578125
5139		-11.718750
5140		-21.484375
5141		-15.625000
5142		-27.343750
5143		-19.531250
5144		-29.296875
5145		-25.390625
5146		-35.156250
5147		-29.296875
5148		-39.062500
5149		-33.203125
5150		-41.015625
5151		-37.109375
5152		-44.921875
5153		-39.062500
5154		-48.828125
5155		-42.968750
5156		-52.734375
5157		-46.875000
5158		-56.640625
5159		-50.781250
5160		-58.593750
5161		-54.687500
5162		-60.546875
5163		-56.640625
5164		-64.453125
5165		-58.593750
5166		-66.406250
5167		-62.500000
5168		-70.312500
5169		-64.453125
5170		-70.312500
5171		-66.406250
5172		-72.265625
5173		-68.359375
5174		-74.218750
5175		-70.312500
5176		-76.171875
5177		-72.265625
5178		-78.125000
5179		-74.218750
5180		-80.078125
5181		-76.171875
5182		-80.078125
5183		-76.171875
5184		-80.078125
5185		-78.125000
5186		-80.078125
5187		-78.125000
5188		-82.031250
5189		-78.125000
5190		-82.031250
5191		-78.125000
5192		-82.031250
5193		-78.125000
5194		-80.078125
5195		-78.125000
5196		-80.078125
5197		-78.125000
5198		-82.031250
5199		-76.171875
5200		-78.125000
5201		-76.171875
5202		-78.125000
5203		-74.218750
5204		-76.171875
5205		-72.265625
5206		-74.218750
5207		-70.312500
5208		-72.265625
5209		-68.359375
5210		-72.265625
5211		-66.406250
5212		-68.359375
5213		-62.500000
5214		-66.406250
5215		-62.500000
5216		-64.453125
5217		-58.593750
5218		-60.546875
5219		-56.640625
5220		-58.593750
5221		-52.734375
5222		-54.687500
5223		-50.781250
5224		-52.734375
5225		-46.875000
5226		-48.828125
5227		-42.968750
5228		-44.921875
5229		-41.015625
5230		-41.015625
5231		-35.156250
5232		-39.062500
5233		-33.203125
5234		-35.156250
5235		-29.296875
5236		-29.296875
5237		-25.390625
5238		-27.343750
5239		-21.484375
5240		-23.437500
5241		-15.625000
5242		-17.578125
5243		-11.718750
5244		-13.671875
5245		-7.812500
5246		-9.765625
5247		-3.906250
5248		-5.859375
5249		0.000000
5250		-1.953125
5251		3.906250
5252		1.953125
5253		7.812500
5254		5.859375
5255		11.718750
5256		9.765625
5257		15.625000
5258		13.671875
5259		19.531250
5260		17.578125
5261		23.437500
5262		23.437500
5263		27.343750
5264		27.343750
5265		31.250000
5266		29.296875
5267		35.156250
5268		33.203125
5269		39.062500
5270		37.109375
5271		42.968750
5272		41.015625
5273		46.875000
5274		44.921875
5275		48.828125
5276		48.828125
5277		52.734375
5278		50.781250
5279		56.640625
5280		54.687500
5281		58.593750
5282		56.640625
5283		62.500000
5284		60.546875
5285		64.453125
5286		62.500000
5287		68.359375
5288		66.406250
5289		70.312500
5290		68.359375
5291		72.265625
5292		70.312500
5293		74.218750
5294		72.265625
5295		76.171875
5296		74.218750
5297		78.125000
5298		76.171875
5299		80.078125
5300		78.125000
5301		80.078125
5302		78.125000
5303		82.031250
5304		80.078125
5305		83.984375
5306		82.031250
5307		83.984375
5308		82.031250
5309		85.937500
5310		82.031250
5311		85.937500
5312		83.984375
5313		85.937500
5314		82.031250
5315		85.937500
5316		83.984375
5317		85.937500
5318		83.984375
5319		87.890625
5320		83.984375
5321		85.937500
5322		82.031250
5323		85.937500
5324		82.031250
5325		85.937500
5326		82.031250
5327		85.937500
5328		82.031250
5329		83.984375
5330		80.078125
5331		82.031250
5332		78.125000
5333		82.031250
5334		76.171875
5335		80.078125
5336		74.218750
5337		78.125000
5338		72.265625
5339		78.125000
5340		72.265625
5341		74.218750
5342		68.359375
5343		72.265625
5344		66.406250
5345		72.265625
5346		64.453125
5347		68.359375
5348		60.546875
5349		66.406250
5350		58.593750
5351		64.453125
5352		54.687500
5353		60.546875
5354		52.734375
5355		58.593750
5356		48.828125
5357		54.687500
5358		46.875000
5359		50.781250
5360		42.968750
5361		48.828125
5362		39.062500
5363		44.921875
5364		35.156250
5365		41.015625
5366		31.250000
5367		37.109375
5368		29.296875
5369		33.203125
5370		23.437500
5371		31.250000
5372		19.531250
5373		25.390625
5374		15.625000
5375		21.484375
5376		11.718750
5377		17.578125
5378		7.812500
5379		13.671875
5380		3.906250
5381		9.765625
5382		0.000000
5383		5.859375
5384		-3.906250
5385		1.953125
5386		-7.812500
5387		-1.953125
5388		-13.671875
5389		-7.812500
5390		-17.578125
5391		-11.718750
5392		-21.484375
5393		-15.625000
5394		-25.390625
5395		-19.531250
5396		-29.296875
5397		-23.437500
5398		-33.203125
5399		-27.343750
5400		-37.109375
5401		-29.296875
5402		-41.015625
5403		-35.156250
5404		-42.968750
5405		-39.062500
5406		-48.828125
5407		-42.968750
5408		-50.781250
5409		-44.921875
5410		-54.687500
5411		-48.828125
5412		-56.640625
5413		-52.734375
5414		-60.546875
5415		-54.687500
5416		-62.500000
5417		-58.593750
5418		-66.406250
5419		-60.546875
5420		-68.359375
5421		-62.500000
5422		-70.312500
5423		-66.406250
5424		-72.265625
5425		-68.359375
5426		-74.218750
5427		-70.312500
5428		-76.171875
5429		-72.265625
5430		-78.125000
5431		-74.218750
5432		-78.125000
5433		-76.171875
5434		-80.078125
5435		-76.171875
5436		-80.078125
5437		-78.125000
5438		-82.031250
5439		-78.125000
5440		-82.031250
5441		-78.125000
5442		-82.031250
5443		-78.125000
5444		-82.031250
5445		-78.125000
5446		-82.031250
5447		-78.125000
5448		-82.031250
5449		-78.125000
5450		-80.078125
5451		-78.125000
5452		-80.078125
5453		-76.171875
5454		-78.125000
5455		-74.218750
5456		-76.171875
5457		-72.265625
5458		-76.171875
5459		-72.265625
5460		-74.218750
5461		-70.312500
5462		-72.265625
5463		-68.359375
5464		-70.312500
5465		-66.406250
5466		-68.359375
5467		-62.500000
5468		-64.453125
5469		-60.546875
5470		-62.500000
5471		-58.593750
5472		-58.593750
5473		-54.687500
5474		-56.640625
5475		-50.781250
5476		-52.734375
5477		-48.828125
5478		-50.781250
5479		-44.921875
5480		-46.875000
5481		-41.015625
5482		-42.968750
5483		-39.062500
5484		-41.015625
5485		-35.156250
5486		-37.109375
5487		-29.296875
5488		-31.250000
5489		-27.343750
5490		-27.343750
5491		-23.437500
5492		-23.437500
5493		-17.578125
5494		-21.484375
5495		-13.671875
5496		-17.578125
5497		-9.765625
5498		-13.671875
5499		-5.859375
5500		-7.812500
5501		-1.953125
5502		-3.906250
5503		1.953125
5504		0.000000
5505		5.859375
5506		3.906250
5507		9.765625
5508		7.812500
5509		15.625000
5510		11.718750
5511		17.578125
5512		15.625000
5513		21.484375
5514		21.484375
5515		25.390625
5516		25.390625
5517		31.250000
5518		27.343750
5519		35.156250
5520		31.250000
5521		37.109375
5522		35.156250
5523		41.015625
5524		39.062500
5525		44.921875
5526		42.968750
5527		48.828125
5528		46.875000
5529		52.734375
5530		50.781250
5531		54.687500
5532		52.734375
5533		56.640625
5534		54.687500
5535		60.546875
5536		58.593750
5537		62.500000
5538		60.546875
5539		66.406250
5540		64.453125
5541		68.359375
5542		66.406250
5543		70.312500
5544		68.359375
5545		74.218750
5546		70.312500
5547		74.218750
5548		72.265625
5549		76.171875
5550		74.218750
5551		78.125000
5552		76.171875
5553		80.078125
5554		78.125000
5555		82.031250
5556		80.078125
5557		82.031250
5558		80.078125
5559		83.984375
5560		82.031250
5561		83.984375
5562		82.031250
5563		85.937500
5564		82.031250
5565		85.937500
5566		83.984375
5567		85.937500
5568		83.984375
5569		85.937500
5570		83.984375
5571		85.937500
5572		82.031250
5573		85.937500
5574		82.031250
5575		85.937500
5576		82.031250
5577		85.937500
5578		82.031250
5579		83.984375
5580		80.078125
5581		83.984375
5582		80.078125
5583		82.031250
5584		78.125000
5585		82.031250
5586		76.171875
5587		80.078125
5588		76.171875
5589		80.078125
5590		74.218750
5591		78.125000
5592		72.265625
5593		76.171875
5594		68.359375
5595		74.218750
5596		66.406250
5597		72.265625
5598		64.453125
5599		68.359375
5600		60.546875
5601		66.406250
5602		58.593750
5603		64.453125
5604		56.640625
5605		60.546875
5606		52.734375
5607		58.593750
5608		48.828125
5609		54.687500
5610		46.875000
5611		52.734375
5612		42.968750
5613		48.828125
5614		41.015625
5615		44.921875
5616		37.109375
5617		41.015625
5618		31.250000
5619		39.062500
5620		29.296875
5621		35.156250
5622		25.390625
5623		31.250000
5624		21.484375
5625		27.343750
5626		17.578125
5627		23.437500
5628		13.671875
5629		19.531250
5630		9.765625
5631		15.625000
5632		5.859375
5633		11.718750
5634		0.000000
5635		5.859375
5636		-3.906250
5637		3.906250
5638		-9.765625
5639		-1.953125
5640		-11.718750
5641		-5.859375
5642		-15.625000
5643		-9.765625
5644		-19.531250
5645		-13.671875
5646		-23.437500
5647		-17.578125
5648		-27.343750
5649		-21.484375
5650		-31.250000
5651		-27.343750
5652		-35.156250
5653		-29.296875
5654		-39.062500
5655		-33.203125
5656		-42.968750
5657		-37.109375
5658		-46.875000
5659		-41.015625
5660		-50.781250
5661		-44.921875
5662		-52.734375
5663		-46.875000
5664		-56.640625
5665		-50.781250
5666		-58.593750
5667		-54.687500
5668		-62.500000
5669		-58.593750
5670		-66.406250
5671		-60.546875
5672		-68.359375
5673		-64.453125
5674		-70.312500
5675		-64.453125
5676		-72.265625
5677		-68.359375
5678		-74.218750
5679		-70.312500
5680		-76.171875
5681		-72.265625
5682		-76.171875
5683		-74.218750
5684		-80.078125
5685		-76.171875
5686		-80.078125
5687		-76.171875
5688		-82.031250
5689		-76.171875
5690		-82.031250
5691		-78.125000
5692		-82.031250
5693		-78.125000
5694		-83.984375
5695		-78.125000
5696		-83.984375
5697		-78.125000
5698		-82.031250
5699		-80.078125
5700		-82.031250
5701		-80.078125
5702		-82.031250
5703		-78.125000
5704		-82.031250
5705		-76.171875
5706		-80.078125
5707		-74.218750
5708		-78.125000
5709		-74.218750
5710		-78.125000
5711		-72.265625
5712		-76.171875
5713		-70.312500
5714		-74.218750
5715		-70.312500
5716		-72.265625
5717		-66.406250
5718		-68.359375
5719		-64.453125
5720		-66.406250
5721		-60.546875
5722		-64.453125
5723		-58.593750
5724		-62.500000
5725		-54.687500
5726		-58.593750
5727		-52.734375
5728		-56.640625
5729		-48.828125
5730		-52.734375
5731		-46.875000
5732		-48.828125
5733		-42.968750
5734		-44.921875
5735		-39.062500
5736		-42.968750
5737		-35.156250
5738		-39.062500
5739		-31.250000
5740		-35.156250
5741		-27.343750
5742		-31.250000
5743		-23.437500
5744		-27.343750
5745		-19.531250
5746		-23.437500
5747		-15.625000
5748		-19.531250
5749		-11.718750
5750		-13.671875
5751		-7.812500
5752		-9.765625
5753		-3.906250
5754		-5.859375
5755		0.000000
5756		-1.953125
5757		3.906250
5758		1.953125
5759		7.812500
5760		5.859375
5761		11.718750
5762		11.718750
5763		15.625000
5764		15.625000
5765		19.531250
5766		19.531250
5767		23.437500
5768		21.484375
5769		29.296875
5770		27.343750
5771		33.203125
5772		31.250000
5773		35.156250
5774		35.156250
5775		39.062500
5776		37.109375
5777		42.968750
5778		41.015625
5779		46.875000
5780		44.921875
5781		50.781250
5782		48.828125
5783		52.734375
5784		50.781250
5785		56.640625
5786		54.687500
5787		58.593750
5788		56.640625
5789		62.500000
5790		60.546875
5791		64.453125
5792		62.500000
5793		66.406250
5794		66.406250
5795		70.312500
5796		68.359375
5797		72.265625
5798		70.312500
5799		74.218750
5800		72.265625
5801		76.171875
5802		74.218750
5803		78.125000
5804		76.171875
5805		80.078125
5806		78.125000
5807		80.078125
5808		78.125000
5809		82.031250
5810		80.078125
5811		82.031250
5812		80.078125
5813		83.984375
5814		82.031250
5815		83.984375
5816		82.031250
5817		83.984375
5818		82.031250
5819		85.937500
5820		83.984375
5821		85.937500
5822		83.984375
5823		85.937500
5824		83.984375
5825		85.937500
5826		83.984375
5827		85.937500
5828		82.031250
5829		85.937500
5830		82.031250
5831		83.984375
5832		80.078125
5833		83.984375
5834		80.078125
5835		82.031250
5836		78.125000
5837		82.031250
5838		78.125000
5839		80.078125
5840		76.171875
5841		78.125000
5842		74.218750
5843		78.125000
5844		72.265625
5845		76.171875
5846		70.312500
5847		74.218750
5848		68.359375
5849		72.265625
5850		66.406250
5851		70.312500
5852		62.500000
5853		66.406250
5854		56.640625
5855		68.359375
5856		54.687500
5857		66.406250
5858		54.687500
5859		62.500000
5860		50.781250
5861		56.640625
5862		48.828125
5863		52.734375
5864		44.921875
5865		50.781250
5866		41.015625
5867		46.875000
5868		39.062500
5869		42.968750
5870		31.250000
5871		41.015625
5872		29.296875
5873		39.062500
5874		23.437500
5875		33.203125
5876		23.437500
5877		27.343750
5878		19.531250
5879		23.437500
5880		15.625000
5881		19.531250
5882		9.765625
5883		15.625000
5884		5.859375
5885		11.718750
5886		-1.953125
5887		7.812500
5888		-3.906250
5889		5.859375
5890		-7.812500
5891		1.953125
5892		-9.765625
5893		0.000000
5894		-13.671875
5895		-7.812500
5896		-17.578125
5897		-13.671875
5898		-21.484375
5899		-17.578125
5900		-27.343750
5901		-21.484375
5902		-31.250000
5903		-25.390625
5904		-37.109375
5905		-25.390625
5906		-41.015625
5907		-29.296875
5908		-44.921875
5909		-33.203125
5910		-44.921875
5911		-41.015625
5912		-48.828125
5913		-44.921875
5914		-52.734375
5915		-46.875000
5916		-54.687500
5917		-50.781250
5918		-58.593750
5919		-52.734375
5920		-64.453125
5921		-54.687500
5922		-68.359375
5923		-56.640625
5924		-70.312500
5925		-58.593750
5926		-68.359375
5927		-64.453125
5928		-72.265625
5929		-66.406250
5930		-74.218750
5931		-70.312500
5932		-74.218750
5933		-72.265625
5934		-76.171875
5935		-74.218750
5936		-78.125000
5937		-74.218750
5938		-82.031250
5939		-72.265625
5940		-83.984375
5941		-74.218750
5942		-83.984375
5943		-74.218750
5944		-82.031250
5945		-78.125000
5946		-82.031250
5947		-80.078125
5948		-82.031250
5949		-80.078125
5950		-82.031250
5951		-78.125000
5952		-82.031250
5953		-78.125000
5954		-83.984375
5955		-74.218750
5956		-83.984375
5957		-74.218750
5958		-82.031250
5959		-72.265625
5960		-78.125000
5961		-74.218750
5962		-76.171875
5963		-74.218750
5964		-76.171875
5965		-72.265625
5966		-74.218750
5967		-70.312500
5968		-72.265625
5969		-68.359375
5970		-72.265625
5971		-60.546875
5972		-70.312500
5973		-60.546875
5974		-68.359375
5975		-56.640625
5976		-64.453125
5977		-56.640625
5978		-58.593750
5979		-54.687500
5980		-56.640625
5981		-50.781250
5982		-52.734375
5983		-48.828125
5984		-50.781250
5985		-44.921875
5986		-46.875000
5987		-41.015625
5988		-46.875000
5989		-35.156250
5990		-42.968750
5991		-31.250000
5992		-39.062500
5993		-27.343750
5994		-31.250000
5995		-25.390625
5996		-27.343750
5997		-21.484375
5998		-23.437500
5999		-17.578125
6000		-19.531250
6001		-13.671875
6002		-15.625000
6003		-9.765625
6004		-11.718750
6005		-1.953125
6006		-9.765625
6007		1.953125
6008		-5.859375
6009		5.859375
6010		0.000000
6011		5.859375
6012		5.859375
6013		11.718750
6014		9.765625
6015		15.625000
6016		13.671875
6017		19.531250
6018		17.578125
6019		23.437500
6020		21.484375
6021		27.343750
6022		21.484375
6023		33.203125
6024		25.390625
6025		37.109375
6026		29.296875
6027		39.062500
6028		37.109375
6029		41.015625
6030		41.015625
6031		44.921875
6032		42.968750
6033		48.828125
6034		46.875000
6035		52.734375
6036		50.781250
6037		54.687500
6038		52.734375
6039		58.593750
6040		56.640625
6041		64.453125
6042		58.593750
6043		64.453125
6044		62.500000
6045		66.406250
6046		64.453125
6047		68.359375
6048		66.406250
6049		70.312500
6050		70.312500
6051		72.265625
6052		72.265625
6053		76.171875
6054		74.218750
6055		76.171875
6056		74.218750
6057		82.031250
6058		74.218750
6059		82.031250
6060		78.125000
6061		82.031250
6062		80.078125
6063		82.031250
6064		80.078125
6065		83.984375
6066		82.031250
6067		83.984375
6068		82.031250
6069		85.937500
6070		82.031250
6071		85.937500
6072		82.031250
6073		85.937500
6074		82.031250
6075		87.890625
6076		82.031250
6077		87.890625
6078		83.984375
6079		85.937500
6080		83.984375
6081		85.937500
6082		82.031250
6083		85.937500
6084		82.031250
6085		83.984375
6086		80.078125
6087		83.984375
6088		78.125000
6089		82.031250
6090		78.125000
6091		82.031250
6092		76.171875
6093		80.078125
6094		74.218750
6095		78.125000
6096		74.218750
6097		76.171875
6098		72.265625
6099		74.218750
6100		68.359375
6101		72.265625
6102		66.406250
6103		70.312500
6104		64.453125
6105		68.359375
6106		62.500000
6107		66.406250
6108		58.593750
6109		62.500000
6110		56.640625
6111		60.546875
6112		52.734375
6113		58.593750
6114		48.828125
6115		54.687500
6116		46.875000
6117		50.781250
6118		42.968750
6119		48.828125
6120		39.062500
6121		44.921875
6122		37.109375
6123		41.015625
6124		33.203125
6125		37.109375
6126		29.296875
6127		33.203125
6128		23.437500
6129		29.296875
6130		21.484375
6131		25.390625
6132		15.625000
6133		21.484375
6134		11.718750
6135		17.578125
6136		7.812500
6137		13.671875
6138		3.906250
6139		9.765625
6140		0.000000
6141		5.859375
6142		-3.906250
6143		1.953125
6144		-7.812500
6145		-1.953125
6146		-13.671875
6147		-5.859375
6148		-15.625000
6149		-9.765625
6150		-21.484375
6151		-15.625000
6152		-25.390625
6153		-19.531250
6154		-29.296875
6155		-23.437500
6156		-33.203125
6157		-25.390625
6158		-37.109375
6159		-31.250000
6160		-41.015625
6161		-35.156250
6162		-44.921875
6163		-39.062500
6164		-46.875000
6165		-41.015625
6166		-50.781250
6167		-44.921875
6168		-54.687500
6169		-48.828125
6170		-56.640625
6171		-52.734375
6172		-60.546875
6173		-54.687500
6174		-62.500000
6175		-58.593750
6176		-66.406250
6177		-60.546875
6178		-68.359375
6179		-64.453125
6180		-70.312500
6181		-66.406250
6182		-72.265625
6183		-68.359375
6184		-74.218750
6185		-70.312500
6186		-76.171875
6187		-72.265625
6188		-80.078125
6189		-74.218750
6190		-80.078125
6191		-74.218750
6192		-80.078125
6193		-76.171875
6194		-80.078125
6195		-78.125000
6196		-82.031250
6197		-78.125000
6198		-82.031250
6199		-78.125000
6200		-82.031250
6201		-80.078125
6202		-82.031250
6203		-80.078125
6204		-82.031250
6205		-80.078125
6206		-82.031250
6207		-78.125000
6208		-82.031250
6209		-78.125000
6210		-80.078125
6211		-78.125000
6212		-78.125000
6213		-76.171875
6214		-78.125000
6215		-74.218750
6216		-76.171875
6217		-72.265625
6218		-74.218750
6219		-70.312500
6220		-72.265625
6221		-68.359375
6222		-70.312500
6223		-64.453125
6224		-68.359375
6225		-62.500000
6226		-66.406250
6227		-62.500000
6228		-62.500000
6229		-58.593750
6230		-60.546875
6231		-54.687500
6232		-58.593750
6233		-52.734375
6234		-54.687500
6235		-48.828125
6236		-50.781250
6237		-46.875000
6238		-46.875000
6239		-42.968750
6240		-46.875000
6241		-39.062500
6242		-41.015625
6243		-35.156250
6244		-37.109375
6245		-31.250000
6246		-33.203125
6247		-27.343750
6248		-29.296875
6249		-23.437500
6250		-25.390625
6251		-19.531250
6252		-21.484375
6253		-15.625000
6254		-17.578125
6255		-11.718750
6256		-13.671875
6257		-5.859375
6258		-9.765625
6259		-1.953125
6260		-3.906250
6261		1.953125
6262		0.000000
6263		5.859375
6264		3.906250
6265		9.765625
6266		7.812500
6267		13.671875
6268		11.718750
6269		17.578125
6270		15.625000
6271		21.484375
6272		19.531250
6273		25.390625
6274		23.437500
6275		31.250000
6276		27.343750
6277		33.203125
6278		31.250000
6279		37.109375
6280		35.156250
6281		41.015625
6282		39.062500
6283		44.921875
6284		42.968750
6285		46.875000
6286		46.875000
6287		50.781250
6288		48.828125
6289		54.687500
6290		52.734375
6291		56.640625
6292		54.687500
6293		60.546875
6294		58.593750
6295		62.500000
6296		60.546875
6297		66.406250
6298		62.500000
6299		68.359375
6300		66.406250
6301		70.312500
6302		68.359375
6303		72.265625
6304		70.312500
6305		74.218750
6306		72.265625
6307		78.125000
6308		74.218750
6309		78.125000
6310		76.171875
6311		80.078125
6312		78.125000
6313		80.078125
6314		78.125000
6315		82.031250
6316		80.078125
6317		83.984375
6318		80.078125
6319		83.984375
6320		82.031250
6321		83.984375
6322		82.031250
6323		85.937500
6324		82.031250
6325		85.937500
6326		83.984375
6327		85.937500
6328		83.984375
6329		85.937500
6330		83.984375
6331		85.937500
6332		82.031250
6333		85.937500
6334		82.031250
6335		85.937500
6336		82.031250
6337		83.984375
6338		82.031250
6339		83.984375
6340		80.078125
6341		82.031250
6342		78.125000
6343		82.031250
6344		78.125000
6345		80.078125
6346		76.171875
6347		80.078125
6348		74.218750
6349		78.125000
6350		72.265625
6351		76.171875
6352		70.312500
6353		74.218750
6354		68.359375
6355		72.265625
6356		64.453125
6357		70.312500
6358		62.500000
6359		66.406250
6360		60.546875
6361		64.453125
6362		56.640625
6363		62.500000
6364		54.687500
6365		58.593750
6366		50.781250
6367		56.640625
6368		48.828125
6369		52.734375
6370		44.921875
6371		48.828125
6372		41.015625
6373		46.875000
6374		37.109375
6375		42.968750
6376		33.203125
6377		39.062500
6378		29.296875
6379		35.156250
6380		25.390625
6381		31.250000
6382		21.484375
6383		27.343750
6384		17.578125
6385		23.437500
6386		13.671875
6387		19.531250
6388		9.765625
6389		15.625000
6390		5.859375
6391		11.718750
6392		1.953125
6393		7.812500
6394		-1.953125
6395		1.953125
6396		-5.859375
6397		-1.953125
6398		-11.718750
6399		-5.859375
6400		-15.625000
6401		-9.765625
6402		-19.531250
6403		-13.671875
6404		-23.437500
6405		-17.578125
6406		-27.343750
6407		-21.484375
6408		-31.250000
6409		-25.390625
6410		-35.156250
6411		-29.296875
6412		-39.062500
6413		-33.203125
6414		-42.968750
6415		-37.109375
6416		-46.875000
6417		-41.015625
6418		-48.828125
6419		-44.921875
6420		-52.734375
6421		-46.875000
6422		-56.640625
6423		-50.781250
6424		-58.593750
6425		-54.687500
6426		-62.500000
6427		-56.640625
6428		-64.453125
6429		-60.546875
6430		-66.406250
6431		-62.500000
6432		-70.312500
6433		-66.406250
6434		-72.265625
6435		-68.359375
6436		-74.218750
6437		-70.312500
6438		-76.171875
6439		-72.265625
6440		-78.125000
6441		-74.218750
6442		-78.125000
6443		-74.218750
6444		-80.078125
6445		-76.171875
6446		-80.078125
6447		-78.125000
6448		-82.031250
6449		-78.125000
6450		-82.031250
6451		-78.125000
6452		-82.031250
6453		-80.078125
6454		-82.031250
6455		-80.078125
6456		-82.031250
6457		-80.078125
6458		-82.031250
6459		-78.125000
6460		-82.031250
6461		-78.125000
6462		-80.078125
6463		-78.125000
6464		-80.078125
6465		-76.171875
6466		-78.125000
6467		-76.171875
6468		-76.171875
6469		-74.218750
6470		-76.171875
6471		-72.265625
6472		-74.218750
6473		-70.312500
6474		-72.265625
6475		-66.406250
6476		-70.312500
6477		-64.453125
6478		-68.359375
6479		-62.500000
6480		-64.453125
6481		-60.546875
6482		-60.546875
6483		-56.640625
6484		-58.593750
6485		-54.687500
6486		-54.687500
6487		-50.781250
6488		-52.734375
6489		-46.875000
6490		-48.828125
6491		-44.921875
6492		-46.875000
6493		-39.062500
6494		-42.968750
6495		-35.156250
6496		-39.062500
6497		-33.203125
6498		-33.203125
6499		-29.296875
6500		-31.250000
6501		-25.390625
6502		-27.343750
6503		-21.484375
6504		-23.437500
6505		-17.578125
6506		-19.531250
6507		-13.671875
6508		-13.671875
6509		-7.812500
6510		-11.718750
6511		-3.906250
6512		-5.859375
6513		0.000000
6514		-1.953125
6515		3.906250
6516		1.953125
6517		7.812500
6518		5.859375
6519		11.718750
6520		9.765625
6521		15.625000
6522		13.671875
6523		19.531250
6524		17.578125
6525		23.437500
6526		21.484375
6527		29.296875
6528		25.390625
6529		31.250000
6530		29.296875
6531		35.156250
6532		33.203125
6533		39.062500
6534		37.109375
6535		42.968750
6536		41.015625
6537		46.875000
6538		44.921875
6539		48.828125
6540		48.828125
6541		52.734375
6542		50.781250
6543		56.640625
6544		52.734375
6545		60.546875
6546		56.640625
6547		60.546875
6548		60.546875
6549		64.453125
6550		62.500000
6551		66.406250
6552		64.453125
6553		68.359375
6554		68.359375
6555		72.265625
6556		70.312500
6557		74.218750
6558		72.265625
6559		78.125000
6560		72.265625
6561		80.078125
6562		74.218750
6563		78.125000
6564		78.125000
6565		80.078125
6566		78.125000
6567		82.031250
6568		80.078125
6569		83.984375
6570		82.031250
6571		83.984375
6572		82.031250
6573		83.984375
6574		82.031250
6575		85.937500
6576		82.031250
6577		87.890625
6578		82.031250
6579		87.890625
6580		83.984375
6581		85.937500
6582		83.984375
6583		85.937500
6584		83.984375
6585		85.937500
6586		82.031250
6587		85.937500
6588		82.031250
6589		83.984375
6590		82.031250
6591		83.984375
6592		78.125000
6593		83.984375
6594		78.125000
6595		83.984375
6596		78.125000
6597		80.078125
6598		76.171875
6599		80.078125
6600		74.218750
6601		78.125000
6602		72.265625
6603		76.171875
6604		70.312500
6605		74.218750
6606		68.359375
6607		72.265625
6608		66.406250
6609		70.312500
6610		62.500000
6611		68.359375
6612		60.546875
6613		66.406250
6614		58.593750
6615		62.500000
6616		54.687500
6617		60.546875
6618		52.734375
6619		56.640625
6620		48.828125
6621		54.687500
6622		44.921875
6623		50.781250
6624		42.968750
6625		46.875000
6626		37.109375
6627		44.921875
6628		35.156250
6629		41.015625
6630		31.250000
6631		37.109375
6632		27.343750
6633		33.203125
6634		23.437500
6635		29.296875
6636		19.531250
6637		25.390625
6638		15.625000
6639		21.484375
6640		11.718750
6641		17.578125
6642		5.859375
6643		13.671875
6644		1.953125
6645		9.765625
6646		-1.953125
6647		5.859375
6648		-5.859375
6649		0.000000
6650		-9.765625
6651		-3.906250
6652		-13.671875
6653		-7.812500
6654		-17.578125
6655		-11.718750
6656		-21.484375
6657		-15.625000
6658		-25.390625
6659		-19.531250
6660		-29.296875
6661		-23.437500
6662		-33.203125
6663		-27.343750
6664		-37.109375
6665		-31.250000
6666		-41.015625
6667		-35.156250
6668		-44.921875
6669		-39.062500
6670		-48.828125
6671		-42.968750
6672		-50.781250
6673		-46.875000
6674		-54.687500
6675		-50.781250
6676		-58.593750
6677		-52.734375
6678		-60.546875
6679		-56.640625
6680		-64.453125
6681		-58.593750
6682		-66.406250
6683		-62.500000
6684		-68.359375
6685		-64.453125
6686		-70.312500
6687		-66.406250
6688		-72.265625
6689		-68.359375
6690		-74.218750
6691		-70.312500
6692		-76.171875
6693		-72.265625
6694		-78.125000
6695		-72.265625
6696		-78.125000
6697		-76.171875
6698		-80.078125
6699		-76.171875
6700		-80.078125
6701		-78.125000
6702		-82.031250
6703		-78.125000
6704		-82.031250
6705		-80.078125
6706		-82.031250
6707		-80.078125
6708		-82.031250
6709		-80.078125
6710		-82.031250
6711		-78.125000
6712		-80.078125
6713		-78.125000
6714		-80.078125
6715		-78.125000
6716		-80.078125
6717		-76.171875
6718		-78.125000
6719		-76.171875
6720		-78.125000
6721		-74.218750
6722		-76.171875
6723		-72.265625
6724		-74.218750
6725		-70.312500
6726		-72.265625
6727		-68.359375
6728		-70.312500
6729		-66.406250
6730		-68.359375
6731		-62.500000
6732		-66.406250
6733		-60.546875
6734		-62.500000
6735		-58.593750
6736		-60.546875
6737		-54.687500
6738		-56.640625
6739		-52.734375
6740		-52.734375
6741		-48.828125
6742		-50.781250
6743		-44.921875
6744		-46.875000
6745		-41.015625
6746		-42.968750
6747		-39.062500
6748		-39.062500
6749		-35.156250
6750		-35.156250
6751		-31.250000
6752		-33.203125
6753		-27.343750
6754		-27.343750
6755		-23.437500
6756		-23.437500
6757		-19.531250
6758		-19.531250
6759		-13.671875
6760		-15.625000
6761		-9.765625
6762		-11.718750
6763		-5.859375
6764		-7.812500
6765		-1.953125
6766		-3.906250
6767		1.953125
6768		0.000000
6769		5.859375
6770		3.906250
6771		9.765625
6772		9.765625
6773		13.671875
6774		11.718750
6775		17.578125
6776		17.578125
6777		21.484375
6778		21.484375
6779		25.390625
6780		25.390625
6781		29.296875
6782		29.296875
6783		33.203125
6784		33.203125
6785		37.109375
6786		37.109375
6787		41.015625
6788		39.062500
6789		44.921875
6790		42.968750
6791		48.828125
6792		46.875000
6793		50.781250
6794		50.781250
6795		54.687500
6796		52.734375
6797		58.593750
6798		56.640625
6799		60.546875
6800		58.593750
6801		62.500000
6802		62.500000
6803		66.406250
6804		64.453125
6805		68.359375
6806		66.406250
6807		70.312500
6808		68.359375
6809		72.265625
6810		70.312500
6811		74.218750
6812		74.218750
6813		76.171875
6814		74.218750
6815		78.125000
6816		76.171875
6817		80.078125
6818		78.125000
6819		82.031250
6820		80.078125
6821		82.031250
6822		80.078125
6823		83.984375
6824		82.031250
6825		83.984375
6826		82.031250
6827		85.937500
6828		83.984375
6829		85.937500
6830		83.984375
6831		85.937500
6832		83.984375
6833		85.937500
6834		83.984375
6835		85.937500
6836		83.984375
6837		85.937500
6838		83.984375
6839		85.937500
6840		82.031250
6841		85.937500
6842		82.031250
6843		83.984375
6844		80.078125
6845		83.984375
6846		80.078125
6847		82.031250
6848		78.125000
6849		82.031250
6850		78.125000
6851		80.078125
6852		76.171875
6853		80.078125
6854		74.218750
6855		78.125000
6856		72.265625
6857		76.171875
6858		70.312500
6859		74.218750
6860		66.406250
6861		72.265625
6862		64.453125
6863		68.359375
6864		62.500000
6865		66.406250
6866		60.546875
6867		64.453125
6868		56.640625
6869		60.546875
6870		52.734375
6871		58.593750
6872		50.781250
6873		54.687500
6874		46.875000
6875		52.734375
6876		42.968750
6877		48.828125
6878		41.015625
6879		44.921875
6880		37.109375
6881		41.015625
6882		33.203125
6883		39.062500
6884		29.296875
6885		35.156250
6886		25.390625
6887		31.250000
6888		21.484375
6889		27.343750
6890		17.578125
6891		23.437500
6892		13.671875
6893		17.578125
6894		9.765625
6895		15.625000
6896		5.859375
6897		11.718750
6898		1.953125
6899		5.859375
6900		-3.906250
6901		1.953125
6902		-7.812500
6903		-1.953125
6904		-11.718750
6905		-5.859375
6906		-15.625000
6907		-9.765625
6908		-19.531250
6909		-13.671875
6910		-23.437500
6911		-17.578125
6912		-27.343750
6913		-23.437500
6914		-31.250000
6915		-25.390625
6916		-35.156250
6917		-31.250000
6918		-39.062500
6919		-33.203125
6920		-42.968750
6921		-37.109375
6922		-46.875000
6923		-41.015625
6924		-50.781250
6925		-44.921875
6926		-54.687500
6927		-48.828125
6928		-56.640625
6929		-52.734375
6930		-60.546875
6931		-54.687500
6932		-62.500000
6933		-58.593750
6934		-64.453125
6935		-60.546875
6936		-68.359375
6937		-64.453125
6938		-70.312500
6939		-66.406250
6940		-72.265625
6941		-68.359375
6942		-74.218750
6943		-70.312500
6944		-76.171875
6945		-72.265625
6946		-78.125000
6947		-74.218750
6948		-78.125000
6949		-76.171875
6950		-80.078125
6951		-76.171875
6952		-80.078125
6953		-78.125000
6954		-80.078125
6955		-78.125000
6956		-82.031250
6957		-80.078125
6958		-82.031250
6959		-80.078125
6960		-82.031250
6961		-80.078125
6962		-82.031250
6963		-78.125000
6964		-82.031250
6965		-78.125000
6966		-80.078125
6967		-78.125000
6968		-80.078125
6969		-76.171875
6970		-78.125000
6971		-76.171875
6972		-78.125000
6973		-74.218750
6974		-76.171875
6975		-72.265625
6976		-74.218750
6977		-70.312500
6978		-72.265625
6979		-68.359375
6980		-70.312500
6981		-66.406250
6982		-68.359375
6983		-64.453125
6984		-66.406250
6985		-62.500000
6986		-64.453125
6987		-58.593750
6988		-60.546875
6989		-56.640625
6990		-58.593750
6991		-52.734375
6992		-54.687500
6993		-50.781250
6994		-50.781250
6995		-44.921875
6996		-48.828125
6997		-42.968750
6998		-44.921875
6999		-39.062500
7000		-41.015625
7001		-35.156250
7002		-37.109375
7003		-31.250000
7004		-33.203125
7005		-27.343750
7006		-29.296875
7007		-23.437500
7008		-25.390625
7009		-19.531250
7010		-21.484375
7011		-15.625000
7012		-17.578125
7013		-11.718750
7014		-13.671875
7015		-7.812500
7016		-9.765625
7017		-3.906250
7018		-5.859375
7019		0.000000
7020		0.000000
7021		3.906250
7022		3.906250
7023		7.812500
7024		7.812500
7025		13.671875
7026		11.718750
7027		17.578125
7028		15.625000
7029		21.484375
7030		19.531250
7031		25.390625
7032		23.437500
7033		29.296875
7034		27.343750
7035		33.203125
7036		31.250000
7037		37.109375
7038		35.156250
7039		41.015625
7040		39.062500
7041		42.968750
7042		42.968750
7043		46.875000
7044		44.921875
7045		50.781250
7046		48.828125
7047		52.734375
7048		52.734375
7049		56.640625
7050		54.687500
7051		60.546875
7052		58.593750
7053		62.500000
7054		60.546875
7055		64.453125
7056		64.453125
7057		68.359375
7058		66.406250
7059		70.312500
7060		68.359375
7061		72.265625
7062		70.312500
7063		74.218750
7064		72.265625
7065		76.171875
7066		74.218750
7067		78.125000
7068		76.171875
7069		80.078125
7070		78.125000
7071		80.078125
7072		78.125000
7073		82.031250
7074		80.078125
7075		82.031250
7076		82.031250
7077		83.984375
7078		82.031250
7079		83.984375
7080		82.031250
7081		85.937500
7082		83.984375
7083		85.937500
7084		83.984375
7085		85.937500
7086		83.984375
7087		85.937500
7088		83.984375
7089		85.937500
7090		83.984375
7091		85.937500
7092		82.031250
7093		85.937500
7094		82.031250
7095		83.984375
7096		82.031250
7097		83.984375
7098		80.078125
7099		83.984375
7100		80.078125
7101		82.031250
7102		78.125000
7103		80.078125
7104		76.171875
7105		80.078125
7106		74.218750
7107		78.125000
7108		72.265625
7109		76.171875
7110		70.312500
7111		74.218750
7112		68.359375
7113		72.265625
7114		66.406250
7115		70.312500
7116		62.500000
7117		68.359375
7118		60.546875
7119		64.453125
7120		58.593750
7121		62.500000
7122		54.687500
7123		58.593750
7124		52.734375
7125		56.640625
7126		48.828125
7127		52.734375
7128		44.921875
7129		50.781250
7130		41.015625
7131		46.875000
7132		37.109375
7133		42.968750
7134		35.156250
7135		39.062500
7136		31.250000
7137		35.156250
7138		27.343750
7139		31.250000
7140		23.437500
7141		27.343750
7142		19.531250
7143		23.437500
7144		15.625000
7145		19.531250
7146		11.718750
7147		15.625000
7148		5.859375
7149		11.718750
7150		1.953125
7151		7.812500
7152		-1.953125
7153		3.906250
7154		-5.859375
7155		0.000000
7156		-9.765625
7157		-3.906250
7158		-13.671875
7159		-9.765625
7160		-17.578125
7161		-13.671875
7162		-23.437500
7163		-17.578125
7164		-27.343750
7165		-21.484375
7166		-29.296875
7167		-25.390625
7168		-35.156250
7169		-29.296875
7170		-39.062500
7171		-33.203125
7172		-41.015625
7173		-37.109375
7174		-44.921875
7175		-41.015625
7176		-48.828125
7177		-42.968750
7178		-52.734375
7179		-46.875000
7180		-54.687500
7181		-50.781250
7182		-58.593750
7183		-54.687500
7184		-60.546875
7185		-56.640625
7186		-64.453125
7187		-58.593750
7188		-66.406250
7189		-62.500000
7190		-68.359375
7191		-64.453125
7192		-70.312500
7193		-66.406250
7194		-72.265625
7195		-70.312500
7196		-74.218750
7197		-72.265625
7198		-76.171875
7199		-72.265625
7200		-78.125000
7201		-74.218750
7202		-80.078125
7203		-76.171875
7204		-80.078125
7205		-78.125000
7206		-80.078125
7207		-78.125000
7208		-82.031250
7209		-78.125000
7210		-82.031250
7211		-80.078125
7212		-82.031250
7213		-80.078125
7214		-82.031250
7215		-80.078125
7216		-82.031250
7217		-80.078125
7218		-82.031250
7219		-78.125000
7220		-80.078125
7221		-78.125000
7222		-80.078125
7223		-76.171875
7224		-78.125000
7225		-74.218750
7226		-76.171875
7227		-74.218750
7228		-76.171875
7229		-72.265625
7230		-74.218750
7231		-70.312500
7232		-72.265625
7233		-68.359375
7234		-68.359375
7235		-66.406250
7236		-66.406250
7237		-62.500000
7238		-64.453125
7239		-60.546875
7240		-62.500000
7241		-56.640625
7242		-58.593750
7243		-54.687500
7244		-56.640625
7245		-50.781250
7246		-52.734375
7247		-48.828125
7248		-48.828125
7249		-44.921875
7250		-46.875000
7251		-41.015625
7252		-42.968750
7253		-37.109375
7254		-39.062500
7255		-33.203125
7256		-35.156250
7257		-29.296875
7258		-31.250000
7259		-25.390625
7260		-27.343750
7261		-21.484375
7262		-23.437500
7263		-17.578125
7264		-19.531250
7265		-13.671875
7266		-15.625000
7267		-9.765625
7268		-11.718750
7269		-5.859375
7270		-7.812500
7271		-1.953125
7272		-1.953125
7273		3.906250
7274		1.953125
7275		7.812500
7276		5.859375
7277		11.718750
7278		9.765625
7279		15.625000
7280		13.671875
7281		19.531250
7282		17.578125
7283		23.437500
7284		21.484375
7285		27.343750
7286		25.390625
7287		31.250000
7288		29.296875
7289		35.156250
7290		33.203125
7291		39.062500
7292		37.109375
7293		42.968750
7294		41.015625
7295		44.921875
7296		44.921875
7297		48.828125
7298		46.875000
7299		52.734375
7300		50.781250
7301		54.687500
7302		54.687500
7303		58.593750
7304		56.640625
7305		60.546875
7306		60.546875
7307		64.453125
7308		62.500000
7309		66.406250
7310		64.453125
7311		68.359375
7312		66.406250
7313		72.265625
7314		70.312500
7315		74.218750
7316		72.265625
7317		74.218750
7318		74.218750
7319		76.171875
7320		76.171875
7321		78.125000
7322		76.171875
7323		80.078125
7324		78.125000
7325		82.031250
7326		80.078125
7327		82.031250
7328		80.078125
7329		83.984375
7330		82.031250
7331		83.984375
7332		82.031250
7333		85.937500
7334		83.984375
7335		85.937500
7336		83.984375
7337		85.937500
7338		83.984375
7339		85.937500
7340		83.984375
7341		85.937500
7342		83.984375
7343		85.937500
7344		83.984375
7345		85.937500
7346		82.031250
7347		83.984375
7348		82.031250
7349		83.984375
7350		80.078125
7351		83.984375
7352		80.078125
7353		82.031250
7354		78.125000
7355		82.031250
7356		76.171875
7357		80.078125
7358		76.171875
7359		78.125000
7360		74.218750
7361		76.171875
7362		72.265625
7363		74.218750
7364		68.359375
7365		72.265625
7366		66.406250
7367		70.312500
7368		64.453125
7369		68.359375
7370		62.500000
7371		66.406250
7372		58.593750
7373		62.500000
7374		56.640625
7375		60.546875
7376		52.734375
7377		56.640625
7378		50.781250
7379		54.687500
7380		46.875000
7381		50.781250
7382		42.968750
7383		48.828125
7384		39.062500
7385		44.921875
7386		37.109375
7387		41.015625
7388		33.203125
7389		37.109375
7390		27.343750
7391		33.203125
7392		25.390625
7393		29.296875
7394		21.484375
7395		25.390625
7396		17.578125
7397		21.484375
7398		11.718750
7399		17.578125
7400		7.812500
7401		13.671875
7402		3.906250
7403		9.765625
7404		0.000000
7405		5.859375
7406		-3.906250
7407		1.953125
7408		-7.812500
7409		-1.953125
7410		-11.718750
7411		-5.859375
7412		-15.625000
7413		-11.718750
7414		-21.484375
7415		-15.625000
7416		-25.390625
7417		-19.531250
7418		-29.296875
7419		-23.437500
7420		-33.203125
7421		-27.343750
7422		-37.109375
7423		-31.250000
7424		-41.015625
7425		-35.156250
7426		-42.968750
7427		-39.062500
7428		-46.875000
7429		-42.968750
7430		-50.781250
7431		-44.921875
7432		-54.687500
7433		-48.828125
7434		-56.640625
7435		-52.734375
7436		-60.546875
7437		-54.687500
7438		-62.500000
7439		-58.593750
7440		-66.406250
7441		-60.546875
7442		-68.359375
7443		-64.453125
7444		-70.312500
7445		-66.406250
7446		-72.265625
7447		-68.359375
7448		-74.218750
7449		-70.312500
7450		-76.171875
7451		-72.265625
7452		-78.125000
7453		-74.218750
7454		-78.125000
7455		-76.171875
7456		-80.078125
7457		-76.171875
7458		-80.078125
7459		-78.125000
7460		-80.078125
7461		-78.125000
7462		-82.031250
7463		-78.125000
7464		-82.031250
7465		-80.078125
7466		-82.031250
7467		-80.078125
7468		-82.031250
7469		-80.078125
7470		-82.031250
7471		-78.125000
7472		-80.078125
7473		-78.125000
7474		-80.078125
7475		-76.171875
7476		-78.125000
7477		-76.171875
7478		-78.125000
7479		-74.218750
7480		-76.171875
7481		-72.265625
7482		-74.218750
7483		-70.312500
7484		-72.265625
7485		-68.359375
7486		-70.312500
7487		-66.406250
7488		-68.359375
7489		-64.453125
7490		-66.406250
7491		-60.546875
7492		-62.500000
7493		-58.593750
7494		-60.546875
7495		-54.687500
7496		-56.640625
7497		-52.734375
7498		-54.687500
7499		-48.828125
7500		-50.781250
7501		-46.875000
7502		-46.875000
7503		-42.968750
7504		-44.921875
7505		-37.109375
7506		-41.015625
7507		-35.156250
7508		-37.109375
7509		-29.296875
7510		-33.203125
7511		-27.343750
7512		-29.296875
7513		-23.437500
7514		-25.390625
7515		-19.531250
7516		-21.484375
7517		-13.671875
7518		-15.625000
7519		-11.718750
7520		-13.671875
7521		-3.906250
7522		-9.765625
7523		-3.906250
7524		-3.906250
7525		1.953125
7526		-1.953125
7527		5.859375
7528		3.906250
7529		13.671875
7530		7.812500
7531		13.671875
7532		11.718750
7533		17.578125
7534		15.625000
7535		23.437500
7536		19.531250
7537		25.390625
7538		23.437500
7539		29.296875
7540		27.343750
7541		33.203125
7542		31.250000
7543		37.109375
7544		35.156250
7545		41.015625
7546		39.062500
7547		44.921875
7548		42.968750
7549		46.875000
7550		46.875000
7551		52.734375
7552		48.828125
7553		54.687500
7554		52.734375
7555		58.593750
7556		54.687500
7557		60.546875
7558		58.593750
7559		62.500000
7560		58.593750
7561		66.406250
7562		62.500000
7563		70.312500
7564		66.406250
7565		70.312500
7566		68.359375
7567		72.265625
7568		70.312500
7569		74.218750
7570		70.312500
7571		78.125000
7572		72.265625
7573		78.125000
7574		76.171875
7575		80.078125
7576		76.171875
7577		82.031250
7578		80.078125
7579		82.031250
7580		78.125000
7581		85.937500
7582		82.031250
7583		83.984375
7584		82.031250
7585		85.937500
7586		80.078125
7587		87.890625
7588		82.031250
7589		87.890625
7590		83.984375
7591		87.890625
7592		82.031250
7593		89.843750
7594		80.078125
7595		89.843750
7596		82.031250
7597		87.890625
7598		82.031250
7599		85.937500
7600		82.031250
7601		83.984375
7602		78.125000
7603		85.937500
7604		78.125000
7605		85.937500
7606		78.125000
7607		82.031250
7608		76.171875
7609		82.031250
7610		74.218750
7611		82.031250
7612		70.312500
7613		78.125000
7614		72.265625
7615		76.171875
7616		70.312500
7617		74.218750
7618		66.406250
7619		72.265625
7620		60.546875
7621		72.265625
7622		62.500000
7623		68.359375
7624		60.546875
7625		64.453125
7626		54.687500
7627		62.500000
7628		52.734375
7629		62.500000
7630		48.828125
7631		58.593750
7632		46.875000
7633		52.734375
7634		42.968750
7635		48.828125
7636		39.062500
7637		46.875000
7638		35.156250
7639		46.875000
7640		33.203125
7641		39.062500
7642		29.296875
7643		35.156250
7644		23.437500
7645		35.156250
7646		19.531250
7647		29.296875
7648		17.578125
7649		23.437500
7650		13.671875
7651		19.531250
7652		9.765625
7653		15.625000
7654		3.906250
7655		13.671875
7656		0.000000
7657		7.812500
7658		-1.953125
7659		3.906250
7660		-9.765625
7661		0.000000
7662		-11.718750
7663		-1.953125
7664		-15.625000
7665		-5.859375
7666		-19.531250
7667		-13.671875
7668		-25.390625
7669		-17.578125
7670		-31.250000
7671		-21.484375
7672		-31.250000
7673		-25.390625
7674		-35.156250
7675		-29.296875
7676		-41.015625
7677		-33.203125
7678		-44.921875
7679		-33.203125
7680		-46.875000
7681		-39.062500
7682		-48.828125
7683		-44.921875
7684		-52.734375
7685		-46.875000
7686		-56.640625
7687		-50.781250
7688		-62.500000
7689		-50.781250
7690		-62.500000
7691		-56.640625
7692		-66.406250
7693		-60.546875
7694		-70.312500
7695		-60.546875
7696		-70.312500
7697		-64.453125
7698		-70.312500
7699		-68.359375
7700		-74.218750
7701		-70.312500
7702		-76.171875
7703		-72.265625
7704		-80.078125
7705		-70.312500
7706		-80.078125
7707		-74.218750
7708		-78.125000
7709		-76.171875
7710		-83.984375
7711		-74.218750
7712		-83.984375
7713		-74.218750
7714		-83.984375
7715		-76.171875
7716		-82.031250
7717		-80.078125
7718		-82.031250
7719		-80.078125
7720		-83.984375
7721		-76.171875
7722		-83.984375
7723		-76.171875
7724		-82.031250
7725		-78.125000
7726		-80.078125
7727		-76.171875
7728		-82.031250
7729		-72.265625
7730		-80.078125
7731		-72.265625
7732		-76.171875
7733		-72.265625
7734		-74.218750
7735		-72.265625
7736		-74.218750
7737		-68.359375
7738		-72.265625
7739		-64.453125
7740		-68.359375
7741		-64.453125
7742		-66.406250
7743		-62.500000
7744		-64.453125
7745		-56.640625
7746		-64.453125
7747		-54.687500
7748		-58.593750
7749		-52.734375
7750		-54.687500
7751		-50.781250
7752		-52.734375
7753		-46.875000
7754		-48.828125
7755		-41.015625
7756		-44.921875
7757		-39.062500
7758		-41.015625
7759		-35.156250
7760		-37.109375
7761		-31.250000
7762		-37.109375
7763		-27.343750
7764		-31.250000
7765		-23.437500
7766		-25.390625
7767		-21.484375
7768		-21.484375
7769		-15.625000
7770		-17.578125
7771		-11.718750
7772		-15.625000
7773		-5.859375
7774		-11.718750
7775		-3.906250
7776		-5.859375
7777		0.000000
7778		-1.953125
7779		3.906250
7780		1.953125
7781		11.718750
7782		1.953125
7783		11.718750
7784		11.718750
7785		15.625000
7786		15.625000
7787		21.484375
7788		19.531250
7789		27.343750
7790		23.437500
7791		29.296875
7792		27.343750
7793		31.250000
7794		31.250000
7795		37.109375
7796		35.156250
7797		39.062500
7798		37.109375
7799		42.968750
7800		41.015625
7801		46.875000
7802		44.921875
7803		48.828125
7804		48.828125
7805		52.734375
7806		50.781250
7807		58.593750
7808		54.687500
7809		58.593750
7810		56.640625
7811		62.500000
7812		58.593750
7813		64.453125
7814		62.500000
7815		66.406250
7816		64.453125
7817		70.312500
7818		68.359375
7819		72.265625
7820		70.312500
7821		74.218750
7822		72.265625
7823		76.171875
7824		74.218750
7825		78.125000
7826		76.171875
7827		80.078125
7828		78.125000
7829		80.078125
7830		78.125000
7831		82.031250
7832		80.078125
7833		83.984375
7834		80.078125
7835		83.984375
7836		82.031250
7837		85.937500
7838		82.031250
7839		85.937500
7840		83.984375
7841		85.937500
7842		83.984375
7843		85.937500
7844		83.984375
7845		85.937500
7846		83.984375
7847		85.937500
7848		82.031250
7849		85.937500
7850		83.984375
7851		85.937500
7852		82.031250
7853		85.937500
7854		80.078125
7855		85.937500
7856		80.078125
7857		83.984375
7858		78.125000
7859		83.984375
7860		78.125000
7861		83.984375
7862		76.171875
7863		80.078125
7864		74.218750
7865		80.078125
7866		72.265625
7867		78.125000
7868		70.312500
7869		74.218750
7870		68.359375
7871		72.265625
7872		66.406250
7873		72.265625
7874		62.500000
7875		68.359375
7876		60.546875
7877		66.406250
7878		58.593750
7879		64.453125
7880		54.687500
7881		62.500000
7882		52.734375
7883		58.593750
7884		48.828125
7885		54.687500
7886		44.921875
7887		50.781250
7888		41.015625
7889		48.828125
7890		39.062500
7891		44.921875
7892		33.203125
7893		41.015625
7894		31.250000
7895		39.062500
7896		27.343750
7897		33.203125
7898		23.437500
7899		31.250000
7900		19.531250
7901		25.390625
7902		15.625000
7903		21.484375
7904		9.765625
7905		17.578125
7906		5.859375
7907		13.671875
7908		1.953125
7909		9.765625
7910		-1.953125
7911		5.859375
7912		-5.859375
7913		1.953125
7914		-9.765625
7915		-3.906250
7916		-13.671875
7917		-5.859375
7918		-17.578125
7919		-11.718750
7920		-21.484375
7921		-15.625000
7922		-25.390625
7923		-19.531250
7924		-29.296875
7925		-23.437500
7926		-35.156250
7927		-27.343750
7928		-37.109375
7929		-31.250000
7930		-41.015625
7931		-35.156250
7932		-44.921875
7933		-39.062500
7934		-48.828125
7935		-42.968750
7936		-50.781250
7937		-46.875000
7938		-54.687500
7939		-48.828125
7940		-58.593750
7941		-52.734375
7942		-60.546875
7943		-54.687500
7944		-64.453125
7945		-56.640625
7946		-66.406250
7947		-60.546875
7948		-68.359375
7949		-62.500000
7950		-70.312500
7951		-66.406250
7952		-72.265625
7953		-68.359375
7954		-76.171875
7955		-70.312500
7956		-76.171875
7957		-72.265625
7958		-78.125000
7959		-72.265625
7960		-80.078125
7961		-74.218750
7962		-80.078125
7963		-76.171875
7964		-82.031250
7965		-76.171875
7966		-82.031250
7967		-78.125000
7968		-82.031250
7969		-80.078125
7970		-82.031250
7971		-80.078125
7972		-82.031250
7973		-78.125000
7974		-82.031250
7975		-78.125000
7976		-80.078125
7977		-76.171875
7978		-82.031250
7979		-76.171875
7980		-80.078125
7981		-76.171875
7982		-78.125000
7983		-74.218750
7984		-78.125000
7985		-74.218750
7986		-76.171875
7987		-72.265625
7988		-74.218750
7989		-70.312500
7990		-72.265625
7991		-68.359375
7992		-70.312500
7993		-66.406250
7994		-68.359375
7995		-62.500000
7996		-64.453125
7997		-60.546875
7998		-62.500000
7999		-58.593750
8000		-60.546875
8001		-54.687500
8002		-56.640625
8003		-50.781250
8004		-52.734375
8005		-46.875000
8006		-50.781250
8007		-44.921875
8008		-46.875000
8009		-41.015625
8010		-42.968750
8011		-35.156250
8012		-39.062500
8013		-33.203125
8014		-35.156250
8015		-29.296875
8016		-31.250000
8017		-25.390625
8018		-27.343750
8019		-23.437500
8020		-23.437500
8021		-17.578125
8022		-19.531250
8023		-13.671875
8024		-15.625000
8025		-9.765625
8026		-11.718750
8027		-5.859375
8028		-9.765625
8029		-1.953125
8030		-3.906250
8031		1.953125
8032		0.000000
8033		7.812500
8034		3.906250
8035		9.765625
8036		9.765625
8037		15.625000
8038		13.671875
8039		19.531250
8040		17.578125
8041		23.437500
8042		21.484375
8043		27.343750
8044		25.390625
8045		31.250000
8046		29.296875
8047		35.156250
8048		33.203125
8049		39.062500
8050		35.156250
8051		41.015625
8052		41.015625
8053		44.921875
8054		42.968750
8055		48.828125
8056		44.921875
8057		52.734375
8058		50.781250
8059		56.640625
8060		52.734375
8061		58.593750
8062		54.687500
8063		60.546875
8064		58.593750
8065		64.453125
8066		60.546875
8067		66.406250
8068		62.500000
8069		68.359375
8070		66.406250
8071		70.312500
8072		70.312500
8073		74.218750
8074		70.312500
8075		76.171875
8076		74.218750
8077		78.125000
8078		74.218750
8079		80.078125
8080		76.171875
8081		80.078125
8082		78.125000
8083		82.031250
8084		78.125000
8085		83.984375
8086		82.031250
8087		83.984375
8088		80.078125
8089		85.937500
8090		82.031250
8091		85.937500
8092		82.031250
8093		85.937500
8094		82.031250
8095		87.890625
8096		83.984375
8097		85.937500
8098		83.984375
8099		85.937500
8100		83.984375
8101		87.890625
8102		83.984375
8103		85.937500
8104		83.984375
8105		85.937500
8106		82.031250
8107		85.937500
8108		80.078125
8109		83.984375
8110		80.078125
8111		83.984375
8112		78.125000
8113		82.031250
8114		76.171875
8115		82.031250
8116		76.171875
8117		80.078125
8118		74.218750
8119		78.125000
8120		72.265625
8121		76.171875
8122		70.312500
8123		74.218750
8124		68.359375
8125		72.265625
8126		64.453125
8127		70.312500
8128		62.500000
8129		66.406250
8130		60.546875
8131		64.453125
8132		56.640625
8133		62.500000
8134		54.687500
8135		58.593750
8136		50.781250
8137		54.687500
8138		46.875000
8139		52.734375
8140		44.921875
8141		50.781250
8142		41.015625
8143		46.875000
8144		37.109375
8145		42.968750
8146		33.203125
8147		39.062500
8148		29.296875
8149		35.156250
8150		25.390625
8151		31.250000
8152		21.484375
8153		29.296875
8154		17.578125
8155		23.437500
8156		13.671875
8157		19.531250
8158		7.812500
8159		15.625000
8160		5.859375
8161		11.718750
8162		0.000000
8163		7.812500
8164		-3.906250
8165		1.953125
8166		-7.812500
8167		-1.953125
8168		-11.718750
8169		-5.859375
8170		-15.625000
8171		-9.765625
8172		-21.484375
8173		-13.671875
8174		-23.437500
8175		-17.578125
8176		-27.343750
8177		-21.484375
8178		-31.250000
8179		-25.390625
8180		-35.156250
8181		-29.296875
8182		-39.062500
8183		-33.203125
8184		-42.968750
8185		-37.109375
8186		-46.875000
8187		-41.015625
8188		-50.781250
8189		-44.921875
8190		-52.734375
8191		-46.875000
8192		-56.640625
8193		-50.781250
8194		-58.593750
8195		-52.734375
8196		-62.500000
8197		-56.640625
8198		-64.453125
8199		-60.546875
8200		-66.406250
8201		-62.500000
8202		-68.359375
8203		-64.453125
8204		-72.265625
8205		-68.359375
8206		-74.218750
8207		-70.312500
8208		-76.171875
8209		-72.265625
8210		-76.171875
8211		-72.265625
8212		-78.125000
8213		-74.218750
8214		-78.125000
8215		-74.218750
8216		-80.078125
8217		-76.171875
8218		-82.031250
8219		-78.125000
8220		-80.078125
8221		-78.125000
8222		-80.078125
8223		-78.125000
8224		-82.031250
8225		-78.125000
8226		-82.031250
8227		-78.125000
8228		-80.078125
8229		-78.125000
8230		-80.078125
8231		-76.171875
8232		-80.078125
8233		-76.171875
8234		-80.078125
8235		-74.218750
8236		-78.125000
8237		-74.218750
8238		-76.171875
8239		-72.265625
8240		-74.218750
8241		-70.312500
8242		-72.265625
8243		-68.359375
8244		-70.312500
8245		-66.406250
8246		-68.359375
8247		-62.500000
8248		-66.406250
8249		-60.546875
8250		-62.500000
8251		-58.593750
8252		-60.546875
8253		-54.687500
8254		-56.640625
8255		-52.734375
8256		-54.687500
8257		-48.828125
8258		-50.781250
8259		-44.921875
8260		-46.875000
8261		-42.968750
8262		-44.921875
8263		-39.062500
8264		-41.015625
8265		-35.156250
8266		-37.109375
8267		-31.250000
8268		-33.203125
8269		-27.343750
8270		-29.296875
8271		-23.437500
8272		-25.390625
8273		-19.531250
8274		-21.484375
8275		-15.625000
8276		-17.578125
8277		-11.718750
8278		-13.671875
8279		-5.859375
8280		-7.812500
8281		-3.906250
8282		-3.906250
8283		1.953125
8284		0.000000
8285		5.859375
8286		3.906250
8287		9.765625
8288		7.812500
8289		13.671875
8290		11.718750
8291		17.578125
8292		15.625000
8293		21.484375
8294		19.531250
8295		25.390625
8296		23.437500
8297		29.296875
8298		27.343750
8299		33.203125
8300		31.250000
8301		37.109375
8302		35.156250
8303		41.015625
8304		39.062500
8305		44.921875
8306		42.968750
8307		46.875000
8308		44.921875
8309		50.781250
8310		48.828125
8311		54.687500
8312		52.734375
8313		56.640625
8314		56.640625
8315		60.546875
8316		58.593750
8317		62.500000
8318		60.546875
8319		66.406250
8320		64.453125
8321		68.359375
8322		66.406250
8323		70.312500
8324		68.359375
8325		74.218750
8326		70.312500
8327		76.171875
8328		72.265625
8329		78.125000
8330		74.218750
8331		78.125000
8332		76.171875
8333		80.078125
8334		78.125000
8335		82.031250
8336		78.125000
8337		83.984375
8338		80.078125
8339		83.984375
8340		82.031250
8341		85.937500
8342		82.031250
8343		85.937500
8344		82.031250
8345		85.937500
8346		83.984375
8347		87.890625
8348		83.984375
8349		87.890625
8350		83.984375
8351		87.890625
8352		83.984375
8353		87.890625
8354		83.984375
8355		85.937500
8356		83.984375
8357		85.937500
8358		82.031250
8359		85.937500
8360		82.031250
8361		85.937500
8362		80.078125
8363		83.984375
8364		80.078125
8365		83.984375
8366		78.125000
8367		82.031250
8368		76.171875
8369		80.078125
8370		74.218750
8371		78.125000
8372		72.265625
8373		76.171875
8374		70.312500
8375		74.218750
8376		68.359375
8377		74.218750
8378		66.406250
8379		70.312500
8380		64.453125
8381		68.359375
8382		60.546875
8383		66.406250
8384		58.593750
8385		62.500000
8386		54.687500
8387		60.546875
8388		52.734375
8389		56.640625
8390		48.828125
8391		54.687500
8392		44.921875
8393		50.781250
8394		42.968750
8395		46.875000
8396		39.062500
8397		44.921875
8398		33.203125
8399		41.015625
8400		31.250000
8401		37.109375
8402		27.343750
8403		33.203125
8404		23.437500
8405		29.296875
8406		19.531250
8407		25.390625
8408		15.625000
8409		21.484375
8410		11.718750
8411		17.578125
8412		7.812500
8413		13.671875
8414		1.953125
8415		7.812500
8416		-1.953125
8417		5.859375
8418		-5.859375
8419		0.000000
8420		-9.765625
8421		-3.906250
8422		-13.671875
8423		-7.812500
8424		-17.578125
8425		-11.718750
8426		-21.484375
8427		-15.625000
8428		-25.390625
8429		-19.531250
8430		-29.296875
8431		-23.437500
8432		-33.203125
8433		-27.343750
8434		-37.109375
8435		-33.203125
8436		-41.015625
8437		-35.156250
8438		-44.921875
8439		-39.062500
8440		-48.828125
8441		-42.968750
8442		-50.781250
8443		-46.875000
8444		-54.687500
8445		-48.828125
8446		-56.640625
8447		-52.734375
8448		-60.546875
8449		-54.687500
8450		-64.453125
8451		-58.593750
8452		-66.406250
8453		-60.546875
8454		-68.359375
8455		-64.453125
8456		-70.312500
8457		-66.406250
8458		-72.265625
8459		-68.359375
8460		-74.218750
8461		-70.312500
8462		-76.171875
8463		-72.265625
8464		-76.171875
8465		-74.218750
8466		-78.125000
8467		-74.218750
8468		-78.125000
8469		-76.171875
8470		-82.031250
8471		-76.171875
8472		-80.078125
8473		-78.125000
8474		-80.078125
8475		-78.125000
8476		-80.078125
8477		-78.125000
8478		-80.078125
8479		-78.125000
8480		-82.031250
8481		-78.125000
8482		-80.078125
8483		-76.171875
8484		-80.078125
8485		-76.171875
8486		-78.125000
8487		-74.218750
8488		-78.125000
8489		-74.218750
8490		-76.171875
8491		-72.265625
8492		-74.218750
8493		-70.312500
8494		-72.265625
8495		-68.359375
8496		-70.312500
8497		-66.406250
8498		-68.359375
8499		-64.453125
8500		-66.406250
8501		-62.500000
8502		-64.453125
8503		-58.593750
8504		-60.546875
8505		-56.640625
8506		-58.593750
8507		-52.734375
8508		-54.687500
8509		-50.781250
8510		-52.734375
8511		-46.875000
8512		-48.828125
8513		-42.968750
8514		-44.921875
8515		-39.062500
8516		-41.015625
8517		-35.156250
8518		-37.109375
8519		-31.250000
8520		-33.203125
8521		-27.343750
8522		-29.296875
8523		-23.437500
8524		-25.390625
8525		-19.531250
8526		-21.484375
8527		-15.625000
8528		-17.578125
8529		-11.718750
8530		-13.671875
8531		-7.812500
8532		-9.765625
8533		-3.906250
8534		-5.859375
8535		0.000000
8536		-1.953125
8537		3.906250
8538		1.953125
8539		7.812500
8540		5.859375
8541		13.671875
8542		11.718750
8543		17.578125
8544		15.625000
8545		21.484375
8546		19.531250
8547		25.390625
8548		21.484375
8549		29.296875
8550		27.343750
8551		33.203125
8552		29.296875
8553		37.109375
8554		35.156250
8555		41.015625
8556		37.109375
8557		42.968750
8558		41.015625
8559		46.875000
8560		44.921875
8561		50.781250
8562		48.828125
8563		52.734375
8564		50.781250
8565		56.640625
8566		54.687500
8567		60.546875
8568		56.640625
8569		62.500000
8570		60.546875
8571		66.406250
8572		62.500000
8573		68.359375
8574		66.406250
8575		70.312500
8576		68.359375
8577		72.265625
8578		70.312500
8579		74.218750
8580		72.265625
8581		76.171875
8582		74.218750
8583		78.125000
8584		76.171875
8585		80.078125
8586		78.125000
8587		82.031250
8588		80.078125
8589		83.984375
8590		80.078125
8591		83.984375
8592		82.031250
8593		83.984375
8594		82.031250
8595		85.937500
8596		83.984375
8597		87.890625
8598		83.984375
8599		85.937500
8600		83.984375
8601		87.890625
8602		83.984375
8603		87.890625
8604		83.984375
8605		87.890625
8606		83.984375
8607		87.890625
8608		83.984375
8609		85.937500
8610		82.031250
8611		87.890625
8612		82.031250
8613		85.937500
8614		82.031250
8615		83.984375
8616		80.078125
8617		83.984375
8618		80.078125
8619		82.031250
8620		78.125000
8621		82.031250
8622		76.171875
8623		80.078125
8624		74.218750
8625		78.125000
8626		72.265625
8627		76.171875
8628		70.312500
8629		74.218750
8630		68.359375
8631		72.265625
8632		64.453125
8633		70.312500
8634		62.500000
8635		66.406250
8636		58.593750
8637		64.453125
8638		56.640625
8639		60.546875
8640		54.687500
8641		58.593750
8642		50.781250
8643		54.687500
8644		46.875000
8645		52.734375
8646		44.921875
8647		48.828125
8648		39.062500
8649		44.921875
8650		37.109375
8651		42.968750
8652		33.203125
8653		39.062500
8654		29.296875
8655		35.156250
8656		25.390625
8657		31.250000
8658		21.484375
8659		27.343750
8660		17.578125
8661		23.437500
8662		13.671875
8663		19.531250
8664		9.765625
8665		15.625000
8666		3.906250
8667		9.765625
8668		0.000000
8669		7.812500
8670		-3.906250
8671		1.953125
8672		-7.812500
8673		-1.953125
8674		-11.718750
8675		-5.859375
8676		-15.625000
8677		-9.765625
8678		-19.531250
8679		-13.671875
8680		-23.437500
8681		-17.578125
8682		-27.343750
8683		-21.484375
8684		-31.250000
8685		-25.390625
8686		-35.156250
8687		-29.296875
8688		-39.062500
8689		-33.203125
8690		-42.968750
8691		-37.109375
8692		-46.875000
8693		-41.015625
8694		-48.828125
8695		-44.921875
8696		-52.734375
8697		-48.828125
8698		-56.640625
8699		-50.781250
8700		-58.593750
8701		-54.687500
8702		-62.500000
8703		-56.640625
8704		-64.453125
8705		-60.546875
8706		-66.406250
8707		-62.500000
8708		-68.359375
8709		-64.453125
8710		-72.265625
8711		-68.359375
8712		-74.218750
8713		-68.359375
8714		-74.218750
8715		-70.312500
8716		-76.171875
8717		-72.265625
8718		-78.125000
8719		-74.218750
8720		-78.125000
8721		-74.218750
8722		-80.078125
8723		-76.171875
8724		-80.078125
8725		-78.125000
8726		-80.078125
8727		-78.125000
8728		-82.031250
8729		-78.125000
8730		-80.078125
8731		-78.125000
8732		-80.078125
8733		-76.171875
8734		-80.078125
8735		-78.125000
8736		-80.078125
8737		-76.171875
8738		-78.125000
8739		-76.171875
8740		-78.125000
8741		-74.218750
8742		-76.171875
8743		-72.265625
8744		-74.218750
8745		-70.312500
8746		-74.218750
8747		-68.359375
8748		-70.312500
8749		-66.406250
8750		-68.359375
8751		-64.453125
8752		-68.359375
8753		-62.500000
8754		-64.453125
8755		-60.546875
8756		-62.500000
8757		-56.640625
8758		-58.593750
8759		-54.687500
8760		-54.687500
8761		-50.781250
8762		-52.734375
8763		-46.875000
8764		-48.828125
8765		-42.968750
8766		-44.921875
8767		-41.015625
8768		-42.968750
8769		-37.109375
8770		-39.062500
8771		-33.203125
8772		-35.156250
8773		-29.296875
8774		-33.203125
8775		-25.390625
8776		-27.343750
8777		-21.484375
8778		-23.437500
8779		-17.578125
8780		-19.531250
8781		-13.671875
8782		-15.625000
8783		-9.765625
8784		-11.718750
8785		-5.859375
8786		-7.812500
8787		-1.953125
8788		-3.906250
8789		3.906250
8790		1.953125
8791		7.812500
8792		5.859375
8793		11.718750
8794		9.765625
8795		15.625000
8796		13.671875
8797		19.531250
8798		17.578125
8799		23.437500
8800		21.484375
8801		27.343750
8802		25.390625
8803		31.250000
8804		29.296875
8805		35.156250
8806		33.203125
8807		39.062500
8808		37.109375
8809		42.968750
8810		41.015625
8811		44.921875
8812		42.968750
8813		50.781250
8814		46.875000
8815		52.734375
8816		50.781250
8817		56.640625
8818		54.687500
8819		58.593750
8820		56.640625
8821		62.500000
8822		60.546875
8823		64.453125
8824		62.500000
8825		66.406250
8826		64.453125
8827		68.359375
8828		68.359375
8829		72.265625
8830		70.312500
8831		74.218750
8832		72.265625
8833		76.171875
8834		74.218750
8835		78.125000
8836		76.171875
8837		80.078125
8838		78.125000
8839		82.031250
8840		78.125000
8841		82.031250
8842		80.078125
8843		83.984375
8844		82.031250
8845		83.984375
8846		82.031250
8847		85.937500
8848		83.984375
8849		85.937500
8850		83.984375
8851		87.890625
8852		83.984375
8853		87.890625
8854		83.984375
8855		87.890625
8856		83.984375
8857		87.890625
8858		83.984375
8859		87.890625
8860		83.984375
8861		85.937500
8862		82.031250
8863		85.937500
8864		82.031250
8865		85.937500
8866		82.031250
8867		83.984375
8868		80.078125
8869		83.984375
8870		80.078125
8871		82.031250
8872		78.125000
8873		82.031250
8874		76.171875
8875		80.078125
8876		74.218750
8877		78.125000
8878		72.265625
8879		76.171875
8880		70.312500
8881		76.171875
8882		68.359375
8883		72.265625
8884		66.406250
8885		70.312500
8886		64.453125
8887		68.359375
8888		60.546875
8889		64.453125
8890		56.640625
8891		62.500000
8892		54.687500
8893		58.593750
8894		52.734375
8895		56.640625
8896		48.828125
8897		52.734375
8898		44.921875
8899		50.781250
8900		41.015625
8901		46.875000
8902		39.062500
8903		42.968750
8904		33.203125
8905		39.062500
8906		31.250000
8907		35.156250
8908		27.343750
8909		33.203125
8910		23.437500
8911		29.296875
8912		19.531250
8913		23.437500
8914		13.671875
8915		21.484375
8916		9.765625
8917		15.625000
8918		5.859375
8919		11.718750
8920		1.953125
8921		7.812500
8922		-1.953125
8923		3.906250
8924		-5.859375
8925		0.000000
8926		-9.765625
8927		-3.906250
8928		-13.671875
8929		-7.812500
8930		-17.578125
8931		-11.718750
8932		-23.437500
8933		-15.625000
8934		-25.390625
8935		-21.484375
8936		-31.250000
8937		-25.390625
8938		-33.203125
8939		-29.296875
8940		-37.109375
8941		-31.250000
8942		-41.015625
8943		-35.156250
8944		-44.921875
8945		-39.062500
8946		-48.828125
8947		-42.968750
8948		-52.734375
8949		-46.875000
8950		-54.687500
8951		-50.781250
8952		-58.593750
8953		-52.734375
8954		-60.546875
8955		-56.640625
8956		-64.453125
8957		-58.593750
8958		-66.406250
8959		-62.500000
8960		-68.359375
8961		-64.453125
8962		-70.312500
8963		-66.406250
8964		-72.265625
8965		-68.359375
8966		-74.218750
8967		-70.312500
8968		-76.171875
8969		-72.265625
8970		-76.171875
8971		-74.218750
8972		-78.125000
8973		-74.218750
8974		-80.078125
8975		-76.171875
8976		-80.078125
8977		-76.171875
8978		-80.078125
8979		-78.125000
8980		-80.078125
8981		-78.125000
8982		-80.078125
8983		-78.125000
8984		-80.078125
8985		-78.125000
8986		-80.078125
8987		-78.125000
8988		-80.078125
8989		-76.171875
8990		-80.078125
8991		-76.171875
8992		-78.125000
8993		-74.218750
8994		-76.171875
8995		-74.218750
8996		-76.171875
8997		-72.265625
8998		-74.218750
8999		-70.312500
9000		-72.265625
9001		-66.406250
9002		-70.312500
9003		-66.406250
9004		-66.406250
9005		-62.500000
9006		-64.453125
9007		-60.546875
9008		-62.500000
9009		-58.593750
9010		-58.593750
9011		-54.687500
9012		-56.640625
9013		-52.734375
9014		-54.687500
9015		-48.828125
9016		-50.781250
9017		-44.921875
9018		-46.875000
9019		-42.968750
9020		-42.968750
9021		-37.109375
9022		-39.062500
9023		-35.156250
9024		-37.109375
9025		-31.250000
9026		-33.203125
9027		-27.343750
9028		-29.296875
9029		-23.437500
9030		-25.390625
9031		-19.531250
9032		-19.531250
9033		-15.625000
9034		-17.578125
9035		-11.718750
9036		-11.718750
9037		-5.859375
9038		-7.812500
9039		-1.953125
9040		-3.906250
9041		1.953125
9042		0.000000
9043		5.859375
9044		3.906250
9045		9.765625
9046		7.812500
9047		13.671875
9048		11.718750
9049		17.578125
9050		15.625000
9051		21.484375
9052		19.531250
9053		25.390625
9054		23.437500
9055		29.296875
9056		27.343750
9057		33.203125
9058		31.250000
9059		39.062500
9060		35.156250
9061		41.015625
9062		39.062500
9063		44.921875
9064		42.968750
9065		46.875000
9066		46.875000
9067		50.781250
9068		48.828125
9069		54.687500
9070		52.734375
9071		56.640625
9072		56.640625
9073		60.546875
9074		58.593750
9075		64.453125
9076		60.546875
9077		66.406250
9078		64.453125
9079		68.359375
9080		66.406250
9081		72.265625
9082		68.359375
9083		74.218750
9084		70.312500
9085		74.218750
9086		74.218750
9087		78.125000
9088		76.171875
9089		80.078125
9090		76.171875
9091		80.078125
9092		78.125000
9093		82.031250
9094		80.078125
9095		82.031250
9096		82.031250
9097		83.984375
9098		82.031250
9099		85.937500
9100		83.984375
9101		85.937500
9102		83.984375
9103		87.890625
9104		83.984375
9105		87.890625
9106		83.984375
9107		87.890625
9108		83.984375
9109		87.890625
9110		83.984375
9111		87.890625
9112		83.984375
9113		87.890625
9114		83.984375
9115		87.890625
9116		83.984375
9117		85.937500
9118		82.031250
9119		85.937500
9120		82.031250
9121		83.984375
9122		80.078125
9123		83.984375
9124		78.125000
9125		82.031250
9126		78.125000
9127		82.031250
9128		76.171875
9129		80.078125
9130		74.218750
9131		78.125000
9132		72.265625
9133		76.171875
9134		70.312500
9135		74.218750
9136		66.406250
9137		72.265625
9138		64.453125
9139		68.359375
9140		60.546875
9141		66.406250
9142		58.593750
9143		64.453125
9144		56.640625
9145		62.500000
9146		52.734375
9147		58.593750
9148		50.781250
9149		54.687500
9150		46.875000
9151		50.781250
9152		42.968750
9153		48.828125
9154		39.062500
9155		44.921875
9156		35.156250
9157		41.015625
9158		33.203125
9159		37.109375
9160		29.296875
9161		33.203125
9162		25.390625
9163		29.296875
9164		19.531250
9165		25.390625
9166		17.578125
9167		23.437500
9168		11.718750
9169		17.578125
9170		7.812500
9171		15.625000
9172		3.906250
9173		9.765625
9174		0.000000
9175		7.812500
9176		-5.859375
9177		1.953125
9178		-7.812500
9179		-1.953125
9180		-11.718750
9181		-5.859375
9182		-17.578125
9183		-9.765625
9184		-19.531250
9185		-15.625000
9186		-25.390625
9187		-17.578125
9188		-29.296875
9189		-23.437500
9190		-33.203125
9191		-25.390625
9192		-37.109375
9193		-31.250000
9194		-39.062500
9195		-33.203125
9196		-42.968750
9197		-39.062500
9198		-46.875000
9199		-41.015625
9200		-50.781250
9201		-44.921875
9202		-54.687500
9203		-48.828125
9204		-56.640625
9205		-52.734375
9206		-60.546875
9207		-54.687500
9208		-62.500000
9209		-56.640625
9210		-64.453125
9211		-60.546875
9212		-66.406250
9213		-62.500000
9214		-70.312500
9215		-66.406250
9216		-72.265625
9217		-66.406250
9218		-74.218750
9219		-70.312500
9220		-74.218750
9221		-72.265625
9222		-76.171875
9223		-72.265625
9224		-78.125000
9225		-74.218750
9226		-80.078125
9227		-76.171875
9228		-80.078125
9229		-76.171875
9230		-80.078125
9231		-78.125000
9232		-80.078125
9233		-78.125000
9234		-82.031250
9235		-78.125000
9236		-82.031250
9237		-78.125000
9238		-80.078125
9239		-76.171875
9240		-80.078125
9241		-76.171875
9242		-80.078125
9243		-76.171875
9244		-78.125000
9245		-74.218750
9246		-78.125000
9247		-74.218750
9248		-76.171875
9249		-72.265625
9250		-74.218750
9251		-70.312500
9252		-72.265625
9253		-68.359375
9254		-72.265625
9255		-66.406250
9256		-68.359375
9257		-64.453125
9258		-66.406250
9259		-60.546875
9260		-64.453125
9261		-58.593750
9262		-60.546875
9263		-56.640625
9264		-58.593750
9265		-52.734375
9266		-54.687500
9267		-50.781250
9268		-52.734375
9269		-46.875000
9270		-48.828125
9271		-42.968750
9272		-44.921875
9273		-41.015625
9274		-42.968750
9275		-35.156250
9276		-37.109375
9277		-33.203125
9278		-35.156250
9279		-29.296875
9280		-29.296875
9281		-25.390625
9282		-25.390625
9283		-19.531250
9284		-21.484375
9285		-17.578125
9286		-17.578125
9287		-11.718750
9288		-13.671875
9289		-9.765625
9290		-9.765625
9291		-3.906250
9292		-5.859375
9293		0.000000
9294		-1.953125
9295		3.906250
9296		1.953125
9297		7.812500
9298		5.859375
9299		11.718750
9300		9.765625
9301		15.625000
9302		13.671875
9303		21.484375
9304		17.578125
9305		23.437500
9306		23.437500
9307		27.343750
9308		25.390625
9309		31.250000
9310		29.296875
9311		35.156250
9312		33.203125
9313		39.062500
9314		37.109375
9315		42.968750
9316		41.015625
9317		46.875000
9318		44.921875
9319		50.781250
9320		48.828125
9321		52.734375
9322		50.781250
9323		56.640625
9324		54.687500
9325		58.593750
9326		56.640625
9327		62.500000
9328		60.546875
9329		64.453125
9330		62.500000
9331		68.359375
9332		66.406250
9333		70.312500
9334		68.359375
9335		72.265625
9336		70.312500
9337		74.218750
9338		72.265625
9339		76.171875
9340		74.218750
9341		78.125000
9342		76.171875
9343		80.078125
9344		78.125000
9345		82.031250
9346		80.078125
9347		82.031250
9348		80.078125
9349		83.984375
9350		82.031250
9351		85.937500
9352		82.031250
9353		85.937500
9354		83.984375
9355		85.937500
9356		83.984375
9357		87.890625
9358		83.984375
9359		87.890625
9360		83.984375
9361		87.890625
9362		83.984375
9363		87.890625
9364		83.984375
9365		87.890625
9366		83.984375
9367		87.890625
9368		83.984375
9369		87.890625
9370		82.031250
9371		85.937500
9372		82.031250
9373		85.937500
9374		80.078125
9375		83.984375
9376		80.078125
9377		82.031250
9378		76.171875
9379		82.031250
9380		76.171875
9381		80.078125
9382		74.218750
9383		78.125000
9384		72.265625
9385		76.171875
9386		70.312500
9387		74.218750
9388		68.359375
9389		72.265625
9390		64.453125
9391		70.312500
9392		62.500000
9393		66.406250
9394		60.546875
9395		64.453125
9396		56.640625
9397		62.500000
9398		54.687500
9399		58.593750
9400		50.781250
9401		56.640625
9402		46.875000
9403		52.734375
9404		44.921875
9405		50.781250
9406		41.015625
9407		46.875000
9408		37.109375
9409		42.968750
9410		33.203125
9411		39.062500
9412		29.296875
9413		35.156250
9414		25.390625
9415		31.250000
9416		19.531250
9417		27.343750
9418		17.578125
9419		23.437500
9420		13.671875
9421		19.531250
9422		9.765625
9423		15.625000
9424		5.859375
9425		11.718750
9426		1.953125
9427		7.812500
9428		-3.906250
9429		3.906250
9430		-5.859375
9431		-1.953125
9432		-11.718750
9433		-5.859375
9434		-15.625000
9435		-9.765625
9436		-19.531250
9437		-13.671875
9438		-23.437500
9439		-17.578125
9440		-27.343750
9441		-21.484375
9442		-31.250000
9443		-25.390625
9444		-35.156250
9445		-29.296875
9446		-39.062500
9447		-33.203125
9448		-42.968750
9449		-37.109375
9450		-46.875000
9451		-41.015625
9452		-48.828125
9453		-44.921875
9454		-52.734375
9455		-48.828125
9456		-56.640625
9457		-50.781250
9458		-58.593750
9459		-52.734375
9460		-60.546875
9461		-56.640625
9462		-64.453125
9463		-58.593750
9464		-66.406250
9465		-62.500000
9466		-68.359375
9467		-64.453125
9468		-70.312500
9469		-66.406250
9470		-74.218750
9471		-68.359375
9472		-74.218750
9473		-70.312500
9474		-76.171875
9475		-72.265625
9476		-78.125000
9477		-74.218750
9478		-78.125000
9479		-74.218750
9480		-80.078125
9481		-76.171875
9482		-80.078125
9483		-78.125000
9484		-82.031250
9485		-78.125000
9486		-82.031250
9487		-78.125000
9488		-82.031250
9489		-78.125000
9490		-80.078125
9491		-78.125000
9492		-80.078125
9493		-76.171875
9494		-80.078125
9495		-76.171875
9496		-78.125000
9497		-76.171875
9498		-78.125000
9499		-74.218750
9500		-76.171875
9501		-72.265625
9502		-76.171875
9503		-70.312500
9504		-74.218750
9505		-70.312500
9506		-72.265625
9507		-68.359375
9508		-68.359375
9509		-64.453125
9510		-68.359375
9511		-62.500000
9512		-64.453125
9513		-60.546875
9514		-62.500000
9515		-58.593750
9516		-58.593750
9517		-54.687500
9518		-56.640625
9519		-50.781250
9520		-54.687500
9521		-48.828125
9522		-50.781250
9523		-42.968750
9524		-46.875000
9525		-41.015625
9526		-42.968750
9527		-37.109375
9528		-39.062500
9529		-33.203125
9530		-37.109375
9531		-31.250000
9532		-31.250000
9533		-27.343750
9534		-27.343750
9535		-23.437500
9536		-23.437500
9537		-19.531250
9538		-19.531250
9539		-15.625000
9540		-15.625000
9541		-9.765625
9542		-11.718750
9543		-5.859375
9544		-7.812500
9545		-1.953125
9546		-3.906250
9547		1.953125
9548		0.000000
9549		5.859375
9550		3.906250
9551		9.765625
9552		7.812500
9553		15.625000
9554		13.671875
9555		19.531250
9556		17.578125
9557		23.437500
9558		21.484375
9559		27.343750
9560		25.390625
9561		29.296875
9562		27.343750
9563		33.203125
9564		33.203125
9565		37.109375
9566		37.109375
9567		41.015625
9568		39.062500
9569		44.921875
9570		42.968750
9571		48.828125
9572		46.875000
9573		52.734375
9574		50.781250
9575		54.687500
9576		52.734375
9577		58.593750
9578		56.640625
9579		60.546875
9580		58.593750
9581		64.453125
9582		62.500000
9583		66.406250
9584		64.453125
9585		70.312500
9586		66.406250
9587		72.265625
9588		68.359375
9589		74.218750
9590		70.312500
9591		76.171875
9592		74.218750
9593		78.125000
9594		76.171875
9595		80.078125
9596		76.171875
9597		82.031250
9598		78.125000
9599		82.031250
9600		80.078125
9601		83.984375
9602		80.078125
9603		83.984375
9604		82.031250
9605		85.937500
9606		83.984375
9607		85.937500
9608		83.984375
9609		87.890625
9610		83.984375
9611		87.890625
9612		83.984375
9613		87.890625
9614		83.984375
9615		87.890625
9616		83.984375
9617		85.937500
9618		82.031250
9619		87.890625
9620		83.984375
9621		85.937500
9622		82.031250
9623		85.937500
9624		82.031250
9625		85.937500
9626		80.078125
9627		83.984375
9628		80.078125
9629		83.984375
9630		78.125000
9631		82.031250
9632		76.171875
9633		80.078125
9634		76.171875
9635		78.125000
9636		72.265625
9637		78.125000
9638		70.312500
9639		76.171875
9640		68.359375
9641		74.218750
9642		66.406250
9643		70.312500
9644		64.453125
9645		68.359375
9646		60.546875
9647		66.406250
9648		58.593750
9649		62.500000
9650		54.687500
9651		60.546875
9652		52.734375
9653		56.640625
9654		48.828125
9655		54.687500
9656		44.921875
9657		50.781250
9658		41.015625
9659		46.875000
9660		39.062500
9661		42.968750
9662		35.156250
9663		41.015625
9664		31.250000
9665		37.109375
9666		27.343750
9667		33.203125
9668		23.437500
9669		29.296875
9670		19.531250
9671		25.390625
9672		15.625000
9673		21.484375
9674		11.718750
9675		17.578125
9676		7.812500
9677		13.671875
9678		1.953125
9679		7.812500
9680		-1.953125
9681		3.906250
9682		-5.859375
9683		0.000000
9684		-9.765625
9685		-3.906250
9686		-13.671875
9687		-7.812500
9688		-17.578125
9689		-11.718750
9690		-21.484375
9691		-15.625000
9692		-25.390625
9693		-19.531250
9694		-31.250000
9695		-23.437500
9696		-33.203125
9697		-27.343750
9698		-37.109375
9699		-31.250000
9700		-41.015625
9701		-35.156250
9702		-44.921875
9703		-39.062500
9704		-48.828125
9705		-42.968750
9706		-50.781250
9707		-46.875000
9708		-54.687500
9709		-48.828125
9710		-58.593750
9711		-52.734375
9712		-62.500000
9713		-54.687500
9714		-62.500000
9715		-58.593750
9716		-66.406250
9717		-60.546875
9718		-68.359375
9719		-64.453125
9720		-70.312500
9721		-64.453125
9722		-72.265625
9723		-68.359375
9724		-74.218750
9725		-70.312500
9726		-76.171875
9727		-72.265625
9728		-78.125000
9729		-72.265625
9730		-78.125000
9731		-72.265625
9732		-78.125000
9733		-74.218750
9734		-80.078125
9735		-76.171875
9736		-82.031250
9737		-76.171875
9738		-82.031250
9739		-76.171875
9740		-80.078125
9741		-78.125000
9742		-80.078125
9743		-76.171875
9744		-82.031250
9745		-76.171875
9746		-80.078125
9747		-74.218750
9748		-80.078125
9749		-74.218750
9750		-78.125000
9751		-74.218750
9752		-76.171875
9753		-74.218750
9754		-78.125000
9755		-70.312500
9756		-74.218750
9757		-70.312500
9758		-72.265625
9759		-68.359375
9760		-70.312500
9761		-64.453125
9762		-68.359375
9763		-62.500000
9764		-68.359375
9765		-60.546875
9766		-62.500000
9767		-58.593750
9768		-60.546875
9769		-54.687500
9770		-56.640625
9771		-50.781250
9772		-56.640625
9773		-46.875000
9774		-52.734375
9775		-44.921875
9776		-48.828125
9777		-41.015625
9778		-44.921875
9779		-37.109375
9780		-42.968750
9781		-33.203125
9782		-39.062500
9783		-31.250000
9784		-33.203125
9785		-27.343750
9786		-29.296875
9787		-21.484375
9788		-27.343750
9789		-17.578125
9790		-23.437500
9791		-13.671875
9792		-17.578125
9793		-11.718750
9794		-15.625000
9795		-5.859375
9796		-11.718750
9797		-1.953125
9798		-7.812500
9799		1.953125
9800		0.000000
9801		3.906250
9802		3.906250
9803		7.812500
9804		5.859375
9805		15.625000
9806		9.765625
9807		17.578125
9808		13.671875
9809		21.484375
9810		17.578125
9811		27.343750
9812		23.437500
9813		31.250000
9814		25.390625
9815		35.156250
9816		29.296875
9817		37.109375
9818		35.156250
9819		41.015625
9820		39.062500
9821		46.875000
9822		41.015625
9823		48.828125
9824		42.968750
9825		52.734375
9826		46.875000
9827		56.640625
9828		50.781250
9829		58.593750
9830		52.734375
9831		62.500000
9832		56.640625
9833		64.453125
9834		60.546875
9835		64.453125
9836		64.453125
9837		68.359375
9838		64.453125
9839		72.265625
9840		66.406250
9841		74.218750
9842		70.312500
9843		78.125000
9844		72.265625
9845		80.078125
9846		72.265625
9847		80.078125
9848		74.218750
9849		82.031250
9850		78.125000
9851		82.031250
9852		80.078125
9853		83.984375
9854		80.078125
9855		85.937500
9856		80.078125
9857		87.890625
9858		80.078125
9859		87.890625
9860		82.031250
9861		89.843750
9862		82.031250
9863		89.843750
9864		82.031250
9865		89.843750
9866		82.031250
9867		89.843750
9868		85.937500
9869		87.890625
9870		83.984375
9871		87.890625
9872		82.031250
9873		87.890625
9874		82.031250
9875		89.843750
9876		80.078125
9877		87.890625
9878		78.125000
9879		87.890625
9880		78.125000
9881		85.937500
9882		78.125000
9883		85.937500
9884		78.125000
9885		82.031250
9886		76.171875
9887		80.078125
9888		72.265625
9889		80.078125
9890		70.312500
9891		78.125000
9892		68.359375
9893		76.171875
9894		64.453125
9895		74.218750
9896		62.500000
9897		70.312500
9898		60.546875
9899		68.359375
9900		60.546875
9901		66.406250
9902		56.640625
9903		62.500000
9904		50.781250
9905		58.593750
9906		48.828125
9907		56.640625
9908		44.921875
9909		52.734375
9910		41.015625
9911		50.781250
9912		39.062500
9913		48.828125
9914		35.156250
9915		44.921875
9916		33.203125
9917		41.015625
9918		29.296875
9919		35.156250
9920		25.390625
9921		31.250000
9922		19.531250
9923		29.296875
9924		13.671875
9925		25.390625
9926		11.718750
9927		19.531250
9928		5.859375
9929		15.625000
9930		1.953125
9931		11.718750
9932		-1.953125
9933		7.812500
9934		-3.906250
9935		3.906250
9936		-7.812500
9937		-1.953125
9938		-13.671875
9939		-5.859375
9940		-17.578125
9941		-7.812500
9942		-23.437500
9943		-13.671875
9944		-25.390625
9945		-17.578125
9946		-29.296875
9947		-21.484375
9948		-33.203125
9949		-23.437500
9950		-35.156250
9951		-27.343750
9952		-39.062500
9953		-33.203125
9954		-44.921875
9955		-37.109375
9956		-48.828125
9957		-39.062500
9958		-52.734375
9959		-42.968750
9960		-56.640625
9961		-46.875000
9962		-58.593750
9963		-48.828125
9964		-60.546875
9965		-52.734375
9966		-62.500000
9967		-54.687500
9968		-64.453125
9969		-60.546875
9970		-66.406250
9971		-62.500000
9972		-70.312500
9973		-64.453125
9974		-74.218750
9975		-64.453125
9976		-74.218750
9977		-66.406250
9978		-76.171875
9979		-68.359375
9980		-78.125000
9981		-70.312500
9982		-80.078125
9983		-72.265625
9984		-80.078125
9985		-74.218750
9986		-78.125000
9987		-76.171875
9988		-82.031250
9989		-76.171875
9990		-82.031250
9991		-74.218750
9992		-82.031250
9993		-76.171875
9994		-82.031250
9995		-74.218750
9996		-82.031250
9997		-76.171875
9998		-82.031250
9999		-74.218750
10000		-82.031250
