Channel              :		CH1
Frequency            :		1.987kHz
Period               :		0.503ms
PK-PK                :		187.5mV
Probe attenuation    :		1X
Voltage per ADC value:		0.122070mV
Time interval        :		2.00000us

index		CH1_Voltage(mV)
1		80.078125
2		80.078125
3		78.125000
4		82.031250
5		80.078125
6		83.984375
7		82.031250
8		85.937500
9		83.984375
10		87.890625
11		85.937500
12		89.843750
13		85.937500
14		89.843750
15		87.890625
16		91.796875
17		89.843750
18		93.750000
19		89.843750
20		95.703125
21		91.796875
22		93.750000
23		91.796875
24		95.703125
25		91.796875
26		95.703125
27		93.750000
28		95.703125
29		93.750000
30		95.703125
31		91.796875
32		95.703125
33		91.796875
34		95.703125
35		91.796875
36		95.703125
37		91.796875
38		95.703125
39		89.843750
40		93.750000
41		87.890625
42		91.796875
43		85.937500
44		89.843750
45		85.937500
46		89.843750
47		83.984375
48		87.890625
49		82.031250
50		85.937500
51		80.078125
52		83.984375
53		78.125000
54		82.031250
55		76.171875
56		80.078125
57		72.265625
58		78.125000
59		70.312500
60		76.171875
61		66.406250
62		72.265625
63		64.453125
64		68.359375
65		60.546875
66		66.406250
67		56.640625
68		62.500000
69		52.734375
70		58.593750
71		50.781250
72		56.640625
73		46.875000
74		52.734375
75		42.968750
76		48.828125
77		39.062500
78		44.921875
79		35.156250
80		41.015625
81		31.250000
82		37.109375
83		27.343750
84		31.250000
85		21.484375
86		27.343750
87		17.578125
88		23.437500
89		13.671875
90		19.531250
91		9.765625
92		15.625000
93		3.906250
94		9.765625
95		0.000000
96		5.859375
97		-3.906250
98		1.953125
99		-7.812500
100		-1.953125
101		-13.671875
102		-5.859375
103		-17.578125
104		-11.718750
105		-21.484375
106		-15.625000
107		-25.390625
108		-19.531250
109		-29.296875
110		-25.390625
111		-33.203125
112		-29.296875
113		-39.062500
114		-33.203125
115		-41.015625
116		-37.109375
117		-44.921875
118		-39.062500
119		-48.828125
120		-42.968750
121		-52.734375
122		-46.875000
123		-56.640625
124		-50.781250
125		-60.546875
126		-54.687500
127		-62.500000
128		-56.640625
129		-64.453125
130		-58.593750
131		-66.406250
132		-62.500000
133		-70.312500
134		-64.453125
135		-72.265625
136		-68.359375
137		-74.218750
138		-70.312500
139		-74.218750
140		-72.265625
141		-76.171875
142		-74.218750
143		-78.125000
144		-74.218750
145		-80.078125
146		-76.171875
147		-80.078125
148		-78.125000
149		-80.078125
150		-78.125000
151		-82.031250
152		-78.125000
153		-82.031250
154		-78.125000
155		-82.031250
156		-78.125000
157		-80.078125
158		-78.125000
159		-80.078125
160		-78.125000
161		-80.078125
162		-76.171875
163		-78.125000
164		-76.171875
165		-78.125000
166		-74.218750
167		-76.171875
168		-72.265625
169		-76.171875
170		-70.312500
171		-74.218750
172		-68.359375
173		-70.312500
174		-66.406250
175		-68.359375
176		-64.453125
177		-66.406250
178		-60.546875
179		-64.453125
180		-58.593750
181		-60.546875
182		-56.640625
183		-56.640625
184		-52.734375
185		-54.687500
186		-48.828125
187		-50.781250
188		-44.921875
189		-46.875000
190		-42.968750
191		-42.968750
192		-39.062500
193		-41.015625
194		-35.156250
195		-37.109375
196		-31.250000
197		-31.250000
198		-27.343750
199		-27.343750
200		-23.437500
201		-23.437500
202		-17.578125
203		-19.531250
204		-13.671875
205		-15.625000
206		-9.765625
207		-11.718750
208		-5.859375
209		-5.859375
210		0.000000
211		-1.953125
212		3.906250
213		1.953125
214		7.812500
215		5.859375
216		11.718750
217		9.765625
218		17.578125
219		15.625000
220		21.484375
221		19.531250
222		25.390625
223		23.437500
224		29.296875
225		27.343750
226		33.203125
227		31.250000
228		37.109375
229		37.109375
230		41.015625
231		41.015625
232		44.921875
233		44.921875
234		48.828125
235		48.828125
236		52.734375
237		50.781250
238		56.640625
239		54.687500
240		60.546875
241		58.593750
242		62.500000
243		62.500000
244		66.406250
245		64.453125
246		70.312500
247		66.406250
248		72.265625
249		70.312500
250		76.171875
251		72.265625
252		78.125000
253		76.171875
254		80.078125
255		78.125000
256		82.031250
257		80.078125
258		83.984375
259		82.031250
260		87.890625
261		83.984375
262		89.843750
263		85.937500
264		89.843750
265		87.890625
266		91.796875
267		89.843750
268		93.750000
269		89.843750
270		93.750000
271		91.796875
272		93.750000
273		91.796875
274		95.703125
275		93.750000
276		95.703125
277		93.750000
278		97.656250
279		93.750000
280		97.656250
281		93.750000
282		95.703125
283		91.796875
284		95.703125
285		91.796875
286		95.703125
287		91.796875
288		95.703125
289		89.843750
290		93.750000
291		89.843750
292		93.750000
293		89.843750
294		91.796875
295		87.890625
296		91.796875
297		85.937500
298		89.843750
299		83.984375
300		87.890625
301		82.031250
302		85.937500
303		80.078125
304		83.984375
305		78.125000
306		83.984375
307		76.171875
308		80.078125
309		74.218750
310		78.125000
311		70.312500
312		74.218750
313		66.406250
314		72.265625
315		64.453125
316		68.359375
317		60.546875
318		66.406250
319		58.593750
320		62.500000
321		54.687500
322		60.546875
323		50.781250
324		56.640625
325		46.875000
326		52.734375
327		42.968750
328		48.828125
329		39.062500
330		44.921875
331		35.156250
332		41.015625
333		31.250000
334		37.109375
335		25.390625
336		33.203125
337		21.484375
338		29.296875
339		17.578125
340		23.437500
341		13.671875
342		19.531250
343		7.812500
344		15.625000
345		3.906250
346		11.718750
347		0.000000
348		5.859375
349		-3.906250
350		1.953125
351		-7.812500
352		-1.953125
353		-13.671875
354		-7.812500
355		-17.578125
356		-11.718750
357		-21.484375
358		-15.625000
359		-25.390625
360		-19.531250
361		-31.250000
362		-23.437500
363		-33.203125
364		-27.343750
365		-37.109375
366		-31.250000
367		-42.968750
368		-37.109375
369		-46.875000
370		-41.015625
371		-48.828125
372		-42.968750
373		-52.734375
374		-46.875000
375		-54.687500
376		-50.781250
377		-58.593750
378		-54.687500
379		-62.500000
380		-56.640625
381		-66.406250
382		-60.546875
383		-66.406250
384		-62.500000
385		-68.359375
386		-64.453125
387		-72.265625
388		-66.406250
389		-74.218750
390		-70.312500
391		-76.171875
392		-72.265625
393		-76.171875
394		-74.218750
395		-78.125000
396		-74.218750
397		-78.125000
398		-74.218750
399		-80.078125
400		-76.171875
401		-80.078125
402		-78.125000
403		-82.031250
404		-78.125000
405		-80.078125
406		-78.125000
407		-82.031250
408		-78.125000
409		-80.078125
410		-78.125000
411		-80.078125
412		-76.171875
413		-80.078125
414		-76.171875
415		-78.125000
416		-74.218750
417		-78.125000
418		-72.265625
419		-76.171875
420		-72.265625
421		-74.218750
422		-70.312500
423		-72.265625
424		-68.359375
425		-70.312500
426		-66.406250
427		-68.359375
428		-62.500000
429		-66.406250
430		-60.546875
431		-62.500000
432		-58.593750
433		-60.546875
434		-54.687500
435		-56.640625
436		-52.734375
437		-52.734375
438		-48.828125
439		-50.781250
440		-44.921875
441		-46.875000
442		-41.015625
443		-42.968750
444		-37.109375
445		-39.062500
446		-33.203125
447		-37.109375
448		-29.296875
449		-31.250000
450		-25.390625
451		-27.343750
452		-21.484375
453		-23.437500
454		-17.578125
455		-19.531250
456		-13.671875
457		-13.671875
458		-9.765625
459		-9.765625
460		-3.906250
461		-5.859375
462		0.000000
463		-1.953125
464		3.906250
465		1.953125
466		9.765625
467		7.812500
468		11.718750
469		11.718750
470		17.578125
471		15.625000
472		21.484375
473		19.531250
474		25.390625
475		25.390625
476		29.296875
477		29.296875
478		35.156250
479		31.250000
480		39.062500
481		37.109375
482		42.968750
483		41.015625
484		46.875000
485		44.921875
486		50.781250
487		48.828125
488		52.734375
489		52.734375
490		58.593750
491		54.687500
492		60.546875
493		58.593750
494		64.453125
495		62.500000
496		66.406250
497		66.406250
498		70.312500
499		68.359375
500		72.265625
501		72.265625
502		76.171875
503		74.218750
504		78.125000
505		76.171875
506		82.031250
507		80.078125
508		83.984375
509		82.031250
510		85.937500
511		83.984375
512		87.890625
513		85.937500
514		89.843750
515		85.937500
516		89.843750
517		87.890625
518		91.796875
519		89.843750
520		93.750000
521		89.843750
522		93.750000
523		91.796875
524		95.703125
525		91.796875
526		95.703125
527		93.750000
528		95.703125
529		91.796875
530		95.703125
531		93.750000
532		95.703125
533		93.750000
534		97.656250
535		93.750000
536		95.703125
537		93.750000
538		95.703125
539		91.796875
540		95.703125
541		91.796875
542		95.703125
543		89.843750
544		93.750000
545		87.890625
546		93.750000
547		87.890625
548		91.796875
549		85.937500
550		89.843750
551		83.984375
552		87.890625
553		82.031250
554		85.937500
555		80.078125
556		83.984375
557		78.125000
558		82.031250
559		76.171875
560		80.078125
561		74.218750
562		78.125000
563		70.312500
564		76.171875
565		68.359375
566		72.265625
567		64.453125
568		70.312500
569		60.546875
570		66.406250
571		56.640625
572		62.500000
573		54.687500
574		58.593750
575		50.781250
576		56.640625
577		46.875000
578		52.734375
579		42.968750
580		48.828125
581		39.062500
582		44.921875
583		35.156250
584		41.015625
585		29.296875
586		37.109375
587		27.343750
588		33.203125
589		21.484375
590		27.343750
591		17.578125
592		23.437500
593		13.671875
594		19.531250
595		9.765625
596		15.625000
597		5.859375
598		11.718750
599		0.000000
600		5.859375
601		-3.906250
602		1.953125
603		-7.812500
604		-1.953125
605		-13.671875
606		-7.812500
607		-17.578125
608		-11.718750
609		-21.484375
610		-15.625000
611		-25.390625
612		-19.531250
613		-29.296875
614		-23.437500
615		-33.203125
616		-27.343750
617		-37.109375
618		-31.250000
619		-41.015625
620		-35.156250
621		-44.921875
622		-41.015625
623		-48.828125
624		-42.968750
625		-52.734375
626		-46.875000
627		-54.687500
628		-50.781250
629		-60.546875
630		-54.687500
631		-60.546875
632		-56.640625
633		-64.453125
634		-60.546875
635		-66.406250
636		-62.500000
637		-70.312500
638		-64.453125
639		-70.312500
640		-66.406250
641		-74.218750
642		-70.312500
643		-74.218750
644		-72.265625
645		-76.171875
646		-74.218750
647		-78.125000
648		-74.218750
649		-78.125000
650		-74.218750
651		-80.078125
652		-76.171875
653		-80.078125
654		-78.125000
655		-80.078125
656		-78.125000
657		-80.078125
658		-78.125000
659		-82.031250
660		-78.125000
661		-80.078125
662		-78.125000
663		-80.078125
664		-76.171875
665		-80.078125
666		-76.171875
667		-78.125000
668		-74.218750
669		-78.125000
670		-74.218750
671		-76.171875
672		-72.265625
673		-74.218750
674		-70.312500
675		-72.265625
676		-68.359375
677		-70.312500
678		-66.406250
679		-68.359375
680		-64.453125
681		-66.406250
682		-60.546875
683		-62.500000
684		-58.593750
685		-60.546875
686		-54.687500
687		-56.640625
688		-52.734375
689		-52.734375
690		-48.828125
691		-50.781250
692		-44.921875
693		-46.875000
694		-41.015625
695		-42.968750
696		-37.109375
697		-39.062500
698		-33.203125
699		-35.156250
700		-29.296875
701		-31.250000
702		-25.390625
703		-27.343750
704		-21.484375
705		-23.437500
706		-15.625000
707		-19.531250
708		-13.671875
709		-13.671875
710		-7.812500
711		-9.765625
712		-3.906250
713		-5.859375
714		0.000000
715		-1.953125
716		5.859375
717		3.906250
718		7.812500
719		5.859375
720		13.671875
721		11.718750
722		17.578125
723		15.625000
724		21.484375
725		19.531250
726		27.343750
727		25.390625
728		29.296875
729		29.296875
730		35.156250
731		33.203125
732		39.062500
733		37.109375
734		42.968750
735		41.015625
736		46.875000
737		44.921875
738		50.781250
739		48.828125
740		54.687500
741		52.734375
742		58.593750
743		54.687500
744		60.546875
745		58.593750
746		64.453125
747		62.500000
748		68.359375
749		66.406250
750		70.312500
751		68.359375
752		72.265625
753		72.265625
754		76.171875
755		74.218750
756		78.125000
757		76.171875
758		80.078125
759		78.125000
760		83.984375
761		82.031250
762		85.937500
763		83.984375
764		87.890625
765		83.984375
766		89.843750
767		87.890625
768		91.796875
769		87.890625
770		91.796875
771		89.843750
772		93.750000
773		89.843750
774		93.750000
775		91.796875
776		95.703125
777		91.796875
778		95.703125
779		93.750000
780		95.703125
781		93.750000
782		97.656250
783		93.750000
784		97.656250
785		93.750000
786		97.656250
787		93.750000
788		95.703125
789		93.750000
790		95.703125
791		91.796875
792		95.703125
793		91.796875
794		95.703125
795		89.843750
796		93.750000
797		89.843750
798		91.796875
799		87.890625
800		91.796875
801		85.937500
802		89.843750
803		83.984375
804		89.843750
805		82.031250
806		85.937500
807		80.078125
808		83.984375
809		78.125000
810		82.031250
811		76.171875
812		80.078125
813		74.218750
814		78.125000
815		70.312500
816		76.171875
817		66.406250
818		72.265625
819		64.453125
820		68.359375
821		60.546875
822		66.406250
823		56.640625
824		62.500000
825		54.687500
826		58.593750
827		50.781250
828		56.640625
829		46.875000
830		52.734375
831		42.968750
832		48.828125
833		39.062500
834		44.921875
835		35.156250
836		41.015625
837		31.250000
838		37.109375
839		27.343750
840		33.203125
841		21.484375
842		27.343750
843		17.578125
844		23.437500
845		13.671875
846		19.531250
847		9.765625
848		13.671875
849		3.906250
850		11.718750
851		0.000000
852		5.859375
853		-3.906250
854		1.953125
855		-7.812500
856		-1.953125
857		-13.671875
858		-7.812500
859		-17.578125
860		-11.718750
861		-21.484375
862		-13.671875
863		-25.390625
864		-19.531250
865		-29.296875
866		-25.390625
867		-33.203125
868		-27.343750
869		-37.109375
870		-33.203125
871		-41.015625
872		-37.109375
873		-44.921875
874		-41.015625
875		-48.828125
876		-42.968750
877		-52.734375
878		-46.875000
879		-54.687500
880		-50.781250
881		-60.546875
882		-54.687500
883		-62.500000
884		-56.640625
885		-64.453125
886		-60.546875
887		-66.406250
888		-62.500000
889		-68.359375
890		-64.453125
891		-72.265625
892		-66.406250
893		-74.218750
894		-70.312500
895		-74.218750
896		-72.265625
897		-76.171875
898		-72.265625
899		-78.125000
900		-74.218750
901		-78.125000
902		-76.171875
903		-80.078125
904		-76.171875
905		-80.078125
906		-76.171875
907		-80.078125
908		-78.125000
909		-80.078125
910		-78.125000
911		-82.031250
912		-78.125000
913		-80.078125
914		-78.125000
915		-80.078125
916		-76.171875
917		-78.125000
918		-76.171875
919		-78.125000
920		-74.218750
921		-76.171875
922		-72.265625
923		-76.171875
924		-72.265625
925		-74.218750
926		-70.312500
927		-72.265625
928		-68.359375
929		-70.312500
930		-66.406250
931		-66.406250
932		-62.500000
933		-66.406250
934		-60.546875
935		-62.500000
936		-56.640625
937		-58.593750
938		-54.687500
939		-56.640625
940		-50.781250
941		-52.734375
942		-48.828125
943		-50.781250
944		-44.921875
945		-46.875000
946		-41.015625
947		-42.968750
948		-37.109375
949		-39.062500
950		-33.203125
951		-35.156250
952		-29.296875
953		-31.250000
954		-25.390625
955		-27.343750
956		-19.531250
957		-23.437500
958		-17.578125
959		-19.531250
960		-11.718750
961		-13.671875
962		-7.812500
963		-9.765625
964		-3.906250
965		-5.859375
966		1.953125
967		0.000000
968		5.859375
969		3.906250
970		9.765625
971		7.812500
972		13.671875
973		11.718750
974		17.578125
975		15.625000
976		23.437500
977		19.531250
978		27.343750
979		25.390625
980		31.250000
981		29.296875
982		35.156250
983		33.203125
984		41.015625
985		37.109375
986		44.921875
987		41.015625
988		46.875000
989		44.921875
990		50.781250
991		46.875000
992		54.687500
993		50.781250
994		58.593750
995		56.640625
996		60.546875
997		60.546875
998		64.453125
999		62.500000
1000		70.312500
1001		64.453125
1002		70.312500
1003		68.359375
1004		74.218750
1005		72.265625
1006		76.171875
1007		74.218750
1008		80.078125
1009		76.171875
1010		83.984375
1011		78.125000
1012		83.984375
1013		82.031250
1014		85.937500
1015		83.984375
1016		87.890625
1017		83.984375
1018		89.843750
1019		83.984375
1020		91.796875
1021		85.937500
1022		93.750000
1023		87.890625
1024		95.703125
1025		87.890625
1026		95.703125
1027		89.843750
1028		97.656250
1029		93.750000
1030		95.703125
1031		93.750000
1032		95.703125
1033		91.796875
1034		97.656250
1035		91.796875
1036		99.609375
1037		91.796875
1038		99.609375
1039		91.796875
1040		97.656250
1041		91.796875
1042		97.656250
1043		89.843750
1044		97.656250
1045		91.796875
1046		97.656250
1047		89.843750
1048		93.750000
1049		87.890625
1050		91.796875
1051		85.937500
1052		93.750000
1053		83.984375
1054		91.796875
1055		82.031250
1056		89.843750
1057		82.031250
1058		87.890625
1059		78.125000
1060		85.937500
1061		76.171875
1062		83.984375
1063		76.171875
1064		80.078125
1065		74.218750
1066		78.125000
1067		68.359375
1068		76.171875
1069		66.406250
1070		74.218750
1071		62.500000
1072		70.312500
1073		58.593750
1074		68.359375
1075		56.640625
1076		64.453125
1077		52.734375
1078		60.546875
1079		50.781250
1080		58.593750
1081		46.875000
1082		52.734375
1083		42.968750
1084		48.828125
1085		37.109375
1086		46.875000
1087		33.203125
1088		42.968750
1089		29.296875
1090		39.062500
1091		25.390625
1092		35.156250
1093		21.484375
1094		29.296875
1095		17.578125
1096		23.437500
1097		13.671875
1098		19.531250
1099		9.765625
1100		13.671875
1101		1.953125
1102		11.718750
1103		-1.953125
1104		7.812500
1105		-3.906250
1106		3.906250
1107		-11.718750
1108		0.000000
1109		-15.625000
1110		-5.859375
1111		-19.531250
1112		-7.812500
1113		-21.484375
1114		-15.625000
1115		-25.390625
1116		-19.531250
1117		-31.250000
1118		-23.437500
1119		-35.156250
1120		-25.390625
1121		-39.062500
1122		-29.296875
1123		-42.968750
1124		-35.156250
1125		-46.875000
1126		-37.109375
1127		-50.781250
1128		-41.015625
1129		-52.734375
1130		-44.921875
1131		-54.687500
1132		-50.781250
1133		-58.593750
1134		-54.687500
1135		-64.453125
1136		-54.687500
1137		-66.406250
1138		-56.640625
1139		-68.359375
1140		-60.546875
1141		-70.312500
1142		-62.500000
1143		-74.218750
1144		-64.453125
1145		-74.218750
1146		-68.359375
1147		-74.218750
1148		-72.265625
1149		-76.171875
1150		-72.265625
1151		-78.125000
1152		-72.265625
1153		-80.078125
1154		-72.265625
1155		-82.031250
1156		-74.218750
1157		-82.031250
1158		-76.171875
1159		-82.031250
1160		-76.171875
1161		-82.031250
1162		-76.171875
1163		-82.031250
1164		-76.171875
1165		-80.078125
1166		-78.125000
1167		-82.031250
1168		-74.218750
1169		-80.078125
1170		-74.218750
1171		-80.078125
1172		-72.265625
1173		-78.125000
1174		-70.312500
1175		-78.125000
1176		-68.359375
1177		-76.171875
1178		-68.359375
1179		-74.218750
1180		-66.406250
1181		-68.359375
1182		-66.406250
1183		-66.406250
1184		-62.500000
1185		-66.406250
1186		-58.593750
1187		-64.453125
1188		-54.687500
1189		-62.500000
1190		-52.734375
1191		-58.593750
1192		-48.828125
1193		-54.687500
1194		-46.875000
1195		-52.734375
1196		-41.015625
1197		-48.828125
1198		-41.015625
1199		-42.968750
1200		-37.109375
1201		-39.062500
1202		-31.250000
1203		-37.109375
1204		-27.343750
1205		-33.203125
1206		-23.437500
1207		-29.296875
1208		-19.531250
1209		-23.437500
1210		-15.625000
1211		-19.531250
1212		-9.765625
1213		-15.625000
1214		-7.812500
1215		-9.765625
1216		-3.906250
1217		-5.859375
1218		0.000000
1219		-1.953125
1220		7.812500
1221		1.953125
1222		11.718750
1223		5.859375
1224		15.625000
1225		9.765625
1226		19.531250
1227		15.625000
1228		23.437500
1229		19.531250
1230		27.343750
1231		25.390625
1232		31.250000
1233		29.296875
1234		35.156250
1235		33.203125
1236		41.015625
1237		35.156250
1238		44.921875
1239		39.062500
1240		48.828125
1241		44.921875
1242		52.734375
1243		46.875000
1244		56.640625
1245		50.781250
1246		60.546875
1247		54.687500
1248		60.546875
1249		60.546875
1250		64.453125
1251		62.500000
1252		70.312500
1253		64.453125
1254		74.218750
1255		66.406250
1256		76.171875
1257		70.312500
1258		80.078125
1259		72.265625
1260		82.031250
1261		74.218750
1262		83.984375
1263		78.125000
1264		85.937500
1265		82.031250
1266		85.937500
1267		83.984375
1268		87.890625
1269		83.984375
1270		89.843750
1271		85.937500
1272		91.796875
1273		85.937500
1274		93.750000
1275		87.890625
1276		95.703125
1277		89.843750
1278		95.703125
1279		89.843750
1280		97.656250
1281		89.843750
1282		95.703125
1283		93.750000
1284		95.703125
1285		91.796875
1286		99.609375
1287		91.796875
1288		99.609375
1289		91.796875
1290		99.609375
1291		91.796875
1292		99.609375
1293		91.796875
1294		97.656250
1295		89.843750
1296		97.656250
1297		89.843750
1298		97.656250
1299		91.796875
1300		93.750000
1301		89.843750
1302		91.796875
1303		85.937500
1304		93.750000
1305		83.984375
1306		91.796875
1307		83.984375
1308		89.843750
1309		80.078125
1310		87.890625
1311		78.125000
1312		85.937500
1313		76.171875
1314		83.984375
1315		76.171875
1316		80.078125
1317		72.265625
1318		78.125000
1319		68.359375
1320		76.171875
1321		66.406250
1322		74.218750
1323		62.500000
1324		70.312500
1325		58.593750
1326		68.359375
1327		56.640625
1328		64.453125
1329		52.734375
1330		60.546875
1331		50.781250
1332		58.593750
1333		46.875000
1334		52.734375
1335		41.015625
1336		48.828125
1337		37.109375
1338		46.875000
1339		33.203125
1340		42.968750
1341		29.296875
1342		37.109375
1343		23.437500
1344		33.203125
1345		19.531250
1346		29.296875
1347		17.578125
1348		25.390625
1349		13.671875
1350		19.531250
1351		9.765625
1352		15.625000
1353		1.953125
1354		11.718750
1355		-1.953125
1356		7.812500
1357		-5.859375
1358		3.906250
1359		-11.718750
1360		-1.953125
1361		-15.625000
1362		-5.859375
1363		-19.531250
1364		-9.765625
1365		-21.484375
1366		-13.671875
1367		-25.390625
1368		-19.531250
1369		-31.250000
1370		-23.437500
1371		-37.109375
1372		-27.343750
1373		-41.015625
1374		-31.250000
1375		-44.921875
1376		-35.156250
1377		-46.875000
1378		-37.109375
1379		-50.781250
1380		-41.015625
1381		-52.734375
1382		-44.921875
1383		-54.687500
1384		-50.781250
1385		-58.593750
1386		-54.687500
1387		-64.453125
1388		-54.687500
1389		-66.406250
1390		-58.593750
1391		-68.359375
1392		-60.546875
1393		-72.265625
1394		-62.500000
1395		-74.218750
1396		-64.453125
1397		-76.171875
1398		-68.359375
1399		-74.218750
1400		-70.312500
1401		-76.171875
1402		-72.265625
1403		-80.078125
1404		-72.265625
1405		-80.078125
1406		-74.218750
1407		-82.031250
1408		-74.218750
1409		-82.031250
1410		-74.218750
1411		-82.031250
1412		-76.171875
1413		-82.031250
1414		-74.218750
1415		-82.031250
1416		-76.171875
1417		-80.078125
1418		-76.171875
1419		-80.078125
1420		-74.218750
1421		-80.078125
1422		-72.265625
1423		-80.078125
1424		-72.265625
1425		-78.125000
1426		-70.312500
1427		-78.125000
1428		-68.359375
1429		-76.171875
1430		-68.359375
1431		-74.218750
1432		-66.406250
1433		-68.359375
1434		-64.453125
1435		-66.406250
1436		-62.500000
1437		-66.406250
1438		-58.593750
1439		-64.453125
1440		-54.687500
1441		-60.546875
1442		-52.734375
1443		-56.640625
1444		-48.828125
1445		-54.687500
1446		-44.921875
1447		-50.781250
1448		-42.968750
1449		-48.828125
1450		-41.015625
1451		-41.015625
1452		-37.109375
1453		-37.109375
1454		-31.250000
1455		-37.109375
1456		-27.343750
1457		-31.250000
1458		-23.437500
1459		-27.343750
1460		-17.578125
1461		-25.390625
1462		-13.671875
1463		-19.531250
1464		-9.765625
1465		-15.625000
1466		-7.812500
1467		-9.765625
1468		-3.906250
1469		-3.906250
1470		1.953125
1471		-1.953125
1472		7.812500
1473		1.953125
1474		11.718750
1475		5.859375
1476		15.625000
1477		11.718750
1478		19.531250
1479		15.625000
1480		25.390625
1481		19.531250
1482		29.296875
1483		23.437500
1484		31.250000
1485		29.296875
1486		35.156250
1487		33.203125
1488		41.015625
1489		37.109375
1490		46.875000
1491		41.015625
1492		50.781250
1493		42.968750
1494		52.734375
1495		46.875000
1496		56.640625
1497		52.734375
1498		60.546875
1499		54.687500
1500		62.500000
1501		60.546875
1502		64.453125
1503		64.453125
1504		70.312500
1505		64.453125
1506		72.265625
1507		68.359375
1508		76.171875
1509		70.312500
1510		80.078125
1511		74.218750
1512		82.031250
1513		74.218750
1514		83.984375
1515		78.125000
1516		85.937500
1517		82.031250
1518		85.937500
1519		83.984375
1520		87.890625
1521		83.984375
1522		91.796875
1523		83.984375
1524		93.750000
1525		87.890625
1526		95.703125
1527		87.890625
1528		95.703125
1529		89.843750
1530		95.703125
1531		89.843750
1532		97.656250
1533		91.796875
1534		97.656250
1535		93.750000
1536		95.703125
1537		91.796875
1538		97.656250
1539		91.796875
1540		99.609375
1541		91.796875
1542		97.656250
1543		91.796875
1544		97.656250
1545		91.796875
1546		97.656250
1547		89.843750
1548		97.656250
1549		89.843750
1550		95.703125
1551		91.796875
1552		93.750000
1553		89.843750
1554		91.796875
1555		85.937500
1556		93.750000
1557		83.984375
1558		91.796875
1559		82.031250
1560		89.843750
1561		80.078125
1562		87.890625
1563		78.125000
1564		85.937500
1565		76.171875
1566		83.984375
1567		76.171875
1568		82.031250
1569		72.265625
1570		78.125000
1571		68.359375
1572		76.171875
1573		64.453125
1574		74.218750
1575		62.500000
1576		70.312500
1577		58.593750
1578		68.359375
1579		56.640625
1580		64.453125
1581		50.781250
1582		60.546875
1583		50.781250
1584		56.640625
1585		46.875000
1586		50.781250
1587		42.968750
1588		46.875000
1589		37.109375
1590		46.875000
1591		33.203125
1592		42.968750
1593		27.343750
1594		39.062500
1595		23.437500
1596		33.203125
1597		19.531250
1598		29.296875
1599		15.625000
1600		25.390625
1601		13.671875
1602		19.531250
1603		9.765625
1604		13.671875
1605		1.953125
1606		9.765625
1607		-1.953125
1608		7.812500
1609		-5.859375
1610		3.906250
1611		-11.718750
1612		0.000000
1613		-15.625000
1614		-5.859375
1615		-19.531250
1616		-9.765625
1617		-21.484375
1618		-13.671875
1619		-25.390625
1620		-21.484375
1621		-31.250000
1622		-25.390625
1623		-37.109375
1624		-27.343750
1625		-41.015625
1626		-31.250000
1627		-44.921875
1628		-35.156250
1629		-46.875000
1630		-39.062500
1631		-50.781250
1632		-42.968750
1633		-52.734375
1634		-44.921875
1635		-56.640625
1636		-50.781250
1637		-58.593750
1638		-54.687500
1639		-64.453125
1640		-54.687500
1641		-66.406250
1642		-58.593750
1643		-68.359375
1644		-60.546875
1645		-70.312500
1646		-62.500000
1647		-74.218750
1648		-66.406250
1649		-76.171875
1650		-66.406250
1651		-74.218750
1652		-70.312500
1653		-76.171875
1654		-72.265625
1655		-80.078125
1656		-72.265625
1657		-80.078125
1658		-74.218750
1659		-82.031250
1660		-74.218750
1661		-82.031250
1662		-74.218750
1663		-82.031250
1664		-76.171875
1665		-82.031250
1666		-76.171875
1667		-82.031250
1668		-76.171875
1669		-80.078125
1670		-78.125000
1671		-78.125000
1672		-76.171875
1673		-80.078125
1674		-74.218750
1675		-80.078125
1676		-72.265625
1677		-78.125000
1678		-70.312500
1679		-78.125000
1680		-68.359375
1681		-76.171875
1682		-68.359375
1683		-72.265625
1684		-66.406250
1685		-68.359375
1686		-64.453125
1687		-66.406250
1688		-62.500000
1689		-66.406250
1690		-58.593750
1691		-64.453125
1692		-54.687500
1693		-60.546875
1694		-52.734375
1695		-58.593750
1696		-48.828125
1697		-54.687500
1698		-44.921875
1699		-50.781250
1700		-41.015625
1701		-46.875000
1702		-39.062500
1703		-42.968750
1704		-37.109375
1705		-37.109375
1706		-31.250000
1707		-37.109375
1708		-27.343750
1709		-31.250000
1710		-23.437500
1711		-27.343750
1712		-17.578125
1713		-23.437500
1714		-13.671875
1715		-19.531250
1716		-9.765625
1717		-13.671875
1718		-5.859375
1719		-7.812500
1720		-3.906250
1721		-3.906250
1722		1.953125
1723		0.000000
1724		7.812500
1725		1.953125
1726		11.718750
1727		7.812500
1728		15.625000
1729		11.718750
1730		21.484375
1731		15.625000
1732		25.390625
1733		19.531250
1734		29.296875
1735		23.437500
1736		31.250000
1737		29.296875
1738		35.156250
1739		35.156250
1740		41.015625
1741		37.109375
1742		44.921875
1743		41.015625
1744		50.781250
1745		42.968750
1746		52.734375
1747		46.875000
1748		56.640625
1749		50.781250
1750		60.546875
1751		54.687500
1752		62.500000
1753		60.546875
1754		64.453125
1755		64.453125
1756		68.359375
1757		64.453125
1758		72.265625
1759		68.359375
1760		76.171875
1761		72.265625
1762		78.125000
1763		74.218750
1764		80.078125
1765		76.171875
1766		82.031250
1767		78.125000
1768		83.984375
1769		82.031250
1770		85.937500
1771		83.984375
1772		87.890625
1773		83.984375
1774		91.796875
1775		85.937500
1776		93.750000
1777		87.890625
1778		93.750000
1779		87.890625
1780		95.703125
1781		89.843750
1782		95.703125
1783		89.843750
1784		97.656250
1785		91.796875
1786		97.656250
1787		93.750000
1788		95.703125
1789		93.750000
1790		99.609375
1791		91.796875
1792		99.609375
1793		91.796875
1794		99.609375
1795		91.796875
1796		99.609375
1797		89.843750
1798		99.609375
1799		89.843750
1800		97.656250
1801		89.843750
1802		97.656250
1803		89.843750
1804		93.750000
1805		89.843750
1806		91.796875
1807		85.937500
1808		93.750000
1809		83.984375
1810		91.796875
1811		83.984375
1812		89.843750
1813		80.078125
1814		87.890625
1815		78.125000
1816		85.937500
1817		76.171875
1818		83.984375
1819		76.171875
1820		82.031250
1821		72.265625
1822		78.125000
1823		68.359375
1824		74.218750
1825		64.453125
1826		74.218750
1827		62.500000
1828		70.312500
1829		58.593750
1830		68.359375
1831		54.687500
1832		64.453125
1833		50.781250
1834		60.546875
1835		48.828125
1836		56.640625
1837		46.875000
1838		50.781250
1839		42.968750
1840		46.875000
1841		37.109375
1842		44.921875
1843		33.203125
1844		42.968750
1845		27.343750
1846		37.109375
1847		23.437500
1848		33.203125
1849		19.531250
1850		29.296875
1851		15.625000
1852		25.390625
1853		13.671875
1854		19.531250
1855		9.765625
1856		13.671875
1857		1.953125
1858		9.765625
1859		-1.953125
1860		7.812500
1861		-5.859375
1862		1.953125
1863		-9.765625
1864		-1.953125
1865		-13.671875
1866		-5.859375
1867		-21.484375
1868		-9.765625
1869		-21.484375
1870		-13.671875
1871		-25.390625
1872		-21.484375
1873		-31.250000
1874		-25.390625
1875		-37.109375
1876		-27.343750
1877		-41.015625
1878		-31.250000
1879		-44.921875
1880		-35.156250
1881		-46.875000
1882		-39.062500
1883		-50.781250
1884		-42.968750
1885		-54.687500
1886		-44.921875
1887		-56.640625
1888		-50.781250
1889		-58.593750
1890		-54.687500
1891		-64.453125
1892		-56.640625
1893		-66.406250
1894		-58.593750
1895		-68.359375
1896		-60.546875
1897		-70.312500
1898		-62.500000
1899		-74.218750
1900		-66.406250
1901		-76.171875
1902		-68.359375
1903		-76.171875
1904		-70.312500
1905		-76.171875
1906		-72.265625
1907		-80.078125
1908		-72.265625
1909		-80.078125
1910		-74.218750
1911		-82.031250
1912		-74.218750
1913		-82.031250
1914		-76.171875
1915		-82.031250
1916		-76.171875
1917		-82.031250
1918		-76.171875
1919		-82.031250
1920		-76.171875
1921		-80.078125
1922		-76.171875
1923		-78.125000
1924		-76.171875
1925		-80.078125
1926		-74.218750
1927		-80.078125
1928		-72.265625
1929		-78.125000
1930		-70.312500
1931		-76.171875
1932		-68.359375
1933		-76.171875
1934		-68.359375
1935		-72.265625
1936		-64.453125
1937		-68.359375
1938		-64.453125
1939		-66.406250
1940		-62.500000
1941		-64.453125
1942		-58.593750
1943		-64.453125
1944		-54.687500
1945		-60.546875
1946		-52.734375
1947		-56.640625
1948		-48.828125
1949		-54.687500
1950		-44.921875
1951		-52.734375
1952		-42.968750
1953		-48.828125
1954		-39.062500
1955		-41.015625
1956		-35.156250
1957		-39.062500
1958		-31.250000
1959		-37.109375
1960		-27.343750
1961		-31.250000
1962		-21.484375
1963		-27.343750
1964		-17.578125
1965		-23.437500
1966		-13.671875
1967		-19.531250
1968		-9.765625
1969		-13.671875
1970		-5.859375
1971		-7.812500
1972		-1.953125
1973		-3.906250
1974		1.953125
1975		-1.953125
1976		7.812500
1977		3.906250
1978		13.671875
1979		7.812500
1980		15.625000
1981		11.718750
1982		21.484375
1983		15.625000
1984		25.390625
1985		19.531250
1986		29.296875
1987		23.437500
1988		31.250000
1989		29.296875
1990		35.156250
1991		35.156250
1992		41.015625
1993		37.109375
1994		46.875000
1995		39.062500
1996		48.828125
1997		44.921875
1998		54.687500
1999		48.828125
2000		56.640625
2001		52.734375
2002		60.546875
2003		54.687500
2004		62.500000
2005		60.546875
2006		66.406250
2007		64.453125
2008		68.359375
2009		66.406250
2010		74.218750
2011		68.359375
2012		76.171875
2013		70.312500
2014		80.078125
2015		72.265625
2016		80.078125
2017		76.171875
2018		83.984375
2019		76.171875
2020		85.937500
2021		80.078125
2022		85.937500
2023		83.984375
2024		87.890625
2025		83.984375
2026		91.796875
2027		85.937500
2028		93.750000
2029		85.937500
2030		93.750000
2031		87.890625
2032		95.703125
2033		89.843750
2034		95.703125
2035		89.843750
2036		97.656250
2037		89.843750
2038		97.656250
2039		93.750000
2040		95.703125
2041		91.796875
2042		97.656250
2043		91.796875
2044		99.609375
2045		91.796875
2046		99.609375
2047		91.796875
2048		97.656250
2049		91.796875
2050		97.656250
2051		89.843750
2052		97.656250
2053		89.843750
2054		97.656250
2055		89.843750
2056		93.750000
2057		89.843750
2058		91.796875
2059		85.937500
2060		91.796875
2061		83.984375
2062		91.796875
2063		82.031250
2064		89.843750
2065		80.078125
2066		87.890625
2067		78.125000
2068		85.937500
2069		76.171875
2070		83.984375
2071		74.218750
2072		82.031250
2073		72.265625
2074		78.125000
2075		68.359375
2076		74.218750
2077		64.453125
2078		74.218750
2079		62.500000
2080		70.312500
2081		58.593750
2082		66.406250
2083		54.687500
2084		64.453125
2085		50.781250
2086		60.546875
2087		48.828125
2088		56.640625
2089		46.875000
2090		50.781250
2091		39.062500
2092		46.875000
2093		35.156250
2094		44.921875
2095		31.250000
2096		42.968750
2097		27.343750
2098		37.109375
2099		23.437500
2100		33.203125
2101		19.531250
2102		29.296875
2103		15.625000
2104		25.390625
2105		11.718750
2106		19.531250
2107		7.812500
2108		13.671875
2109		1.953125
2110		9.765625
2111		-1.953125
2112		7.812500
2113		-5.859375
2114		1.953125
2115		-11.718750
2116		-1.953125
2117		-15.625000
2118		-5.859375
2119		-21.484375
2120		-9.765625
2121		-21.484375
2122		-13.671875
2123		-27.343750
2124		-21.484375
2125		-33.203125
2126		-25.390625
2127		-37.109375
2128		-27.343750
2129		-41.015625
2130		-31.250000
2131		-44.921875
2132		-35.156250
2133		-46.875000
2134		-39.062500
2135		-50.781250
2136		-42.968750
2137		-54.687500
2138		-46.875000
2139		-56.640625
2140		-50.781250
2141		-58.593750
2142		-54.687500
2143		-64.453125
2144		-56.640625
2145		-68.359375
2146		-58.593750
2147		-68.359375
2148		-60.546875
2149		-72.265625
2150		-62.500000
2151		-76.171875
2152		-66.406250
2153		-76.171875
2154		-68.359375
2155		-76.171875
2156		-68.359375
2157		-76.171875
2158		-74.218750
2159		-80.078125
2160		-74.218750
2161		-82.031250
2162		-74.218750
2163		-82.031250
2164		-74.218750
2165		-82.031250
2166		-74.218750
2167		-82.031250
2168		-76.171875
2169		-82.031250
2170		-76.171875
2171		-82.031250
2172		-76.171875
2173		-80.078125
2174		-76.171875
2175		-80.078125
2176		-76.171875
2177		-80.078125
2178		-72.265625
2179		-80.078125
2180		-72.265625
2181		-78.125000
2182		-70.312500
2183		-76.171875
2184		-70.312500
2185		-74.218750
2186		-68.359375
2187		-74.218750
2188		-66.406250
2189		-70.312500
2190		-64.453125
2191		-66.406250
2192		-62.500000
2193		-64.453125
2194		-58.593750
2195		-64.453125
2196		-54.687500
2197		-60.546875
2198		-52.734375
2199		-58.593750
2200		-48.828125
2201		-54.687500
2202		-44.921875
2203		-50.781250
2204		-42.968750
2205		-46.875000
2206		-39.062500
2207		-41.015625
2208		-37.109375
2209		-37.109375
2210		-31.250000
2211		-35.156250
2212		-25.390625
2213		-31.250000
2214		-23.437500
2215		-27.343750
2216		-17.578125
2217		-23.437500
2218		-13.671875
2219		-19.531250
2220		-9.765625
2221		-15.625000
2222		-5.859375
2223		-9.765625
2224		-1.953125
2225		-3.906250
2226		1.953125
2227		0.000000
2228		7.812500
2229		1.953125
2230		11.718750
2231		7.812500
2232		15.625000
2233		11.718750
2234		21.484375
2235		15.625000
2236		25.390625
2237		19.531250
2238		29.296875
2239		25.390625
2240		31.250000
2241		31.250000
2242		35.156250
2243		35.156250
2244		42.968750
2245		37.109375
2246		44.921875
2247		41.015625
2248		48.828125
2249		44.921875
2250		52.734375
2251		46.875000
2252		56.640625
2253		50.781250
2254		60.546875
2255		54.687500
2256		64.453125
2257		60.546875
2258		64.453125
2259		64.453125
2260		68.359375
2261		64.453125
2262		74.218750
2263		68.359375
2264		76.171875
2265		70.312500
2266		78.125000
2267		74.218750
2268		80.078125
2269		76.171875
2270		83.984375
2271		78.125000
2272		85.937500
2273		80.078125
2274		85.937500
2275		83.984375
2276		87.890625
2277		83.984375
2278		91.796875
2279		85.937500
2280		91.796875
2281		85.937500
2282		93.750000
2283		87.890625
2284		95.703125
2285		89.843750
2286		97.656250
2287		89.843750
2288		97.656250
2289		89.843750
2290		97.656250
2291		93.750000
2292		95.703125
2293		91.796875
2294		97.656250
2295		91.796875
2296		99.609375
2297		91.796875
2298		99.609375
2299		91.796875
2300		97.656250
2301		91.796875
2302		97.656250
2303		89.843750
2304		97.656250
2305		89.843750
2306		97.656250
2307		89.843750
2308		93.750000
2309		89.843750
2310		91.796875
2311		85.937500
2312		93.750000
2313		83.984375
2314		91.796875
2315		82.031250
2316		89.843750
2317		80.078125
2318		87.890625
2319		78.125000
2320		85.937500
2321		76.171875
2322		83.984375
2323		76.171875
2324		82.031250
2325		72.265625
2326		76.171875
2327		68.359375
2328		74.218750
2329		64.453125
2330		74.218750
2331		60.546875
2332		70.312500
2333		56.640625
2334		68.359375
2335		54.687500
2336		64.453125
2337		50.781250
2338		60.546875
2339		48.828125
2340		56.640625
2341		46.875000
2342		50.781250
2343		42.968750
2344		46.875000
2345		37.109375
2346		44.921875
2347		33.203125
2348		41.015625
2349		27.343750
2350		37.109375
2351		23.437500
2352		33.203125
2353		19.531250
2354		29.296875
2355		13.671875
2356		25.390625
2357		13.671875
2358		21.484375
2359		7.812500
2360		13.671875
2361		1.953125
2362		9.765625
2363		-1.953125
2364		7.812500
2365		-7.812500
2366		3.906250
2367		-11.718750
2368		-1.953125
2369		-15.625000
2370		-5.859375
2371		-19.531250
2372		-9.765625
2373		-23.437500
2374		-15.625000
2375		-27.343750
2376		-21.484375
2377		-31.250000
2378		-25.390625
2379		-37.109375
2380		-27.343750
2381		-41.015625
2382		-31.250000
2383		-44.921875
2384		-35.156250
2385		-48.828125
2386		-39.062500
2387		-52.734375
2388		-42.968750
2389		-54.687500
2390		-46.875000
2391		-56.640625
2392		-50.781250
2393		-58.593750
2394		-54.687500
2395		-64.453125
2396		-56.640625
2397		-66.406250
2398		-58.593750
2399		-70.312500
2400		-60.546875
2401		-72.265625
2402		-62.500000
2403		-72.265625
2404		-66.406250
2405		-76.171875
2406		-66.406250
2407		-76.171875
2408		-70.312500
2409		-76.171875
2410		-72.265625
2411		-80.078125
2412		-74.218750
2413		-80.078125
2414		-74.218750
2415		-82.031250
2416		-74.218750
2417		-82.031250
2418		-74.218750
2419		-82.031250
2420		-74.218750
2421		-82.031250
2422		-76.171875
2423		-82.031250
2424		-76.171875
2425		-80.078125
2426		-76.171875
2427		-78.125000
2428		-76.171875
2429		-80.078125
2430		-72.265625
2431		-80.078125
2432		-72.265625
2433		-78.125000
2434		-70.312500
2435		-76.171875
2436		-68.359375
2437		-76.171875
2438		-66.406250
2439		-72.265625
2440		-64.453125
2441		-70.312500
2442		-64.453125
2443		-66.406250
2444		-62.500000
2445		-64.453125
2446		-56.640625
2447		-62.500000
2448		-54.687500
2449		-60.546875
2450		-50.781250
2451		-56.640625
2452		-48.828125
2453		-54.687500
2454		-44.921875
2455		-50.781250
2456		-41.015625
2457		-46.875000
2458		-39.062500
2459		-41.015625
2460		-35.156250
2461		-37.109375
2462		-31.250000
2463		-35.156250
2464		-25.390625
2465		-31.250000
2466		-21.484375
2467		-27.343750
2468		-17.578125
2469		-23.437500
2470		-13.671875
2471		-17.578125
2472		-7.812500
2473		-13.671875
2474		-3.906250
2475		-7.812500
2476		-1.953125
2477		-3.906250
2478		1.953125
2479		0.000000
2480		7.812500
2481		3.906250
2482		13.671875
2483		7.812500
2484		17.578125
2485		11.718750
2486		21.484375
2487		15.625000
2488		25.390625
2489		19.531250
2490		29.296875
2491		23.437500
2492		33.203125
2493		31.250000
2494		37.109375
2495		35.156250
2496		42.968750
2497		37.109375
2498		46.875000
2499		41.015625
2500		50.781250
2501		44.921875
2502		54.687500
2503		48.828125
2504		58.593750
2505		52.734375
2506		60.546875
2507		54.687500
2508		64.453125
2509		60.546875
2510		66.406250
2511		64.453125
2512		68.359375
2513		64.453125
2514		74.218750
2515		68.359375
2516		76.171875
2517		70.312500
2518		80.078125
2519		74.218750
2520		82.031250
2521		76.171875
2522		83.984375
2523		78.125000
2524		85.937500
2525		80.078125
2526		85.937500
2527		83.984375
2528		87.890625
2529		83.984375
2530		91.796875
2531		85.937500
2532		93.750000
2533		87.890625
2534		95.703125
2535		89.843750
2536		95.703125
2537		89.843750
2538		97.656250
2539		89.843750
2540		97.656250
2541		91.796875
2542		97.656250
2543		93.750000
2544		95.703125
2545		93.750000
2546		97.656250
2547		91.796875
2548		99.609375
2549		91.796875
2550		99.609375
2551		91.796875
2552		99.609375
2553		91.796875
2554		97.656250
2555		89.843750
2556		97.656250
2557		89.843750
2558		97.656250
2559		91.796875
2560		93.750000
2561		89.843750
2562		93.750000
2563		85.937500
2564		91.796875
2565		83.984375
2566		91.796875
2567		82.031250
2568		89.843750
2569		80.078125
2570		87.890625
2571		78.125000
2572		85.937500
2573		76.171875
2574		83.984375
2575		74.218750
2576		82.031250
2577		72.265625
2578		78.125000
2579		68.359375
2580		74.218750
2581		64.453125
2582		74.218750
2583		62.500000
2584		70.312500
2585		58.593750
2586		66.406250
2587		54.687500
2588		64.453125
2589		52.734375
2590		60.546875
2591		48.828125
2592		56.640625
2593		46.875000
2594		50.781250
2595		42.968750
2596		46.875000
2597		35.156250
2598		44.921875
2599		31.250000
2600		41.015625
2601		27.343750
2602		37.109375
2603		23.437500
2604		33.203125
2605		19.531250
2606		29.296875
2607		15.625000
2608		25.390625
2609		11.718750
2610		21.484375
2611		7.812500
2612		13.671875
2613		1.953125
2614		9.765625
2615		-1.953125
2616		7.812500
2617		-7.812500
2618		1.953125
2619		-11.718750
2620		-1.953125
2621		-15.625000
2622		-5.859375
2623		-19.531250
2624		-9.765625
2625		-23.437500
2626		-13.671875
2627		-27.343750
2628		-21.484375
2629		-31.250000
2630		-25.390625
2631		-37.109375
2632		-27.343750
2633		-41.015625
2634		-31.250000
2635		-42.968750
2636		-35.156250
2637		-46.875000
2638		-39.062500
2639		-50.781250
2640		-42.968750
2641		-54.687500
2642		-44.921875
2643		-56.640625
2644		-48.828125
2645		-58.593750
2646		-54.687500
2647		-64.453125
2648		-56.640625
2649		-66.406250
2650		-58.593750
2651		-68.359375
2652		-60.546875
2653		-72.265625
2654		-64.453125
2655		-74.218750
2656		-66.406250
2657		-76.171875
2658		-66.406250
2659		-76.171875
2660		-68.359375
2661		-76.171875
2662		-72.265625
2663		-80.078125
2664		-74.218750
2665		-80.078125
2666		-72.265625
2667		-82.031250
2668		-74.218750
2669		-82.031250
2670		-74.218750
2671		-82.031250
2672		-76.171875
2673		-82.031250
2674		-76.171875
2675		-82.031250
2676		-74.218750
2677		-80.078125
2678		-76.171875
2679		-78.125000
2680		-76.171875
2681		-80.078125
2682		-72.265625
2683		-78.125000
2684		-72.265625
2685		-78.125000
2686		-70.312500
2687		-76.171875
2688		-68.359375
2689		-74.218750
2690		-66.406250
2691		-72.265625
2692		-64.453125
2693		-70.312500
2694		-64.453125
2695		-66.406250
2696		-62.500000
2697		-64.453125
2698		-58.593750
2699		-62.500000
2700		-54.687500
2701		-60.546875
2702		-50.781250
2703		-56.640625
2704		-48.828125
2705		-52.734375
2706		-44.921875
2707		-48.828125
2708		-41.015625
2709		-46.875000
2710		-39.062500
2711		-41.015625
2712		-35.156250
2713		-37.109375
2714		-31.250000
2715		-35.156250
2716		-25.390625
2717		-31.250000
2718		-21.484375
2719		-27.343750
2720		-17.578125
2721		-23.437500
2722		-13.671875
2723		-17.578125
2724		-7.812500
2725		-13.671875
2726		-3.906250
2727		-9.765625
2728		-1.953125
2729		-3.906250
2730		1.953125
2731		0.000000
2732		9.765625
2733		1.953125
2734		13.671875
2735		7.812500
2736		17.578125
2737		13.671875
2738		21.484375
2739		17.578125
2740		27.343750
2741		21.484375
2742		31.250000
2743		25.390625
2744		33.203125
2745		31.250000
2746		37.109375
2747		35.156250
2748		42.968750
2749		37.109375
2750		46.875000
2751		41.015625
2752		50.781250
2753		44.921875
2754		54.687500
2755		48.828125
2756		58.593750
2757		52.734375
2758		60.546875
2759		56.640625
2760		64.453125
2761		60.546875
2762		66.406250
2763		64.453125
2764		68.359375
2765		66.406250
2766		74.218750
2767		68.359375
2768		76.171875
2769		72.265625
2770		80.078125
2771		74.218750
2772		82.031250
2773		76.171875
2774		83.984375
2775		78.125000
2776		85.937500
2777		80.078125
2778		87.890625
2779		83.984375
2780		87.890625
2781		85.937500
2782		91.796875
2783		85.937500
2784		93.750000
2785		87.890625
2786		95.703125
2787		87.890625
2788		95.703125
2789		89.843750
2790		97.656250
2791		89.843750
2792		97.656250
2793		91.796875
2794		97.656250
2795		93.750000
2796		95.703125
2797		93.750000
2798		95.703125
2799		91.796875
2800		99.609375
2801		91.796875
2802		99.609375
2803		91.796875
2804		97.656250
2805		91.796875
2806		97.656250
2807		89.843750
2808		97.656250
2809		89.843750
2810		97.656250
2811		89.843750
2812		95.703125
2813		89.843750
2814		91.796875
2815		85.937500
2816		91.796875
2817		83.984375
2818		91.796875
2819		82.031250
2820		89.843750
2821		80.078125
2822		87.890625
2823		78.125000
2824		85.937500
2825		76.171875
2826		83.984375
2827		74.218750
2828		82.031250
2829		72.265625
2830		78.125000
2831		68.359375
2832		74.218750
2833		64.453125
2834		72.265625
2835		60.546875
2836		70.312500
2837		58.593750
2838		68.359375
2839		54.687500
2840		64.453125
2841		52.734375
2842		60.546875
2843		48.828125
2844		56.640625
2845		44.921875
2846		50.781250
2847		41.015625
2848		46.875000
2849		35.156250
2850		42.968750
2851		31.250000
2852		41.015625
2853		27.343750
2854		37.109375
2855		23.437500
2856		33.203125
2857		19.531250
2858		29.296875
2859		13.671875
2860		25.390625
2861		11.718750
2862		19.531250
2863		7.812500
2864		13.671875
2865		1.953125
2866		9.765625
2867		-3.906250
2868		5.859375
2869		-7.812500
2870		1.953125
2871		-11.718750
2872		-1.953125
2873		-15.625000
2874		-5.859375
2875		-21.484375
2876		-11.718750
2877		-23.437500
2878		-15.625000
2879		-27.343750
2880		-21.484375
2881		-31.250000
2882		-25.390625
2883		-37.109375
2884		-29.296875
2885		-41.015625
2886		-31.250000
2887		-44.921875
2888		-35.156250
2889		-48.828125
2890		-39.062500
2891		-52.734375
2892		-42.968750
2893		-54.687500
2894		-46.875000
2895		-56.640625
2896		-48.828125
2897		-58.593750
2898		-54.687500
2899		-64.453125
2900		-56.640625
2901		-66.406250
2902		-58.593750
2903		-70.312500
2904		-60.546875
2905		-72.265625
2906		-62.500000
2907		-74.218750
2908		-66.406250
2909		-76.171875
2910		-68.359375
2911		-76.171875
2912		-70.312500
2913		-76.171875
2914		-74.218750
2915		-78.125000
2916		-74.218750
2917		-80.078125
2918		-74.218750
2919		-82.031250
2920		-74.218750
2921		-82.031250
2922		-74.218750
2923		-82.031250
2924		-76.171875
2925		-82.031250
2926		-76.171875
2927		-82.031250
2928		-76.171875
2929		-80.078125
2930		-76.171875
2931		-78.125000
2932		-76.171875
2933		-80.078125
2934		-72.265625
2935		-80.078125
2936		-72.265625
2937		-78.125000
2938		-70.312500
2939		-76.171875
2940		-68.359375
2941		-74.218750
2942		-66.406250
2943		-72.265625
2944		-64.453125
2945		-70.312500
2946		-64.453125
2947		-66.406250
2948		-62.500000
2949		-64.453125
2950		-56.640625
2951		-62.500000
2952		-54.687500
2953		-58.593750
2954		-50.781250
2955		-56.640625
2956		-48.828125
2957		-52.734375
2958		-44.921875
2959		-50.781250
2960		-41.015625
2961		-46.875000
2962		-37.109375
2963		-41.015625
2964		-35.156250
2965		-37.109375
2966		-31.250000
2967		-35.156250
2968		-25.390625
2969		-31.250000
2970		-21.484375
2971		-27.343750
2972		-17.578125
2973		-21.484375
2974		-11.718750
2975		-17.578125
2976		-7.812500
2977		-13.671875
2978		-3.906250
2979		-9.765625
2980		-1.953125
2981		-3.906250
2982		1.953125
2983		1.953125
2984		9.765625
2985		3.906250
2986		13.671875
2987		7.812500
2988		17.578125
2989		13.671875
2990		21.484375
2991		15.625000
2992		25.390625
2993		21.484375
2994		31.250000
2995		23.437500
2996		33.203125
2997		31.250000
2998		37.109375
2999		35.156250
3000		41.015625
3001		37.109375
3002		46.875000
3003		41.015625
3004		50.781250
3005		44.921875
3006		54.687500
3007		48.828125
3008		58.593750
3009		52.734375
3010		62.500000
3011		54.687500
3012		64.453125
3013		60.546875
3014		66.406250
3015		64.453125
3016		68.359375
3017		66.406250
3018		74.218750
3019		68.359375
3020		76.171875
3021		72.265625
3022		78.125000
3023		74.218750
3024		82.031250
3025		76.171875
3026		83.984375
3027		78.125000
3028		85.937500
3029		80.078125
3030		87.890625
3031		83.984375
3032		87.890625
3033		85.937500
3034		91.796875
3035		85.937500
3036		93.750000
3037		87.890625
3038		95.703125
3039		87.890625
3040		95.703125
3041		89.843750
3042		97.656250
3043		89.843750
3044		97.656250
3045		89.843750
3046		97.656250
3047		93.750000
3048		95.703125
3049		93.750000
3050		95.703125
3051		91.796875
3052		99.609375
3053		91.796875
3054		99.609375
3055		91.796875
3056		99.609375
3057		89.843750
3058		97.656250
3059		89.843750
3060		97.656250
3061		89.843750
3062		97.656250
3063		89.843750
3064		95.703125
3065		89.843750
3066		91.796875
3067		83.984375
3068		91.796875
3069		83.984375
3070		91.796875
3071		82.031250
3072		89.843750
3073		80.078125
3074		87.890625
3075		78.125000
3076		85.937500
3077		76.171875
3078		83.984375
3079		74.218750
3080		82.031250
3081		72.265625
3082		76.171875
3083		68.359375
3084		74.218750
3085		64.453125
3086		74.218750
3087		60.546875
3088		70.312500
3089		58.593750
3090		66.406250
3091		54.687500
3092		62.500000
3093		50.781250
3094		60.546875
3095		46.875000
3096		56.640625
3097		44.921875
3098		50.781250
3099		41.015625
3100		46.875000
3101		35.156250
3102		42.968750
3103		31.250000
3104		41.015625
3105		27.343750
3106		37.109375
3107		21.484375
3108		33.203125
3109		19.531250
3110		27.343750
3111		15.625000
3112		23.437500
3113		11.718750
3114		19.531250
3115		7.812500
3116		13.671875
3117		1.953125
3118		9.765625
3119		-3.906250
3120		5.859375
3121		-7.812500
3122		1.953125
3123		-11.718750
3124		-1.953125
3125		-17.578125
3126		-5.859375
3127		-21.484375
3128		-11.718750
3129		-23.437500
3130		-15.625000
3131		-27.343750
3132		-21.484375
3133		-31.250000
3134		-25.390625
3135		-37.109375
3136		-29.296875
3137		-41.015625
3138		-31.250000
3139		-44.921875
3140		-35.156250
3141		-48.828125
3142		-39.062500
3143		-52.734375
3144		-42.968750
3145		-56.640625
3146		-46.875000
3147		-56.640625
3148		-50.781250
3149		-60.546875
3150		-54.687500
3151		-64.453125
3152		-58.593750
3153		-68.359375
3154		-58.593750
3155		-70.312500
3156		-62.500000
3157		-72.265625
3158		-64.453125
3159		-74.218750
3160		-66.406250
3161		-76.171875
3162		-68.359375
3163		-78.125000
3164		-70.312500
3165		-76.171875
3166		-74.218750
3167		-80.078125
3168		-74.218750
3169		-80.078125
3170		-74.218750
3171		-82.031250
3172		-74.218750
3173		-82.031250
3174		-74.218750
3175		-82.031250
3176		-76.171875
3177		-83.984375
3178		-76.171875
3179		-82.031250
3180		-76.171875
3181		-80.078125
3182		-78.125000
3183		-80.078125
3184		-76.171875
3185		-80.078125
3186		-74.218750
3187		-80.078125
3188		-72.265625
3189		-78.125000
3190		-70.312500
3191		-78.125000
3192		-68.359375
3193		-76.171875
3194		-66.406250
3195		-74.218750
3196		-66.406250
3197		-70.312500
3198		-64.453125
3199		-66.406250
3200		-62.500000
3201		-64.453125
3202		-58.593750
3203		-64.453125
3204		-54.687500
3205		-60.546875
3206		-50.781250
3207		-56.640625
3208		-48.828125
3209		-54.687500
3210		-44.921875
3211		-50.781250
3212		-41.015625
3213		-46.875000
3214		-37.109375
3215		-41.015625
3216		-35.156250
3217		-37.109375
3218		-31.250000
3219		-35.156250
3220		-25.390625
3221		-31.250000
3222		-21.484375
3223		-27.343750
3224		-17.578125
3225		-23.437500
3226		-11.718750
3227		-19.531250
3228		-9.765625
3229		-13.671875
3230		-3.906250
3231		-9.765625
3232		-1.953125
3233		-3.906250
3234		1.953125
3235		0.000000
3236		7.812500
3237		1.953125
3238		11.718750
3239		7.812500
3240		17.578125
3241		11.718750
3242		21.484375
3243		17.578125
3244		25.390625
3245		21.484375
3246		31.250000
3247		23.437500
3248		33.203125
3249		31.250000
3250		37.109375
3251		35.156250
3252		41.015625
3253		37.109375
3254		46.875000
3255		41.015625
3256		50.781250
3257		42.968750
3258		54.687500
3259		48.828125
3260		58.593750
3261		52.734375
3262		60.546875
3263		54.687500
3264		64.453125
3265		58.593750
3266		66.406250
3267		64.453125
3268		68.359375
3269		66.406250
3270		74.218750
3271		68.359375
3272		76.171875
3273		72.265625
3274		78.125000
3275		72.265625
3276		82.031250
3277		74.218750
3278		83.984375
3279		78.125000
3280		85.937500
3281		80.078125
3282		87.890625
3283		83.984375
3284		87.890625
3285		85.937500
3286		89.843750
3287		83.984375
3288		93.750000
3289		85.937500
3290		93.750000
3291		87.890625
3292		95.703125
3293		89.843750
3294		95.703125
3295		89.843750
3296		97.656250
3297		89.843750
3298		97.656250
3299		93.750000
3300		95.703125
3301		93.750000
3302		95.703125
3303		91.796875
3304		97.656250
3305		91.796875
3306		97.656250
3307		91.796875
3308		97.656250
3309		89.843750
3310		97.656250
3311		89.843750
3312		97.656250
3313		87.890625
3314		95.703125
3315		87.890625
3316		95.703125
3317		87.890625
3318		91.796875
3319		85.937500
3320		91.796875
3321		83.984375
3322		91.796875
3323		82.031250
3324		87.890625
3325		78.125000
3326		87.890625
3327		78.125000
3328		85.937500
3329		74.218750
3330		83.984375
3331		74.218750
3332		80.078125
3333		72.265625
3334		76.171875
3335		68.359375
3336		72.265625
3337		62.500000
3338		72.265625
3339		60.546875
3340		68.359375
3341		56.640625
3342		66.406250
3343		52.734375
3344		62.500000
3345		50.781250
3346		58.593750
3347		46.875000
3348		54.687500
3349		44.921875
3350		50.781250
3351		41.015625
3352		44.921875
3353		35.156250
3354		42.968750
3355		29.296875
3356		41.015625
3357		25.390625
3358		37.109375
3359		21.484375
3360		31.250000
3361		17.578125
3362		27.343750
3363		13.671875
3364		23.437500
3365		9.765625
3366		19.531250
3367		5.859375
3368		11.718750
3369		0.000000
3370		7.812500
3371		-3.906250
3372		5.859375
3373		-7.812500
3374		0.000000
3375		-13.671875
3376		-3.906250
3377		-17.578125
3378		-7.812500
3379		-21.484375
3380		-11.718750
3381		-25.390625
3382		-15.625000
3383		-27.343750
3384		-23.437500
3385		-33.203125
3386		-27.343750
3387		-39.062500
3388		-31.250000
3389		-42.968750
3390		-33.203125
3391		-46.875000
3392		-37.109375
3393		-50.781250
3394		-41.015625
3395		-52.734375
3396		-42.968750
3397		-56.640625
3398		-46.875000
3399		-58.593750
3400		-50.781250
3401		-60.546875
3402		-56.640625
3403		-66.406250
3404		-58.593750
3405		-68.359375
3406		-60.546875
3407		-70.312500
3408		-62.500000
3409		-74.218750
3410		-64.453125
3411		-74.218750
3412		-66.406250
3413		-76.171875
3414		-70.312500
3415		-78.125000
3416		-70.312500
3417		-78.125000
3418		-74.218750
3419		-78.125000
3420		-76.171875
3421		-82.031250
3422		-76.171875
3423		-83.984375
3424		-76.171875
3425		-83.984375
3426		-76.171875
3427		-83.984375
3428		-76.171875
3429		-83.984375
3430		-76.171875
3431		-83.984375
3432		-78.125000
3433		-82.031250
3434		-78.125000
3435		-80.078125
3436		-78.125000
3437		-80.078125
3438		-76.171875
3439		-80.078125
3440		-74.218750
3441		-78.125000
3442		-72.265625
3443		-78.125000
3444		-70.312500
3445		-74.218750
3446		-68.359375
3447		-74.218750
3448		-66.406250
3449		-72.265625
3450		-66.406250
3451		-68.359375
3452		-62.500000
3453		-64.453125
3454		-58.593750
3455		-64.453125
3456		-56.640625
3457		-60.546875
3458		-52.734375
3459		-58.593750
3460		-48.828125
3461		-56.640625
3462		-46.875000
3463		-50.781250
3464		-42.968750
3465		-46.875000
3466		-39.062500
3467		-42.968750
3468		-37.109375
3469		-39.062500
3470		-33.203125
3471		-35.156250
3472		-27.343750
3473		-31.250000
3474		-23.437500
3475		-29.296875
3476		-19.531250
3477		-23.437500
3478		-15.625000
3479		-19.531250
3480		-9.765625
3481		-15.625000
3482		-5.859375
3483		-11.718750
3484		-3.906250
3485		-3.906250
3486		1.953125
3487		0.000000
3488		7.812500
3489		1.953125
3490		11.718750
3491		5.859375
3492		15.625000
3493		11.718750
3494		21.484375
3495		15.625000
3496		25.390625
3497		19.531250
3498		29.296875
3499		23.437500
3500		33.203125
3501		29.296875
3502		35.156250
3503		33.203125
3504		39.062500
3505		37.109375
3506		44.921875
3507		41.015625
3508		48.828125
3509		44.921875
3510		52.734375
3511		46.875000
3512		56.640625
3513		50.781250
3514		60.546875
3515		54.687500
3516		64.453125
3517		58.593750
3518		64.453125
3519		64.453125
3520		68.359375
3521		66.406250
3522		72.265625
3523		66.406250
3524		76.171875
3525		70.312500
3526		78.125000
3527		72.265625
3528		80.078125
3529		74.218750
3530		83.984375
3531		78.125000
3532		85.937500
3533		78.125000
3534		85.937500
3535		83.984375
3536		87.890625
3537		85.937500
3538		89.843750
3539		83.984375
3540		91.796875
3541		85.937500
3542		93.750000
3543		87.890625
3544		93.750000
3545		89.843750
3546		95.703125
3547		89.843750
3548		95.703125
3549		89.843750
3550		97.656250
3551		93.750000
3552		95.703125
3553		93.750000
3554		95.703125
3555		89.843750
3556		97.656250
3557		89.843750
3558		97.656250
3559		89.843750
3560		97.656250
3561		89.843750
3562		95.703125
3563		87.890625
3564		95.703125
3565		87.890625
3566		95.703125
3567		87.890625
3568		93.750000
3569		87.890625
3570		91.796875
3571		83.984375
3572		89.843750
3573		82.031250
3574		89.843750
3575		80.078125
3576		87.890625
3577		78.125000
3578		85.937500
3579		76.171875
3580		83.984375
3581		74.218750
3582		82.031250
3583		72.265625
3584		80.078125
3585		70.312500
3586		74.218750
3587		68.359375
3588		72.265625
3589		62.500000
3590		70.312500
3591		58.593750
3592		68.359375
3593		54.687500
3594		64.453125
3595		52.734375
3596		62.500000
3597		48.828125
3598		58.593750
3599		44.921875
3600		54.687500
3601		42.968750
3602		50.781250
3603		39.062500
3604		44.921875
3605		33.203125
3606		41.015625
3607		29.296875
3608		39.062500
3609		25.390625
3610		35.156250
3611		21.484375
3612		31.250000
3613		15.625000
3614		25.390625
3615		11.718750
3616		21.484375
3617		9.765625
3618		17.578125
3619		5.859375
3620		11.718750
3621		0.000000
3622		5.859375
3623		-5.859375
3624		3.906250
3625		-9.765625
3626		0.000000
3627		-15.625000
3628		-3.906250
3629		-19.531250
3630		-9.765625
3631		-23.437500
3632		-13.671875
3633		-27.343750
3634		-17.578125
3635		-29.296875
3636		-23.437500
3637		-33.203125
3638		-27.343750
3639		-39.062500
3640		-31.250000
3641		-42.968750
3642		-33.203125
3643		-46.875000
3644		-39.062500
3645		-50.781250
3646		-41.015625
3647		-54.687500
3648		-44.921875
3649		-58.593750
3650		-48.828125
3651		-58.593750
3652		-52.734375
3653		-62.500000
3654		-56.640625
3655		-66.406250
3656		-60.546875
3657		-70.312500
3658		-60.546875
3659		-72.265625
3660		-64.453125
3661		-74.218750
3662		-66.406250
3663		-76.171875
3664		-68.359375
3665		-78.125000
3666		-70.312500
3667		-80.078125
3668		-72.265625
3669		-78.125000
3670		-76.171875
3671		-80.078125
3672		-78.125000
3673		-83.984375
3674		-76.171875
3675		-83.984375
3676		-76.171875
3677		-83.984375
3678		-76.171875
3679		-85.937500
3680		-78.125000
3681		-83.984375
3682		-76.171875
3683		-83.984375
3684		-76.171875
3685		-83.984375
3686		-78.125000
3687		-80.078125
3688		-78.125000
3689		-82.031250
3690		-74.218750
3691		-82.031250
3692		-74.218750
3693		-80.078125
3694		-72.265625
3695		-78.125000
3696		-70.312500
3697		-76.171875
3698		-68.359375
3699		-74.218750
3700		-66.406250
3701		-72.265625
3702		-64.453125
3703		-68.359375
3704		-64.453125
3705		-64.453125
3706		-60.546875
3707		-64.453125
3708		-56.640625
3709		-62.500000
3710		-52.734375
3711		-58.593750
3712		-48.828125
3713		-54.687500
3714		-44.921875
3715		-52.734375
3716		-42.968750
3717		-46.875000
3718		-37.109375
3719		-42.968750
3720		-37.109375
3721		-39.062500
3722		-33.203125
3723		-35.156250
3724		-27.343750
3725		-33.203125
3726		-21.484375
3727		-29.296875
3728		-17.578125
3729		-23.437500
3730		-13.671875
3731		-19.531250
3732		-9.765625
3733		-15.625000
3734		-5.859375
3735		-9.765625
3736		-3.906250
3737		-3.906250
3738		1.953125
3739		0.000000
3740		5.859375
3741		1.953125
3742		11.718750
3743		5.859375
3744		15.625000
3745		9.765625
3746		21.484375
3747		15.625000
3748		25.390625
3749		19.531250
3750		29.296875
3751		23.437500
3752		33.203125
3753		29.296875
3754		35.156250
3755		35.156250
3756		39.062500
3757		37.109375
3758		44.921875
3759		39.062500
3760		50.781250
3761		44.921875
3762		52.734375
3763		48.828125
3764		56.640625
3765		50.781250
3766		60.546875
3767		54.687500
3768		64.453125
3769		58.593750
3770		64.453125
3771		62.500000
3772		68.359375
3773		66.406250
3774		72.265625
3775		66.406250
3776		76.171875
3777		70.312500
3778		78.125000
3779		72.265625
3780		80.078125
3781		74.218750
3782		83.984375
3783		78.125000
3784		85.937500
3785		80.078125
3786		85.937500
3787		83.984375
3788		85.937500
3789		83.984375
3790		87.890625
3791		83.984375
3792		91.796875
3793		85.937500
3794		93.750000
3795		87.890625
3796		93.750000
3797		87.890625
3798		95.703125
3799		89.843750
3800		95.703125
3801		89.843750
3802		97.656250
3803		91.796875
3804		95.703125
3805		91.796875
3806		95.703125
3807		89.843750
3808		97.656250
3809		89.843750
3810		97.656250
3811		89.843750
3812		97.656250
3813		89.843750
3814		95.703125
3815		87.890625
3816		95.703125
3817		87.890625
3818		95.703125
3819		87.890625
3820		93.750000
3821		87.890625
3822		89.843750
3823		85.937500
3824		89.843750
3825		82.031250
3826		89.843750
3827		80.078125
3828		87.890625
3829		78.125000
3830		85.937500
3831		76.171875
3832		83.984375
3833		74.218750
3834		82.031250
3835		72.265625
3836		80.078125
3837		70.312500
3838		74.218750
3839		66.406250
3840		72.265625
3841		62.500000
3842		70.312500
3843		58.593750
3844		68.359375
3845		56.640625
3846		64.453125
3847		50.781250
3848		60.546875
3849		48.828125
3850		58.593750
3851		44.921875
3852		54.687500
3853		42.968750
3854		50.781250
3855		39.062500
3856		44.921875
3857		33.203125
3858		41.015625
3859		29.296875
3860		39.062500
3861		25.390625
3862		35.156250
3863		21.484375
3864		31.250000
3865		17.578125
3866		25.390625
3867		11.718750
3868		21.484375
3869		9.765625
3870		17.578125
3871		3.906250
3872		9.765625
3873		0.000000
3874		5.859375
3875		-5.859375
3876		3.906250
3877		-9.765625
3878		0.000000
3879		-15.625000
3880		-5.859375
3881		-19.531250
3882		-9.765625
3883		-25.390625
3884		-13.671875
3885		-29.296875
3886		-19.531250
3887		-29.296875
3888		-23.437500
3889		-33.203125
3890		-29.296875
3891		-41.015625
3892		-33.203125
3893		-42.968750
3894		-35.156250
3895		-46.875000
3896		-39.062500
3897		-50.781250
3898		-41.015625
3899		-54.687500
3900		-46.875000
3901		-58.593750
3902		-50.781250
3903		-60.546875
3904		-52.734375
3905		-62.500000
3906		-58.593750
3907		-66.406250
3908		-60.546875
3909		-70.312500
3910		-60.546875
3911		-72.265625
3912		-64.453125
3913		-76.171875
3914		-66.406250
3915		-76.171875
3916		-68.359375
3917		-78.125000
3918		-70.312500
3919		-80.078125
3920		-72.265625
3921		-78.125000
3922		-76.171875
3923		-80.078125
3924		-78.125000
3925		-83.984375
3926		-76.171875
3927		-83.984375
3928		-78.125000
3929		-85.937500
3930		-78.125000
3931		-85.937500
3932		-78.125000
3933		-85.937500
3934		-78.125000
3935		-83.984375
3936		-78.125000
3937		-83.984375
3938		-78.125000
3939		-82.031250
3940		-78.125000
3941		-82.031250
3942		-76.171875
3943		-82.031250
3944		-74.218750
3945		-80.078125
3946		-74.218750
3947		-78.125000
3948		-70.312500
3949		-76.171875
3950		-68.359375
3951		-76.171875
3952		-68.359375
3953		-72.265625
3954		-64.453125
3955		-68.359375
3956		-64.453125
3957		-66.406250
3958		-60.546875
3959		-64.453125
3960		-56.640625
3961		-62.500000
3962		-54.687500
3963		-58.593750
3964		-50.781250
3965		-54.687500
3966		-46.875000
3967		-50.781250
3968		-42.968750
3969		-48.828125
3970		-39.062500
3971		-44.921875
3972		-37.109375
3973		-39.062500
3974		-33.203125
3975		-35.156250
3976		-27.343750
3977		-33.203125
3978		-23.437500
3979		-27.343750
3980		-19.531250
3981		-25.390625
3982		-15.625000
3983		-21.484375
3984		-11.718750
3985		-15.625000
3986		-5.859375
3987		-11.718750
3988		-3.906250
3989		-5.859375
3990		0.000000
3991		0.000000
3992		5.859375
3993		1.953125
3994		11.718750
3995		5.859375
3996		15.625000
3997		11.718750
3998		19.531250
3999		15.625000
4000		23.437500
4001		19.531250
4002		29.296875
4003		23.437500
4004		31.250000
4005		29.296875
4006		35.156250
4007		33.203125
4008		39.062500
4009		37.109375
4010		44.921875
4011		39.062500
4012		48.828125
4013		42.968750
4014		52.734375
4015		46.875000
4016		56.640625
4017		50.781250
4018		58.593750
4019		56.640625
4020		62.500000
4021		58.593750
4022		64.453125
4023		62.500000
4024		68.359375
4025		66.406250
4026		72.265625
4027		68.359375
4028		76.171875
4029		70.312500
4030		78.125000
4031		72.265625
4032		80.078125
4033		74.218750
4034		82.031250
4035		76.171875
4036		83.984375
4037		78.125000
4038		85.937500
4039		83.984375
4040		85.937500
4041		83.984375
4042		87.890625
4043		83.984375
4044		91.796875
4045		85.937500
4046		91.796875
4047		85.937500
4048		93.750000
4049		89.843750
4050		93.750000
4051		89.843750
4052		93.750000
4053		91.796875
4054		93.750000
4055		91.796875
4056		95.703125
4057		91.796875
4058		95.703125
4059		91.796875
4060		95.703125
4061		89.843750
4062		97.656250
4063		89.843750
4064		95.703125
4065		89.843750
4066		93.750000
4067		87.890625
4068		95.703125
4069		87.890625
4070		91.796875
4071		87.890625
4072		91.796875
4073		87.890625
4074		89.843750
4075		83.984375
4076		87.890625
4077		83.984375
4078		87.890625
4079		82.031250
4080		85.937500
4081		80.078125
4082		83.984375
4083		78.125000
4084		82.031250
4085		74.218750
4086		80.078125
4087		72.265625
4088		76.171875
4089		70.312500
4090		74.218750
4091		66.406250
4092		70.312500
4093		64.453125
4094		68.359375
4095		60.546875
4096		66.406250
4097		56.640625
4098		62.500000
4099		52.734375
4100		58.593750
4101		48.828125
4102		54.687500
4103		46.875000
4104		50.781250
4105		42.968750
4106		48.828125
4107		39.062500
4108		44.921875
4109		33.203125
4110		41.015625
4111		29.296875
4112		37.109375
4113		25.390625
4114		31.250000
4115		21.484375
4116		27.343750
4117		17.578125
4118		23.437500
4119		11.718750
4120		19.531250
4121		7.812500
4122		15.625000
4123		3.906250
4124		9.765625
4125		0.000000
4126		5.859375
4127		-3.906250
4128		1.953125
4129		-9.765625
4130		-3.906250
4131		-13.671875
4132		-7.812500
4133		-17.578125
4134		-11.718750
4135		-21.484375
4136		-17.578125
4137		-27.343750
4138		-21.484375
4139		-31.250000
4140		-25.390625
4141		-35.156250
4142		-29.296875
4143		-39.062500
4144		-33.203125
4145		-42.968750
4146		-37.109375
4147		-46.875000
4148		-41.015625
4149		-50.781250
4150		-44.921875
4151		-54.687500
4152		-48.828125
4153		-56.640625
4154		-50.781250
4155		-60.546875
4156		-54.687500
4157		-62.500000
4158		-58.593750
4159		-66.406250
4160		-60.546875
4161		-68.359375
4162		-64.453125
4163		-70.312500
4164		-66.406250
4165		-74.218750
4166		-68.359375
4167		-74.218750
4168		-70.312500
4169		-76.171875
4170		-72.265625
4171		-80.078125
4172		-74.218750
4173		-80.078125
4174		-76.171875
4175		-80.078125
4176		-78.125000
4177		-82.031250
4178		-78.125000
4179		-82.031250
4180		-80.078125
4181		-83.984375
4182		-80.078125
4183		-83.984375
4184		-80.078125
4185		-83.984375
4186		-80.078125
4187		-83.984375
4188		-80.078125
4189		-83.984375
4190		-80.078125
4191		-82.031250
4192		-80.078125
4193		-82.031250
4194		-78.125000
4195		-80.078125
4196		-76.171875
4197		-80.078125
4198		-74.218750
4199		-78.125000
4200		-74.218750
4201		-76.171875
4202		-70.312500
4203		-72.265625
4204		-70.312500
4205		-72.265625
4206		-66.406250
4207		-68.359375
4208		-64.453125
4209		-66.406250
4210		-62.500000
4211		-64.453125
4212		-58.593750
4213		-60.546875
4214		-56.640625
4215		-56.640625
4216		-52.734375
4217		-54.687500
4218		-48.828125
4219		-50.781250
4220		-44.921875
4221		-46.875000
4222		-41.015625
4223		-42.968750
4224		-37.109375
4225		-39.062500
4226		-33.203125
4227		-35.156250
4228		-29.296875
4229		-31.250000
4230		-25.390625
4231		-27.343750
4232		-21.484375
4233		-23.437500
4234		-15.625000
4235		-17.578125
4236		-11.718750
4237		-13.671875
4238		-7.812500
4239		-9.765625
4240		-3.906250
4241		-5.859375
4242		0.000000
4243		-1.953125
4244		5.859375
4245		1.953125
4246		9.765625
4247		7.812500
4248		13.671875
4249		11.718750
4250		17.578125
4251		17.578125
4252		23.437500
4253		21.484375
4254		27.343750
4255		25.390625
4256		31.250000
4257		29.296875
4258		35.156250
4259		33.203125
4260		39.062500
4261		37.109375
4262		42.968750
4263		41.015625
4264		46.875000
4265		44.921875
4266		50.781250
4267		48.828125
4268		54.687500
4269		52.734375
4270		58.593750
4271		56.640625
4272		60.546875
4273		58.593750
4274		64.453125
4275		62.500000
4276		66.406250
4277		66.406250
4278		70.312500
4279		68.359375
4280		72.265625
4281		72.265625
4282		76.171875
4283		74.218750
4284		78.125000
4285		76.171875
4286		80.078125
4287		78.125000
4288		82.031250
4289		80.078125
4290		85.937500
4291		82.031250
4292		85.937500
4293		83.984375
4294		87.890625
4295		83.984375
4296		89.843750
4297		87.890625
4298		91.796875
4299		87.890625
4300		91.796875
4301		89.843750
4302		93.750000
4303		89.843750
4304		93.750000
4305		89.843750
4306		93.750000
4307		89.843750
4308		93.750000
4309		91.796875
4310		93.750000
4311		91.796875
4312		95.703125
4313		91.796875
4314		95.703125
4315		89.843750
4316		93.750000
4317		89.843750
4318		93.750000
4319		89.843750
4320		93.750000
4321		87.890625
4322		91.796875
4323		87.890625
4324		91.796875
4325		85.937500
4326		89.843750
4327		83.984375
4328		87.890625
4329		83.984375
4330		87.890625
4331		82.031250
4332		85.937500
4333		78.125000
4334		82.031250
4335		76.171875
4336		80.078125
4337		74.218750
4338		78.125000
4339		72.265625
4340		76.171875
4341		68.359375
4342		74.218750
4343		66.406250
4344		70.312500
4345		62.500000
4346		68.359375
4347		58.593750
4348		64.453125
4349		56.640625
4350		60.546875
4351		52.734375
4352		58.593750
4353		48.828125
4354		54.687500
4355		44.921875
4356		50.781250
4357		41.015625
4358		46.875000
4359		37.109375
4360		42.968750
4361		33.203125
4362		39.062500
4363		29.296875
4364		35.156250
4365		25.390625
4366		31.250000
4367		21.484375
4368		27.343750
4369		17.578125
4370		21.484375
4371		11.718750
4372		19.531250
4373		7.812500
4374		13.671875
4375		3.906250
4376		9.765625
4377		0.000000
4378		3.906250
4379		-5.859375
4380		0.000000
4381		-9.765625
4382		-3.906250
4383		-13.671875
4384		-7.812500
4385		-17.578125
4386		-13.671875
4387		-23.437500
4388		-17.578125
4389		-27.343750
4390		-21.484375
4391		-31.250000
4392		-25.390625
4393		-35.156250
4394		-29.296875
4395		-39.062500
4396		-33.203125
4397		-42.968750
4398		-37.109375
4399		-46.875000
4400		-41.015625
4401		-50.781250
4402		-44.921875
4403		-54.687500
4404		-48.828125
4405		-58.593750
4406		-52.734375
4407		-60.546875
4408		-54.687500
4409		-64.453125
4410		-58.593750
4411		-66.406250
4412		-62.500000
4413		-68.359375
4414		-64.453125
4415		-72.265625
4416		-66.406250
4417		-74.218750
4418		-70.312500
4419		-76.171875
4420		-72.265625
4421		-78.125000
4422		-74.218750
4423		-80.078125
4424		-76.171875
4425		-80.078125
4426		-76.171875
4427		-82.031250
4428		-78.125000
4429		-83.984375
4430		-78.125000
4431		-83.984375
4432		-80.078125
4433		-83.984375
4434		-80.078125
4435		-83.984375
4436		-82.031250
4437		-83.984375
4438		-82.031250
4439		-83.984375
4440		-80.078125
4441		-83.984375
4442		-80.078125
4443		-82.031250
4444		-80.078125
4445		-82.031250
4446		-78.125000
4447		-80.078125
4448		-78.125000
4449		-80.078125
4450		-76.171875
4451		-78.125000
4452		-72.265625
4453		-76.171875
4454		-72.265625
4455		-74.218750
4456		-70.312500
4457		-72.265625
4458		-66.406250
4459		-68.359375
4460		-64.453125
4461		-66.406250
4462		-62.500000
4463		-64.453125
4464		-58.593750
4465		-60.546875
4466		-56.640625
4467		-58.593750
4468		-52.734375
4469		-54.687500
4470		-48.828125
4471		-50.781250
4472		-44.921875
4473		-46.875000
4474		-42.968750
4475		-44.921875
4476		-39.062500
4477		-39.062500
4478		-35.156250
4479		-35.156250
4480		-29.296875
4481		-31.250000
4482		-25.390625
4483		-27.343750
4484		-21.484375
4485		-23.437500
4486		-17.578125
4487		-19.531250
4488		-13.671875
4489		-15.625000
4490		-7.812500
4491		-11.718750
4492		-3.906250
4493		-5.859375
4494		0.000000
4495		-1.953125
4496		3.906250
4497		1.953125
4498		9.765625
4499		7.812500
4500		13.671875
4501		11.718750
4502		17.578125
4503		15.625000
4504		21.484375
4505		21.484375
4506		25.390625
4507		25.390625
4508		31.250000
4509		27.343750
4510		35.156250
4511		33.203125
4512		39.062500
4513		37.109375
4514		42.968750
4515		41.015625
4516		46.875000
4517		44.921875
4518		50.781250
4519		48.828125
4520		54.687500
4521		52.734375
4522		56.640625
4523		54.687500
4524		60.546875
4525		58.593750
4526		64.453125
4527		62.500000
4528		66.406250
4529		66.406250
4530		70.312500
4531		68.359375
4532		74.218750
4533		70.312500
4534		76.171875
4535		72.265625
4536		78.125000
4537		76.171875
4538		80.078125
4539		78.125000
4540		82.031250
4541		80.078125
4542		83.984375
4543		82.031250
4544		85.937500
4545		83.984375
4546		87.890625
4547		85.937500
4548		87.890625
4549		85.937500
4550		89.843750
4551		87.890625
4552		91.796875
4553		89.843750
4554		91.796875
4555		89.843750
4556		93.750000
4557		89.843750
4558		93.750000
4559		91.796875
4560		93.750000
4561		91.796875
4562		93.750000
4563		89.843750
4564		95.703125
4565		89.843750
4566		93.750000
4567		89.843750
4568		93.750000
4569		89.843750
4570		93.750000
4571		89.843750
4572		91.796875
4573		87.890625
4574		91.796875
4575		85.937500
4576		91.796875
4577		85.937500
4578		89.843750
4579		83.984375
4580		87.890625
4581		82.031250
4582		85.937500
4583		80.078125
4584		83.984375
4585		78.125000
4586		82.031250
4587		76.171875
4588		80.078125
4589		74.218750
4590		78.125000
4591		70.312500
4592		76.171875
4593		68.359375
4594		74.218750
4595		66.406250
4596		70.312500
4597		62.500000
4598		66.406250
4599		58.593750
4600		64.453125
4601		54.687500
4602		60.546875
4603		52.734375
4604		56.640625
4605		48.828125
4606		52.734375
4607		44.921875
4608		50.781250
4609		41.015625
4610		46.875000
4611		37.109375
4612		42.968750
4613		31.250000
4614		39.062500
4615		27.343750
4616		35.156250
4617		25.390625
4618		31.250000
4619		19.531250
4620		27.343750
4621		15.625000
4622		21.484375
4623		11.718750
4624		17.578125
4625		7.812500
4626		13.671875
4627		1.953125
4628		7.812500
4629		-1.953125
4630		3.906250
4631		-7.812500
4632		0.000000
4633		-11.718750
4634		-3.906250
4635		-15.625000
4636		-9.765625
4637		-19.531250
4638		-13.671875
4639		-23.437500
4640		-17.578125
4641		-27.343750
4642		-21.484375
4643		-31.250000
4644		-25.390625
4645		-37.109375
4646		-31.250000
4647		-41.015625
4648		-35.156250
4649		-42.968750
4650		-39.062500
4651		-48.828125
4652		-42.968750
4653		-50.781250
4654		-46.875000
4655		-54.687500
4656		-48.828125
4657		-58.593750
4658		-52.734375
4659		-62.500000
4660		-56.640625
4661		-64.453125
4662		-60.546875
4663		-66.406250
4664		-62.500000
4665		-70.312500
4666		-64.453125
4667		-72.265625
4668		-68.359375
4669		-74.218750
4670		-70.312500
4671		-76.171875
4672		-72.265625
4673		-78.125000
4674		-74.218750
4675		-80.078125
4676		-76.171875
4677		-82.031250
4678		-76.171875
4679		-82.031250
4680		-80.078125
4681		-83.984375
4682		-80.078125
4683		-83.984375
4684		-80.078125
4685		-83.984375
4686		-82.031250
4687		-83.984375
4688		-82.031250
4689		-83.984375
4690		-82.031250
4691		-83.984375
4692		-82.031250
4693		-83.984375
4694		-80.078125
4695		-83.984375
4696		-80.078125
4697		-82.031250
4698		-78.125000
4699		-82.031250
4700		-78.125000
4701		-80.078125
4702		-76.171875
4703		-78.125000
4704		-74.218750
4705		-76.171875
4706		-72.265625
4707		-76.171875
4708		-70.312500
4709		-72.265625
4710		-68.359375
4711		-70.312500
4712		-64.453125
4713		-66.406250
4714		-62.500000
4715		-64.453125
4716		-60.546875
4717		-62.500000
4718		-56.640625
4719		-58.593750
4720		-52.734375
4721		-54.687500
4722		-48.828125
4723		-50.781250
4724		-44.921875
4725		-46.875000
4726		-42.968750
4727		-42.968750
4728		-39.062500
4729		-39.062500
4730		-33.203125
4731		-35.156250
4732		-29.296875
4733		-31.250000
4734		-25.390625
4735		-27.343750
4736		-21.484375
4737		-23.437500
4738		-17.578125
4739		-19.531250
4740		-11.718750
4741		-13.671875
4742		-7.812500
4743		-9.765625
4744		-3.906250
4745		-5.859375
4746		0.000000
4747		-1.953125
4748		3.906250
4749		1.953125
4750		7.812500
4751		7.812500
4752		13.671875
4753		11.718750
4754		17.578125
4755		15.625000
4756		21.484375
4757		21.484375
4758		25.390625
4759		25.390625
4760		31.250000
4761		29.296875
4762		35.156250
4763		33.203125
4764		39.062500
4765		37.109375
4766		42.968750
4767		41.015625
4768		46.875000
4769		42.968750
4770		50.781250
4771		48.828125
4772		54.687500
4773		52.734375
4774		56.640625
4775		54.687500
4776		60.546875
4777		58.593750
4778		62.500000
4779		62.500000
4780		66.406250
4781		66.406250
4782		70.312500
4783		68.359375
4784		72.265625
4785		70.312500
4786		76.171875
4787		72.265625
4788		78.125000
4789		76.171875
4790		80.078125
4791		78.125000
4792		82.031250
4793		80.078125
4794		83.984375
4795		82.031250
4796		85.937500
4797		83.984375
4798		87.890625
4799		83.984375
4800		89.843750
4801		85.937500
4802		89.843750
4803		87.890625
4804		91.796875
4805		89.843750
4806		91.796875
4807		89.843750
4808		91.796875
4809		89.843750
4810		93.750000
4811		89.843750
4812		93.750000
4813		91.796875
4814		93.750000
4815		89.843750
4816		93.750000
4817		89.843750
4818		93.750000
4819		89.843750
4820		93.750000
4821		89.843750
4822		93.750000
4823		89.843750
4824		91.796875
4825		87.890625
4826		91.796875
4827		85.937500
4828		91.796875
4829		85.937500
4830		89.843750
4831		83.984375
4832		87.890625
4833		82.031250
4834		85.937500
4835		80.078125
4836		83.984375
4837		78.125000
4838		82.031250
4839		76.171875
4840		80.078125
4841		74.218750
4842		78.125000
4843		70.312500
4844		76.171875
4845		68.359375
4846		72.265625
4847		64.453125
4848		70.312500
4849		60.546875
4850		66.406250
4851		58.593750
4852		62.500000
4853		54.687500
4854		60.546875
4855		50.781250
4856		56.640625
4857		48.828125
4858		52.734375
4859		42.968750
4860		48.828125
4861		41.015625
4862		44.921875
4863		37.109375
4864		42.968750
4865		31.250000
4866		39.062500
4867		27.343750
4868		35.156250
4869		23.437500
4870		29.296875
4871		19.531250
4872		25.390625
4873		15.625000
4874		21.484375
4875		9.765625
4876		17.578125
4877		5.859375
4878		11.718750
4879		1.953125
4880		7.812500
4881		-1.953125
4882		3.906250
4883		-5.859375
4884		0.000000
4885		-11.718750
4886		-3.906250
4887		-15.625000
4888		-9.765625
4889		-19.531250
4890		-13.671875
4891		-25.390625
4892		-17.578125
4893		-29.296875
4894		-23.437500
4895		-33.203125
4896		-27.343750
4897		-37.109375
4898		-31.250000
4899		-41.015625
4900		-35.156250
4901		-44.921875
4902		-39.062500
4903		-48.828125
4904		-42.968750
4905		-50.781250
4906		-46.875000
4907		-56.640625
4908		-50.781250
4909		-58.593750
4910		-52.734375
4911		-62.500000
4912		-56.640625
4913		-64.453125
4914		-60.546875
4915		-66.406250
4916		-62.500000
4917		-70.312500
4918		-64.453125
4919		-72.265625
4920		-68.359375
4921		-74.218750
4922		-70.312500
4923		-76.171875
4924		-72.265625
4925		-80.078125
4926		-74.218750
4927		-80.078125
4928		-76.171875
4929		-82.031250
4930		-78.125000
4931		-82.031250
4932		-80.078125
4933		-83.984375
4934		-80.078125
4935		-83.984375
4936		-80.078125
4937		-83.984375
4938		-82.031250
4939		-83.984375
4940		-82.031250
4941		-83.984375
4942		-82.031250
4943		-83.984375
4944		-80.078125
4945		-85.937500
4946		-80.078125
4947		-82.031250
4948		-80.078125
4949		-82.031250
4950		-80.078125
4951		-82.031250
4952		-78.125000
4953		-80.078125
4954		-76.171875
4955		-78.125000
4956		-74.218750
4957		-76.171875
4958		-72.265625
4959		-74.218750
4960		-70.312500
4961		-72.265625
4962		-68.359375
4963		-70.312500
4964		-64.453125
4965		-66.406250
4966		-62.500000
4967		-64.453125
4968		-58.593750
4969		-60.546875
4970		-56.640625
4971		-58.593750
4972		-52.734375
4973		-54.687500
4974		-48.828125
4975		-50.781250
4976		-44.921875
4977		-46.875000
4978		-41.015625
4979		-42.968750
4980		-37.109375
4981		-39.062500
4982		-33.203125
4983		-35.156250
4984		-29.296875
4985		-31.250000
4986		-25.390625
4987		-27.343750
4988		-21.484375
4989		-23.437500
4990		-17.578125
4991		-19.531250
4992		-13.671875
4993		-15.625000
4994		-7.812500
4995		-9.765625
4996		-3.906250
4997		-5.859375
4998		0.000000
4999		0.000000
5000		5.859375
5001		3.906250
5002		9.765625
5003		7.812500
5004		13.671875
5005		11.718750
5006		17.578125
5007		17.578125
5008		21.484375
5009		21.484375
5010		27.343750
5011		25.390625
5012		31.250000
5013		29.296875
5014		35.156250
5015		33.203125
5016		39.062500
5017		37.109375
5018		42.968750
5019		41.015625
5020		46.875000
5021		44.921875
5022		50.781250
5023		48.828125
5024		54.687500
5025		52.734375
5026		56.640625
5027		56.640625
5028		60.546875
5029		58.593750
5030		64.453125
5031		62.500000
5032		66.406250
5033		64.453125
5034		70.312500
5035		66.406250
5036		72.265625
5037		70.312500
5038		76.171875
5039		74.218750
5040		78.125000
5041		76.171875
5042		80.078125
5043		78.125000
5044		82.031250
5045		80.078125
5046		83.984375
5047		82.031250
5048		85.937500
5049		83.984375
5050		87.890625
5051		83.984375
5052		89.843750
5053		85.937500
5054		89.843750
5055		87.890625
5056		91.796875
5057		87.890625
5058		91.796875
5059		89.843750
5060		93.750000
5061		89.843750
5062		93.750000
5063		89.843750
5064		93.750000
5065		91.796875
5066		93.750000
5067		89.843750
5068		93.750000
5069		89.843750
5070		93.750000
5071		89.843750
5072		93.750000
5073		89.843750
5074		93.750000
5075		87.890625
5076		91.796875
5077		87.890625
5078		91.796875
5079		85.937500
5080		89.843750
5081		85.937500
5082		87.890625
5083		83.984375
5084		87.890625
5085		82.031250
5086		85.937500
5087		80.078125
5088		83.984375
5089		78.125000
5090		82.031250
5091		76.171875
5092		80.078125
5093		72.265625
5094		78.125000
5095		70.312500
5096		76.171875
5097		68.359375
5098		72.265625
5099		64.453125
5100		68.359375
5101		60.546875
5102		66.406250
5103		58.593750
5104		62.500000
5105		54.687500
5106		60.546875
5107		52.734375
5108		56.640625
5109		46.875000
5110		52.734375
5111		44.921875
5112		48.828125
5113		41.015625
5114		46.875000
5115		37.109375
5116		41.015625
5117		33.203125
5118		37.109375
5119		27.343750
5120		33.203125
5121		23.437500
5122		29.296875
5123		19.531250
5124		25.390625
5125		15.625000
5126		21.484375
5127		9.765625
5128		17.578125
5129		5.859375
5130		11.718750
5131		1.953125
5132		7.812500
5133		-1.953125
5134		3.906250
5135		-7.812500
5136		-1.953125
5137		-11.718750
5138		-5.859375
5139		-15.625000
5140		-9.765625
5141		-21.484375
5142		-13.671875
5143		-23.437500
5144		-19.531250
5145		-29.296875
5146		-23.437500
5147		-33.203125
5148		-27.343750
5149		-37.109375
5150		-31.250000
5151		-41.015625
5152		-35.156250
5153		-44.921875
5154		-39.062500
5155		-48.828125
5156		-42.968750
5157		-52.734375
5158		-46.875000
5159		-54.687500
5160		-50.781250
5161		-60.546875
5162		-52.734375
5163		-62.500000
5164		-56.640625
5165		-64.453125
5166		-60.546875
5167		-68.359375
5168		-64.453125
5169		-70.312500
5170		-66.406250
5171		-72.265625
5172		-68.359375
5173		-76.171875
5174		-72.265625
5175		-76.171875
5176		-74.218750
5177		-78.125000
5178		-74.218750
5179		-80.078125
5180		-76.171875
5181		-82.031250
5182		-78.125000
5183		-82.031250
5184		-80.078125
5185		-83.984375
5186		-80.078125
5187		-83.984375
5188		-82.031250
5189		-85.937500
5190		-80.078125
5191		-83.984375
5192		-82.031250
5193		-85.937500
5194		-82.031250
5195		-83.984375
5196		-82.031250
5197		-83.984375
5198		-80.078125
5199		-83.984375
5200		-80.078125
5201		-82.031250
5202		-78.125000
5203		-82.031250
5204		-78.125000
5205		-80.078125
5206		-76.171875
5207		-78.125000
5208		-74.218750
5209		-76.171875
5210		-72.265625
5211		-74.218750
5212		-70.312500
5213		-72.265625
5214		-68.359375
5215		-70.312500
5216		-64.453125
5217		-66.406250
5218		-62.500000
5219		-64.453125
5220		-58.593750
5221		-60.546875
5222		-56.640625
5223		-56.640625
5224		-52.734375
5225		-54.687500
5226		-48.828125
5227		-50.781250
5228		-44.921875
5229		-46.875000
5230		-41.015625
5231		-42.968750
5232		-37.109375
5233		-39.062500
5234		-33.203125
5235		-35.156250
5236		-29.296875
5237		-33.203125
5238		-25.390625
5239		-27.343750
5240		-21.484375
5241		-23.437500
5242		-17.578125
5243		-17.578125
5244		-13.671875
5245		-15.625000
5246		-7.812500
5247		-9.765625
5248		-3.906250
5249		-5.859375
5250		0.000000
5251		0.000000
5252		5.859375
5253		3.906250
5254		9.765625
5255		7.812500
5256		13.671875
5257		11.718750
5258		19.531250
5259		17.578125
5260		23.437500
5261		21.484375
5262		27.343750
5263		25.390625
5264		31.250000
5265		29.296875
5266		35.156250
5267		33.203125
5268		39.062500
5269		37.109375
5270		42.968750
5271		41.015625
5272		46.875000
5273		44.921875
5274		50.781250
5275		48.828125
5276		54.687500
5277		52.734375
5278		58.593750
5279		56.640625
5280		60.546875
5281		58.593750
5282		64.453125
5283		62.500000
5284		66.406250
5285		66.406250
5286		70.312500
5287		68.359375
5288		74.218750
5289		70.312500
5290		76.171875
5291		74.218750
5292		78.125000
5293		76.171875
5294		80.078125
5295		78.125000
5296		82.031250
5297		80.078125
5298		85.937500
5299		80.078125
5300		85.937500
5301		83.984375
5302		87.890625
5303		85.937500
5304		89.843750
5305		85.937500
5306		89.843750
5307		87.890625
5308		91.796875
5309		87.890625
5310		91.796875
5311		89.843750
5312		93.750000
5313		89.843750
5314		93.750000
5315		91.796875
5316		93.750000
5317		91.796875
5318		93.750000
5319		89.843750
5320		93.750000
5321		89.843750
5322		93.750000
5323		89.843750
5324		93.750000
5325		89.843750
5326		91.796875
5327		87.890625
5328		91.796875
5329		87.890625
5330		91.796875
5331		85.937500
5332		89.843750
5333		85.937500
5334		87.890625
5335		83.984375
5336		87.890625
5337		82.031250
5338		85.937500
5339		80.078125
5340		83.984375
5341		78.125000
5342		82.031250
5343		74.218750
5344		80.078125
5345		72.265625
5346		78.125000
5347		70.312500
5348		74.218750
5349		68.359375
5350		72.265625
5351		64.453125
5352		70.312500
5353		62.500000
5354		66.406250
5355		58.593750
5356		64.453125
5357		54.687500
5358		60.546875
5359		52.734375
5360		56.640625
5361		48.828125
5362		52.734375
5363		44.921875
5364		48.828125
5365		39.062500
5366		44.921875
5367		37.109375
5368		41.015625
5369		31.250000
5370		37.109375
5371		27.343750
5372		33.203125
5373		23.437500
5374		29.296875
5375		19.531250
5376		25.390625
5377		13.671875
5378		21.484375
5379		9.765625
5380		15.625000
5381		5.859375
5382		13.671875
5383		1.953125
5384		7.812500
5385		-1.953125
5386		3.906250
5387		-7.812500
5388		-1.953125
5389		-11.718750
5390		-5.859375
5391		-15.625000
5392		-9.765625
5393		-19.531250
5394		-13.671875
5395		-25.390625
5396		-19.531250
5397		-29.296875
5398		-23.437500
5399		-33.203125
5400		-27.343750
5401		-37.109375
5402		-31.250000
5403		-41.015625
5404		-35.156250
5405		-44.921875
5406		-39.062500
5407		-48.828125
5408		-42.968750
5409		-52.734375
5410		-46.875000
5411		-54.687500
5412		-50.781250
5413		-58.593750
5414		-54.687500
5415		-64.453125
5416		-56.640625
5417		-64.453125
5418		-60.546875
5419		-68.359375
5420		-64.453125
5421		-70.312500
5422		-66.406250
5423		-72.265625
5424		-68.359375
5425		-74.218750
5426		-70.312500
5427		-76.171875
5428		-72.265625
5429		-80.078125
5430		-74.218750
5431		-80.078125
5432		-76.171875
5433		-82.031250
5434		-78.125000
5435		-82.031250
5436		-80.078125
5437		-83.984375
5438		-80.078125
5439		-83.984375
5440		-80.078125
5441		-83.984375
5442		-82.031250
5443		-83.984375
5444		-82.031250
5445		-83.984375
5446		-82.031250
5447		-83.984375
5448		-80.078125
5449		-83.984375
5450		-80.078125
5451		-83.984375
5452		-80.078125
5453		-82.031250
5454		-78.125000
5455		-82.031250
5456		-76.171875
5457		-80.078125
5458		-76.171875
5459		-78.125000
5460		-74.218750
5461		-76.171875
5462		-70.312500
5463		-74.218750
5464		-70.312500
5465		-72.265625
5466		-66.406250
5467		-70.312500
5468		-64.453125
5469		-66.406250
5470		-62.500000
5471		-62.500000
5472		-58.593750
5473		-60.546875
5474		-54.687500
5475		-58.593750
5476		-52.734375
5477		-54.687500
5478		-48.828125
5479		-50.781250
5480		-44.921875
5481		-46.875000
5482		-41.015625
5483		-42.968750
5484		-37.109375
5485		-39.062500
5486		-33.203125
5487		-35.156250
5488		-29.296875
5489		-31.250000
5490		-25.390625
5491		-27.343750
5492		-21.484375
5493		-21.484375
5494		-15.625000
5495		-17.578125
5496		-11.718750
5497		-13.671875
5498		-7.812500
5499		-9.765625
5500		-1.953125
5501		-5.859375
5502		1.953125
5503		0.000000
5504		5.859375
5505		3.906250
5506		9.765625
5507		7.812500
5508		13.671875
5509		13.671875
5510		17.578125
5511		15.625000
5512		23.437500
5513		21.484375
5514		27.343750
5515		25.390625
5516		31.250000
5517		29.296875
5518		35.156250
5519		35.156250
5520		39.062500
5521		37.109375
5522		44.921875
5523		41.015625
5524		46.875000
5525		44.921875
5526		50.781250
5527		48.828125
5528		54.687500
5529		52.734375
5530		58.593750
5531		56.640625
5532		60.546875
5533		58.593750
5534		64.453125
5535		62.500000
5536		66.406250
5537		66.406250
5538		70.312500
5539		68.359375
5540		74.218750
5541		72.265625
5542		76.171875
5543		74.218750
5544		78.125000
5545		76.171875
5546		80.078125
5547		78.125000
5548		82.031250
5549		80.078125
5550		83.984375
5551		80.078125
5552		85.937500
5553		83.984375
5554		87.890625
5555		85.937500
5556		89.843750
5557		85.937500
5558		89.843750
5559		87.890625
5560		91.796875
5561		89.843750
5562		91.796875
5563		89.843750
5564		93.750000
5565		89.843750
5566		93.750000
5567		89.843750
5568		93.750000
5569		91.796875
5570		93.750000
5571		91.796875
5572		93.750000
5573		89.843750
5574		93.750000
5575		89.843750
5576		93.750000
5577		89.843750
5578		93.750000
5579		87.890625
5580		91.796875
5581		87.890625
5582		91.796875
5583		87.890625
5584		89.843750
5585		85.937500
5586		89.843750
5587		83.984375
5588		87.890625
5589		82.031250
5590		85.937500
5591		80.078125
5592		83.984375
5593		78.125000
5594		82.031250
5595		76.171875
5596		80.078125
5597		72.265625
5598		78.125000
5599		70.312500
5600		76.171875
5601		68.359375
5602		72.265625
5603		64.453125
5604		70.312500
5605		60.546875
5606		66.406250
5607		58.593750
5608		62.500000
5609		54.687500
5610		60.546875
5611		50.781250
5612		56.640625
5613		46.875000
5614		52.734375
5615		42.968750
5616		50.781250
5617		39.062500
5618		44.921875
5619		35.156250
5620		41.015625
5621		31.250000
5622		37.109375
5623		27.343750
5624		33.203125
5625		23.437500
5626		29.296875
5627		19.531250
5628		25.390625
5629		15.625000
5630		21.484375
5631		9.765625
5632		17.578125
5633		5.859375
5634		11.718750
5635		1.953125
5636		7.812500
5637		-3.906250
5638		1.953125
5639		-7.812500
5640		-1.953125
5641		-11.718750
5642		-5.859375
5643		-17.578125
5644		-9.765625
5645		-21.484375
5646		-15.625000
5647		-25.390625
5648		-19.531250
5649		-29.296875
5650		-23.437500
5651		-33.203125
5652		-27.343750
5653		-37.109375
5654		-31.250000
5655		-41.015625
5656		-37.109375
5657		-44.921875
5658		-39.062500
5659		-48.828125
5660		-42.968750
5661		-52.734375
5662		-46.875000
5663		-56.640625
5664		-50.781250
5665		-58.593750
5666		-54.687500
5667		-62.500000
5668		-56.640625
5669		-66.406250
5670		-58.593750
5671		-68.359375
5672		-62.500000
5673		-70.312500
5674		-66.406250
5675		-74.218750
5676		-68.359375
5677		-74.218750
5678		-72.265625
5679		-76.171875
5680		-72.265625
5681		-78.125000
5682		-74.218750
5683		-80.078125
5684		-76.171875
5685		-82.031250
5686		-78.125000
5687		-82.031250
5688		-80.078125
5689		-83.984375
5690		-80.078125
5691		-83.984375
5692		-82.031250
5693		-83.984375
5694		-82.031250
5695		-85.937500
5696		-82.031250
5697		-83.984375
5698		-82.031250
5699		-83.984375
5700		-80.078125
5701		-83.984375
5702		-80.078125
5703		-82.031250
5704		-80.078125
5705		-82.031250
5706		-78.125000
5707		-80.078125
5708		-76.171875
5709		-80.078125
5710		-76.171875
5711		-78.125000
5712		-74.218750
5713		-76.171875
5714		-72.265625
5715		-74.218750
5716		-70.312500
5717		-72.265625
5718		-66.406250
5719		-70.312500
5720		-64.453125
5721		-66.406250
5722		-62.500000
5723		-62.500000
5724		-58.593750
5725		-60.546875
5726		-56.640625
5727		-58.593750
5728		-50.781250
5729		-54.687500
5730		-48.828125
5731		-50.781250
5732		-44.921875
5733		-46.875000
5734		-41.015625
5735		-42.968750
5736		-37.109375
5737		-39.062500
5738		-33.203125
5739		-35.156250
5740		-29.296875
5741		-31.250000
5742		-25.390625
5743		-25.390625
5744		-19.531250
5745		-23.437500
5746		-15.625000
5747		-17.578125
5748		-11.718750
5749		-13.671875
5750		-7.812500
5751		-9.765625
5752		-1.953125
5753		-5.859375
5754		1.953125
5755		0.000000
5756		5.859375
5757		3.906250
5758		9.765625
5759		7.812500
5760		15.625000
5761		13.671875
5762		19.531250
5763		17.578125
5764		23.437500
5765		21.484375
5766		27.343750
5767		25.390625
5768		31.250000
5769		29.296875
5770		35.156250
5771		33.203125
5772		39.062500
5773		37.109375
5774		44.921875
5775		41.015625
5776		46.875000
5777		44.921875
5778		50.781250
5779		48.828125
5780		54.687500
5781		52.734375
5782		58.593750
5783		56.640625
5784		60.546875
5785		58.593750
5786		66.406250
5787		62.500000
5788		68.359375
5789		66.406250
5790		70.312500
5791		68.359375
5792		72.265625
5793		72.265625
5794		76.171875
5795		74.218750
5796		78.125000
5797		76.171875
5798		80.078125
5799		78.125000
5800		82.031250
5801		80.078125
5802		83.984375
5803		82.031250
5804		85.937500
5805		83.984375
5806		87.890625
5807		85.937500
5808		89.843750
5809		85.937500
5810		91.796875
5811		87.890625
5812		91.796875
5813		89.843750
5814		91.796875
5815		89.843750
5816		93.750000
5817		91.796875
5818		93.750000
5819		89.843750
5820		93.750000
5821		91.796875
5822		93.750000
5823		91.796875
5824		93.750000
5825		89.843750
5826		93.750000
5827		89.843750
5828		93.750000
5829		89.843750
5830		91.796875
5831		87.890625
5832		91.796875
5833		87.890625
5834		91.796875
5835		85.937500
5836		89.843750
5837		85.937500
5838		89.843750
5839		83.984375
5840		87.890625
5841		82.031250
5842		85.937500
5843		80.078125
5844		83.984375
5845		76.171875
5846		82.031250
5847		74.218750
5848		80.078125
5849		74.218750
5850		78.125000
5851		70.312500
5852		74.218750
5853		68.359375
5854		72.265625
5855		64.453125
5856		68.359375
5857		60.546875
5858		66.406250
5859		56.640625
5860		62.500000
5861		54.687500
5862		60.546875
5863		50.781250
5864		56.640625
5865		46.875000
5866		52.734375
5867		42.968750
5868		50.781250
5869		39.062500
5870		44.921875
5871		35.156250
5872		41.015625
5873		31.250000
5874		37.109375
5875		27.343750
5876		33.203125
5877		23.437500
5878		29.296875
5879		17.578125
5880		25.390625
5881		15.625000
5882		19.531250
5883		9.765625
5884		17.578125
5885		5.859375
5886		11.718750
5887		1.953125
5888		7.812500
5889		-3.906250
5890		1.953125
5891		-7.812500
5892		-1.953125
5893		-13.671875
5894		-3.906250
5895		-17.578125
5896		-9.765625
5897		-21.484375
5898		-13.671875
5899		-25.390625
5900		-17.578125
5901		-29.296875
5902		-21.484375
5903		-33.203125
5904		-27.343750
5905		-37.109375
5906		-31.250000
5907		-41.015625
5908		-35.156250
5909		-46.875000
5910		-39.062500
5911		-50.781250
5912		-42.968750
5913		-52.734375
5914		-46.875000
5915		-56.640625
5916		-50.781250
5917		-60.546875
5918		-52.734375
5919		-62.500000
5920		-56.640625
5921		-64.453125
5922		-60.546875
5923		-68.359375
5924		-64.453125
5925		-70.312500
5926		-66.406250
5927		-74.218750
5928		-68.359375
5929		-76.171875
5930		-70.312500
5931		-78.125000
5932		-72.265625
5933		-78.125000
5934		-74.218750
5935		-80.078125
5936		-76.171875
5937		-82.031250
5938		-78.125000
5939		-82.031250
5940		-80.078125
5941		-83.984375
5942		-80.078125
5943		-83.984375
5944		-80.078125
5945		-85.937500
5946		-80.078125
5947		-85.937500
5948		-80.078125
5949		-85.937500
5950		-80.078125
5951		-85.937500
5952		-80.078125
5953		-83.984375
5954		-80.078125
5955		-83.984375
5956		-80.078125
5957		-82.031250
5958		-78.125000
5959		-80.078125
5960		-76.171875
5961		-78.125000
5962		-76.171875
5963		-78.125000
5964		-74.218750
5965		-76.171875
5966		-72.265625
5967		-74.218750
5968		-70.312500
5969		-70.312500
5970		-66.406250
5971		-68.359375
5972		-64.453125
5973		-66.406250
5974		-60.546875
5975		-62.500000
5976		-58.593750
5977		-60.546875
5978		-54.687500
5979		-56.640625
5980		-52.734375
5981		-52.734375
5982		-48.828125
5983		-50.781250
5984		-44.921875
5985		-46.875000
5986		-41.015625
5987		-42.968750
5988		-37.109375
5989		-39.062500
5990		-33.203125
5991		-35.156250
5992		-29.296875
5993		-31.250000
5994		-25.390625
5995		-25.390625
5996		-21.484375
5997		-21.484375
5998		-15.625000
5999		-17.578125
6000		-11.718750
6001		-13.671875
6002		-7.812500
6003		-7.812500
6004		-1.953125
6005		-3.906250
6006		1.953125
6007		0.000000
6008		5.859375
6009		3.906250
6010		9.765625
6011		9.765625
6012		13.671875
6013		13.671875
6014		19.531250
6015		17.578125
6016		23.437500
6017		21.484375
6018		27.343750
6019		25.390625
6020		31.250000
6021		29.296875
6022		35.156250
6023		35.156250
6024		39.062500
6025		39.062500
6026		42.968750
6027		42.968750
6028		46.875000
6029		46.875000
6030		50.781250
6031		48.828125
6032		54.687500
6033		52.734375
6034		58.593750
6035		56.640625
6036		60.546875
6037		60.546875
6038		64.453125
6039		62.500000
6040		68.359375
6041		66.406250
6042		70.312500
6043		68.359375
6044		72.265625
6045		72.265625
6046		76.171875
6047		74.218750
6048		78.125000
6049		76.171875
6050		80.078125
6051		78.125000
6052		82.031250
6053		80.078125
6054		83.984375
6055		82.031250
6056		85.937500
6057		83.984375
6058		87.890625
6059		83.984375
6060		91.796875
6061		83.984375
6062		93.750000
6063		85.937500
6064		95.703125
6065		85.937500
6066		95.703125
6067		89.843750
6068		91.796875
6069		91.796875
6070		93.750000
6071		91.796875
6072		93.750000
6073		91.796875
6074		93.750000
6075		91.796875
6076		93.750000
6077		87.890625
6078		95.703125
6079		87.890625
6080		95.703125
6081		87.890625
6082		95.703125
6083		89.843750
6084		91.796875
6085		87.890625
6086		91.796875
6087		85.937500
6088		89.843750
6089		85.937500
6090		87.890625
6091		83.984375
6092		87.890625
6093		80.078125
6094		87.890625
6095		78.125000
6096		85.937500
6097		74.218750
6098		85.937500
6099		76.171875
6100		80.078125
6101		72.265625
6102		78.125000
6103		70.312500
6104		74.218750
6105		68.359375
6106		72.265625
6107		64.453125
6108		68.359375
6109		60.546875
6110		66.406250
6111		56.640625
6112		66.406250
6113		52.734375
6114		64.453125
6115		50.781250
6116		60.546875
6117		46.875000
6118		52.734375
6119		42.968750
6120		48.828125
6121		41.015625
6122		44.921875
6123		35.156250
6124		41.015625
6125		31.250000
6126		37.109375
6127		23.437500
6128		35.156250
6129		19.531250
6130		31.250000
6131		15.625000
6132		27.343750
6133		15.625000
6134		21.484375
6135		9.765625
6136		15.625000
6137		5.859375
6138		11.718750
6139		1.953125
6140		7.812500
6141		-3.906250
6142		1.953125
6143		-9.765625
6144		-1.953125
6145		-15.625000
6146		-1.953125
6147		-21.484375
6148		-7.812500
6149		-21.484375
6150		-11.718750
6151		-25.390625
6152		-19.531250
6153		-29.296875
6154		-23.437500
6155		-33.203125
6156		-27.343750
6157		-37.109375
6158		-31.250000
6159		-41.015625
6160		-35.156250
6161		-48.828125
6162		-37.109375
6163		-50.781250
6164		-41.015625
6165		-54.687500
6166		-44.921875
6167		-56.640625
6168		-50.781250
6169		-58.593750
6170		-54.687500
6171		-62.500000
6172		-56.640625
6173		-64.453125
6174		-60.546875
6175		-68.359375
6176		-64.453125
6177		-74.218750
6178		-64.453125
6179		-76.171875
6180		-66.406250
6181		-78.125000
6182		-68.359375
6183		-78.125000
6184		-70.312500
6185		-78.125000
6186		-76.171875
6187		-80.078125
6188		-76.171875
6189		-80.078125
6190		-78.125000
6191		-82.031250
6192		-80.078125
6193		-82.031250
6194		-80.078125
6195		-87.890625
6196		-76.171875
6197		-87.890625
6198		-78.125000
6199		-87.890625
6200		-78.125000
6201		-83.984375
6202		-82.031250
6203		-83.984375
6204		-82.031250
6205		-83.984375
6206		-80.078125
6207		-82.031250
6208		-80.078125
6209		-82.031250
6210		-78.125000
6211		-83.984375
6212		-72.265625
6213		-82.031250
6214		-72.265625
6215		-80.078125
6216		-70.312500
6217		-76.171875
6218		-72.265625
6219		-72.265625
6220		-70.312500
6221		-70.312500
6222		-66.406250
6223		-68.359375
6224		-64.453125
6225		-66.406250
6226		-60.546875
6227		-64.453125
6228		-54.687500
6229		-62.500000
6230		-52.734375
6231		-60.546875
6232		-48.828125
6233		-56.640625
6234		-46.875000
6235		-48.828125
6236		-44.921875
6237		-44.921875
6238		-41.015625
6239		-41.015625
6240		-37.109375
6241		-39.062500
6242		-33.203125
6243		-33.203125
6244		-29.296875
6245		-29.296875
6246		-23.437500
6247		-27.343750
6248		-17.578125
6249		-23.437500
6250		-15.625000
6251		-17.578125
6252		-11.718750
6253		-13.671875
6254		-7.812500
6255		-7.812500
6256		-1.953125
6257		-3.906250
6258		1.953125
6259		0.000000
6260		5.859375
6261		5.859375
6262		9.765625
6263		9.765625
6264		17.578125
6265		11.718750
6266		21.484375
6267		17.578125
6268		23.437500
6269		21.484375
6270		27.343750
6271		27.343750
6272		31.250000
6273		31.250000
6274		37.109375
6275		35.156250
6276		39.062500
6277		39.062500
6278		44.921875
6279		42.968750
6280		46.875000
6281		44.921875
6282		52.734375
6283		48.828125
6284		54.687500
6285		52.734375
6286		58.593750
6287		56.640625
6288		60.546875
6289		60.546875
6290		64.453125
6291		64.453125
6292		68.359375
6293		66.406250
6294		70.312500
6295		70.312500
6296		74.218750
6297		72.265625
6298		76.171875
6299		74.218750
6300		78.125000
6301		76.171875
6302		80.078125
6303		80.078125
6304		82.031250
6305		82.031250
6306		83.984375
6307		82.031250
6308		85.937500
6309		83.984375
6310		87.890625
6311		85.937500
6312		89.843750
6313		87.890625
6314		89.843750
6315		87.890625
6316		91.796875
6317		89.843750
6318		93.750000
6319		89.843750
6320		91.796875
6321		91.796875
6322		93.750000
6323		91.796875
6324		93.750000
6325		91.796875
6326		93.750000
6327		91.796875
6328		93.750000
6329		89.843750
6330		93.750000
6331		89.843750
6332		93.750000
6333		89.843750
6334		91.796875
6335		89.843750
6336		91.796875
6337		87.890625
6338		91.796875
6339		85.937500
6340		89.843750
6341		85.937500
6342		87.890625
6343		83.984375
6344		85.937500
6345		82.031250
6346		85.937500
6347		80.078125
6348		83.984375
6349		78.125000
6350		82.031250
6351		74.218750
6352		80.078125
6353		72.265625
6354		78.125000
6355		70.312500
6356		74.218750
6357		66.406250
6358		72.265625
6359		64.453125
6360		68.359375
6361		60.546875
6362		66.406250
6363		56.640625
6364		64.453125
6365		54.687500
6366		60.546875
6367		50.781250
6368		56.640625
6369		46.875000
6370		52.734375
6371		42.968750
6372		48.828125
6373		39.062500
6374		44.921875
6375		35.156250
6376		41.015625
6377		31.250000
6378		37.109375
6379		27.343750
6380		33.203125
6381		23.437500
6382		29.296875
6383		19.531250
6384		25.390625
6385		13.671875
6386		19.531250
6387		9.765625
6388		15.625000
6389		5.859375
6390		11.718750
6391		1.953125
6392		5.859375
6393		-3.906250
6394		1.953125
6395		-9.765625
6396		-1.953125
6397		-13.671875
6398		-5.859375
6399		-17.578125
6400		-9.765625
6401		-21.484375
6402		-15.625000
6403		-25.390625
6404		-19.531250
6405		-29.296875
6406		-23.437500
6407		-33.203125
6408		-27.343750
6409		-37.109375
6410		-33.203125
6411		-41.015625
6412		-37.109375
6413		-44.921875
6414		-39.062500
6415		-48.828125
6416		-42.968750
6417		-52.734375
6418		-46.875000
6419		-56.640625
6420		-50.781250
6421		-58.593750
6422		-54.687500
6423		-62.500000
6424		-58.593750
6425		-66.406250
6426		-60.546875
6427		-68.359375
6428		-64.453125
6429		-70.312500
6430		-66.406250
6431		-74.218750
6432		-68.359375
6433		-74.218750
6434		-72.265625
6435		-78.125000
6436		-74.218750
6437		-80.078125
6438		-74.218750
6439		-80.078125
6440		-78.125000
6441		-82.031250
6442		-78.125000
6443		-82.031250
6444		-80.078125
6445		-83.984375
6446		-80.078125
6447		-85.937500
6448		-80.078125
6449		-83.984375
6450		-82.031250
6451		-83.984375
6452		-82.031250
6453		-85.937500
6454		-82.031250
6455		-83.984375
6456		-82.031250
6457		-83.984375
6458		-82.031250
6459		-83.984375
6460		-80.078125
6461		-82.031250
6462		-78.125000
6463		-82.031250
6464		-76.171875
6465		-80.078125
6466		-76.171875
6467		-78.125000
6468		-74.218750
6469		-76.171875
6470		-70.312500
6471		-74.218750
6472		-70.312500
6473		-70.312500
6474		-66.406250
6475		-68.359375
6476		-64.453125
6477		-66.406250
6478		-62.500000
6479		-62.500000
6480		-58.593750
6481		-60.546875
6482		-54.687500
6483		-58.593750
6484		-52.734375
6485		-52.734375
6486		-48.828125
6487		-50.781250
6488		-44.921875
6489		-46.875000
6490		-41.015625
6491		-42.968750
6492		-37.109375
6493		-39.062500
6494		-33.203125
6495		-35.156250
6496		-29.296875
6497		-31.250000
6498		-25.390625
6499		-25.390625
6500		-19.531250
6501		-21.484375
6502		-15.625000
6503		-17.578125
6504		-11.718750
6505		-15.625000
6506		-7.812500
6507		-7.812500
6508		-1.953125
6509		-3.906250
6510		1.953125
6511		0.000000
6512		5.859375
6513		3.906250
6514		9.765625
6515		7.812500
6516		15.625000
6517		13.671875
6518		19.531250
6519		17.578125
6520		23.437500
6521		21.484375
6522		29.296875
6523		25.390625
6524		31.250000
6525		31.250000
6526		35.156250
6527		35.156250
6528		41.015625
6529		39.062500
6530		42.968750
6531		42.968750
6532		46.875000
6533		46.875000
6534		50.781250
6535		50.781250
6536		54.687500
6537		52.734375
6538		58.593750
6539		56.640625
6540		60.546875
6541		60.546875
6542		64.453125
6543		62.500000
6544		68.359375
6545		66.406250
6546		70.312500
6547		68.359375
6548		74.218750
6549		72.265625
6550		76.171875
6551		74.218750
6552		78.125000
6553		76.171875
6554		80.078125
6555		78.125000
6556		82.031250
6557		80.078125
6558		83.984375
6559		82.031250
6560		85.937500
6561		83.984375
6562		87.890625
6563		85.937500
6564		89.843750
6565		87.890625
6566		89.843750
6567		87.890625
6568		91.796875
6569		89.843750
6570		91.796875
6571		89.843750
6572		91.796875
6573		91.796875
6574		93.750000
6575		91.796875
6576		93.750000
6577		91.796875
6578		93.750000
6579		91.796875
6580		93.750000
6581		91.796875
6582		93.750000
6583		89.843750
6584		93.750000
6585		89.843750
6586		91.796875
6587		87.890625
6588		91.796875
6589		87.890625
6590		89.843750
6591		85.937500
6592		89.843750
6593		85.937500
6594		87.890625
6595		83.984375
6596		85.937500
6597		82.031250
6598		85.937500
6599		80.078125
6600		83.984375
6601		78.125000
6602		82.031250
6603		76.171875
6604		78.125000
6605		72.265625
6606		76.171875
6607		70.312500
6608		74.218750
6609		66.406250
6610		70.312500
6611		64.453125
6612		68.359375
6613		60.546875
6614		64.453125
6615		58.593750
6616		62.500000
6617		54.687500
6618		58.593750
6619		50.781250
6620		54.687500
6621		46.875000
6622		52.734375
6623		42.968750
6624		48.828125
6625		39.062500
6626		44.921875
6627		35.156250
6628		41.015625
6629		31.250000
6630		37.109375
6631		27.343750
6632		33.203125
6633		23.437500
6634		27.343750
6635		17.578125
6636		23.437500
6637		13.671875
6638		19.531250
6639		9.765625
6640		15.625000
6641		5.859375
6642		9.765625
6643		0.000000
6644		5.859375
6645		-3.906250
6646		1.953125
6647		-9.765625
6648		-1.953125
6649		-13.671875
6650		-5.859375
6651		-17.578125
6652		-11.718750
6653		-21.484375
6654		-15.625000
6655		-25.390625
6656		-19.531250
6657		-29.296875
6658		-25.390625
6659		-35.156250
6660		-29.296875
6661		-39.062500
6662		-33.203125
6663		-42.968750
6664		-37.109375
6665		-46.875000
6666		-41.015625
6667		-48.828125
6668		-44.921875
6669		-52.734375
6670		-48.828125
6671		-56.640625
6672		-52.734375
6673		-60.546875
6674		-54.687500
6675		-62.500000
6676		-58.593750
6677		-66.406250
6678		-60.546875
6679		-68.359375
6680		-64.453125
6681		-72.265625
6682		-66.406250
6683		-76.171875
6684		-68.359375
6685		-76.171875
6686		-72.265625
6687		-78.125000
6688		-74.218750
6689		-78.125000
6690		-76.171875
6691		-80.078125
6692		-78.125000
6693		-82.031250
6694		-78.125000
6695		-83.984375
6696		-80.078125
6697		-83.984375
6698		-82.031250
6699		-85.937500
6700		-80.078125
6701		-85.937500
6702		-80.078125
6703		-85.937500
6704		-82.031250
6705		-83.984375
6706		-82.031250
6707		-83.984375
6708		-82.031250
6709		-83.984375
6710		-82.031250
6711		-82.031250
6712		-80.078125
6713		-82.031250
6714		-78.125000
6715		-82.031250
6716		-76.171875
6717		-80.078125
6718		-74.218750
6719		-78.125000
6720		-74.218750
6721		-76.171875
6722		-72.265625
6723		-74.218750
6724		-70.312500
6725		-72.265625
6726		-68.359375
6727		-68.359375
6728		-64.453125
6729		-66.406250
6730		-62.500000
6731		-62.500000
6732		-56.640625
6733		-62.500000
6734		-54.687500
6735		-58.593750
6736		-52.734375
6737		-52.734375
6738		-48.828125
6739		-50.781250
6740		-44.921875
6741		-46.875000
6742		-41.015625
6743		-42.968750
6744		-37.109375
6745		-39.062500
6746		-33.203125
6747		-35.156250
6748		-29.296875
6749		-31.250000
6750		-23.437500
6751		-27.343750
6752		-19.531250
6753		-21.484375
6754		-15.625000
6755		-17.578125
6756		-11.718750
6757		-13.671875
6758		-7.812500
6759		-9.765625
6760		-1.953125
6761		-3.906250
6762		1.953125
6763		0.000000
6764		5.859375
6765		3.906250
6766		11.718750
6767		7.812500
6768		15.625000
6769		13.671875
6770		19.531250
6771		17.578125
6772		23.437500
6773		21.484375
6774		27.343750
6775		25.390625
6776		31.250000
6777		29.296875
6778		35.156250
6779		35.156250
6780		39.062500
6781		37.109375
6782		42.968750
6783		41.015625
6784		48.828125
6785		44.921875
6786		50.781250
6787		48.828125
6788		54.687500
6789		52.734375
6790		58.593750
6791		56.640625
6792		60.546875
6793		60.546875
6794		64.453125
6795		62.500000
6796		68.359375
6797		66.406250
6798		70.312500
6799		68.359375
6800		74.218750
6801		70.312500
6802		76.171875
6803		74.218750
6804		78.125000
6805		76.171875
6806		80.078125
6807		78.125000
6808		82.031250
6809		80.078125
6810		83.984375
6811		82.031250
6812		85.937500
6813		83.984375
6814		87.890625
6815		83.984375
6816		89.843750
6817		85.937500
6818		91.796875
6819		85.937500
6820		91.796875
6821		89.843750
6822		91.796875
6823		89.843750
6824		91.796875
6825		89.843750
6826		93.750000
6827		91.796875
6828		93.750000
6829		91.796875
6830		93.750000
6831		89.843750
6832		93.750000
6833		89.843750
6834		93.750000
6835		87.890625
6836		93.750000
6837		89.843750
6838		91.796875
6839		87.890625
6840		91.796875
6841		87.890625
6842		91.796875
6843		85.937500
6844		89.843750
6845		83.984375
6846		87.890625
6847		83.984375
6848		85.937500
6849		80.078125
6850		83.984375
6851		78.125000
6852		83.984375
6853		76.171875
6854		80.078125
6855		74.218750
6856		78.125000
6857		72.265625
6858		76.171875
6859		68.359375
6860		74.218750
6861		66.406250
6862		70.312500
6863		62.500000
6864		68.359375
6865		60.546875
6866		64.453125
6867		56.640625
6868		62.500000
6869		52.734375
6870		58.593750
6871		50.781250
6872		54.687500
6873		46.875000
6874		50.781250
6875		42.968750
6876		46.875000
6877		39.062500
6878		42.968750
6879		35.156250
6880		39.062500
6881		31.250000
6882		35.156250
6883		25.390625
6884		31.250000
6885		21.484375
6886		27.343750
6887		17.578125
6888		23.437500
6889		13.671875
6890		19.531250
6891		7.812500
6892		13.671875
6893		3.906250
6894		9.765625
6895		0.000000
6896		5.859375
6897		-3.906250
6898		1.953125
6899		-9.765625
6900		-3.906250
6901		-13.671875
6902		-7.812500
6903		-17.578125
6904		-11.718750
6905		-21.484375
6906		-15.625000
6907		-27.343750
6908		-21.484375
6909		-31.250000
6910		-25.390625
6911		-35.156250
6912		-29.296875
6913		-39.062500
6914		-33.203125
6915		-42.968750
6916		-37.109375
6917		-46.875000
6918		-41.015625
6919		-50.781250
6920		-44.921875
6921		-54.687500
6922		-48.828125
6923		-56.640625
6924		-52.734375
6925		-60.546875
6926		-56.640625
6927		-64.453125
6928		-58.593750
6929		-66.406250
6930		-62.500000
6931		-70.312500
6932		-64.453125
6933		-72.265625
6934		-68.359375
6935		-74.218750
6936		-70.312500
6937		-76.171875
6938		-72.265625
6939		-78.125000
6940		-74.218750
6941		-80.078125
6942		-76.171875
6943		-82.031250
6944		-78.125000
6945		-82.031250
6946		-80.078125
6947		-83.984375
6948		-80.078125
6949		-83.984375
6950		-82.031250
6951		-83.984375
6952		-82.031250
6953		-85.937500
6954		-82.031250
6955		-85.937500
6956		-83.984375
6957		-85.937500
6958		-82.031250
6959		-83.984375
6960		-82.031250
6961		-83.984375
6962		-82.031250
6963		-83.984375
6964		-82.031250
6965		-82.031250
6966		-80.078125
6967		-82.031250
6968		-78.125000
6969		-80.078125
6970		-76.171875
6971		-78.125000
6972		-74.218750
6973		-76.171875
6974		-72.265625
6975		-74.218750
6976		-70.312500
6977		-72.265625
6978		-68.359375
6979		-68.359375
6980		-64.453125
6981		-66.406250
6982		-62.500000
6983		-64.453125
6984		-58.593750
6985		-60.546875
6986		-56.640625
6987		-56.640625
6988		-52.734375
6989		-54.687500
6990		-48.828125
6991		-50.781250
6992		-44.921875
6993		-46.875000
6994		-41.015625
6995		-42.968750
6996		-37.109375
6997		-39.062500
6998		-33.203125
6999		-35.156250
7000		-29.296875
7001		-31.250000
7002		-25.390625
7003		-27.343750
7004		-21.484375
7005		-23.437500
7006		-17.578125
7007		-17.578125
7008		-11.718750
7009		-13.671875
7010		-7.812500
7011		-9.765625
7012		-3.906250
7013		-3.906250
7014		0.000000
7015		0.000000
7016		5.859375
7017		3.906250
7018		9.765625
7019		7.812500
7020		13.671875
7021		11.718750
7022		19.531250
7023		17.578125
7024		23.437500
7025		21.484375
7026		27.343750
7027		25.390625
7028		31.250000
7029		29.296875
7030		35.156250
7031		35.156250
7032		39.062500
7033		39.062500
7034		42.968750
7035		41.015625
7036		46.875000
7037		44.921875
7038		50.781250
7039		48.828125
7040		54.687500
7041		52.734375
7042		58.593750
7043		56.640625
7044		60.546875
7045		60.546875
7046		64.453125
7047		62.500000
7048		66.406250
7049		66.406250
7050		70.312500
7051		68.359375
7052		72.265625
7053		70.312500
7054		74.218750
7055		74.218750
7056		78.125000
7057		76.171875
7058		80.078125
7059		78.125000
7060		82.031250
7061		80.078125
7062		83.984375
7063		82.031250
7064		85.937500
7065		83.984375
7066		87.890625
7067		85.937500
7068		87.890625
7069		87.890625
7070		89.843750
7071		87.890625
7072		89.843750
7073		87.890625
7074		91.796875
7075		89.843750
7076		91.796875
7077		89.843750
7078		91.796875
7079		89.843750
7080		91.796875
7081		89.843750
7082		91.796875
7083		89.843750
7084		91.796875
7085		89.843750
7086		91.796875
7087		89.843750
7088		91.796875
7089		87.890625
7090		91.796875
7091		87.890625
7092		89.843750
7093		85.937500
7094		89.843750
7095		85.937500
7096		87.890625
7097		83.984375
7098		87.890625
7099		82.031250
7100		85.937500
7101		80.078125
7102		83.984375
7103		78.125000
7104		82.031250
7105		76.171875
7106		80.078125
7107		74.218750
7108		78.125000
7109		72.265625
7110		76.171875
7111		68.359375
7112		72.265625
7113		66.406250
7114		70.312500
7115		62.500000
7116		68.359375
7117		60.546875
7118		64.453125
7119		56.640625
7120		60.546875
7121		52.734375
7122		58.593750
7123		48.828125
7124		54.687500
7125		44.921875
7126		50.781250
7127		42.968750
7128		46.875000
7129		37.109375
7130		42.968750
7131		33.203125
7132		39.062500
7133		29.296875
7134		35.156250
7135		25.390625
7136		31.250000
7137		21.484375
7138		27.343750
7139		17.578125
7140		23.437500
7141		11.718750
7142		17.578125
7143		7.812500
7144		13.671875
7145		3.906250
7146		9.765625
7147		0.000000
7148		5.859375
7149		-5.859375
7150		0.000000
7151		-9.765625
7152		-3.906250
7153		-13.671875
7154		-7.812500
7155		-17.578125
7156		-13.671875
7157		-23.437500
7158		-17.578125
7159		-27.343750
7160		-21.484375
7161		-31.250000
7162		-25.390625
7163		-35.156250
7164		-29.296875
7165		-39.062500
7166		-33.203125
7167		-42.968750
7168		-39.062500
7169		-46.875000
7170		-42.968750
7171		-50.781250
7172		-44.921875
7173		-54.687500
7174		-48.828125
7175		-58.593750
7176		-52.734375
7177		-62.500000
7178		-56.640625
7179		-64.453125
7180		-60.546875
7181		-66.406250
7182		-62.500000
7183		-70.312500
7184		-66.406250
7185		-72.265625
7186		-68.359375
7187		-74.218750
7188		-70.312500
7189		-76.171875
7190		-74.218750
7191		-78.125000
7192		-76.171875
7193		-80.078125
7194		-78.125000
7195		-82.031250
7196		-78.125000
7197		-83.984375
7198		-80.078125
7199		-83.984375
7200		-82.031250
7201		-83.984375
7202		-82.031250
7203		-85.937500
7204		-82.031250
7205		-85.937500
7206		-83.984375
7207		-85.937500
7208		-83.984375
7209		-85.937500
7210		-83.984375
7211		-85.937500
7212		-83.984375
7213		-83.984375
7214		-82.031250
7215		-83.984375
7216		-82.031250
7217		-82.031250
7218		-80.078125
7219		-82.031250
7220		-78.125000
7221		-80.078125
7222		-76.171875
7223		-78.125000
7224		-76.171875
7225		-76.171875
7226		-72.265625
7227		-74.218750
7228		-70.312500
7229		-72.265625
7230		-68.359375
7231		-70.312500
7232		-66.406250
7233		-66.406250
7234		-62.500000
7235		-64.453125
7236		-60.546875
7237		-60.546875
7238		-56.640625
7239		-58.593750
7240		-52.734375
7241		-54.687500
7242		-48.828125
7243		-50.781250
7244		-44.921875
7245		-46.875000
7246		-41.015625
7247		-42.968750
7248		-37.109375
7249		-39.062500
7250		-33.203125
7251		-35.156250
7252		-29.296875
7253		-31.250000
7254		-25.390625
7255		-27.343750
7256		-21.484375
7257		-23.437500
7258		-17.578125
7259		-17.578125
7260		-11.718750
7261		-13.671875
7262		-7.812500
7263		-9.765625
7264		-3.906250
7265		-3.906250
7266		0.000000
7267		0.000000
7268		5.859375
7269		3.906250
7270		9.765625
7271		7.812500
7272		13.671875
7273		13.671875
7274		17.578125
7275		17.578125
7276		23.437500
7277		21.484375
7278		27.343750
7279		25.390625
7280		31.250000
7281		29.296875
7282		35.156250
7283		33.203125
7284		39.062500
7285		37.109375
7286		42.968750
7287		41.015625
7288		46.875000
7289		44.921875
7290		50.781250
7291		48.828125
7292		54.687500
7293		52.734375
7294		56.640625
7295		56.640625
7296		60.546875
7297		58.593750
7298		64.453125
7299		62.500000
7300		66.406250
7301		66.406250
7302		70.312500
7303		68.359375
7304		72.265625
7305		70.312500
7306		76.171875
7307		74.218750
7308		78.125000
7309		76.171875
7310		80.078125
7311		78.125000
7312		82.031250
7313		80.078125
7314		83.984375
7315		82.031250
7316		85.937500
7317		83.984375
7318		85.937500
7319		85.937500
7320		87.890625
7321		85.937500
7322		89.843750
7323		87.890625
7324		89.843750
7325		87.890625
7326		91.796875
7327		89.843750
7328		91.796875
7329		89.843750
7330		91.796875
7331		89.843750
7332		91.796875
7333		89.843750
7334		91.796875
7335		89.843750
7336		91.796875
7337		89.843750
7338		91.796875
7339		89.843750
7340		91.796875
7341		87.890625
7342		91.796875
7343		87.890625
7344		89.843750
7345		85.937500
7346		89.843750
7347		85.937500
7348		87.890625
7349		83.984375
7350		87.890625
7351		82.031250
7352		85.937500
7353		80.078125
7354		83.984375
7355		78.125000
7356		82.031250
7357		76.171875
7358		80.078125
7359		74.218750
7360		78.125000
7361		72.265625
7362		76.171875
7363		68.359375
7364		72.265625
7365		66.406250
7366		70.312500
7367		62.500000
7368		66.406250
7369		58.593750
7370		64.453125
7371		56.640625
7372		60.546875
7373		52.734375
7374		58.593750
7375		48.828125
7376		54.687500
7377		44.921875
7378		50.781250
7379		41.015625
7380		46.875000
7381		37.109375
7382		42.968750
7383		33.203125
7384		39.062500
7385		29.296875
7386		35.156250
7387		25.390625
7388		31.250000
7389		21.484375
7390		27.343750
7391		17.578125
7392		21.484375
7393		11.718750
7394		17.578125
7395		7.812500
7396		13.671875
7397		3.906250
7398		9.765625
7399		-1.953125
7400		3.906250
7401		-5.859375
7402		0.000000
7403		-9.765625
7404		-3.906250
7405		-13.671875
7406		-9.765625
7407		-19.531250
7408		-13.671875
7409		-23.437500
7410		-17.578125
7411		-27.343750
7412		-21.484375
7413		-31.250000
7414		-25.390625
7415		-35.156250
7416		-31.250000
7417		-39.062500
7418		-35.156250
7419		-44.921875
7420		-39.062500
7421		-46.875000
7422		-42.968750
7423		-50.781250
7424		-46.875000
7425		-54.687500
7426		-50.781250
7427		-58.593750
7428		-52.734375
7429		-60.546875
7430		-56.640625
7431		-64.453125
7432		-60.546875
7433		-66.406250
7434		-62.500000
7435		-70.312500
7436		-66.406250
7437		-72.265625
7438		-68.359375
7439		-74.218750
7440		-72.265625
7441		-76.171875
7442		-74.218750
7443		-78.125000
7444		-76.171875
7445		-80.078125
7446		-78.125000
7447		-82.031250
7448		-78.125000
7449		-83.984375
7450		-80.078125
7451		-83.984375
7452		-82.031250
7453		-83.984375
7454		-82.031250
7455		-85.937500
7456		-83.984375
7457		-85.937500
7458		-83.984375
7459		-85.937500
7460		-83.984375
7461		-85.937500
7462		-83.984375
7463		-85.937500
7464		-82.031250
7465		-85.937500
7466		-82.031250
7467		-83.984375
7468		-82.031250
7469		-82.031250
7470		-80.078125
7471		-82.031250
7472		-78.125000
7473		-80.078125
7474		-76.171875
7475		-78.125000
7476		-74.218750
7477		-76.171875
7478		-72.265625
7479		-74.218750
7480		-70.312500
7481		-72.265625
7482		-68.359375
7483		-70.312500
7484		-64.453125
7485		-66.406250
7486		-62.500000
7487		-64.453125
7488		-58.593750
7489		-60.546875
7490		-56.640625
7491		-56.640625
7492		-52.734375
7493		-54.687500
7494		-48.828125
7495		-50.781250
7496		-44.921875
7497		-46.875000
7498		-41.015625
7499		-42.968750
7500		-37.109375
7501		-39.062500
7502		-33.203125
7503		-35.156250
7504		-29.296875
7505		-31.250000
7506		-25.390625
7507		-25.390625
7508		-21.484375
7509		-21.484375
7510		-15.625000
7511		-17.578125
7512		-11.718750
7513		-13.671875
7514		-7.812500
7515		-9.765625
7516		-3.906250
7517		-3.906250
7518		1.953125
7519		0.000000
7520		5.859375
7521		3.906250
7522		9.765625
7523		7.812500
7524		13.671875
7525		13.671875
7526		19.531250
7527		17.578125
7528		23.437500
7529		21.484375
7530		27.343750
7531		25.390625
7532		31.250000
7533		29.296875
7534		35.156250
7535		35.156250
7536		39.062500
7537		39.062500
7538		42.968750
7539		42.968750
7540		46.875000
7541		46.875000
7542		50.781250
7543		48.828125
7544		54.687500
7545		52.734375
7546		58.593750
7547		56.640625
7548		60.546875
7549		60.546875
7550		64.453125
7551		62.500000
7552		68.359375
7553		66.406250
7554		70.312500
7555		68.359375
7556		72.265625
7557		72.265625
7558		76.171875
7559		74.218750
7560		78.125000
7561		76.171875
7562		80.078125
7563		78.125000
7564		82.031250
7565		80.078125
7566		83.984375
7567		82.031250
7568		85.937500
7569		83.984375
7570		87.890625
7571		85.937500
7572		87.890625
7573		85.937500
7574		89.843750
7575		87.890625
7576		89.843750
7577		87.890625
7578		91.796875
7579		89.843750
7580		91.796875
7581		89.843750
7582		91.796875
7583		89.843750
7584		91.796875
7585		89.843750
7586		93.750000
7587		89.843750
7588		91.796875
7589		89.843750
7590		91.796875
7591		89.843750
7592		91.796875
7593		87.890625
7594		91.796875
7595		87.890625
7596		89.843750
7597		85.937500
7598		89.843750
7599		85.937500
7600		87.890625
7601		83.984375
7602		87.890625
7603		82.031250
7604		85.937500
7605		80.078125
7606		83.984375
7607		78.125000
7608		82.031250
7609		76.171875
7610		80.078125
7611		74.218750
7612		78.125000
7613		72.265625
7614		76.171875
7615		68.359375
7616		74.218750
7617		66.406250
7618		70.312500
7619		62.500000
7620		66.406250
7621		60.546875
7622		64.453125
7623		56.640625
7624		60.546875
7625		52.734375
7626		56.640625
7627		48.828125
7628		54.687500
7629		44.921875
7630		50.781250
7631		41.015625
7632		46.875000
7633		37.109375
7634		42.968750
7635		33.203125
7636		39.062500
7637		29.296875
7638		35.156250
7639		25.390625
7640		31.250000
7641		21.484375
7642		27.343750
7643		17.578125
7644		23.437500
7645		13.671875
7646		17.578125
7647		7.812500
7648		13.671875
7649		3.906250
7650		9.765625
7651		0.000000
7652		5.859375
7653		-5.859375
7654		0.000000
7655		-9.765625
7656		-3.906250
7657		-13.671875
7658		-7.812500
7659		-17.578125
7660		-13.671875
7661		-23.437500
7662		-17.578125
7663		-27.343750
7664		-21.484375
7665		-31.250000
7666		-25.390625
7667		-35.156250
7668		-31.250000
7669		-39.062500
7670		-35.156250
7671		-42.968750
7672		-39.062500
7673		-46.875000
7674		-42.968750
7675		-50.781250
7676		-44.921875
7677		-54.687500
7678		-50.781250
7679		-58.593750
7680		-52.734375
7681		-60.546875
7682		-56.640625
7683		-64.453125
7684		-60.546875
7685		-66.406250
7686		-62.500000
7687		-70.312500
7688		-66.406250
7689		-72.265625
7690		-68.359375
7691		-74.218750
7692		-70.312500
7693		-76.171875
7694		-74.218750
7695		-78.125000
7696		-76.171875
7697		-80.078125
7698		-76.171875
7699		-82.031250
7700		-78.125000
7701		-83.984375
7702		-80.078125
7703		-83.984375
7704		-82.031250
7705		-83.984375
7706		-82.031250
7707		-85.937500
7708		-82.031250
7709		-85.937500
7710		-83.984375
7711		-87.890625
7712		-82.031250
7713		-85.937500
7714		-83.984375
7715		-87.890625
7716		-82.031250
7717		-83.984375
7718		-82.031250
7719		-83.984375
7720		-82.031250
7721		-82.031250
7722		-80.078125
7723		-82.031250
7724		-78.125000
7725		-80.078125
7726		-76.171875
7727		-78.125000
7728		-74.218750
7729		-78.125000
7730		-72.265625
7731		-74.218750
7732		-70.312500
7733		-74.218750
7734		-68.359375
7735		-70.312500
7736		-62.500000
7737		-66.406250
7738		-62.500000
7739		-64.453125
7740		-58.593750
7741		-60.546875
7742		-56.640625
7743		-58.593750
7744		-52.734375
7745		-54.687500
7746		-48.828125
7747		-50.781250
7748		-44.921875
7749		-48.828125
7750		-41.015625
7751		-42.968750
7752		-37.109375
7753		-41.015625
7754		-33.203125
7755		-35.156250
7756		-29.296875
7757		-31.250000
7758		-25.390625
7759		-27.343750
7760		-21.484375
7761		-21.484375
7762		-15.625000
7763		-17.578125
7764		-11.718750
7765		-13.671875
7766		-5.859375
7767		-9.765625
7768		-3.906250
7769		-5.859375
7770		1.953125
7771		0.000000
7772		5.859375
7773		3.906250
7774		9.765625
7775		7.812500
7776		15.625000
7777		9.765625
7778		21.484375
7779		15.625000
7780		23.437500
7781		21.484375
7782		27.343750
7783		25.390625
7784		31.250000
7785		29.296875
7786		39.062500
7787		33.203125
7788		39.062500
7789		37.109375
7790		42.968750
7791		41.015625
7792		48.828125
7793		44.921875
7794		52.734375
7795		48.828125
7796		54.687500
7797		52.734375
7798		58.593750
7799		54.687500
7800		64.453125
7801		56.640625
7802		64.453125
7803		58.593750
7804		68.359375
7805		66.406250
7806		70.312500
7807		68.359375
7808		72.265625
7809		70.312500
7810		78.125000
7811		70.312500
7812		80.078125
7813		76.171875
7814		80.078125
7815		78.125000
7816		82.031250
7817		78.125000
7818		85.937500
7819		78.125000
7820		89.843750
7821		83.984375
7822		87.890625
7823		85.937500
7824		87.890625
7825		85.937500
7826		89.843750
7827		83.984375
7828		93.750000
7829		85.937500
7830		91.796875
7831		89.843750
7832		91.796875
7833		85.937500
7834		95.703125
7835		89.843750
7836		93.750000
7837		85.937500
7838		97.656250
7839		89.843750
7840		91.796875
7841		87.890625
7842		93.750000
7843		85.937500
7844		93.750000
7845		87.890625
7846		93.750000
7847		87.890625
7848		89.843750
7849		83.984375
7850		89.843750
7851		82.031250
7852		91.796875
7853		80.078125
7854		89.843750
7855		82.031250
7856		85.937500
7857		80.078125
7858		83.984375
7859		76.171875
7860		82.031250
7861		74.218750
7862		83.984375
7863		74.218750
7864		80.078125
7865		72.265625
7866		76.171875
7867		64.453125
7868		74.218750
7869		62.500000
7870		70.312500
7871		62.500000
7872		70.312500
7873		60.546875
7874		64.453125
7875		54.687500
7876		60.546875
7877		50.781250
7878		58.593750
7879		48.828125
7880		54.687500
7881		44.921875
7882		50.781250
7883		39.062500
7884		46.875000
7885		37.109375
7886		46.875000
7887		31.250000
7888		39.062500
7889		29.296875
7890		35.156250
7891		25.390625
7892		31.250000
7893		21.484375
7894		27.343750
7895		13.671875
7896		25.390625
7897		11.718750
7898		17.578125
7899		7.812500
7900		13.671875
7901		0.000000
7902		11.718750
7903		-3.906250
7904		3.906250
7905		-5.859375
7906		0.000000
7907		-9.765625
7908		-3.906250
7909		-15.625000
7910		-9.765625
7911		-21.484375
7912		-11.718750
7913		-23.437500
7914		-15.625000
7915		-27.343750
7916		-21.484375
7917		-35.156250
7918		-25.390625
7919		-37.109375
7920		-27.343750
7921		-41.015625
7922		-33.203125
7923		-42.968750
7924		-39.062500
7925		-48.828125
7926		-42.968750
7927		-54.687500
7928		-44.921875
7929		-56.640625
7930		-48.828125
7931		-58.593750
7932		-52.734375
7933		-62.500000
7934		-56.640625
7935		-66.406250
7936		-56.640625
7937		-68.359375
7938		-62.500000
7939		-70.312500
7940		-66.406250
7941		-72.265625
7942		-68.359375
7943		-76.171875
7944		-70.312500
7945		-80.078125
7946		-70.312500
7947		-80.078125
7948		-74.218750
7949		-80.078125
7950		-78.125000
7951		-85.937500
7952		-76.171875
7953		-83.984375
7954		-80.078125
7955		-85.937500
7956		-78.125000
7957		-83.984375
7958		-82.031250
7959		-85.937500
7960		-82.031250
7961		-87.890625
7962		-80.078125
7963		-87.890625
7964		-82.031250
7965		-85.937500
7966		-83.984375
7967		-87.890625
7968		-80.078125
7969		-87.890625
7970		-78.125000
7971		-85.937500
7972		-80.078125
7973		-82.031250
7974		-80.078125
7975		-82.031250
7976		-78.125000
7977		-80.078125
7978		-76.171875
7979		-82.031250
7980		-72.265625
7981		-78.125000
7982		-72.265625
7983		-74.218750
7984		-70.312500
7985		-74.218750
7986		-68.359375
7987		-70.312500
7988		-62.500000
7989		-66.406250
7990		-62.500000
7991		-64.453125
7992		-58.593750
7993		-60.546875
7994		-56.640625
7995		-58.593750
7996		-50.781250
7997		-54.687500
7998		-48.828125
7999		-50.781250
8000		-44.921875
8001		-46.875000
8002		-41.015625
8003		-42.968750
8004		-37.109375
8005		-39.062500
8006		-33.203125
8007		-35.156250
8008		-29.296875
8009		-31.250000
8010		-25.390625
8011		-27.343750
8012		-21.484375
8013		-21.484375
8014		-15.625000
8015		-19.531250
8016		-11.718750
8017		-13.671875
8018		-5.859375
8019		-11.718750
8020		-3.906250
8021		-3.906250
8022		1.953125
8023		0.000000
8024		5.859375
8025		3.906250
8026		9.765625
8027		9.765625
8028		15.625000
8029		13.671875
8030		19.531250
8031		17.578125
8032		23.437500
8033		21.484375
8034		27.343750
8035		25.390625
8036		31.250000
8037		31.250000
8038		35.156250
8039		33.203125
8040		39.062500
8041		39.062500
8042		42.968750
8043		42.968750
8044		46.875000
8045		46.875000
8046		50.781250
8047		48.828125
8048		54.687500
8049		52.734375
8050		58.593750
8051		56.640625
8052		60.546875
8053		60.546875
8054		64.453125
8055		62.500000
8056		68.359375
8057		66.406250
8058		70.312500
8059		68.359375
8060		72.265625
8061		70.312500
8062		76.171875
8063		72.265625
8064		78.125000
8065		74.218750
8066		80.078125
8067		76.171875
8068		83.984375
8069		80.078125
8070		85.937500
8071		80.078125
8072		85.937500
8073		82.031250
8074		85.937500
8075		85.937500
8076		87.890625
8077		85.937500
8078		89.843750
8079		85.937500
8080		91.796875
8081		87.890625
8082		91.796875
8083		87.890625
8084		93.750000
8085		87.890625
8086		93.750000
8087		87.890625
8088		93.750000
8089		89.843750
8090		93.750000
8091		89.843750
8092		91.796875
8093		87.890625
8094		93.750000
8095		87.890625
8096		93.750000
8097		87.890625
8098		91.796875
8099		85.937500
8100		91.796875
8101		85.937500
8102		89.843750
8103		83.984375
8104		89.843750
8105		82.031250
8106		87.890625
8107		82.031250
8108		85.937500
8109		80.078125
8110		83.984375
8111		76.171875
8112		82.031250
8113		74.218750
8114		80.078125
8115		72.265625
8116		78.125000
8117		70.312500
8118		76.171875
8119		66.406250
8120		72.265625
8121		64.453125
8122		70.312500
8123		62.500000
8124		68.359375
8125		58.593750
8126		62.500000
8127		54.687500
8128		60.546875
8129		52.734375
8130		58.593750
8131		46.875000
8132		52.734375
8133		42.968750
8134		50.781250
8135		41.015625
8136		46.875000
8137		37.109375
8138		42.968750
8139		33.203125
8140		39.062500
8141		29.296875
8142		35.156250
8143		25.390625
8144		29.296875
8145		19.531250
8146		27.343750
8147		15.625000
8148		23.437500
8149		11.718750
8150		17.578125
8151		5.859375
8152		15.625000
8153		1.953125
8154		7.812500
8155		-1.953125
8156		5.859375
8157		-5.859375
8158		0.000000
8159		-11.718750
8160		-3.906250
8161		-15.625000
8162		-9.765625
8163		-19.531250
8164		-13.671875
8165		-23.437500
8166		-17.578125
8167		-29.296875
8168		-21.484375
8169		-33.203125
8170		-27.343750
8171		-37.109375
8172		-31.250000
8173		-41.015625
8174		-35.156250
8175		-44.921875
8176		-39.062500
8177		-48.828125
8178		-42.968750
8179		-52.734375
8180		-46.875000
8181		-54.687500
8182		-50.781250
8183		-60.546875
8184		-52.734375
8185		-62.500000
8186		-56.640625
8187		-66.406250
8188		-60.546875
8189		-68.359375
8190		-64.453125
8191		-70.312500
8192		-66.406250
8193		-72.265625
8194		-68.359375
8195		-76.171875
8196		-72.265625
8197		-78.125000
8198		-74.218750
8199		-80.078125
8200		-76.171875
8201		-82.031250
8202		-76.171875
8203		-83.984375
8204		-78.125000
8205		-83.984375
8206		-80.078125
8207		-85.937500
8208		-80.078125
8209		-85.937500
8210		-82.031250
8211		-87.890625
8212		-83.984375
8213		-85.937500
8214		-83.984375
8215		-85.937500
8216		-83.984375
8217		-87.890625
8218		-82.031250
8219		-85.937500
8220		-82.031250
8221		-83.984375
8222		-82.031250
8223		-83.984375
8224		-80.078125
8225		-82.031250
8226		-80.078125
8227		-82.031250
8228		-78.125000
8229		-80.078125
8230		-76.171875
8231		-78.125000
8232		-74.218750
8233		-76.171875
8234		-72.265625
8235		-76.171875
8236		-70.312500
8237		-72.265625
8238		-68.359375
8239		-70.312500
8240		-64.453125
8241		-66.406250
8242		-62.500000
8243		-64.453125
8244		-58.593750
8245		-60.546875
8246		-54.687500
8247		-56.640625
8248		-52.734375
8249		-54.687500
8250		-48.828125
8251		-50.781250
8252		-44.921875
8253		-46.875000
8254		-41.015625
8255		-42.968750
8256		-37.109375
8257		-39.062500
8258		-33.203125
8259		-35.156250
8260		-29.296875
8261		-29.296875
8262		-23.437500
8263		-25.390625
8264		-19.531250
8265		-21.484375
8266		-15.625000
8267		-17.578125
8268		-9.765625
8269		-13.671875
8270		-7.812500
8271		-7.812500
8272		-1.953125
8273		-3.906250
8274		1.953125
8275		0.000000
8276		5.859375
8277		3.906250
8278		9.765625
8279		9.765625
8280		15.625000
8281		13.671875
8282		19.531250
8283		17.578125
8284		23.437500
8285		21.484375
8286		27.343750
8287		25.390625
8288		31.250000
8289		31.250000
8290		35.156250
8291		35.156250
8292		41.015625
8293		39.062500
8294		42.968750
8295		42.968750
8296		46.875000
8297		44.921875
8298		50.781250
8299		48.828125
8300		54.687500
8301		52.734375
8302		58.593750
8303		56.640625
8304		62.500000
8305		60.546875
8306		64.453125
8307		62.500000
8308		68.359375
8309		66.406250
8310		72.265625
8311		68.359375
8312		72.265625
8313		70.312500
8314		76.171875
8315		74.218750
8316		78.125000
8317		76.171875
8318		80.078125
8319		78.125000
8320		82.031250
8321		80.078125
8322		83.984375
8323		82.031250
8324		85.937500
8325		82.031250
8326		87.890625
8327		85.937500
8328		87.890625
8329		85.937500
8330		89.843750
8331		87.890625
8332		91.796875
8333		87.890625
8334		91.796875
8335		89.843750
8336		91.796875
8337		89.843750
8338		91.796875
8339		89.843750
8340		93.750000
8341		89.843750
8342		93.750000
8343		89.843750
8344		91.796875
8345		89.843750
8346		91.796875
8347		87.890625
8348		91.796875
8349		87.890625
8350		91.796875
8351		87.890625
8352		89.843750
8353		85.937500
8354		89.843750
8355		83.984375
8356		87.890625
8357		83.984375
8358		85.937500
8359		82.031250
8360		85.937500
8361		80.078125
8362		83.984375
8363		78.125000
8364		82.031250
8365		76.171875
8366		80.078125
8367		72.265625
8368		78.125000
8369		70.312500
8370		74.218750
8371		68.359375
8372		72.265625
8373		64.453125
8374		70.312500
8375		62.500000
8376		68.359375
8377		58.593750
8378		62.500000
8379		54.687500
8380		60.546875
8381		52.734375
8382		56.640625
8383		48.828125
8384		52.734375
8385		44.921875
8386		50.781250
8387		39.062500
8388		46.875000
8389		37.109375
8390		42.968750
8391		33.203125
8392		39.062500
8393		29.296875
8394		33.203125
8395		25.390625
8396		29.296875
8397		19.531250
8398		25.390625
8399		15.625000
8400		21.484375
8401		11.718750
8402		17.578125
8403		5.859375
8404		13.671875
8405		1.953125
8406		7.812500
8407		-1.953125
8408		3.906250
8409		-5.859375
8410		0.000000
8411		-11.718750
8412		-3.906250
8413		-15.625000
8414		-9.765625
8415		-19.531250
8416		-13.671875
8417		-23.437500
8418		-17.578125
8419		-29.296875
8420		-21.484375
8421		-33.203125
8422		-27.343750
8423		-37.109375
8424		-31.250000
8425		-41.015625
8426		-35.156250
8427		-44.921875
8428		-39.062500
8429		-48.828125
8430		-42.968750
8431		-52.734375
8432		-46.875000
8433		-54.687500
8434		-50.781250
8435		-58.593750
8436		-54.687500
8437		-62.500000
8438		-56.640625
8439		-66.406250
8440		-60.546875
8441		-68.359375
8442		-62.500000
8443		-70.312500
8444		-66.406250
8445		-72.265625
8446		-68.359375
8447		-76.171875
8448		-70.312500
8449		-78.125000
8450		-72.265625
8451		-80.078125
8452		-74.218750
8453		-80.078125
8454		-78.125000
8455		-82.031250
8456		-78.125000
8457		-83.984375
8458		-80.078125
8459		-83.984375
8460		-80.078125
8461		-83.984375
8462		-82.031250
8463		-85.937500
8464		-82.031250
8465		-85.937500
8466		-82.031250
8467		-85.937500
8468		-82.031250
8469		-85.937500
8470		-82.031250
8471		-85.937500
8472		-82.031250
8473		-83.984375
8474		-82.031250
8475		-83.984375
8476		-80.078125
8477		-82.031250
8478		-80.078125
8479		-80.078125
8480		-78.125000
8481		-80.078125
8482		-76.171875
8483		-78.125000
8484		-74.218750
8485		-76.171875
8486		-72.265625
8487		-74.218750
8488		-70.312500
8489		-72.265625
8490		-66.406250
8491		-68.359375
8492		-64.453125
8493		-66.406250
8494		-60.546875
8495		-62.500000
8496		-58.593750
8497		-60.546875
8498		-54.687500
8499		-56.640625
8500		-52.734375
8501		-54.687500
8502		-46.875000
8503		-48.828125
8504		-42.968750
8505		-44.921875
8506		-41.015625
8507		-41.015625
8508		-35.156250
8509		-37.109375
8510		-33.203125
8511		-33.203125
8512		-27.343750
8513		-29.296875
8514		-23.437500
8515		-27.343750
8516		-19.531250
8517		-21.484375
8518		-15.625000
8519		-17.578125
8520		-11.718750
8521		-11.718750
8522		-5.859375
8523		-7.812500
8524		-1.953125
8525		-3.906250
8526		3.906250
8527		1.953125
8528		7.812500
8529		3.906250
8530		11.718750
8531		9.765625
8532		15.625000
8533		13.671875
8534		19.531250
8535		17.578125
8536		23.437500
8537		23.437500
8538		29.296875
8539		27.343750
8540		33.203125
8541		31.250000
8542		37.109375
8543		35.156250
8544		41.015625
8545		39.062500
8546		44.921875
8547		42.968750
8548		48.828125
8549		46.875000
8550		52.734375
8551		50.781250
8552		54.687500
8553		52.734375
8554		58.593750
8555		56.640625
8556		62.500000
8557		60.546875
8558		64.453125
8559		62.500000
8560		68.359375
8561		66.406250
8562		70.312500
8563		68.359375
8564		74.218750
8565		72.265625
8566		76.171875
8567		74.218750
8568		78.125000
8569		76.171875
8570		82.031250
8571		78.125000
8572		82.031250
8573		80.078125
8574		85.937500
8575		82.031250
8576		85.937500
8577		83.984375
8578		87.890625
8579		85.937500
8580		89.843750
8581		85.937500
8582		89.843750
8583		87.890625
8584		91.796875
8585		89.843750
8586		91.796875
8587		89.843750
8588		91.796875
8589		89.843750
8590		93.750000
8591		89.843750
8592		93.750000
8593		89.843750
8594		93.750000
8595		89.843750
8596		91.796875
8597		89.843750
8598		93.750000
8599		89.843750
8600		93.750000
8601		87.890625
8602		91.796875
8603		87.890625
8604		91.796875
8605		85.937500
8606		89.843750
8607		85.937500
8608		89.843750
8609		83.984375
8610		87.890625
8611		82.031250
8612		85.937500
8613		80.078125
8614		83.984375
8615		78.125000
8616		82.031250
8617		76.171875
8618		80.078125
8619		74.218750
8620		78.125000
8621		70.312500
8622		76.171875
8623		68.359375
8624		72.265625
8625		66.406250
8626		70.312500
8627		62.500000
8628		66.406250
8629		58.593750
8630		64.453125
8631		54.687500
8632		60.546875
8633		50.781250
8634		58.593750
8635		48.828125
8636		52.734375
8637		44.921875
8638		50.781250
8639		41.015625
8640		46.875000
8641		37.109375
8642		42.968750
8643		33.203125
8644		39.062500
8645		29.296875
8646		35.156250
8647		25.390625
8648		29.296875
8649		19.531250
8650		25.390625
8651		15.625000
8652		21.484375
8653		11.718750
8654		17.578125
8655		7.812500
8656		13.671875
8657		1.953125
8658		9.765625
8659		-1.953125
8660		3.906250
8661		-5.859375
8662		0.000000
8663		-9.765625
8664		-3.906250
8665		-15.625000
8666		-9.765625
8667		-19.531250
8668		-13.671875
8669		-23.437500
8670		-17.578125
8671		-27.343750
8672		-21.484375
8673		-33.203125
8674		-25.390625
8675		-37.109375
8676		-31.250000
8677		-41.015625
8678		-35.156250
8679		-42.968750
8680		-39.062500
8681		-48.828125
8682		-42.968750
8683		-50.781250
8684		-44.921875
8685		-54.687500
8686		-48.828125
8687		-58.593750
8688		-52.734375
8689		-62.500000
8690		-56.640625
8691		-64.453125
8692		-60.546875
8693		-68.359375
8694		-62.500000
8695		-70.312500
8696		-64.453125
8697		-72.265625
8698		-68.359375
8699		-74.218750
8700		-70.312500
8701		-78.125000
8702		-72.265625
8703		-78.125000
8704		-76.171875
8705		-80.078125
8706		-76.171875
8707		-82.031250
8708		-78.125000
8709		-83.984375
8710		-80.078125
8711		-83.984375
8712		-80.078125
8713		-83.984375
8714		-82.031250
8715		-85.937500
8716		-82.031250
8717		-85.937500
8718		-82.031250
8719		-85.937500
8720		-82.031250
8721		-85.937500
8722		-82.031250
8723		-83.984375
8724		-82.031250
8725		-83.984375
8726		-80.078125
8727		-83.984375
8728		-80.078125
8729		-82.031250
8730		-80.078125
8731		-80.078125
8732		-78.125000
8733		-80.078125
8734		-76.171875
8735		-78.125000
8736		-74.218750
8737		-76.171875
8738		-70.312500
8739		-74.218750
8740		-68.359375
8741		-70.312500
8742		-66.406250
8743		-68.359375
8744		-64.453125
8745		-66.406250
8746		-60.546875
8747		-62.500000
8748		-58.593750
8749		-58.593750
8750		-54.687500
8751		-56.640625
8752		-50.781250
8753		-52.734375
8754		-46.875000
8755		-48.828125
8756		-42.968750
8757		-46.875000
8758		-39.062500
8759		-41.015625
8760		-37.109375
8761		-37.109375
8762		-31.250000
8763		-33.203125
8764		-27.343750
8765		-29.296875
8766		-23.437500
8767		-25.390625
8768		-19.531250
8769		-21.484375
8770		-13.671875
8771		-15.625000
8772		-9.765625
8773		-11.718750
8774		-5.859375
8775		-7.812500
8776		-1.953125
8777		-3.906250
8778		3.906250
8779		1.953125
8780		7.812500
8781		5.859375
8782		11.718750
8783		9.765625
8784		15.625000
8785		15.625000
8786		21.484375
8787		19.531250
8788		25.390625
8789		23.437500
8790		29.296875
8791		27.343750
8792		33.203125
8793		31.250000
8794		37.109375
8795		35.156250
8796		41.015625
8797		39.062500
8798		44.921875
8799		42.968750
8800		50.781250
8801		46.875000
8802		52.734375
8803		50.781250
8804		56.640625
8805		52.734375
8806		58.593750
8807		58.593750
8808		62.500000
8809		60.546875
8810		66.406250
8811		64.453125
8812		70.312500
8813		66.406250
8814		72.265625
8815		70.312500
8816		74.218750
8817		72.265625
8818		78.125000
8819		74.218750
8820		78.125000
8821		76.171875
8822		82.031250
8823		80.078125
8824		83.984375
8825		80.078125
8826		85.937500
8827		83.984375
8828		85.937500
8829		83.984375
8830		87.890625
8831		85.937500
8832		89.843750
8833		85.937500
8834		89.843750
8835		87.890625
8836		91.796875
8837		87.890625
8838		91.796875
8839		89.843750
8840		91.796875
8841		89.843750
8842		93.750000
8843		89.843750
8844		93.750000
8845		89.843750
8846		93.750000
8847		91.796875
8848		93.750000
8849		89.843750
8850		91.796875
8851		89.843750
8852		93.750000
8853		87.890625
8854		91.796875
8855		87.890625
8856		91.796875
8857		85.937500
8858		89.843750
8859		85.937500
8860		89.843750
8861		83.984375
8862		87.890625
8863		82.031250
8864		85.937500
8865		80.078125
8866		83.984375
8867		78.125000
8868		82.031250
8869		76.171875
8870		80.078125
8871		74.218750
8872		78.125000
8873		70.312500
8874		76.171875
8875		68.359375
8876		72.265625
8877		66.406250
8878		70.312500
8879		62.500000
8880		66.406250
8881		58.593750
8882		64.453125
8883		54.687500
8884		60.546875
8885		50.781250
8886		56.640625
8887		48.828125
8888		54.687500
8889		44.921875
8890		50.781250
8891		41.015625
8892		46.875000
8893		37.109375
8894		42.968750
8895		33.203125
8896		39.062500
8897		29.296875
8898		35.156250
8899		25.390625
8900		29.296875
8901		19.531250
8902		25.390625
8903		15.625000
8904		21.484375
8905		11.718750
8906		17.578125
8907		7.812500
8908		13.671875
8909		3.906250
8910		9.765625
8911		-1.953125
8912		3.906250
8913		-5.859375
8914		0.000000
8915		-9.765625
8916		-3.906250
8917		-15.625000
8918		-9.765625
8919		-19.531250
8920		-11.718750
8921		-23.437500
8922		-17.578125
8923		-27.343750
8924		-21.484375
8925		-33.203125
8926		-25.390625
8927		-35.156250
8928		-31.250000
8929		-41.015625
8930		-35.156250
8931		-42.968750
8932		-39.062500
8933		-48.828125
8934		-42.968750
8935		-52.734375
8936		-44.921875
8937		-54.687500
8938		-50.781250
8939		-58.593750
8940		-52.734375
8941		-60.546875
8942		-56.640625
8943		-64.453125
8944		-60.546875
8945		-68.359375
8946		-62.500000
8947		-70.312500
8948		-64.453125
8949		-72.265625
8950		-68.359375
8951		-74.218750
8952		-70.312500
8953		-76.171875
8954		-72.265625
8955		-78.125000
8956		-74.218750
8957		-80.078125
8958		-76.171875
8959		-82.031250
8960		-78.125000
8961		-82.031250
8962		-78.125000
8963		-83.984375
8964		-80.078125
8965		-83.984375
8966		-82.031250
8967		-85.937500
8968		-82.031250
8969		-85.937500
8970		-82.031250
8971		-85.937500
8972		-82.031250
8973		-83.984375
8974		-82.031250
8975		-83.984375
8976		-80.078125
8977		-83.984375
8978		-80.078125
8979		-82.031250
8980		-78.125000
8981		-82.031250
8982		-78.125000
8983		-80.078125
8984		-76.171875
8985		-80.078125
8986		-74.218750
8987		-76.171875
8988		-72.265625
8989		-74.218750
8990		-70.312500
8991		-72.265625
8992		-68.359375
8993		-70.312500
8994		-66.406250
8995		-68.359375
8996		-62.500000
8997		-64.453125
8998		-60.546875
8999		-62.500000
9000		-56.640625
9001		-58.593750
9002		-52.734375
9003		-56.640625
9004		-50.781250
9005		-50.781250
9006		-46.875000
9007		-48.828125
9008		-42.968750
9009		-44.921875
9010		-39.062500
9011		-41.015625
9012		-35.156250
9013		-37.109375
9014		-31.250000
9015		-33.203125
9016		-27.343750
9017		-29.296875
9018		-23.437500
9019		-23.437500
9020		-17.578125
9021		-19.531250
9022		-13.671875
9023		-15.625000
9024		-9.765625
9025		-11.718750
9026		-5.859375
9027		-5.859375
9028		-1.953125
9029		-1.953125
9030		3.906250
9031		0.000000
9032		7.812500
9033		5.859375
9034		11.718750
9035		11.718750
9036		17.578125
9037		15.625000
9038		21.484375
9039		19.531250
9040		25.390625
9041		23.437500
9042		29.296875
9043		27.343750
9044		33.203125
9045		31.250000
9046		37.109375
9047		37.109375
9048		41.015625
9049		41.015625
9050		44.921875
9051		42.968750
9052		48.828125
9053		46.875000
9054		52.734375
9055		50.781250
9056		56.640625
9057		54.687500
9058		60.546875
9059		58.593750
9060		62.500000
9061		60.546875
9062		66.406250
9063		64.453125
9064		70.312500
9065		68.359375
9066		72.265625
9067		70.312500
9068		74.218750
9069		72.265625
9070		78.125000
9071		74.218750
9072		80.078125
9073		78.125000
9074		82.031250
9075		80.078125
9076		83.984375
9077		82.031250
9078		85.937500
9079		83.984375
9080		85.937500
9081		83.984375
9082		87.890625
9083		85.937500
9084		89.843750
9085		87.890625
9086		91.796875
9087		87.890625
9088		91.796875
9089		89.843750
9090		91.796875
9091		89.843750
9092		91.796875
9093		89.843750
9094		93.750000
9095		91.796875
9096		93.750000
9097		89.843750
9098		93.750000
9099		91.796875
9100		93.750000
9101		89.843750
9102		93.750000
9103		89.843750
9104		93.750000
9105		89.843750
9106		91.796875
9107		87.890625
9108		91.796875
9109		85.937500
9110		89.843750
9111		85.937500
9112		89.843750
9113		83.984375
9114		87.890625
9115		82.031250
9116		87.890625
9117		80.078125
9118		83.984375
9119		78.125000
9120		82.031250
9121		76.171875
9122		80.078125
9123		74.218750
9124		78.125000
9125		70.312500
9126		76.171875
9127		68.359375
9128		72.265625
9129		64.453125
9130		70.312500
9131		62.500000
9132		66.406250
9133		60.546875
9134		64.453125
9135		56.640625
9136		60.546875
9137		52.734375
9138		58.593750
9139		48.828125
9140		54.687500
9141		44.921875
9142		50.781250
9143		41.015625
9144		46.875000
9145		37.109375
9146		42.968750
9147		31.250000
9148		39.062500
9149		29.296875
9150		35.156250
9151		25.390625
9152		31.250000
9153		19.531250
9154		25.390625
9155		15.625000
9156		21.484375
9157		11.718750
9158		17.578125
9159		5.859375
9160		13.671875
9161		1.953125
9162		7.812500
9163		-1.953125
9164		3.906250
9165		-5.859375
9166		0.000000
9167		-9.765625
9168		-3.906250
9169		-15.625000
9170		-9.765625
9171		-19.531250
9172		-13.671875
9173		-23.437500
9174		-17.578125
9175		-27.343750
9176		-21.484375
9177		-33.203125
9178		-27.343750
9179		-37.109375
9180		-31.250000
9181		-41.015625
9182		-35.156250
9183		-44.921875
9184		-39.062500
9185		-46.875000
9186		-42.968750
9187		-50.781250
9188		-46.875000
9189		-54.687500
9190		-50.781250
9191		-58.593750
9192		-52.734375
9193		-62.500000
9194		-56.640625
9195		-64.453125
9196		-60.546875
9197		-68.359375
9198		-62.500000
9199		-70.312500
9200		-64.453125
9201		-72.265625
9202		-68.359375
9203		-76.171875
9204		-70.312500
9205		-76.171875
9206		-72.265625
9207		-78.125000
9208		-74.218750
9209		-80.078125
9210		-76.171875
9211		-82.031250
9212		-78.125000
9213		-83.984375
9214		-80.078125
9215		-83.984375
9216		-80.078125
9217		-83.984375
9218		-82.031250
9219		-83.984375
9220		-82.031250
9221		-85.937500
9222		-82.031250
9223		-85.937500
9224		-82.031250
9225		-83.984375
9226		-82.031250
9227		-83.984375
9228		-82.031250
9229		-83.984375
9230		-80.078125
9231		-82.031250
9232		-78.125000
9233		-82.031250
9234		-78.125000
9235		-80.078125
9236		-78.125000
9237		-80.078125
9238		-76.171875
9239		-78.125000
9240		-74.218750
9241		-76.171875
9242		-72.265625
9243		-74.218750
9244		-68.359375
9245		-70.312500
9246		-66.406250
9247		-68.359375
9248		-62.500000
9249		-66.406250
9250		-60.546875
9251		-62.500000
9252		-58.593750
9253		-58.593750
9254		-54.687500
9255		-56.640625
9256		-50.781250
9257		-52.734375
9258		-46.875000
9259		-48.828125
9260		-42.968750
9261		-44.921875
9262		-39.062500
9263		-41.015625
9264		-35.156250
9265		-37.109375
9266		-31.250000
9267		-33.203125
9268		-27.343750
9269		-29.296875
9270		-23.437500
9271		-25.390625
9272		-17.578125
9273		-19.531250
9274		-13.671875
9275		-15.625000
9276		-9.765625
9277		-11.718750
9278		-5.859375
9279		-7.812500
9280		0.000000
9281		-1.953125
9282		3.906250
9283		0.000000
9284		7.812500
9285		5.859375
9286		11.718750
9287		11.718750
9288		17.578125
9289		15.625000
9290		21.484375
9291		19.531250
9292		25.390625
9293		23.437500
9294		29.296875
9295		27.343750
9296		33.203125
9297		31.250000
9298		37.109375
9299		35.156250
9300		41.015625
9301		41.015625
9302		44.921875
9303		44.921875
9304		48.828125
9305		46.875000
9306		52.734375
9307		50.781250
9308		56.640625
9309		54.687500
9310		58.593750
9311		58.593750
9312		62.500000
9313		60.546875
9314		66.406250
9315		64.453125
9316		68.359375
9317		66.406250
9318		72.265625
9319		70.312500
9320		74.218750
9321		72.265625
9322		76.171875
9323		76.171875
9324		80.078125
9325		78.125000
9326		82.031250
9327		78.125000
9328		83.984375
9329		82.031250
9330		83.984375
9331		83.984375
9332		87.890625
9333		83.984375
9334		87.890625
9335		85.937500
9336		89.843750
9337		87.890625
9338		91.796875
9339		87.890625
9340		91.796875
9341		87.890625
9342		91.796875
9343		89.843750
9344		91.796875
9345		89.843750
9346		93.750000
9347		89.843750
9348		93.750000
9349		89.843750
9350		93.750000
9351		89.843750
9352		93.750000
9353		89.843750
9354		91.796875
9355		89.843750
9356		93.750000
9357		87.890625
9358		91.796875
9359		87.890625
9360		91.796875
9361		85.937500
9362		89.843750
9363		85.937500
9364		87.890625
9365		83.984375
9366		87.890625
9367		82.031250
9368		85.937500
9369		80.078125
9370		83.984375
9371		78.125000
9372		82.031250
9373		76.171875
9374		80.078125
9375		72.265625
9376		78.125000
9377		70.312500
9378		74.218750
9379		68.359375
9380		72.265625
9381		64.453125
9382		68.359375
9383		62.500000
9384		66.406250
9385		58.593750
9386		62.500000
9387		54.687500
9388		60.546875
9389		52.734375
9390		56.640625
9391		48.828125
9392		52.734375
9393		44.921875
9394		50.781250
9395		41.015625
9396		46.875000
9397		37.109375
9398		42.968750
9399		33.203125
9400		39.062500
9401		29.296875
9402		35.156250
9403		25.390625
9404		29.296875
9405		19.531250
9406		25.390625
9407		13.671875
9408		21.484375
9409		11.718750
9410		17.578125
9411		5.859375
9412		13.671875
9413		1.953125
9414		7.812500
9415		-1.953125
9416		3.906250
9417		-5.859375
9418		0.000000
9419		-11.718750
9420		-5.859375
9421		-17.578125
9422		-9.765625
9423		-19.531250
9424		-13.671875
9425		-23.437500
9426		-17.578125
9427		-27.343750
9428		-21.484375
9429		-33.203125
9430		-27.343750
9431		-37.109375
9432		-31.250000
9433		-41.015625
9434		-35.156250
9435		-44.921875
9436		-39.062500
9437		-48.828125
9438		-42.968750
9439		-52.734375
9440		-46.875000
9441		-54.687500
9442		-50.781250
9443		-58.593750
9444		-54.687500
9445		-62.500000
9446		-56.640625
9447		-64.453125
9448		-60.546875
9449		-68.359375
9450		-62.500000
9451		-70.312500
9452		-66.406250
9453		-72.265625
9454		-68.359375
9455		-76.171875
9456		-70.312500
9457		-78.125000
9458		-72.265625
9459		-78.125000
9460		-74.218750
9461		-80.078125
9462		-76.171875
9463		-82.031250
9464		-78.125000
9465		-82.031250
9466		-80.078125
9467		-83.984375
9468		-80.078125
9469		-83.984375
9470		-82.031250
9471		-83.984375
9472		-82.031250
9473		-85.937500
9474		-82.031250
9475		-85.937500
9476		-82.031250
9477		-83.984375
9478		-82.031250
9479		-83.984375
9480		-80.078125
9481		-83.984375
9482		-80.078125
9483		-82.031250
9484		-80.078125
9485		-82.031250
9486		-78.125000
9487		-80.078125
9488		-76.171875
9489		-80.078125
9490		-74.218750
9491		-76.171875
9492		-72.265625
9493		-74.218750
9494		-70.312500
9495		-72.265625
9496		-68.359375
9497		-70.312500
9498		-66.406250
9499		-68.359375
9500		-62.500000
9501		-64.453125
9502		-60.546875
9503		-62.500000
9504		-56.640625
9505		-58.593750
9506		-52.734375
9507		-54.687500
9508		-48.828125
9509		-50.781250
9510		-46.875000
9511		-48.828125
9512		-42.968750
9513		-44.921875
9514		-39.062500
9515		-41.015625
9516		-35.156250
9517		-37.109375
9518		-31.250000
9519		-31.250000
9520		-27.343750
9521		-29.296875
9522		-23.437500
9523		-23.437500
9524		-17.578125
9525		-19.531250
9526		-13.671875
9527		-15.625000
9528		-9.765625
9529		-11.718750
9530		-5.859375
9531		-5.859375
9532		0.000000
9533		-1.953125
9534		3.906250
9535		1.953125
9536		7.812500
9537		7.812500
9538		11.718750
9539		11.718750
9540		17.578125
9541		15.625000
9542		21.484375
9543		19.531250
9544		25.390625
9545		23.437500
9546		29.296875
9547		29.296875
9548		35.156250
9549		33.203125
9550		37.109375
9551		37.109375
9552		42.968750
9553		41.015625
9554		44.921875
9555		44.921875
9556		48.828125
9557		46.875000
9558		52.734375
9559		52.734375
9560		56.640625
9561		54.687500
9562		60.546875
9563		58.593750
9564		64.453125
9565		62.500000
9566		66.406250
9567		64.453125
9568		70.312500
9569		66.406250
9570		72.265625
9571		70.312500
9572		74.218750
9573		72.265625
9574		78.125000
9575		74.218750
9576		80.078125
9577		78.125000
9578		82.031250
9579		80.078125
9580		83.984375
9581		82.031250
9582		85.937500
9583		83.984375
9584		87.890625
9585		83.984375
9586		87.890625
9587		85.937500
9588		89.843750
9589		87.890625
9590		91.796875
9591		87.890625
9592		91.796875
9593		89.843750
9594		93.750000
9595		89.843750
9596		93.750000
9597		89.843750
9598		93.750000
9599		89.843750
9600		93.750000
9601		89.843750
9602		93.750000
9603		91.796875
9604		93.750000
9605		89.843750
9606		93.750000
9607		87.890625
9608		93.750000
9609		87.890625
9610		91.796875
9611		87.890625
9612		91.796875
9613		85.937500
9614		89.843750
9615		85.937500
9616		89.843750
9617		83.984375
9618		87.890625
9619		82.031250
9620		85.937500
9621		80.078125
9622		83.984375
9623		78.125000
9624		82.031250
9625		76.171875
9626		80.078125
9627		74.218750
9628		78.125000
9629		70.312500
9630		76.171875
9631		68.359375
9632		72.265625
9633		66.406250
9634		70.312500
9635		60.546875
9636		66.406250
9637		58.593750
9638		64.453125
9639		56.640625
9640		60.546875
9641		52.734375
9642		58.593750
9643		48.828125
9644		52.734375
9645		44.921875
9646		50.781250
9647		39.062500
9648		46.875000
9649		37.109375
9650		42.968750
9651		33.203125
9652		39.062500
9653		29.296875
9654		35.156250
9655		25.390625
9656		29.296875
9657		19.531250
9658		25.390625
9659		15.625000
9660		21.484375
9661		11.718750
9662		17.578125
9663		5.859375
9664		13.671875
9665		1.953125
9666		7.812500
9667		-1.953125
9668		3.906250
9669		-5.859375
9670		0.000000
9671		-9.765625
9672		-5.859375
9673		-15.625000
9674		-9.765625
9675		-19.531250
9676		-13.671875
9677		-23.437500
9678		-17.578125
9679		-27.343750
9680		-23.437500
9681		-33.203125
9682		-27.343750
9683		-37.109375
9684		-31.250000
9685		-41.015625
9686		-35.156250
9687		-44.921875
9688		-39.062500
9689		-48.828125
9690		-42.968750
9691		-50.781250
9692		-46.875000
9693		-54.687500
9694		-50.781250
9695		-58.593750
9696		-52.734375
9697		-62.500000
9698		-56.640625
9699		-64.453125
9700		-60.546875
9701		-68.359375
9702		-62.500000
9703		-70.312500
9704		-66.406250
9705		-72.265625
9706		-68.359375
9707		-76.171875
9708		-70.312500
9709		-76.171875
9710		-72.265625
9711		-78.125000
9712		-74.218750
9713		-80.078125
9714		-76.171875
9715		-82.031250
9716		-78.125000
9717		-82.031250
9718		-80.078125
9719		-83.984375
9720		-80.078125
9721		-83.984375
9722		-82.031250
9723		-83.984375
9724		-82.031250
9725		-85.937500
9726		-82.031250
9727		-85.937500
9728		-82.031250
9729		-85.937500
9730		-82.031250
9731		-83.984375
9732		-80.078125
9733		-83.984375
9734		-80.078125
9735		-82.031250
9736		-78.125000
9737		-82.031250
9738		-78.125000
9739		-82.031250
9740		-76.171875
9741		-78.125000
9742		-74.218750
9743		-76.171875
9744		-72.265625
9745		-74.218750
9746		-70.312500
9747		-72.265625
9748		-68.359375
9749		-70.312500
9750		-66.406250
9751		-66.406250
9752		-62.500000
9753		-64.453125
9754		-60.546875
9755		-60.546875
9756		-56.640625
9757		-58.593750
9758		-54.687500
9759		-56.640625
9760		-48.828125
9761		-50.781250
9762		-46.875000
9763		-46.875000
9764		-42.968750
9765		-44.921875
9766		-39.062500
9767		-41.015625
9768		-35.156250
9769		-35.156250
9770		-29.296875
9771		-31.250000
9772		-27.343750
9773		-27.343750
9774		-21.484375
9775		-23.437500
9776		-17.578125
9777		-19.531250
9778		-13.671875
9779		-15.625000
9780		-7.812500
9781		-9.765625
9782		-3.906250
9783		-5.859375
9784		0.000000
9785		-1.953125
9786		3.906250
9787		1.953125
9788		7.812500
9789		7.812500
9790		13.671875
9791		11.718750
9792		17.578125
9793		15.625000
9794		21.484375
9795		19.531250
9796		25.390625
9797		23.437500
9798		29.296875
9799		29.296875
9800		35.156250
9801		33.203125
9802		39.062500
9803		35.156250
9804		42.968750
9805		41.015625
9806		44.921875
9807		44.921875
9808		48.828125
9809		46.875000
9810		54.687500
9811		52.734375
9812		58.593750
9813		54.687500
9814		60.546875
9815		58.593750
9816		64.453125
9817		58.593750
9818		66.406250
9819		64.453125
9820		70.312500
9821		68.359375
9822		72.265625
9823		70.312500
9824		74.218750
9825		72.265625
9826		80.078125
9827		74.218750
9828		80.078125
9829		76.171875
9830		82.031250
9831		80.078125
9832		83.984375
9833		80.078125
9834		85.937500
9835		83.984375
9836		89.843750
9837		82.031250
9838		89.843750
9839		85.937500
9840		89.843750
9841		87.890625
9842		91.796875
9843		87.890625
9844		93.750000
9845		87.890625
9846		93.750000
9847		87.890625
9848		95.703125
9849		87.890625
9850		95.703125
9851		89.843750
9852		95.703125
9853		89.843750
9854		95.703125
9855		89.843750
9856		93.750000
9857		89.843750
9858		93.750000
9859		87.890625
9860		93.750000
9861		85.937500
9862		93.750000
9863		85.937500
9864		93.750000
9865		85.937500
9866		91.796875
9867		83.984375
9868		91.796875
9869		82.031250
9870		89.843750
9871		82.031250
9872		87.890625
9873		80.078125
9874		83.984375
9875		78.125000
9876		82.031250
9877		74.218750
9878		82.031250
9879		72.265625
9880		80.078125
9881		70.312500
9882		76.171875
9883		66.406250
9884		74.218750
9885		64.453125
9886		72.265625
9887		60.546875
9888		68.359375
9889		58.593750
9890		64.453125
9891		56.640625
9892		60.546875
9893		48.828125
9894		58.593750
9895		46.875000
9896		54.687500
9897		42.968750
9898		52.734375
9899		41.015625
9900		46.875000
9901		35.156250
9902		44.921875
9903		31.250000
9904		41.015625
9905		29.296875
9906		37.109375
9907		25.390625
9908		29.296875
9909		17.578125
9910		25.390625
9911		13.671875
9912		23.437500
9913		9.765625
9914		19.531250
9915		5.859375
9916		15.625000
9917		1.953125
9918		11.718750
9919		-3.906250
9920		5.859375
9921		-5.859375
9922		0.000000
9923		-9.765625
9924		-5.859375
9925		-15.625000
9926		-9.765625
9927		-21.484375
9928		-11.718750
9929		-25.390625
9930		-15.625000
9931		-29.296875
9932		-21.484375
9933		-33.203125
9934		-25.390625
9935		-39.062500
9936		-29.296875
9937		-42.968750
9938		-33.203125
9939		-44.921875
9940		-39.062500
9941		-48.828125
9942		-42.968750
9943		-54.687500
9944		-46.875000
9945		-56.640625
9946		-48.828125
9947		-60.546875
9948		-50.781250
9949		-64.453125
9950		-54.687500
9951		-66.406250
9952		-56.640625
9953		-68.359375
9954		-60.546875
9955		-70.312500
9956		-64.453125
9957		-72.265625
9958		-68.359375
9959		-76.171875
9960		-70.312500
9961		-78.125000
9962		-70.312500
9963		-80.078125
9964		-72.265625
9965		-82.031250
9966		-74.218750
9967		-83.984375
9968		-74.218750
9969		-83.984375
9970		-76.171875
9971		-83.984375
9972		-78.125000
9973		-83.984375
9974		-80.078125
9975		-83.984375
9976		-82.031250
9977		-85.937500
9978		-80.078125
9979		-85.937500
9980		-80.078125
9981		-85.937500
9982		-78.125000
9983		-85.937500
9984		-78.125000
9985		-85.937500
9986		-78.125000
9987		-83.984375
9988		-76.171875
9989		-83.984375
9990		-76.171875
9991		-80.078125
9992		-76.171875
9993		-78.125000
9994		-72.265625
9995		-78.125000
9996		-70.312500
9997		-76.171875
9998		-68.359375
9999		-74.218750
10000		-66.406250
