Channel              :		CH1
Frequency            :		1.043kHz
Period               :		0.959ms
PK-PK                :		322.3mV
Probe attenuation    :		1X
Voltage per ADC value:		0.122070mV
Time interval        :		2.00000us

index		CH1_Voltage(mV)
1		-58.593750
2		-58.593750
3		-70.312500
4		-62.500000
5		-74.218750
6		-64.453125
7		-78.125000
8		-70.312500
9		-82.031250
10		-74.218750
11		-87.890625
12		-78.125000
13		-87.890625
14		-82.031250
15		-91.796875
16		-85.937500
17		-95.703125
18		-91.796875
19		-99.609375
20		-93.750000
21		-105.468750
22		-95.703125
23		-109.375000
24		-99.609375
25		-113.281250
26		-103.515625
27		-117.187500
28		-105.468750
29		-119.140625
30		-111.328125
31		-121.093750
32		-115.234375
33		-125.000000
34		-119.140625
35		-126.953125
36		-123.046875
37		-132.812500
38		-125.000000
39		-136.718750
40		-126.953125
41		-138.671875
42		-130.859375
43		-142.578125
44		-132.812500
45		-142.578125
46		-134.765625
47		-144.531250
48		-140.625000
49		-146.484375
50		-142.578125
51		-148.437500
52		-144.531250
53		-154.296875
54		-146.484375
55		-156.250000
56		-146.484375
57		-158.203125
58		-150.390625
59		-160.156250
60		-152.343750
61		-162.109375
62		-152.343750
63		-160.156250
64		-156.250000
65		-162.109375
66		-160.156250
67		-166.015625
68		-160.156250
69		-166.015625
70		-162.109375
71		-167.968750
72		-162.109375
73		-169.921875
74		-162.109375
75		-171.875000
76		-164.062500
77		-171.875000
78		-164.062500
79		-171.875000
80		-164.062500
81		-169.921875
82		-167.968750
83		-171.875000
84		-167.968750
85		-171.875000
86		-167.968750
87		-173.828125
88		-166.015625
89		-173.828125
90		-167.968750
91		-173.828125
92		-166.015625
93		-173.828125
94		-166.015625
95		-173.828125
96		-166.015625
97		-171.875000
98		-166.015625
99		-169.921875
100		-167.968750
101		-169.921875
102		-166.015625
103		-167.968750
104		-166.015625
105		-169.921875
106		-162.109375
107		-169.921875
108		-162.109375
109		-167.968750
110		-160.156250
111		-166.015625
112		-158.203125
113		-166.015625
114		-158.203125
115		-160.156250
116		-156.250000
117		-158.203125
118		-154.296875
119		-158.203125
120		-154.296875
121		-156.250000
122		-148.437500
123		-156.250000
124		-146.484375
125		-152.343750
126		-144.531250
127		-152.343750
128		-142.578125
129		-148.437500
130		-140.625000
131		-142.578125
132		-138.671875
133		-140.625000
134		-136.718750
135		-138.671875
136		-132.812500
137		-134.765625
138		-128.906250
139		-134.765625
140		-125.000000
141		-132.812500
142		-123.046875
143		-128.906250
144		-119.140625
145		-125.000000
146		-115.234375
147		-121.093750
148		-113.281250
149		-115.234375
150		-111.328125
151		-111.328125
152		-105.468750
153		-109.375000
154		-103.515625
155		-107.421875
156		-97.656250
157		-103.515625
158		-93.750000
159		-99.609375
160		-89.843750
161		-95.703125
162		-85.937500
163		-91.796875
164		-82.031250
165		-85.937500
166		-80.078125
167		-82.031250
168		-76.171875
169		-78.125000
170		-72.265625
171		-74.218750
172		-66.406250
173		-70.312500
174		-62.500000
175		-66.406250
176		-56.640625
177		-62.500000
178		-52.734375
179		-58.593750
180		-50.781250
181		-54.687500
182		-46.875000
183		-48.828125
184		-42.968750
185		-42.968750
186		-39.062500
187		-39.062500
188		-33.203125
189		-37.109375
190		-27.343750
191		-33.203125
192		-23.437500
193		-27.343750
194		-19.531250
195		-23.437500
196		-15.625000
197		-19.531250
198		-11.718750
199		-13.671875
200		-7.812500
201		-9.765625
202		-3.906250
203		-7.812500
204		0.000000
205		-1.953125
206		5.859375
207		0.000000
208		9.765625
209		5.859375
210		15.625000
211		7.812500
212		17.578125
213		11.718750
214		21.484375
215		19.531250
216		23.437500
217		23.437500
218		27.343750
219		27.343750
220		31.250000
221		29.296875
222		39.062500
223		33.203125
224		41.015625
225		35.156250
226		44.921875
227		39.062500
228		48.828125
229		44.921875
230		52.734375
231		46.875000
232		54.687500
233		52.734375
234		56.640625
235		56.640625
236		60.546875
237		58.593750
238		64.453125
239		60.546875
240		70.312500
241		62.500000
242		72.265625
243		66.406250
244		76.171875
245		70.312500
246		78.125000
247		72.265625
248		82.031250
249		78.125000
250		82.031250
251		80.078125
252		85.937500
253		82.031250
254		87.890625
255		85.937500
256		93.750000
257		85.937500
258		95.703125
259		89.843750
260		99.609375
261		91.796875
262		101.562500
263		93.750000
264		103.515625
265		99.609375
266		103.515625
267		101.562500
268		105.468750
269		103.515625
270		109.375000
271		105.468750
272		109.375000
273		105.468750
274		113.281250
275		109.375000
276		117.187500
277		111.328125
278		119.140625
279		111.328125
280		119.140625
281		113.281250
282		121.093750
283		117.187500
284		121.093750
285		119.140625
286		123.046875
287		119.140625
288		125.000000
289		121.093750
290		128.906250
291		121.093750
292		128.906250
293		123.046875
294		130.859375
295		125.000000
296		132.812500
297		125.000000
298		132.812500
299		126.953125
300		132.812500
301		130.859375
302		132.812500
303		130.859375
304		134.765625
305		130.859375
306		138.671875
307		130.859375
308		138.671875
309		132.812500
310		138.671875
311		132.812500
312		140.625000
313		132.812500
314		140.625000
315		132.812500
316		140.625000
317		136.718750
318		138.671875
319		134.765625
320		140.625000
321		136.718750
322		140.625000
323		134.765625
324		142.578125
325		134.765625
326		142.578125
327		134.765625
328		142.578125
329		134.765625
330		142.578125
331		134.765625
332		142.578125
333		138.671875
334		140.625000
335		136.718750
336		140.625000
337		134.765625
338		142.578125
339		134.765625
340		142.578125
341		134.765625
342		140.625000
343		132.812500
344		140.625000
345		132.812500
346		140.625000
347		130.859375
348		140.625000
349		132.812500
350		138.671875
351		132.812500
352		136.718750
353		130.859375
354		136.718750
355		130.859375
356		134.765625
357		126.953125
358		136.718750
359		126.953125
360		134.765625
361		125.000000
362		132.812500
363		123.046875
364		130.859375
365		123.046875
366		130.859375
367		123.046875
368		126.953125
369		121.093750
370		125.000000
371		119.140625
372		125.000000
373		117.187500
374		123.046875
375		115.234375
376		123.046875
377		113.281250
378		121.093750
379		111.328125
380		119.140625
381		109.375000
382		117.187500
383		109.375000
384		115.234375
385		107.421875
386		111.328125
387		103.515625
388		109.375000
389		99.609375
390		107.421875
391		97.656250
392		105.468750
393		95.703125
394		103.515625
395		91.796875
396		101.562500
397		89.843750
398		97.656250
399		87.890625
400		95.703125
401		85.937500
402		91.796875
403		82.031250
404		87.890625
405		80.078125
406		85.937500
407		74.218750
408		83.984375
409		72.265625
410		82.031250
411		68.359375
412		78.125000
413		66.406250
414		74.218750
415		62.500000
416		70.312500
417		60.546875
418		66.406250
419		58.593750
420		62.500000
421		52.734375
422		60.546875
423		48.828125
424		56.640625
425		44.921875
426		54.687500
427		41.015625
428		50.781250
429		37.109375
430		46.875000
431		33.203125
432		42.968750
433		31.250000
434		39.062500
435		29.296875
436		33.203125
437		23.437500
438		29.296875
439		19.531250
440		25.390625
441		13.671875
442		23.437500
443		11.718750
444		19.531250
445		7.812500
446		15.625000
447		1.953125
448		11.718750
449		-1.953125
450		7.812500
451		-3.906250
452		1.953125
453		-9.765625
454		-1.953125
455		-11.718750
456		-5.859375
457		-17.578125
458		-9.765625
459		-21.484375
460		-13.671875
461		-27.343750
462		-17.578125
463		-31.250000
464		-21.484375
465		-35.156250
466		-25.390625
467		-37.109375
468		-31.250000
469		-41.015625
470		-35.156250
471		-46.875000
472		-39.062500
473		-52.734375
474		-44.921875
475		-56.640625
476		-46.875000
477		-60.546875
478		-50.781250
479		-64.453125
480		-54.687500
481		-68.359375
482		-58.593750
483		-70.312500
484		-62.500000
485		-74.218750
486		-68.359375
487		-80.078125
488		-72.265625
489		-82.031250
490		-76.171875
491		-87.890625
492		-78.125000
493		-91.796875
494		-83.984375
495		-95.703125
496		-85.937500
497		-101.562500
498		-89.843750
499		-103.515625
500		-93.750000
501		-105.468750
502		-99.609375
503		-107.421875
504		-103.515625
505		-113.281250
506		-107.421875
507		-117.187500
508		-109.375000
509		-119.140625
510		-111.328125
511		-123.046875
512		-115.234375
513		-126.953125
514		-117.187500
515		-128.906250
516		-121.093750
517		-130.859375
518		-125.000000
519		-134.765625
520		-128.906250
521		-136.718750
522		-132.812500
523		-140.625000
524		-134.765625
525		-146.484375
526		-134.765625
527		-146.484375
528		-138.671875
529		-148.437500
530		-140.625000
531		-152.343750
532		-142.578125
533		-152.343750
534		-146.484375
535		-154.296875
536		-150.390625
537		-156.250000
538		-152.343750
539		-158.203125
540		-154.296875
541		-162.109375
542		-154.296875
543		-164.062500
544		-156.250000
545		-166.015625
546		-156.250000
547		-166.015625
548		-158.203125
549		-167.968750
550		-160.156250
551		-166.015625
552		-164.062500
553		-167.968750
554		-164.062500
555		-169.921875
556		-164.062500
557		-171.875000
558		-164.062500
559		-171.875000
560		-164.062500
561		-171.875000
562		-166.015625
563		-173.828125
564		-166.015625
565		-173.828125
566		-166.015625
567		-171.875000
568		-166.015625
569		-169.921875
570		-167.968750
571		-171.875000
572		-167.968750
573		-169.921875
574		-167.968750
575		-171.875000
576		-164.062500
577		-171.875000
578		-164.062500
579		-169.921875
580		-164.062500
581		-169.921875
582		-162.109375
583		-169.921875
584		-162.109375
585		-166.015625
586		-162.109375
587		-164.062500
588		-162.109375
589		-164.062500
590		-160.156250
591		-162.109375
592		-156.250000
593		-162.109375
594		-154.296875
595		-160.156250
596		-152.343750
597		-160.156250
598		-150.390625
599		-158.203125
600		-148.437500
601		-154.296875
602		-148.437500
603		-150.390625
604		-146.484375
605		-148.437500
606		-142.578125
607		-146.484375
608		-140.625000
609		-144.531250
610		-136.718750
611		-142.578125
612		-132.812500
613		-140.625000
614		-130.859375
615		-136.718750
616		-128.906250
617		-134.765625
618		-126.953125
619		-128.906250
620		-125.000000
621		-125.000000
622		-121.093750
623		-123.046875
624		-117.187500
625		-121.093750
626		-113.281250
627		-119.140625
628		-109.375000
629		-113.281250
630		-105.468750
631		-111.328125
632		-101.562500
633		-107.421875
634		-97.656250
635		-101.562500
636		-95.703125
637		-97.656250
638		-91.796875
639		-93.750000
640		-87.890625
641		-89.843750
642		-82.031250
643		-89.843750
644		-78.125000
645		-83.984375
646		-74.218750
647		-80.078125
648		-70.312500
649		-76.171875
650		-66.406250
651		-72.265625
652		-64.453125
653		-64.453125
654		-60.546875
655		-60.546875
656		-54.687500
657		-56.640625
658		-50.781250
659		-52.734375
660		-46.875000
661		-48.828125
662		-41.015625
663		-44.921875
664		-37.109375
665		-41.015625
666		-33.203125
667		-37.109375
668		-29.296875
669		-31.250000
670		-25.390625
671		-27.343750
672		-21.484375
673		-23.437500
674		-17.578125
675		-19.531250
676		-11.718750
677		-17.578125
678		-5.859375
679		-11.718750
680		-3.906250
681		-7.812500
682		1.953125
683		-5.859375
684		5.859375
685		0.000000
686		7.812500
687		5.859375
688		11.718750
689		9.765625
690		15.625000
691		13.671875
692		19.531250
693		15.625000
694		25.390625
695		19.531250
696		31.250000
697		23.437500
698		33.203125
699		27.343750
700		37.109375
701		31.250000
702		39.062500
703		37.109375
704		42.968750
705		41.015625
706		46.875000
707		42.968750
708		48.828125
709		46.875000
710		54.687500
711		48.828125
712		58.593750
713		52.734375
714		60.546875
715		56.640625
716		64.453125
717		58.593750
718		68.359375
719		62.500000
720		70.312500
721		68.359375
722		72.265625
723		70.312500
724		76.171875
725		74.218750
726		78.125000
727		74.218750
728		83.984375
729		78.125000
730		87.890625
731		82.031250
732		89.843750
733		83.984375
734		91.796875
735		85.937500
736		93.750000
737		91.796875
738		95.703125
739		93.750000
740		97.656250
741		95.703125
742		101.562500
743		97.656250
744		105.468750
745		99.609375
746		109.375000
747		101.562500
748		111.328125
749		103.515625
750		111.328125
751		105.468750
752		113.281250
753		111.328125
754		113.281250
755		113.281250
756		115.234375
757		113.281250
758		117.187500
759		115.234375
760		121.093750
761		115.234375
762		123.046875
763		117.187500
764		125.000000
765		119.140625
766		126.953125
767		121.093750
768		128.906250
769		123.046875
770		126.953125
771		126.953125
772		128.906250
773		126.953125
774		130.859375
775		126.953125
776		132.812500
777		126.953125
778		134.765625
779		128.906250
780		136.718750
781		128.906250
782		136.718750
783		130.859375
784		138.671875
785		130.859375
786		138.671875
787		134.765625
788		136.718750
789		134.765625
790		138.671875
791		134.765625
792		140.625000
793		134.765625
794		140.625000
795		134.765625
796		142.578125
797		134.765625
798		142.578125
799		134.765625
800		142.578125
801		134.765625
802		142.578125
803		136.718750
804		142.578125
805		138.671875
806		140.625000
807		138.671875
808		142.578125
809		138.671875
810		140.625000
811		136.718750
812		144.531250
813		134.765625
814		142.578125
815		134.765625
816		142.578125
817		134.765625
818		142.578125
819		134.765625
820		142.578125
821		136.718750
822		138.671875
823		136.718750
824		138.671875
825		134.765625
826		138.671875
827		132.812500
828		140.625000
829		130.859375
830		140.625000
831		130.859375
832		138.671875
833		130.859375
834		136.718750
835		128.906250
836		136.718750
837		130.859375
838		134.765625
839		128.906250
840		132.812500
841		126.953125
842		132.812500
843		125.000000
844		130.859375
845		123.046875
846		130.859375
847		121.093750
848		128.906250
849		119.140625
850		128.906250
851		119.140625
852		126.953125
853		117.187500
854		125.000000
855		117.187500
856		121.093750
857		113.281250
858		119.140625
859		113.281250
860		117.187500
861		107.421875
862		117.187500
863		105.468750
864		115.234375
865		105.468750
866		111.328125
867		103.515625
868		109.375000
869		99.609375
870		107.421875
871		99.609375
872		103.515625
873		97.656250
874		101.562500
875		93.750000
876		99.609375
877		89.843750
878		95.703125
879		85.937500
880		95.703125
881		83.984375
882		91.796875
883		80.078125
884		89.843750
885		78.125000
886		85.937500
887		76.171875
888		83.984375
889		74.218750
890		78.125000
891		70.312500
892		76.171875
893		68.359375
894		72.265625
895		62.500000
896		70.312500
897		58.593750
898		68.359375
899		54.687500
900		64.453125
901		52.734375
902		62.500000
903		48.828125
904		56.640625
905		46.875000
906		50.781250
907		42.968750
908		48.828125
909		39.062500
910		46.875000
911		33.203125
912		41.015625
913		29.296875
914		39.062500
915		25.390625
916		35.156250
917		21.484375
918		31.250000
919		17.578125
920		27.343750
921		15.625000
922		23.437500
923		11.718750
924		17.578125
925		7.812500
926		13.671875
927		1.953125
928		9.765625
929		-1.953125
930		5.859375
931		-5.859375
932		3.906250
933		-11.718750
934		0.000000
935		-15.625000
936		-5.859375
937		-17.578125
938		-9.765625
939		-21.484375
940		-15.625000
941		-25.390625
942		-19.531250
943		-31.250000
944		-23.437500
945		-35.156250
946		-27.343750
947		-41.015625
948		-31.250000
949		-44.921875
950		-33.203125
951		-48.828125
952		-39.062500
953		-50.781250
954		-42.968750
955		-54.687500
956		-48.828125
957		-58.593750
958		-52.734375
959		-62.500000
960		-56.640625
961		-68.359375
962		-60.546875
963		-72.265625
964		-64.453125
965		-76.171875
966		-68.359375
967		-80.078125
968		-72.265625
969		-85.937500
970		-76.171875
971		-85.937500
972		-78.125000
973		-89.843750
974		-85.937500
975		-95.703125
976		-89.843750
977		-97.656250
978		-93.750000
979		-103.515625
980		-93.750000
981		-107.421875
982		-97.656250
983		-111.328125
984		-101.562500
985		-113.281250
986		-103.515625
987		-117.187500
988		-109.375000
989		-119.140625
990		-113.281250
991		-123.046875
992		-117.187500
993		-125.000000
994		-119.140625
995		-130.859375
996		-123.046875
997		-134.765625
998		-125.000000
999		-136.718750
1000		-126.953125
1001		-140.625000
1002		-130.859375
1003		-142.578125
1004		-132.812500
1005		-142.578125
1006		-136.718750
1007		-146.484375
1008		-140.625000
1009		-146.484375
1010		-142.578125
1011		-152.343750
1012		-144.531250
1013		-154.296875
1014		-146.484375
1015		-156.250000
1016		-148.437500
1017		-158.203125
1018		-150.390625
1019		-160.156250
1020		-152.343750
1021		-162.109375
1022		-154.296875
1023		-162.109375
1024		-158.203125
1025		-164.062500
1026		-160.156250
1027		-166.015625
1028		-160.156250
1029		-167.968750
1030		-160.156250
1031		-167.968750
1032		-160.156250
1033		-169.921875
1034		-162.109375
1035		-169.921875
1036		-164.062500
1037		-171.875000
1038		-164.062500
1039		-169.921875
1040		-166.015625
1041		-169.921875
1042		-167.968750
1043		-171.875000
1044		-166.015625
1045		-173.828125
1046		-166.015625
1047		-173.828125
1048		-166.015625
1049		-173.828125
1050		-166.015625
1051		-171.875000
1052		-166.015625
1053		-173.828125
1054		-164.062500
1055		-171.875000
1056		-164.062500
1057		-167.968750
1058		-166.015625
1059		-167.968750
1060		-164.062500
1061		-167.968750
1062		-164.062500
1063		-167.968750
1064		-160.156250
1065		-167.968750
1066		-160.156250
1067		-166.015625
1068		-158.203125
1069		-166.015625
1070		-156.250000
1071		-164.062500
1072		-156.250000
1073		-160.156250
1074		-156.250000
1075		-158.203125
1076		-154.296875
1077		-156.250000
1078		-152.343750
1079		-156.250000
1080		-148.437500
1081		-154.296875
1082		-144.531250
1083		-152.343750
1084		-144.531250
1085		-150.390625
1086		-140.625000
1087		-146.484375
1088		-138.671875
1089		-144.531250
1090		-136.718750
1091		-138.671875
1092		-134.765625
1093		-136.718750
1094		-132.812500
1095		-134.765625
1096		-126.953125
1097		-132.812500
1098		-123.046875
1099		-128.906250
1100		-121.093750
1101		-126.953125
1102		-117.187500
1103		-123.046875
1104		-113.281250
1105		-121.093750
1106		-113.281250
1107		-115.234375
1108		-109.375000
1109		-111.328125
1110		-103.515625
1111		-107.421875
1112		-101.562500
1113		-105.468750
1114		-95.703125
1115		-103.515625
1116		-91.796875
1117		-97.656250
1118		-87.890625
1119		-93.750000
1120		-83.984375
1121		-89.843750
1122		-82.031250
1123		-83.984375
1124		-78.125000
1125		-80.078125
1126		-74.218750
1127		-76.171875
1128		-70.312500
1129		-72.265625
1130		-64.453125
1131		-70.312500
1132		-60.546875
1133		-66.406250
1134		-54.687500
1135		-60.546875
1136		-52.734375
1137		-58.593750
1138		-46.875000
1139		-52.734375
1140		-44.921875
1141		-46.875000
1142		-41.015625
1143		-42.968750
1144		-37.109375
1145		-39.062500
1146		-33.203125
1147		-37.109375
1148		-25.390625
1149		-33.203125
1150		-23.437500
1151		-27.343750
1152		-19.531250
1153		-23.437500
1154		-13.671875
1155		-19.531250
1156		-9.765625
1157		-13.671875
1158		-7.812500
1159		-7.812500
1160		-3.906250
1161		-5.859375
1162		0.000000
1163		-1.953125
1164		7.812500
1165		1.953125
1166		9.765625
1167		5.859375
1168		15.625000
1169		9.765625
1170		19.531250
1171		13.671875
1172		23.437500
1173		17.578125
1174		25.390625
1175		23.437500
1176		29.296875
1177		27.343750
1178		33.203125
1179		31.250000
1180		39.062500
1181		33.203125
1182		41.015625
1183		37.109375
1184		44.921875
1185		41.015625
1186		48.828125
1187		42.968750
1188		52.734375
1189		46.875000
1190		54.687500
1191		52.734375
1192		58.593750
1193		56.640625
1194		62.500000
1195		60.546875
1196		64.453125
1197		62.500000
1198		68.359375
1199		64.453125
1200		72.265625
1201		68.359375
1202		76.171875
1203		70.312500
1204		80.078125
1205		72.265625
1206		82.031250
1207		78.125000
1208		83.984375
1209		82.031250
1210		85.937500
1211		83.984375
1212		89.843750
1213		85.937500
1214		93.750000
1215		87.890625
1216		97.656250
1217		89.843750
1218		99.609375
1219		91.796875
1220		101.562500
1221		95.703125
1222		103.515625
1223		97.656250
1224		105.468750
1225		103.515625
1226		105.468750
1227		105.468750
1228		109.375000
1229		107.421875
1230		111.328125
1231		107.421875
1232		115.234375
1233		109.375000
1234		117.187500
1235		111.328125
1236		119.140625
1237		113.281250
1238		121.093750
1239		115.234375
1240		123.046875
1241		119.140625
1242		123.046875
1243		121.093750
1244		125.000000
1245		121.093750
1246		126.953125
1247		123.046875
1248		128.906250
1249		123.046875
1250		130.859375
1251		125.000000
1252		132.812500
1253		125.000000
1254		134.765625
1255		126.953125
1256		134.765625
1257		128.906250
1258		134.765625
1259		130.859375
1260		134.765625
1261		132.812500
1262		136.718750
1263		132.812500
1264		138.671875
1265		132.812500
1266		138.671875
1267		132.812500
1268		140.625000
1269		134.765625
1270		140.625000
1271		134.765625
1272		142.578125
1273		134.765625
1274		142.578125
1275		138.671875
1276		140.625000
1277		138.671875
1278		142.578125
1279		138.671875
1280		142.578125
1281		136.718750
1282		142.578125
1283		136.718750
1284		144.531250
1285		136.718750
1286		144.531250
1287		136.718750
1288		144.531250
1289		136.718750
1290		144.531250
1291		138.671875
1292		140.625000
1293		138.671875
1294		140.625000
1295		138.671875
1296		140.625000
1297		136.718750
1298		142.578125
1299		134.765625
1300		142.578125
1301		134.765625
1302		142.578125
1303		134.765625
1304		140.625000
1305		134.765625
1306		142.578125
1307		132.812500
1308		140.625000
1309		134.765625
1310		136.718750
1311		130.859375
1312		136.718750
1313		132.812500
1314		136.718750
1315		128.906250
1316		138.671875
1317		128.906250
1318		134.765625
1319		126.953125
1320		134.765625
1321		125.000000
1322		132.812500
1323		125.000000
1324		130.859375
1325		125.000000
1326		128.906250
1327		125.000000
1328		126.953125
1329		121.093750
1330		126.953125
1331		119.140625
1332		126.953125
1333		117.187500
1334		125.000000
1335		115.234375
1336		123.046875
1337		113.281250
1338		121.093750
1339		111.328125
1340		119.140625
1341		111.328125
1342		117.187500
1343		109.375000
1344		113.281250
1345		105.468750
1346		111.328125
1347		103.515625
1348		109.375000
1349		99.609375
1350		109.375000
1351		97.656250
1352		105.468750
1353		93.750000
1354		103.515625
1355		91.796875
1356		99.609375
1357		89.843750
1358		97.656250
1359		89.843750
1360		93.750000
1361		85.937500
1362		89.843750
1363		82.031250
1364		87.890625
1365		78.125000
1366		85.937500
1367		74.218750
1368		83.984375
1369		70.312500
1370		80.078125
1371		70.312500
1372		76.171875
1373		64.453125
1374		74.218750
1375		64.453125
1376		68.359375
1377		60.546875
1378		64.453125
1379		56.640625
1380		62.500000
1381		50.781250
1382		58.593750
1383		46.875000
1384		56.640625
1385		42.968750
1386		54.687500
1387		41.015625
1388		50.781250
1389		35.156250
1390		44.921875
1391		35.156250
1392		42.968750
1393		31.250000
1394		37.109375
1395		25.390625
1396		33.203125
1397		23.437500
1398		29.296875
1399		17.578125
1400		27.343750
1401		13.671875
1402		23.437500
1403		9.765625
1404		19.531250
1405		3.906250
1406		15.625000
1407		1.953125
1408		9.765625
1409		-1.953125
1410		3.906250
1411		-5.859375
1412		0.000000
1413		-9.765625
1414		-1.953125
1415		-15.625000
1416		-7.812500
1417		-19.531250
1418		-9.765625
1419		-23.437500
1420		-13.671875
1421		-29.296875
1422		-19.531250
1423		-33.203125
1424		-21.484375
1425		-35.156250
1426		-25.390625
1427		-39.062500
1428		-33.203125
1429		-42.968750
1430		-37.109375
1431		-46.875000
1432		-41.015625
1433		-52.734375
1434		-42.968750
1435		-56.640625
1436		-46.875000
1437		-60.546875
1438		-52.734375
1439		-66.406250
1440		-54.687500
1441		-68.359375
1442		-58.593750
1443		-72.265625
1444		-66.406250
1445		-74.218750
1446		-70.312500
1447		-80.078125
1448		-74.218750
1449		-85.937500
1450		-76.171875
1451		-89.843750
1452		-80.078125
1453		-93.750000
1454		-83.984375
1455		-97.656250
1456		-87.890625
1457		-101.562500
1458		-89.843750
1459		-101.562500
1460		-95.703125
1461		-105.468750
1462		-99.609375
1463		-109.375000
1464		-103.515625
1465		-115.234375
1466		-107.421875
1467		-117.187500
1468		-109.375000
1469		-121.093750
1470		-113.281250
1471		-125.000000
1472		-115.234375
1473		-126.953125
1474		-119.140625
1475		-128.906250
1476		-121.093750
1477		-132.812500
1478		-126.953125
1479		-136.718750
1480		-130.859375
1481		-136.718750
1482		-132.812500
1483		-142.578125
1484		-134.765625
1485		-144.531250
1486		-136.718750
1487		-148.437500
1488		-138.671875
1489		-150.390625
1490		-142.578125
1491		-152.343750
1492		-144.531250
1493		-152.343750
1494		-148.437500
1495		-154.296875
1496		-150.390625
1497		-156.250000
1498		-152.343750
1499		-160.156250
1500		-154.296875
1501		-162.109375
1502		-154.296875
1503		-162.109375
1504		-156.250000
1505		-164.062500
1506		-158.203125
1507		-166.015625
1508		-160.156250
1509		-166.015625
1510		-162.109375
1511		-166.015625
1512		-162.109375
1513		-167.968750
1514		-164.062500
1515		-167.968750
1516		-164.062500
1517		-171.875000
1518		-162.109375
1519		-171.875000
1520		-164.062500
1521		-171.875000
1522		-164.062500
1523		-171.875000
1524		-164.062500
1525		-171.875000
1526		-164.062500
1527		-169.921875
1528		-167.968750
1529		-169.921875
1530		-167.968750
1531		-171.875000
1532		-166.015625
1533		-171.875000
1534		-164.062500
1535		-171.875000
1536		-164.062500
1537		-171.875000
1538		-162.109375
1539		-169.921875
1540		-162.109375
1541		-169.921875
1542		-162.109375
1543		-166.015625
1544		-162.109375
1545		-164.062500
1546		-162.109375
1547		-164.062500
1548		-160.156250
1549		-162.109375
1550		-156.250000
1551		-162.109375
1552		-156.250000
1553		-162.109375
1554		-152.343750
1555		-160.156250
1556		-150.390625
1557		-158.203125
1558		-150.390625
1559		-156.250000
1560		-148.437500
1561		-150.390625
1562		-146.484375
1563		-148.437500
1564		-144.531250
1565		-146.484375
1566		-142.578125
1567		-146.484375
1568		-138.671875
1569		-144.531250
1570		-134.765625
1571		-140.625000
1572		-132.812500
1573		-138.671875
1574		-128.906250
1575		-134.765625
1576		-126.953125
1577		-130.859375
1578		-125.000000
1579		-126.953125
1580		-121.093750
1581		-123.046875
1582		-117.187500
1583		-121.093750
1584		-111.328125
1585		-119.140625
1586		-109.375000
1587		-115.234375
1588		-105.468750
1589		-111.328125
1590		-101.562500
1591		-107.421875
1592		-97.656250
1593		-105.468750
1594		-97.656250
1595		-97.656250
1596		-93.750000
1597		-93.750000
1598		-87.890625
1599		-89.843750
1600		-85.937500
1601		-89.843750
1602		-78.125000
1603		-83.984375
1604		-76.171875
1605		-82.031250
1606		-72.265625
1607		-78.125000
1608		-66.406250
1609		-72.265625
1610		-64.453125
1611		-66.406250
1612		-60.546875
1613		-62.500000
1614		-56.640625
1615		-60.546875
1616		-52.734375
1617		-54.687500
1618		-46.875000
1619		-50.781250
1620		-42.968750
1621		-46.875000
1622		-39.062500
1623		-42.968750
1624		-35.156250
1625		-39.062500
1626		-29.296875
1627		-35.156250
1628		-27.343750
1629		-29.296875
1630		-23.437500
1631		-23.437500
1632		-19.531250
1633		-21.484375
1634		-11.718750
1635		-17.578125
1636		-7.812500
1637		-13.671875
1638		-3.906250
1639		-7.812500
1640		0.000000
1641		-5.859375
1642		3.906250
1643		-1.953125
1644		5.859375
1645		3.906250
1646		9.765625
1647		7.812500
1648		15.625000
1649		13.671875
1650		19.531250
1651		15.625000
1652		23.437500
1653		17.578125
1654		29.296875
1655		23.437500
1656		33.203125
1657		27.343750
1658		35.156250
1659		31.250000
1660		39.062500
1661		37.109375
1662		41.015625
1663		41.015625
1664		44.921875
1665		42.968750
1666		48.828125
1667		46.875000
1668		54.687500
1669		48.828125
1670		58.593750
1671		52.734375
1672		62.500000
1673		54.687500
1674		64.453125
1675		58.593750
1676		68.359375
1677		62.500000
1678		68.359375
1679		68.359375
1680		72.265625
1681		70.312500
1682		76.171875
1683		74.218750
1684		78.125000
1685		74.218750
1686		83.984375
1687		78.125000
1688		85.937500
1689		80.078125
1690		89.843750
1691		83.984375
1692		93.750000
1693		85.937500
1694		95.703125
1695		91.796875
1696		95.703125
1697		93.750000
1698		97.656250
1699		95.703125
1700		101.562500
1701		97.656250
1702		105.468750
1703		99.609375
1704		107.421875
1705		101.562500
1706		109.375000
1707		103.515625
1708		111.328125
1709		105.468750
1710		113.281250
1711		107.421875
1712		113.281250
1713		111.328125
1714		115.234375
1715		113.281250
1716		117.187500
1717		115.234375
1718		123.046875
1719		115.234375
1720		123.046875
1721		117.187500
1722		125.000000
1723		119.140625
1724		126.953125
1725		121.093750
1726		128.906250
1727		121.093750
1728		128.906250
1729		125.000000
1730		128.906250
1731		126.953125
1732		130.859375
1733		126.953125
1734		132.812500
1735		126.953125
1736		134.765625
1737		126.953125
1738		136.718750
1739		128.906250
1740		136.718750
1741		128.906250
1742		136.718750
1743		130.859375
1744		138.671875
1745		134.765625
1746		136.718750
1747		134.765625
1748		138.671875
1749		134.765625
1750		140.625000
1751		134.765625
1752		140.625000
1753		134.765625
1754		142.578125
1755		134.765625
1756		142.578125
1757		134.765625
1758		142.578125
1759		134.765625
1760		142.578125
1761		136.718750
1762		144.531250
1763		138.671875
1764		140.625000
1765		136.718750
1766		142.578125
1767		136.718750
1768		140.625000
1769		134.765625
1770		142.578125
1771		134.765625
1772		142.578125
1773		134.765625
1774		142.578125
1775		134.765625
1776		142.578125
1777		134.765625
1778		142.578125
1779		136.718750
1780		138.671875
1781		136.718750
1782		138.671875
1783		134.765625
1784		138.671875
1785		132.812500
1786		138.671875
1787		132.812500
1788		138.671875
1789		130.859375
1790		138.671875
1791		130.859375
1792		138.671875
1793		128.906250
1794		136.718750
1795		128.906250
1796		134.765625
1797		128.906250
1798		132.812500
1799		126.953125
1800		132.812500
1801		125.000000
1802		130.859375
1803		123.046875
1804		130.859375
1805		121.093750
1806		128.906250
1807		119.140625
1808		128.906250
1809		117.187500
1810		125.000000
1811		117.187500
1812		125.000000
1813		117.187500
1814		121.093750
1815		113.281250
1816		119.140625
1817		113.281250
1818		117.187500
1819		109.375000
1820		117.187500
1821		107.421875
1822		115.234375
1823		103.515625
1824		111.328125
1825		101.562500
1826		111.328125
1827		99.609375
1828		109.375000
1829		99.609375
1830		103.515625
1831		97.656250
1832		101.562500
1833		95.703125
1834		99.609375
1835		89.843750
1836		97.656250
1837		85.937500
1838		95.703125
1839		83.984375
1840		93.750000
1841		82.031250
1842		89.843750
1843		78.125000
1844		85.937500
1845		78.125000
1846		83.984375
1847		74.218750
1848		78.125000
1849		70.312500
1850		76.171875
1851		68.359375
1852		74.218750
1853		62.500000
1854		72.265625
1855		58.593750
1856		68.359375
1857		56.640625
1858		66.406250
1859		50.781250
1860		60.546875
1861		48.828125
1862		58.593750
1863		46.875000
1864		52.734375
1865		42.968750
1866		48.828125
1867		39.062500
1868		44.921875
1869		33.203125
1870		41.015625
1871		31.250000
1872		39.062500
1873		25.390625
1874		37.109375
1875		23.437500
1876		31.250000
1877		19.531250
1878		27.343750
1879		15.625000
1880		23.437500
1881		11.718750
1882		17.578125
1883		7.812500
1884		13.671875
1885		3.906250
1886		9.765625
1887		-1.953125
1888		7.812500
1889		-5.859375
1890		1.953125
1891		-9.765625
1892		0.000000
1893		-13.671875
1894		-3.906250
1895		-17.578125
1896		-9.765625
1897		-21.484375
1898		-15.625000
1899		-27.343750
1900		-19.531250
1901		-29.296875
1902		-23.437500
1903		-35.156250
1904		-27.343750
1905		-39.062500
1906		-29.296875
1907		-44.921875
1908		-35.156250
1909		-48.828125
1910		-39.062500
1911		-52.734375
1912		-42.968750
1913		-54.687500
1914		-48.828125
1915		-58.593750
1916		-52.734375
1917		-62.500000
1918		-56.640625
1919		-66.406250
1920		-60.546875
1921		-74.218750
1922		-62.500000
1923		-76.171875
1924		-68.359375
1925		-80.078125
1926		-72.265625
1927		-85.937500
1928		-74.218750
1929		-85.937500
1930		-80.078125
1931		-89.843750
1932		-85.937500
1933		-93.750000
1934		-87.890625
1935		-97.656250
1936		-91.796875
1937		-103.515625
1938		-95.703125
1939		-107.421875
1940		-97.656250
1941		-111.328125
1942		-101.562500
1943		-115.234375
1944		-105.468750
1945		-117.187500
1946		-109.375000
1947		-119.140625
1948		-113.281250
1949		-123.046875
1950		-117.187500
1951		-125.000000
1952		-119.140625
1953		-130.859375
1954		-123.046875
1955		-132.812500
1956		-125.000000
1957		-136.718750
1958		-126.953125
1959		-140.625000
1960		-130.859375
1961		-142.578125
1962		-134.765625
1963		-142.578125
1964		-136.718750
1965		-144.531250
1966		-140.625000
1967		-148.437500
1968		-144.531250
1969		-150.390625
1970		-146.484375
1971		-154.296875
1972		-146.484375
1973		-158.203125
1974		-148.437500
1975		-158.203125
1976		-150.390625
1977		-160.156250
1978		-152.343750
1979		-160.156250
1980		-154.296875
1981		-162.109375
1982		-158.203125
1983		-162.109375
1984		-160.156250
1985		-166.015625
1986		-160.156250
1987		-167.968750
1988		-160.156250
1989		-167.968750
1990		-160.156250
1991		-169.921875
1992		-162.109375
1993		-171.875000
1994		-164.062500
1995		-171.875000
1996		-164.062500
1997		-169.921875
1998		-167.968750
1999		-169.921875
2000		-167.968750
2001		-171.875000
2002		-167.968750
2003		-173.828125
2004		-166.015625
2005		-173.828125
2006		-166.015625
2007		-173.828125
2008		-166.015625
2009		-173.828125
2010		-166.015625
2011		-173.828125
2012		-166.015625
2013		-173.828125
2014		-166.015625
2015		-169.921875
2016		-166.015625
2017		-169.921875
2018		-166.015625
2019		-169.921875
2020		-164.062500
2021		-169.921875
2022		-162.109375
2023		-167.968750
2024		-162.109375
2025		-167.968750
2026		-160.156250
2027		-166.015625
2028		-158.203125
2029		-164.062500
2030		-156.250000
2031		-160.156250
2032		-156.250000
2033		-158.203125
2034		-156.250000
2035		-158.203125
2036		-154.296875
2037		-156.250000
2038		-150.390625
2039		-154.296875
2040		-148.437500
2041		-154.296875
2042		-144.531250
2043		-150.390625
2044		-142.578125
2045		-148.437500
2046		-138.671875
2047		-146.484375
2048		-138.671875
2049		-140.625000
2050		-136.718750
2051		-138.671875
2052		-132.812500
2053		-134.765625
2054		-130.859375
2055		-134.765625
2056		-126.953125
2057		-132.812500
2058		-121.093750
2059		-126.953125
2060		-119.140625
2061		-125.000000
2062		-117.187500
2063		-123.046875
2064		-113.281250
2065		-117.187500
2066		-111.328125
2067		-113.281250
2068		-107.421875
2069		-109.375000
2070		-103.515625
2071		-107.421875
2072		-97.656250
2073		-103.515625
2074		-93.750000
2075		-99.609375
2076		-91.796875
2077		-97.656250
2078		-87.890625
2079		-93.750000
2080		-82.031250
2081		-87.890625
2082		-80.078125
2083		-82.031250
2084		-76.171875
2085		-78.125000
2086		-72.265625
2087		-74.218750
2088		-66.406250
2089		-72.265625
2090		-60.546875
2091		-68.359375
2092		-58.593750
2093		-64.453125
2094		-54.687500
2095		-58.593750
2096		-48.828125
2097		-54.687500
2098		-46.875000
2099		-48.828125
2100		-42.968750
2101		-44.921875
2102		-37.109375
2103		-41.015625
2104		-35.156250
2105		-39.062500
2106		-27.343750
2107		-35.156250
2108		-25.390625
2109		-29.296875
2110		-19.531250
2111		-25.390625
2112		-15.625000
2113		-21.484375
2114		-11.718750
2115		-15.625000
2116		-9.765625
2117		-9.765625
2118		-5.859375
2119		-7.812500
2120		0.000000
2121		-1.953125
2122		5.859375
2123		-1.953125
2124		9.765625
2125		3.906250
2126		13.671875
2127		7.812500
2128		17.578125
2129		11.718750
2130		21.484375
2131		17.578125
2132		23.437500
2133		21.484375
2134		27.343750
2135		25.390625
2136		31.250000
2137		29.296875
2138		35.156250
2139		31.250000
2140		41.015625
2141		35.156250
2142		44.921875
2143		39.062500
2144		46.875000
2145		41.015625
2146		50.781250
2147		46.875000
2148		52.734375
2149		50.781250
2150		56.640625
2151		54.687500
2152		60.546875
2153		56.640625
2154		62.500000
2155		60.546875
2156		68.359375
2157		62.500000
2158		72.265625
2159		66.406250
2160		74.218750
2161		68.359375
2162		78.125000
2163		72.265625
2164		82.031250
2165		76.171875
2166		82.031250
2167		80.078125
2168		83.984375
2169		83.984375
2170		87.890625
2171		85.937500
2172		93.750000
2173		85.937500
2174		95.703125
2175		89.843750
2176		97.656250
2177		91.796875
2178		101.562500
2179		93.750000
2180		103.515625
2181		97.656250
2182		105.468750
2183		101.562500
2184		105.468750
2185		103.515625
2186		109.375000
2187		105.468750
2188		111.328125
2189		107.421875
2190		113.281250
2191		107.421875
2192		117.187500
2193		109.375000
2194		119.140625
2195		111.328125
2196		121.093750
2197		113.281250
2198		121.093750
2199		117.187500
2200		121.093750
2201		119.140625
2202		123.046875
2203		121.093750
2204		125.000000
2205		121.093750
2206		126.953125
2207		121.093750
2208		130.859375
2209		123.046875
2210		130.859375
2211		125.000000
2212		132.812500
2213		125.000000
2214		132.812500
2215		126.953125
2216		132.812500
2217		130.859375
2218		134.765625
2219		130.859375
2220		134.765625
2221		132.812500
2222		136.718750
2223		130.859375
2224		138.671875
2225		130.859375
2226		138.671875
2227		132.812500
2228		140.625000
2229		132.812500
2230		140.625000
2231		132.812500
2232		140.625000
2233		136.718750
2234		138.671875
2235		136.718750
2236		140.625000
2237		136.718750
2238		140.625000
2239		134.765625
2240		142.578125
2241		134.765625
2242		142.578125
2243		134.765625
2244		142.578125
2245		134.765625
2246		142.578125
2247		136.718750
2248		142.578125
2249		134.765625
2250		142.578125
2251		138.671875
2252		140.625000
2253		136.718750
2254		140.625000
2255		136.718750
2256		140.625000
2257		134.765625
2258		142.578125
2259		134.765625
2260		142.578125
2261		132.812500
2262		140.625000
2263		132.812500
2264		140.625000
2265		132.812500
2266		140.625000
2267		132.812500
2268		136.718750
2269		132.812500
2270		136.718750
2271		130.859375
2272		134.765625
2273		128.906250
2274		134.765625
2275		126.953125
2276		134.765625
2277		126.953125
2278		132.812500
2279		125.000000
2280		132.812500
2281		123.046875
2282		130.859375
2283		125.000000
2284		126.953125
2285		123.046875
2286		126.953125
2287		121.093750
2288		125.000000
2289		119.140625
2290		123.046875
2291		115.234375
2292		123.046875
2293		113.281250
2294		121.093750
2295		111.328125
2296		119.140625
2297		109.375000
2298		119.140625
2299		109.375000
2300		117.187500
2301		107.421875
2302		111.328125
2303		103.515625
2304		109.375000
2305		103.515625
2306		107.421875
2307		97.656250
2308		105.468750
2309		95.703125
2310		105.468750
2311		93.750000
2312		101.562500
2313		89.843750
2314		99.609375
2315		87.890625
2316		97.656250
2317		87.890625
2318		91.796875
2319		83.984375
2320		89.843750
2321		82.031250
2322		87.890625
2323		76.171875
2324		83.984375
2325		74.218750
2326		82.031250
2327		70.312500
2328		80.078125
2329		66.406250
2330		76.171875
2331		64.453125
2332		72.265625
2333		62.500000
2334		70.312500
2335		58.593750
2336		64.453125
2337		56.640625
2338		60.546875
2339		52.734375
2340		56.640625
2341		46.875000
2342		54.687500
2343		44.921875
2344		52.734375
2345		39.062500
2346		48.828125
2347		37.109375
2348		42.968750
2349		33.203125
2350		41.015625
2351		29.296875
2352		35.156250
2353		25.390625
2354		31.250000
2355		21.484375
2356		27.343750
2357		15.625000
2358		23.437500
2359		11.718750
2360		23.437500
2361		7.812500
2362		17.578125
2363		3.906250
2364		13.671875
2365		0.000000
2366		9.765625
2367		-1.953125
2368		3.906250
2369		-5.859375
2370		0.000000
2371		-9.765625
2372		-3.906250
2373		-13.671875
2374		-7.812500
2375		-21.484375
2376		-11.718750
2377		-25.390625
2378		-15.625000
2379		-29.296875
2380		-19.531250
2381		-33.203125
2382		-23.437500
2383		-35.156250
2384		-27.343750
2385		-39.062500
2386		-33.203125
2387		-44.921875
2388		-39.062500
2389		-48.828125
2390		-42.968750
2391		-54.687500
2392		-46.875000
2393		-58.593750
2394		-48.828125
2395		-62.500000
2396		-52.734375
2397		-66.406250
2398		-56.640625
2399		-70.312500
2400		-62.500000
2401		-72.265625
2402		-68.359375
2403		-78.125000
2404		-72.265625
2405		-80.078125
2406		-74.218750
2407		-87.890625
2408		-80.078125
2409		-89.843750
2410		-82.031250
2411		-93.750000
2412		-83.984375
2413		-99.609375
2414		-87.890625
2415		-101.562500
2416		-93.750000
2417		-103.515625
2418		-95.703125
2419		-107.421875
2420		-101.562500
2421		-111.328125
2422		-105.468750
2423		-115.234375
2424		-109.375000
2425		-119.140625
2426		-111.328125
2427		-123.046875
2428		-113.281250
2429		-126.953125
2430		-117.187500
2431		-128.906250
2432		-121.093750
2433		-130.859375
2434		-123.046875
2435		-132.812500
2436		-128.906250
2437		-138.671875
2438		-130.859375
2439		-140.625000
2440		-134.765625
2441		-144.531250
2442		-136.718750
2443		-146.484375
2444		-138.671875
2445		-148.437500
2446		-140.625000
2447		-150.390625
2448		-144.531250
2449		-154.296875
2450		-144.531250
2451		-154.296875
2452		-150.390625
2453		-156.250000
2454		-152.343750
2455		-158.203125
2456		-152.343750
2457		-160.156250
2458		-156.250000
2459		-164.062500
2460		-154.296875
2461		-166.015625
2462		-158.203125
2463		-167.968750
2464		-158.203125
2465		-167.968750
2466		-160.156250
2467		-169.921875
2468		-162.109375
2469		-167.968750
2470		-166.015625
2471		-169.921875
2472		-166.015625
2473		-169.921875
2474		-166.015625
2475		-173.828125
2476		-166.015625
2477		-173.828125
2478		-166.015625
2479		-173.828125
2480		-166.015625
2481		-173.828125
2482		-167.968750
2483		-175.781250
2484		-167.968750
2485		-171.875000
2486		-169.921875
2487		-171.875000
2488		-169.921875
2489		-171.875000
2490		-169.921875
2491		-173.828125
2492		-166.015625
2493		-173.828125
2494		-166.015625
2495		-173.828125
2496		-166.015625
2497		-173.828125
2498		-164.062500
2499		-171.875000
2500		-164.062500
2501		-171.875000
2502		-164.062500
2503		-167.968750
2504		-164.062500
2505		-167.968750
2506		-162.109375
2507		-164.062500
2508		-160.156250
2509		-166.015625
2510		-156.250000
2511		-164.062500
2512		-156.250000
2513		-162.109375
2514		-154.296875
2515		-160.156250
2516		-152.343750
2517		-158.203125
2518		-150.390625
2519		-154.296875
2520		-150.390625
2521		-150.390625
2522		-144.531250
2523		-150.390625
2524		-144.531250
2525		-146.484375
2526		-138.671875
2527		-144.531250
2528		-136.718750
2529		-142.578125
2530		-134.765625
2531		-138.671875
2532		-132.812500
2533		-136.718750
2534		-128.906250
2535		-132.812500
2536		-126.953125
2537		-128.906250
2538		-125.000000
2539		-126.953125
2540		-121.093750
2541		-125.000000
2542		-117.187500
2543		-121.093750
2544		-111.328125
2545		-117.187500
2546		-109.375000
2547		-115.234375
2548		-105.468750
2549		-111.328125
2550		-101.562500
2551		-107.421875
2552		-99.609375
2553		-101.562500
2554		-95.703125
2555		-97.656250
2556		-91.796875
2557		-93.750000
2558		-87.890625
2559		-89.843750
2560		-80.078125
2561		-87.890625
2562		-78.125000
2563		-83.984375
2564		-74.218750
2565		-80.078125
2566		-70.312500
2567		-74.218750
2568		-66.406250
2569		-68.359375
2570		-64.453125
2571		-64.453125
2572		-58.593750
2573		-62.500000
2574		-54.687500
2575		-56.640625
2576		-48.828125
2577		-54.687500
2578		-44.921875
2579		-50.781250
2580		-39.062500
2581		-44.921875
2582		-35.156250
2583		-41.015625
2584		-33.203125
2585		-37.109375
2586		-29.296875
2587		-31.250000
2588		-25.390625
2589		-27.343750
2590		-19.531250
2591		-23.437500
2592		-17.578125
2593		-19.531250
2594		-11.718750
2595		-15.625000
2596		-5.859375
2597		-11.718750
2598		-1.953125
2599		-7.812500
2600		1.953125
2601		-3.906250
2602		3.906250
2603		1.953125
2604		7.812500
2605		5.859375
2606		11.718750
2607		9.765625
2608		15.625000
2609		13.671875
2610		21.484375
2611		17.578125
2612		25.390625
2613		21.484375
2614		29.296875
2615		25.390625
2616		33.203125
2617		29.296875
2618		37.109375
2619		33.203125
2620		39.062500
2621		37.109375
2622		42.968750
2623		41.015625
2624		46.875000
2625		44.921875
2626		50.781250
2627		46.875000
2628		56.640625
2629		50.781250
2630		58.593750
2631		52.734375
2632		62.500000
2633		56.640625
2634		66.406250
2635		60.546875
2636		66.406250
2637		66.406250
2638		70.312500
2639		68.359375
2640		74.218750
2641		72.265625
2642		78.125000
2643		74.218750
2644		82.031250
2645		76.171875
2646		83.984375
2647		78.125000
2648		87.890625
2649		82.031250
2650		89.843750
2651		83.984375
2652		93.750000
2653		89.843750
2654		93.750000
2655		91.796875
2656		95.703125
2657		93.750000
2658		99.609375
2659		95.703125
2660		103.515625
2661		95.703125
2662		105.468750
2663		99.609375
2664		107.421875
2665		101.562500
2666		109.375000
2667		103.515625
2668		111.328125
2669		105.468750
2670		113.281250
2671		111.328125
2672		113.281250
2673		111.328125
2674		117.187500
2675		113.281250
2676		117.187500
2677		113.281250
2678		121.093750
2679		115.234375
2680		123.046875
2681		117.187500
2682		123.046875
2683		119.140625
2684		126.953125
2685		121.093750
2686		126.953125
2687		123.046875
2688		126.953125
2689		125.000000
2690		128.906250
2691		126.953125
2692		130.859375
2693		126.953125
2694		132.812500
2695		126.953125
2696		134.765625
2697		128.906250
2698		134.765625
2699		130.859375
2700		134.765625
2701		128.906250
2702		136.718750
2703		130.859375
2704		134.765625
2705		132.812500
2706		136.718750
2707		134.765625
2708		136.718750
2709		134.765625
2710		136.718750
2711		132.812500
2712		140.625000
2713		134.765625
2714		138.671875
2715		134.765625
2716		140.625000
2717		134.765625
2718		140.625000
2719		136.718750
2720		140.625000
2721		136.718750
2722		138.671875
2723		136.718750
2724		140.625000
2725		136.718750
2726		140.625000
2727		134.765625
2728		140.625000
2729		136.718750
2730		140.625000
2731		134.765625
2732		140.625000
2733		136.718750
2734		138.671875
2735		134.765625
2736		138.671875
2737		134.765625
2738		138.671875
2739		134.765625
2740		138.671875
2741		132.812500
2742		138.671875
2743		132.812500
2744		136.718750
2745		132.812500
2746		136.718750
2747		130.859375
2748		134.765625
2749		130.859375
2750		134.765625
2751		128.906250
2752		132.812500
2753		128.906250
2754		132.812500
2755		128.906250
2756		130.859375
2757		126.953125
2758		130.859375
2759		125.000000
2760		128.906250
2761		123.046875
2762		126.953125
2763		123.046875
2764		125.000000
2765		121.093750
2766		125.000000
2767		119.140625
2768		123.046875
2769		117.187500
2770		121.093750
2771		115.234375
2772		119.140625
2773		113.281250
2774		117.187500
2775		111.328125
2776		117.187500
2777		109.375000
2778		115.234375
2779		107.421875
2780		111.328125
2781		105.468750
2782		109.375000
2783		103.515625
2784		107.421875
2785		101.562500
2786		105.468750
2787		99.609375
2788		105.468750
2789		95.703125
2790		99.609375
2791		93.750000
2792		97.656250
2793		89.843750
2794		95.703125
2795		87.890625
2796		91.796875
2797		85.937500
2798		89.843750
2799		82.031250
2800		85.937500
2801		78.125000
2802		83.984375
2803		76.171875
2804		80.078125
2805		72.265625
2806		78.125000
2807		68.359375
2808		74.218750
2809		66.406250
2810		72.265625
2811		62.500000
2812		68.359375
2813		60.546875
2814		64.453125
2815		56.640625
2816		60.546875
2817		52.734375
2818		58.593750
2819		46.875000
2820		54.687500
2821		44.921875
2822		50.781250
2823		41.015625
2824		46.875000
2825		37.109375
2826		44.921875
2827		35.156250
2828		39.062500
2829		31.250000
2830		37.109375
2831		27.343750
2832		31.250000
2833		23.437500
2834		29.296875
2835		19.531250
2836		25.390625
2837		15.625000
2838		21.484375
2839		11.718750
2840		15.625000
2841		5.859375
2842		11.718750
2843		1.953125
2844		7.812500
2845		-1.953125
2846		3.906250
2847		-5.859375
2848		0.000000
2849		-9.765625
2850		-3.906250
2851		-13.671875
2852		-7.812500
2853		-17.578125
2854		-11.718750
2855		-21.484375
2856		-15.625000
2857		-25.390625
2858		-21.484375
2859		-31.250000
2860		-23.437500
2861		-35.156250
2862		-29.296875
2863		-39.062500
2864		-33.203125
2865		-42.968750
2866		-37.109375
2867		-46.875000
2868		-41.015625
2869		-50.781250
2870		-44.921875
2871		-56.640625
2872		-48.828125
2873		-60.546875
2874		-54.687500
2875		-64.453125
2876		-58.593750
2877		-68.359375
2878		-62.500000
2879		-72.265625
2880		-66.406250
2881		-76.171875
2882		-70.312500
2883		-80.078125
2884		-74.218750
2885		-85.937500
2886		-78.125000
2887		-87.890625
2888		-82.031250
2889		-91.796875
2890		-85.937500
2891		-97.656250
2892		-89.843750
2893		-99.609375
2894		-93.750000
2895		-103.515625
2896		-97.656250
2897		-107.421875
2898		-101.562500
2899		-109.375000
2900		-105.468750
2901		-113.281250
2902		-107.421875
2903		-117.187500
2904		-111.328125
2905		-121.093750
2906		-115.234375
2907		-123.046875
2908		-119.140625
2909		-126.953125
2910		-121.093750
2911		-128.906250
2912		-125.000000
2913		-132.812500
2914		-128.906250
2915		-136.718750
2916		-130.859375
2917		-138.671875
2918		-134.765625
2919		-142.578125
2920		-136.718750
2921		-144.531250
2922		-138.671875
2923		-146.484375
2924		-142.578125
2925		-150.390625
2926		-144.531250
2927		-152.343750
2928		-148.437500
2929		-154.296875
2930		-148.437500
2931		-156.250000
2932		-150.390625
2933		-158.203125
2934		-154.296875
2935		-160.156250
2936		-156.250000
2937		-160.156250
2938		-156.250000
2939		-162.109375
2940		-160.156250
2941		-164.062500
2942		-160.156250
2943		-166.015625
2944		-160.156250
2945		-167.968750
2946		-164.062500
2947		-169.921875
2948		-164.062500
2949		-169.921875
2950		-166.015625
2951		-169.921875
2952		-166.015625
2953		-169.921875
2954		-167.968750
2955		-171.875000
2956		-167.968750
2957		-171.875000
2958		-169.921875
2959		-171.875000
2960		-167.968750
2961		-171.875000
2962		-169.921875
2963		-173.828125
2964		-169.921875
2965		-171.875000
2966		-169.921875
2967		-171.875000
2968		-169.921875
2969		-171.875000
2970		-167.968750
2971		-171.875000
2972		-167.968750
2973		-171.875000
2974		-167.968750
2975		-169.921875
2976		-166.015625
2977		-169.921875
2978		-166.015625
2979		-169.921875
2980		-166.015625
2981		-167.968750
2982		-164.062500
2983		-166.015625
2984		-162.109375
2985		-166.015625
2986		-160.156250
2987		-164.062500
2988		-160.156250
2989		-162.109375
2990		-158.203125
2991		-160.156250
2992		-156.250000
2993		-158.203125
2994		-154.296875
2995		-156.250000
2996		-152.343750
2997		-154.296875
2998		-148.437500
2999		-152.343750
3000		-148.437500
3001		-150.390625
3002		-144.531250
3003		-148.437500
3004		-142.578125
3005		-144.531250
3006		-140.625000
3007		-142.578125
3008		-138.671875
3009		-138.671875
3010		-134.765625
3011		-138.671875
3012		-132.812500
3013		-134.765625
3014		-128.906250
3015		-130.859375
3016		-125.000000
3017		-126.953125
3018		-123.046875
3019		-125.000000
3020		-119.140625
3021		-121.093750
3022		-115.234375
3023		-117.187500
3024		-113.281250
3025		-113.281250
3026		-109.375000
3027		-111.328125
3028		-103.515625
3029		-107.421875
3030		-101.562500
3031		-103.515625
3032		-97.656250
3033		-99.609375
3034		-93.750000
3035		-95.703125
3036		-89.843750
3037		-91.796875
3038		-85.937500
3039		-87.890625
3040		-82.031250
3041		-83.984375
3042		-78.125000
3043		-80.078125
3044		-74.218750
3045		-76.171875
3046		-68.359375
3047		-70.312500
3048		-64.453125
3049		-66.406250
3050		-60.546875
3051		-62.500000
3052		-56.640625
3053		-58.593750
3054		-52.734375
3055		-54.687500
3056		-48.828125
3057		-50.781250
3058		-44.921875
3059		-44.921875
3060		-39.062500
3061		-42.968750
3062		-33.203125
3063		-39.062500
3064		-31.250000
3065		-33.203125
3066		-27.343750
3067		-29.296875
3068		-23.437500
3069		-25.390625
3070		-17.578125
3071		-21.484375
3072		-13.671875
3073		-15.625000
3074		-9.765625
3075		-11.718750
3076		-5.859375
3077		-7.812500
3078		-1.953125
3079		-3.906250
3080		1.953125
3081		0.000000
3082		7.812500
3083		3.906250
3084		9.765625
3085		7.812500
3086		15.625000
3087		13.671875
3088		19.531250
3089		15.625000
3090		21.484375
3091		21.484375
3092		25.390625
3093		25.390625
3094		31.250000
3095		27.343750
3096		33.203125
3097		33.203125
3098		37.109375
3099		35.156250
3100		41.015625
3101		39.062500
3102		46.875000
3103		42.968750
3104		48.828125
3105		44.921875
3106		52.734375
3107		50.781250
3108		54.687500
3109		54.687500
3110		58.593750
3111		56.640625
3112		64.453125
3113		58.593750
3114		68.359375
3115		62.500000
3116		70.312500
3117		66.406250
3118		72.265625
3119		70.312500
3120		76.171875
3121		72.265625
3122		80.078125
3123		76.171875
3124		80.078125
3125		80.078125
3126		83.984375
3127		82.031250
3128		87.890625
3129		83.984375
3130		91.796875
3131		85.937500
3132		93.750000
3133		89.843750
3134		95.703125
3135		91.796875
3136		97.656250
3137		95.703125
3138		101.562500
3139		97.656250
3140		103.515625
3141		101.562500
3142		105.468750
3143		103.515625
3144		107.421875
3145		103.515625
3146		111.328125
3147		105.468750
3148		111.328125
3149		109.375000
3150		115.234375
3151		111.328125
3152		117.187500
3153		111.328125
3154		119.140625
3155		113.281250
3156		119.140625
3157		117.187500
3158		121.093750
3159		119.140625
3160		121.093750
3161		119.140625
3162		125.000000
3163		121.093750
3164		126.953125
3165		123.046875
3166		128.906250
3167		123.046875
3168		128.906250
3169		125.000000
3170		130.859375
3171		125.000000
3172		132.812500
3173		126.953125
3174		132.812500
3175		128.906250
3176		132.812500
3177		130.859375
3178		134.765625
3179		130.859375
3180		134.765625
3181		132.812500
3182		134.765625
3183		132.812500
3184		136.718750
3185		134.765625
3186		136.718750
3187		134.765625
3188		136.718750
3189		134.765625
3190		138.671875
3191		134.765625
3192		138.671875
3193		136.718750
3194		138.671875
3195		136.718750
3196		138.671875
3197		136.718750
3198		138.671875
3199		136.718750
3200		138.671875
3201		136.718750
3202		138.671875
3203		136.718750
3204		138.671875
3205		136.718750
3206		138.671875
3207		134.765625
3208		140.625000
3209		136.718750
3210		138.671875
3211		136.718750
3212		138.671875
3213		136.718750
3214		138.671875
3215		134.765625
3216		138.671875
3217		134.765625
3218		136.718750
3219		134.765625
3220		136.718750
3221		132.812500
3222		136.718750
3223		132.812500
3224		136.718750
3225		132.812500
3226		134.765625
3227		130.859375
3228		134.765625
3229		130.859375
3230		132.812500
3231		128.906250
3232		132.812500
3233		128.906250
3234		130.859375
3235		126.953125
3236		130.859375
3237		125.000000
3238		128.906250
3239		125.000000
3240		126.953125
3241		123.046875
3242		126.953125
3243		121.093750
3244		125.000000
3245		119.140625
3246		123.046875
3247		119.140625
3248		121.093750
3249		117.187500
3250		119.140625
3251		115.234375
3252		119.140625
3253		113.281250
3254		117.187500
3255		111.328125
3256		115.234375
3257		109.375000
3258		113.281250
3259		107.421875
3260		109.375000
3261		105.468750
3262		107.421875
3263		101.562500
3264		105.468750
3265		99.609375
3266		103.515625
3267		97.656250
3268		101.562500
3269		95.703125
3270		99.609375
3271		91.796875
3272		95.703125
3273		89.843750
3274		93.750000
3275		85.937500
3276		91.796875
3277		83.984375
3278		87.890625
3279		78.125000
3280		87.890625
3281		74.218750
3282		85.937500
3283		72.265625
3284		82.031250
3285		70.312500
3286		76.171875
3287		68.359375
3288		72.265625
3289		64.453125
3290		70.312500
3291		62.500000
3292		66.406250
3293		58.593750
3294		62.500000
3295		50.781250
3296		60.546875
3297		48.828125
3298		58.593750
3299		44.921875
3300		54.687500
3301		44.921875
3302		50.781250
3303		41.015625
3304		44.921875
3305		37.109375
3306		41.015625
3307		33.203125
3308		37.109375
3309		29.296875
3310		33.203125
3311		25.390625
3312		31.250000
3313		21.484375
3314		29.296875
3315		13.671875
3316		27.343750
3317		13.671875
3318		21.484375
3319		9.765625
3320		13.671875
3321		5.859375
3322		9.765625
3323		0.000000
3324		5.859375
3325		-3.906250
3326		1.953125
3327		-7.812500
3328		-1.953125
3329		-15.625000
3330		-3.906250
3331		-19.531250
3332		-7.812500
3333		-23.437500
3334		-11.718750
3335		-23.437500
3336		-17.578125
3337		-27.343750
3338		-21.484375
3339		-33.203125
3340		-27.343750
3341		-37.109375
3342		-31.250000
3343		-41.015625
3344		-35.156250
3345		-48.828125
3346		-39.062500
3347		-52.734375
3348		-41.015625
3349		-56.640625
3350		-44.921875
3351		-58.593750
3352		-48.828125
3353		-62.500000
3354		-56.640625
3355		-66.406250
3356		-60.546875
3357		-70.312500
3358		-64.453125
3359		-74.218750
3360		-68.359375
3361		-78.125000
3362		-72.265625
3363		-83.984375
3364		-74.218750
3365		-89.843750
3366		-78.125000
3367		-91.796875
3368		-82.031250
3369		-93.750000
3370		-87.890625
3371		-97.656250
3372		-91.796875
3373		-101.562500
3374		-95.703125
3375		-105.468750
3376		-99.609375
3377		-107.421875
3378		-103.515625
3379		-115.234375
3380		-105.468750
3381		-117.187500
3382		-107.421875
3383		-121.093750
3384		-111.328125
3385		-123.046875
3386		-113.281250
3387		-125.000000
3388		-121.093750
3389		-128.906250
3390		-123.046875
3391		-130.859375
3392		-126.953125
3393		-134.765625
3394		-130.859375
3395		-136.718750
3396		-132.812500
3397		-142.578125
3398		-132.812500
3399		-146.484375
3400		-134.765625
3401		-148.437500
3402		-136.718750
3403		-148.437500
3404		-144.531250
3405		-150.390625
3406		-146.484375
3407		-152.343750
3408		-148.437500
3409		-154.296875
3410		-150.390625
3411		-156.250000
3412		-154.296875
3413		-162.109375
3414		-152.343750
3415		-164.062500
3416		-154.296875
3417		-166.015625
3418		-156.250000
3419		-164.062500
3420		-160.156250
3421		-166.015625
3422		-162.109375
3423		-166.015625
3424		-164.062500
3425		-167.968750
3426		-166.015625
3427		-169.921875
3428		-166.015625
3429		-171.875000
3430		-164.062500
3431		-173.828125
3432		-164.062500
3433		-173.828125
3434		-166.015625
3435		-175.781250
3436		-166.015625
3437		-171.875000
3438		-169.921875
3439		-173.828125
3440		-169.921875
3441		-173.828125
3442		-169.921875
3443		-173.828125
3444		-169.921875
3445		-171.875000
3446		-169.921875
3447		-175.781250
3448		-166.015625
3449		-175.781250
3450		-166.015625
3451		-175.781250
3452		-166.015625
3453		-171.875000
3454		-167.968750
3455		-169.921875
3456		-167.968750
3457		-169.921875
3458		-167.968750
3459		-169.921875
3460		-166.015625
3461		-167.968750
3462		-166.015625
3463		-166.015625
3464		-164.062500
3465		-166.015625
3466		-160.156250
3467		-166.015625
3468		-158.203125
3469		-162.109375
3470		-158.203125
3471		-160.156250
3472		-156.250000
3473		-158.203125
3474		-154.296875
3475		-156.250000
3476		-152.343750
3477		-154.296875
3478		-150.390625
3479		-152.343750
3480		-148.437500
3481		-150.390625
3482		-146.484375
3483		-150.390625
3484		-140.625000
3485		-146.484375
3486		-138.671875
3487		-142.578125
3488		-138.671875
3489		-138.671875
3490		-134.765625
3491		-136.718750
3492		-132.812500
3493		-132.812500
3494		-128.906250
3495		-130.859375
3496		-126.953125
3497		-126.953125
3498		-123.046875
3499		-125.000000
3500		-117.187500
3501		-121.093750
3502		-115.234375
3503		-117.187500
3504		-113.281250
3505		-113.281250
3506		-109.375000
3507		-109.375000
3508		-105.468750
3509		-107.421875
3510		-101.562500
3511		-103.515625
3512		-97.656250
3513		-99.609375
3514		-93.750000
3515		-95.703125
3516		-89.843750
3517		-91.796875
3518		-85.937500
3519		-87.890625
3520		-82.031250
3521		-83.984375
3522		-78.125000
3523		-80.078125
3524		-74.218750
3525		-76.171875
3526		-70.312500
3527		-70.312500
3528		-66.406250
3529		-66.406250
3530		-62.500000
3531		-62.500000
3532		-56.640625
3533		-58.593750
3534		-52.734375
3535		-54.687500
3536		-48.828125
3537		-50.781250
3538		-44.921875
3539		-44.921875
3540		-41.015625
3541		-41.015625
3542		-35.156250
3543		-37.109375
3544		-31.250000
3545		-33.203125
3546		-27.343750
3547		-29.296875
3548		-23.437500
3549		-23.437500
3550		-19.531250
3551		-19.531250
3552		-13.671875
3553		-15.625000
3554		-9.765625
3555		-11.718750
3556		-5.859375
3557		-7.812500
3558		-1.953125
3559		-3.906250
3560		1.953125
3561		0.000000
3562		5.859375
3563		3.906250
3564		9.765625
3565		7.812500
3566		15.625000
3567		11.718750
3568		17.578125
3569		17.578125
3570		21.484375
3571		21.484375
3572		27.343750
3573		23.437500
3574		29.296875
3575		29.296875
3576		33.203125
3577		33.203125
3578		37.109375
3579		35.156250
3580		41.015625
3581		39.062500
3582		44.921875
3583		42.968750
3584		48.828125
3585		46.875000
3586		52.734375
3587		50.781250
3588		56.640625
3589		52.734375
3590		58.593750
3591		56.640625
3592		62.500000
3593		60.546875
3594		66.406250
3595		64.453125
3596		68.359375
3597		68.359375
3598		72.265625
3599		70.312500
3600		76.171875
3601		74.218750
3602		78.125000
3603		76.171875
3604		82.031250
3605		78.125000
3606		83.984375
3607		82.031250
3608		85.937500
3609		85.937500
3610		89.843750
3611		87.890625
3612		91.796875
3613		89.843750
3614		95.703125
3615		91.796875
3616		97.656250
3617		95.703125
3618		99.609375
3619		97.656250
3620		101.562500
3621		99.609375
3622		105.468750
3623		101.562500
3624		107.421875
3625		103.515625
3626		109.375000
3627		107.421875
3628		111.328125
3629		109.375000
3630		113.281250
3631		111.328125
3632		115.234375
3633		111.328125
3634		117.187500
3635		115.234375
3636		119.140625
3637		117.187500
3638		121.093750
3639		117.187500
3640		123.046875
3641		119.140625
3642		123.046875
3643		121.093750
3644		125.000000
3645		123.046875
3646		126.953125
3647		125.000000
3648		126.953125
3649		123.046875
3650		130.859375
3651		125.000000
3652		130.859375
3653		128.906250
3654		130.859375
3655		128.906250
3656		132.812500
3657		128.906250
3658		132.812500
3659		130.859375
3660		134.765625
3661		130.859375
3662		134.765625
3663		132.812500
3664		134.765625
3665		130.859375
3666		136.718750
3667		132.812500
3668		136.718750
3669		134.765625
3670		136.718750
3671		134.765625
3672		138.671875
3673		134.765625
3674		138.671875
3675		136.718750
3676		138.671875
3677		136.718750
3678		138.671875
3679		136.718750
3680		138.671875
3681		134.765625
3682		138.671875
3683		134.765625
3684		140.625000
3685		136.718750
3686		140.625000
3687		136.718750
3688		138.671875
3689		134.765625
3690		138.671875
3691		134.765625
3692		138.671875
3693		134.765625
3694		138.671875
3695		134.765625
3696		138.671875
3697		134.765625
3698		136.718750
3699		132.812500
3700		136.718750
3701		132.812500
3702		136.718750
3703		132.812500
3704		134.765625
3705		130.859375
3706		134.765625
3707		130.859375
3708		134.765625
3709		130.859375
3710		132.812500
3711		128.906250
3712		132.812500
3713		126.953125
3714		130.859375
3715		125.000000
3716		130.859375
3717		125.000000
3718		128.906250
3719		123.046875
3720		126.953125
3721		121.093750
3722		125.000000
3723		121.093750
3724		125.000000
3725		119.140625
3726		123.046875
3727		117.187500
3728		121.093750
3729		115.234375
3730		119.140625
3731		115.234375
3732		117.187500
3733		111.328125
3734		117.187500
3735		109.375000
3736		115.234375
3737		107.421875
3738		111.328125
3739		105.468750
3740		109.375000
3741		103.515625
3742		109.375000
3743		101.562500
3744		105.468750
3745		99.609375
3746		103.515625
3747		95.703125
3748		99.609375
3749		93.750000
3750		97.656250
3751		91.796875
3752		95.703125
3753		87.890625
3754		91.796875
3755		85.937500
3756		89.843750
3757		82.031250
3758		87.890625
3759		80.078125
3760		83.984375
3761		76.171875
3762		80.078125
3763		74.218750
3764		78.125000
3765		70.312500
3766		74.218750
3767		66.406250
3768		72.265625
3769		64.453125
3770		68.359375
3771		60.546875
3772		64.453125
3773		56.640625
3774		62.500000
3775		52.734375
3776		58.593750
3777		50.781250
3778		56.640625
3779		46.875000
3780		50.781250
3781		42.968750
3782		46.875000
3783		39.062500
3784		44.921875
3785		35.156250
3786		41.015625
3787		31.250000
3788		37.109375
3789		27.343750
3790		33.203125
3791		23.437500
3792		29.296875
3793		19.531250
3794		25.390625
3795		15.625000
3796		21.484375
3797		11.718750
3798		17.578125
3799		5.859375
3800		11.718750
3801		3.906250
3802		9.765625
3803		0.000000
3804		3.906250
3805		-3.906250
3806		0.000000
3807		-9.765625
3808		-3.906250
3809		-13.671875
3810		-7.812500
3811		-17.578125
3812		-11.718750
3813		-21.484375
3814		-15.625000
3815		-25.390625
3816		-19.531250
3817		-29.296875
3818		-25.390625
3819		-33.203125
3820		-29.296875
3821		-39.062500
3822		-33.203125
3823		-42.968750
3824		-37.109375
3825		-46.875000
3826		-41.015625
3827		-50.781250
3828		-44.921875
3829		-54.687500
3830		-48.828125
3831		-58.593750
3832		-54.687500
3833		-62.500000
3834		-58.593750
3835		-68.359375
3836		-62.500000
3837		-72.265625
3838		-66.406250
3839		-76.171875
3840		-70.312500
3841		-80.078125
3842		-74.218750
3843		-83.984375
3844		-78.125000
3845		-87.890625
3846		-82.031250
3847		-91.796875
3848		-85.937500
3849		-95.703125
3850		-89.843750
3851		-99.609375
3852		-93.750000
3853		-103.515625
3854		-97.656250
3855		-105.468750
3856		-101.562500
3857		-109.375000
3858		-105.468750
3859		-113.281250
3860		-107.421875
3861		-117.187500
3862		-111.328125
3863		-121.093750
3864		-115.234375
3865		-123.046875
3866		-119.140625
3867		-126.953125
3868		-121.093750
3869		-130.859375
3870		-125.000000
3871		-132.812500
3872		-128.906250
3873		-136.718750
3874		-130.859375
3875		-138.671875
3876		-134.765625
3877		-142.578125
3878		-138.671875
3879		-144.531250
3880		-140.625000
3881		-146.484375
3882		-142.578125
3883		-152.343750
3884		-146.484375
3885		-152.343750
3886		-148.437500
3887		-154.296875
3888		-150.390625
3889		-156.250000
3890		-152.343750
3891		-158.203125
3892		-154.296875
3893		-160.156250
3894		-158.203125
3895		-162.109375
3896		-158.203125
3897		-164.062500
3898		-160.156250
3899		-166.015625
3900		-162.109375
3901		-169.921875
3902		-162.109375
3903		-169.921875
3904		-164.062500
3905		-169.921875
3906		-166.015625
3907		-171.875000
3908		-167.968750
3909		-171.875000
3910		-167.968750
3911		-171.875000
3912		-169.921875
3913		-173.828125
3914		-171.875000
3915		-173.828125
3916		-171.875000
3917		-177.734375
3918		-169.921875
3919		-175.781250
3920		-169.921875
3921		-175.781250
3922		-171.875000
3923		-175.781250
3924		-171.875000
3925		-175.781250
3926		-171.875000
3927		-173.828125
3928		-171.875000
3929		-173.828125
3930		-171.875000
3931		-175.781250
3932		-169.921875
3933		-175.781250
3934		-167.968750
3935		-173.828125
3936		-167.968750
3937		-171.875000
3938		-167.968750
3939		-169.921875
3940		-167.968750
3941		-169.921875
3942		-166.015625
3943		-167.968750
3944		-164.062500
3945		-166.015625
3946		-164.062500
3947		-164.062500
3948		-162.109375
3949		-164.062500
3950		-160.156250
3951		-164.062500
3952		-156.250000
3953		-160.156250
3954		-154.296875
3955		-158.203125
3956		-152.343750
3957		-156.250000
3958		-152.343750
3959		-152.343750
3960		-148.437500
3961		-150.390625
3962		-146.484375
3963		-148.437500
3964		-144.531250
3965		-146.484375
3966		-140.625000
3967		-142.578125
3968		-136.718750
3969		-142.578125
3970		-134.765625
3971		-136.718750
3972		-132.812500
3973		-134.765625
3974		-130.859375
3975		-130.859375
3976		-126.953125
3977		-128.906250
3978		-123.046875
3979		-125.000000
3980		-119.140625
3981		-121.093750
3982		-117.187500
3983		-117.187500
3984		-113.281250
3985		-117.187500
3986		-109.375000
3987		-111.328125
3988		-105.468750
3989		-107.421875
3990		-101.562500
3991		-103.515625
3992		-97.656250
3993		-99.609375
3994		-93.750000
3995		-95.703125
3996		-89.843750
3997		-91.796875
3998		-85.937500
3999		-87.890625
4000		-82.031250
4001		-83.984375
4002		-76.171875
4003		-82.031250
4004		-72.265625
4005		-74.218750
4006		-70.312500
4007		-70.312500
4008		-66.406250
4009		-66.406250
4010		-60.546875
4011		-62.500000
4012		-56.640625
4013		-58.593750
4014		-52.734375
4015		-54.687500
4016		-48.828125
4017		-50.781250
4018		-42.968750
4019		-48.828125
4020		-37.109375
4021		-42.968750
4022		-35.156250
4023		-37.109375
4024		-31.250000
4025		-33.203125
4026		-27.343750
4027		-29.296875
4028		-23.437500
4029		-25.390625
4030		-19.531250
4031		-19.531250
4032		-13.671875
4033		-15.625000
4034		-9.765625
4035		-13.671875
4036		-5.859375
4037		-7.812500
4038		-1.953125
4039		-3.906250
4040		1.953125
4041		0.000000
4042		5.859375
4043		3.906250
4044		9.765625
4045		9.765625
4046		13.671875
4047		13.671875
4048		17.578125
4049		17.578125
4050		21.484375
4051		21.484375
4052		29.296875
4053		23.437500
4054		31.250000
4055		27.343750
4056		33.203125
4057		33.203125
4058		37.109375
4059		35.156250
4060		41.015625
4061		39.062500
4062		44.921875
4063		42.968750
4064		48.828125
4065		46.875000
4066		52.734375
4067		50.781250
4068		54.687500
4069		52.734375
4070		58.593750
4071		56.640625
4072		62.500000
4073		60.546875
4074		64.453125
4075		62.500000
4076		68.359375
4077		66.406250
4078		72.265625
4079		70.312500
4080		74.218750
4081		74.218750
4082		78.125000
4083		76.171875
4084		80.078125
4085		78.125000
4086		83.984375
4087		82.031250
4088		85.937500
4089		83.984375
4090		89.843750
4091		87.890625
4092		91.796875
4093		89.843750
4094		93.750000
4095		93.750000
4096		97.656250
4097		95.703125
4098		99.609375
4099		97.656250
4100		101.562500
4101		99.609375
4102		105.468750
4103		101.562500
4104		105.468750
4105		105.468750
4106		107.421875
4107		107.421875
4108		109.375000
4109		109.375000
4110		113.281250
4111		111.328125
4112		113.281250
4113		113.281250
4114		115.234375
4115		115.234375
4116		117.187500
4117		117.187500
4118		119.140625
4119		117.187500
4120		123.046875
4121		119.140625
4122		123.046875
4123		121.093750
4124		125.000000
4125		123.046875
4126		125.000000
4127		123.046875
4128		126.953125
4129		125.000000
4130		128.906250
4131		126.953125
4132		128.906250
4133		126.953125
4134		130.859375
4135		128.906250
4136		130.859375
4137		128.906250
4138		132.812500
4139		130.859375
4140		132.812500
4141		130.859375
4142		134.765625
4143		132.812500
4144		134.765625
4145		132.812500
4146		136.718750
4147		132.812500
4148		136.718750
4149		134.765625
4150		136.718750
4151		134.765625
4152		136.718750
4153		134.765625
4154		136.718750
4155		134.765625
4156		136.718750
4157		134.765625
4158		138.671875
4159		136.718750
4160		138.671875
4161		136.718750
4162		138.671875
4163		134.765625
4164		138.671875
4165		134.765625
4166		138.671875
4167		134.765625
4168		138.671875
4169		134.765625
4170		138.671875
4171		134.765625
4172		136.718750
4173		134.765625
4174		136.718750
4175		134.765625
4176		136.718750
4177		134.765625
4178		136.718750
4179		132.812500
4180		136.718750
4181		132.812500
4182		134.765625
4183		130.859375
4184		134.765625
4185		130.859375
4186		132.812500
4187		130.859375
4188		132.812500
4189		128.906250
4190		130.859375
4191		128.906250
4192		130.859375
4193		126.953125
4194		130.859375
4195		125.000000
4196		128.906250
4197		125.000000
4198		126.953125
4199		123.046875
4200		125.000000
4201		121.093750
4202		125.000000
4203		119.140625
4204		123.046875
4205		119.140625
4206		121.093750
4207		117.187500
4208		119.140625
4209		115.234375
4210		119.140625
4211		113.281250
4212		117.187500
4213		111.328125
4214		113.281250
4215		107.421875
4216		113.281250
4217		107.421875
4218		109.375000
4219		103.515625
4220		109.375000
4221		101.562500
4222		105.468750
4223		99.609375
4224		103.515625
4225		97.656250
4226		101.562500
4227		95.703125
4228		97.656250
4229		91.796875
4230		95.703125
4231		89.843750
4232		93.750000
4233		85.937500
4234		89.843750
4235		83.984375
4236		87.890625
4237		80.078125
4238		85.937500
4239		78.125000
4240		82.031250
4241		74.218750
4242		78.125000
4243		72.265625
4244		76.171875
4245		68.359375
4246		72.265625
4247		64.453125
4248		70.312500
4249		62.500000
4250		66.406250
4251		58.593750
4252		64.453125
4253		54.687500
4254		60.546875
4255		50.781250
4256		56.640625
4257		46.875000
4258		52.734375
4259		42.968750
4260		48.828125
4261		41.015625
4262		44.921875
4263		37.109375
4264		42.968750
4265		33.203125
4266		37.109375
4267		29.296875
4268		35.156250
4269		25.390625
4270		31.250000
4271		21.484375
4272		27.343750
4273		17.578125
4274		23.437500
4275		13.671875
4276		17.578125
4277		9.765625
4278		15.625000
4279		5.859375
4280		9.765625
4281		1.953125
4282		5.859375
4283		-3.906250
4284		1.953125
4285		-7.812500
4286		-1.953125
4287		-11.718750
4288		-5.859375
4289		-15.625000
4290		-9.765625
4291		-19.531250
4292		-13.671875
4293		-23.437500
4294		-17.578125
4295		-27.343750
4296		-23.437500
4297		-33.203125
4298		-27.343750
4299		-37.109375
4300		-31.250000
4301		-41.015625
4302		-35.156250
4303		-44.921875
4304		-39.062500
4305		-48.828125
4306		-42.968750
4307		-52.734375
4308		-48.828125
4309		-56.640625
4310		-52.734375
4311		-62.500000
4312		-56.640625
4313		-66.406250
4314		-60.546875
4315		-70.312500
4316		-64.453125
4317		-74.218750
4318		-68.359375
4319		-78.125000
4320		-72.265625
4321		-82.031250
4322		-76.171875
4323		-85.937500
4324		-80.078125
4325		-89.843750
4326		-83.984375
4327		-93.750000
4328		-87.890625
4329		-97.656250
4330		-91.796875
4331		-101.562500
4332		-95.703125
4333		-103.515625
4334		-99.609375
4335		-107.421875
4336		-103.515625
4337		-111.328125
4338		-107.421875
4339		-115.234375
4340		-109.375000
4341		-119.140625
4342		-113.281250
4343		-123.046875
4344		-117.187500
4345		-125.000000
4346		-121.093750
4347		-128.906250
4348		-123.046875
4349		-130.859375
4350		-126.953125
4351		-134.765625
4352		-128.906250
4353		-138.671875
4354		-132.812500
4355		-140.625000
4356		-136.718750
4357		-142.578125
4358		-138.671875
4359		-144.531250
4360		-140.625000
4361		-148.437500
4362		-144.531250
4363		-150.390625
4364		-146.484375
4365		-152.343750
4366		-148.437500
4367		-154.296875
4368		-150.390625
4369		-158.203125
4370		-154.296875
4371		-160.156250
4372		-156.250000
4373		-162.109375
4374		-158.203125
4375		-162.109375
4376		-160.156250
4377		-164.062500
4378		-160.156250
4379		-166.015625
4380		-162.109375
4381		-167.968750
4382		-164.062500
4383		-167.968750
4384		-166.015625
4385		-169.921875
4386		-166.015625
4387		-169.921875
4388		-167.968750
4389		-171.875000
4390		-167.968750
4391		-171.875000
4392		-169.921875
4393		-173.828125
4394		-169.921875
4395		-173.828125
4396		-171.875000
4397		-173.828125
4398		-171.875000
4399		-173.828125
4400		-171.875000
4401		-173.828125
4402		-171.875000
4403		-173.828125
4404		-171.875000
4405		-173.828125
4406		-171.875000
4407		-173.828125
4408		-171.875000
4409		-171.875000
4410		-169.921875
4411		-171.875000
4412		-169.921875
4413		-171.875000
4414		-169.921875
4415		-169.921875
4416		-167.968750
4417		-169.921875
4418		-166.015625
4419		-167.968750
4420		-166.015625
4421		-167.968750
4422		-164.062500
4423		-166.015625
4424		-162.109375
4425		-166.015625
4426		-162.109375
4427		-162.109375
4428		-160.156250
4429		-162.109375
4430		-158.203125
4431		-160.156250
4432		-156.250000
4433		-158.203125
4434		-154.296875
4435		-156.250000
4436		-152.343750
4437		-152.343750
4438		-148.437500
4439		-150.390625
4440		-146.484375
4441		-148.437500
4442		-144.531250
4443		-146.484375
4444		-142.578125
4445		-142.578125
4446		-138.671875
4447		-140.625000
4448		-136.718750
4449		-138.671875
4450		-132.812500
4451		-134.765625
4452		-130.859375
4453		-130.859375
4454		-126.953125
4455		-128.906250
4456		-123.046875
4457		-125.000000
4458		-121.093750
4459		-121.093750
4460		-117.187500
4461		-117.187500
4462		-113.281250
4463		-115.234375
4464		-109.375000
4465		-111.328125
4466		-105.468750
4467		-107.421875
4468		-101.562500
4469		-103.515625
4470		-97.656250
4471		-99.609375
4472		-93.750000
4473		-95.703125
4474		-89.843750
4475		-91.796875
4476		-85.937500
4477		-87.890625
4478		-82.031250
4479		-83.984375
4480		-78.125000
4481		-80.078125
4482		-74.218750
4483		-76.171875
4484		-70.312500
4485		-72.265625
4486		-66.406250
4487		-68.359375
4488		-62.500000
4489		-62.500000
4490		-58.593750
4491		-58.593750
4492		-52.734375
4493		-54.687500
4494		-48.828125
4495		-50.781250
4496		-44.921875
4497		-46.875000
4498		-41.015625
4499		-41.015625
4500		-37.109375
4501		-37.109375
4502		-31.250000
4503		-33.203125
4504		-27.343750
4505		-29.296875
4506		-23.437500
4507		-25.390625
4508		-19.531250
4509		-21.484375
4510		-15.625000
4511		-15.625000
4512		-11.718750
4513		-11.718750
4514		-5.859375
4515		-7.812500
4516		-1.953125
4517		-3.906250
4518		1.953125
4519		0.000000
4520		5.859375
4521		3.906250
4522		9.765625
4523		7.812500
4524		13.671875
4525		11.718750
4526		17.578125
4527		15.625000
4528		21.484375
4529		21.484375
4530		25.390625
4531		25.390625
4532		29.296875
4533		27.343750
4534		33.203125
4535		31.250000
4536		37.109375
4537		35.156250
4538		41.015625
4539		39.062500
4540		44.921875
4541		42.968750
4542		48.828125
4543		46.875000
4544		50.781250
4545		50.781250
4546		54.687500
4547		54.687500
4548		58.593750
4549		56.640625
4550		62.500000
4551		60.546875
4552		64.453125
4553		64.453125
4554		68.359375
4555		66.406250
4556		72.265625
4557		70.312500
4558		74.218750
4559		72.265625
4560		78.125000
4561		74.218750
4562		80.078125
4563		80.078125
4564		83.984375
4565		82.031250
4566		85.937500
4567		85.937500
4568		89.843750
4569		87.890625
4570		91.796875
4571		89.843750
4572		95.703125
4573		93.750000
4574		97.656250
4575		95.703125
4576		99.609375
4577		97.656250
4578		101.562500
4579		99.609375
4580		103.515625
4581		103.515625
4582		107.421875
4583		105.468750
4584		109.375000
4585		107.421875
4586		111.328125
4587		109.375000
4588		113.281250
4589		111.328125
4590		115.234375
4591		113.281250
4592		117.187500
4593		115.234375
4594		119.140625
4595		115.234375
4596		121.093750
4597		119.140625
4598		121.093750
4599		121.093750
4600		123.046875
4601		121.093750
4602		125.000000
4603		123.046875
4604		126.953125
4605		125.000000
4606		128.906250
4607		126.953125
4608		128.906250
4609		126.953125
4610		130.859375
4611		128.906250
4612		130.859375
4613		128.906250
4614		132.812500
4615		130.859375
4616		132.812500
4617		130.859375
4618		134.765625
4619		132.812500
4620		134.765625
4621		132.812500
4622		136.718750
4623		134.765625
4624		136.718750
4625		134.765625
4626		136.718750
4627		134.765625
4628		136.718750
4629		134.765625
4630		138.671875
4631		136.718750
4632		138.671875
4633		136.718750
4634		138.671875
4635		136.718750
4636		138.671875
4637		136.718750
4638		138.671875
4639		136.718750
4640		138.671875
4641		136.718750
4642		138.671875
4643		136.718750
4644		138.671875
4645		136.718750
4646		138.671875
4647		136.718750
4648		138.671875
4649		136.718750
4650		138.671875
4651		134.765625
4652		138.671875
4653		134.765625
4654		138.671875
4655		134.765625
4656		136.718750
4657		134.765625
4658		136.718750
4659		134.765625
4660		136.718750
4661		132.812500
4662		136.718750
4663		132.812500
4664		134.765625
4665		130.859375
4666		134.765625
4667		130.859375
4668		132.812500
4669		128.906250
4670		132.812500
4671		126.953125
4672		130.859375
4673		126.953125
4674		130.859375
4675		125.000000
4676		128.906250
4677		125.000000
4678		126.953125
4679		123.046875
4680		126.953125
4681		121.093750
4682		125.000000
4683		119.140625
4684		123.046875
4685		119.140625
4686		123.046875
4687		117.187500
4688		119.140625
4689		115.234375
4690		119.140625
4691		113.281250
4692		115.234375
4693		111.328125
4694		115.234375
4695		107.421875
4696		111.328125
4697		105.468750
4698		109.375000
4699		103.515625
4700		107.421875
4701		101.562500
4702		105.468750
4703		99.609375
4704		103.515625
4705		97.656250
4706		101.562500
4707		93.750000
4708		97.656250
4709		91.796875
4710		95.703125
4711		87.890625
4712		93.750000
4713		85.937500
4714		89.843750
4715		83.984375
4716		87.890625
4717		80.078125
4718		83.984375
4719		78.125000
4720		82.031250
4721		74.218750
4722		78.125000
4723		70.312500
4724		76.171875
4725		68.359375
4726		72.265625
4727		64.453125
4728		70.312500
4729		62.500000
4730		66.406250
4731		58.593750
4732		62.500000
4733		54.687500
4734		58.593750
4735		50.781250
4736		56.640625
4737		46.875000
4738		52.734375
4739		42.968750
4740		48.828125
4741		39.062500
4742		44.921875
4743		35.156250
4744		41.015625
4745		33.203125
4746		37.109375
4747		29.296875
4748		33.203125
4749		23.437500
4750		29.296875
4751		21.484375
4752		25.390625
4753		17.578125
4754		21.484375
4755		13.671875
4756		17.578125
4757		7.812500
4758		13.671875
4759		3.906250
4760		9.765625
4761		0.000000
4762		5.859375
4763		-3.906250
4764		1.953125
4765		-7.812500
4766		-1.953125
4767		-11.718750
4768		-5.859375
4769		-15.625000
4770		-9.765625
4771		-21.484375
4772		-15.625000
4773		-25.390625
4774		-19.531250
4775		-29.296875
4776		-23.437500
4777		-33.203125
4778		-27.343750
4779		-37.109375
4780		-31.250000
4781		-41.015625
4782		-35.156250
4783		-44.921875
4784		-39.062500
4785		-48.828125
4786		-44.921875
4787		-54.687500
4788		-48.828125
4789		-58.593750
4790		-52.734375
4791		-62.500000
4792		-56.640625
4793		-66.406250
4794		-60.546875
4795		-70.312500
4796		-64.453125
4797		-74.218750
4798		-68.359375
4799		-78.125000
4800		-72.265625
4801		-82.031250
4802		-76.171875
4803		-85.937500
4804		-80.078125
4805		-89.843750
4806		-83.984375
4807		-93.750000
4808		-87.890625
4809		-97.656250
4810		-91.796875
4811		-101.562500
4812		-95.703125
4813		-105.468750
4814		-99.609375
4815		-107.421875
4816		-103.515625
4817		-113.281250
4818		-107.421875
4819		-115.234375
4820		-109.375000
4821		-119.140625
4822		-113.281250
4823		-121.093750
4824		-117.187500
4825		-125.000000
4826		-121.093750
4827		-128.906250
4828		-123.046875
4829		-130.859375
4830		-126.953125
4831		-134.765625
4832		-128.906250
4833		-136.718750
4834		-132.812500
4835		-140.625000
4836		-136.718750
4837		-142.578125
4838		-138.671875
4839		-144.531250
4840		-140.625000
4841		-148.437500
4842		-142.578125
4843		-150.390625
4844		-146.484375
4845		-152.343750
4846		-148.437500
4847		-154.296875
4848		-150.390625
4849		-156.250000
4850		-152.343750
4851		-158.203125
4852		-154.296875
4853		-160.156250
4854		-156.250000
4855		-162.109375
4856		-158.203125
4857		-164.062500
4858		-160.156250
4859		-166.015625
4860		-162.109375
4861		-166.015625
4862		-164.062500
4863		-167.968750
4864		-164.062500
4865		-167.968750
4866		-166.015625
4867		-169.921875
4868		-166.015625
4869		-169.921875
4870		-167.968750
4871		-169.921875
4872		-167.968750
4873		-171.875000
4874		-167.968750
4875		-171.875000
4876		-169.921875
4877		-171.875000
4878		-169.921875
4879		-171.875000
4880		-169.921875
4881		-171.875000
4882		-169.921875
4883		-171.875000
4884		-169.921875
4885		-171.875000
4886		-169.921875
4887		-171.875000
4888		-169.921875
4889		-171.875000
4890		-167.968750
4891		-169.921875
4892		-167.968750
4893		-169.921875
4894		-167.968750
4895		-169.921875
4896		-166.015625
4897		-167.968750
4898		-166.015625
4899		-167.968750
4900		-164.062500
4901		-166.015625
4902		-162.109375
4903		-164.062500
4904		-162.109375
4905		-162.109375
4906		-160.156250
4907		-162.109375
4908		-158.203125
4909		-160.156250
4910		-156.250000
4911		-158.203125
4912		-154.296875
4913		-156.250000
4914		-152.343750
4915		-154.296875
4916		-150.390625
4917		-152.343750
4918		-148.437500
4919		-148.437500
4920		-144.531250
4921		-146.484375
4922		-142.578125
4923		-144.531250
4924		-140.625000
4925		-140.625000
4926		-136.718750
4927		-138.671875
4928		-134.765625
4929		-134.765625
4930		-128.906250
4931		-132.812500
4932		-126.953125
4933		-128.906250
4934		-123.046875
4935		-128.906250
4936		-121.093750
4937		-123.046875
4938		-117.187500
4939		-119.140625
4940		-115.234375
4941		-115.234375
4942		-111.328125
4943		-113.281250
4944		-107.421875
4945		-109.375000
4946		-103.515625
4947		-107.421875
4948		-99.609375
4949		-101.562500
4950		-95.703125
4951		-97.656250
4952		-91.796875
4953		-93.750000
4954		-87.890625
4955		-91.796875
4956		-83.984375
4957		-85.937500
4958		-80.078125
4959		-82.031250
4960		-76.171875
4961		-78.125000
4962		-72.265625
4963		-74.218750
4964		-66.406250
4965		-70.312500
4966		-62.500000
4967		-64.453125
4968		-58.593750
4969		-60.546875
4970		-54.687500
4971		-56.640625
4972		-48.828125
4973		-52.734375
4974		-46.875000
4975		-48.828125
4976		-42.968750
4977		-44.921875
4978		-35.156250
4979		-39.062500
4980		-35.156250
4981		-37.109375
4982		-29.296875
4983		-31.250000
4984		-25.390625
4985		-29.296875
4986		-21.484375
4987		-23.437500
4988		-15.625000
4989		-21.484375
4990		-13.671875
4991		-13.671875
4992		-9.765625
4993		-9.765625
4994		-3.906250
4995		-7.812500
4996		1.953125
4997		-3.906250
4998		3.906250
4999		1.953125
5000		7.812500
5001		5.859375
5002		13.671875
5003		9.765625
5004		15.625000
5005		11.718750
5006		21.484375
5007		17.578125
5008		23.437500
5009		21.484375
5010		27.343750
5011		25.390625
5012		33.203125
5013		27.343750
5014		37.109375
5015		33.203125
5016		41.015625
5017		37.109375
5018		42.968750
5019		37.109375
5020		48.828125
5021		44.921875
5022		52.734375
5023		48.828125
5024		52.734375
5025		52.734375
5026		56.640625
5027		56.640625
5028		60.546875
5029		56.640625
5030		64.453125
5031		62.500000
5032		66.406250
5033		66.406250
5034		70.312500
5035		68.359375
5036		76.171875
5037		68.359375
5038		76.171875
5039		72.265625
5040		80.078125
5041		78.125000
5042		82.031250
5043		80.078125
5044		85.937500
5045		82.031250
5046		91.796875
5047		83.984375
5048		91.796875
5049		89.843750
5050		93.750000
5051		91.796875
5052		97.656250
5053		91.796875
5054		99.609375
5055		95.703125
5056		103.515625
5057		99.609375
5058		103.515625
5059		101.562500
5060		105.468750
5061		103.515625
5062		109.375000
5063		103.515625
5064		113.281250
5065		105.468750
5066		113.281250
5067		111.328125
5068		113.281250
5069		109.375000
5070		119.140625
5071		113.281250
5072		117.187500
5073		113.281250
5074		121.093750
5075		117.187500
5076		121.093750
5077		119.140625
5078		123.046875
5079		119.140625
5080		128.906250
5081		121.093750
5082		128.906250
5083		125.000000
5084		126.953125
5085		123.046875
5086		132.812500
5087		123.046875
5088		132.812500
5089		125.000000
5090		134.765625
5091		128.906250
5092		132.812500
5093		130.859375
5094		132.812500
5095		130.859375
5096		136.718750
5097		128.906250
5098		138.671875
5099		132.812500
5100		136.718750
5101		134.765625
5102		136.718750
5103		132.812500
5104		140.625000
5105		132.812500
5106		140.625000
5107		136.718750
5108		138.671875
5109		136.718750
5110		138.671875
5111		134.765625
5112		140.625000
5113		134.765625
5114		142.578125
5115		136.718750
5116		140.625000
5117		136.718750
5118		140.625000
5119		134.765625
5120		142.578125
5121		134.765625
5122		142.578125
5123		134.765625
5124		142.578125
5125		136.718750
5126		140.625000
5127		136.718750
5128		140.625000
5129		134.765625
5130		142.578125
5131		134.765625
5132		142.578125
5133		136.718750
5134		138.671875
5135		132.812500
5136		138.671875
5137		132.812500
5138		142.578125
5139		130.859375
5140		138.671875
5141		132.812500
5142		136.718750
5143		132.812500
5144		134.765625
5145		130.859375
5146		136.718750
5147		128.906250
5148		136.718750
5149		128.906250
5150		136.718750
5151		128.906250
5152		130.859375
5153		125.000000
5154		132.812500
5155		126.953125
5156		130.859375
5157		123.046875
5158		130.859375
5159		123.046875
5160		126.953125
5161		121.093750
5162		125.000000
5163		117.187500
5164		125.000000
5165		117.187500
5166		123.046875
5167		117.187500
5168		121.093750
5169		113.281250
5170		121.093750
5171		111.328125
5172		121.093750
5173		109.375000
5174		117.187500
5175		109.375000
5176		113.281250
5177		107.421875
5178		109.375000
5179		103.515625
5180		109.375000
5181		99.609375
5182		109.375000
5183		99.609375
5184		103.515625
5185		95.703125
5186		101.562500
5187		91.796875
5188		101.562500
5189		87.890625
5190		97.656250
5191		89.843750
5192		93.750000
5193		85.937500
5194		89.843750
5195		82.031250
5196		87.890625
5197		78.125000
5198		85.937500
5199		78.125000
5200		83.984375
5201		74.218750
5202		78.125000
5203		70.312500
5204		78.125000
5205		68.359375
5206		72.265625
5207		62.500000
5208		72.265625
5209		60.546875
5210		66.406250
5211		58.593750
5212		62.500000
5213		54.687500
5214		58.593750
5215		48.828125
5216		58.593750
5217		46.875000
5218		52.734375
5219		41.015625
5220		48.828125
5221		39.062500
5222		46.875000
5223		35.156250
5224		41.015625
5225		33.203125
5226		37.109375
5227		27.343750
5228		33.203125
5229		23.437500
5230		29.296875
5231		21.484375
5232		25.390625
5233		15.625000
5234		23.437500
5235		11.718750
5236		17.578125
5237		7.812500
5238		15.625000
5239		3.906250
5240		9.765625
5241		0.000000
5242		5.859375
5243		-3.906250
5244		1.953125
5245		-7.812500
5246		-1.953125
5247		-11.718750
5248		-7.812500
5249		-15.625000
5250		-11.718750
5251		-21.484375
5252		-15.625000
5253		-25.390625
5254		-19.531250
5255		-29.296875
5256		-23.437500
5257		-33.203125
5258		-27.343750
5259		-37.109375
5260		-31.250000
5261		-41.015625
5262		-37.109375
5263		-44.921875
5264		-39.062500
5265		-50.781250
5266		-44.921875
5267		-54.687500
5268		-48.828125
5269		-58.593750
5270		-52.734375
5271		-62.500000
5272		-56.640625
5273		-66.406250
5274		-60.546875
5275		-70.312500
5276		-64.453125
5277		-74.218750
5278		-68.359375
5279		-82.031250
5280		-72.265625
5281		-83.984375
5282		-74.218750
5283		-85.937500
5284		-78.125000
5285		-91.796875
5286		-83.984375
5287		-95.703125
5288		-87.890625
5289		-99.609375
5290		-89.843750
5291		-101.562500
5292		-93.750000
5293		-105.468750
5294		-99.609375
5295		-109.375000
5296		-103.515625
5297		-113.281250
5298		-105.468750
5299		-115.234375
5300		-107.421875
5301		-121.093750
5302		-111.328125
5303		-123.046875
5304		-115.234375
5305		-126.953125
5306		-119.140625
5307		-130.859375
5308		-123.046875
5309		-130.859375
5310		-126.953125
5311		-134.765625
5312		-128.906250
5313		-138.671875
5314		-130.859375
5315		-140.625000
5316		-132.812500
5317		-144.531250
5318		-136.718750
5319		-146.484375
5320		-138.671875
5321		-148.437500
5322		-140.625000
5323		-150.390625
5324		-144.531250
5325		-152.343750
5326		-146.484375
5327		-154.296875
5328		-150.390625
5329		-156.250000
5330		-152.343750
5331		-160.156250
5332		-152.343750
5333		-160.156250
5334		-154.296875
5335		-162.109375
5336		-156.250000
5337		-164.062500
5338		-158.203125
5339		-166.015625
5340		-160.156250
5341		-166.015625
5342		-160.156250
5343		-167.968750
5344		-164.062500
5345		-167.968750
5346		-164.062500
5347		-169.921875
5348		-162.109375
5349		-169.921875
5350		-164.062500
5351		-169.921875
5352		-166.015625
5353		-171.875000
5354		-166.015625
5355		-171.875000
5356		-166.015625
5357		-171.875000
5358		-167.968750
5359		-171.875000
5360		-167.968750
5361		-169.921875
5362		-167.968750
5363		-173.828125
5364		-166.015625
5365		-173.828125
5366		-166.015625
5367		-171.875000
5368		-166.015625
5369		-171.875000
5370		-164.062500
5371		-169.921875
5372		-166.015625
5373		-169.921875
5374		-164.062500
5375		-167.968750
5376		-164.062500
5377		-166.015625
5378		-164.062500
5379		-166.015625
5380		-162.109375
5381		-166.015625
5382		-158.203125
5383		-166.015625
5384		-158.203125
5385		-162.109375
5386		-154.296875
5387		-160.156250
5388		-154.296875
5389		-158.203125
5390		-152.343750
5391		-156.250000
5392		-150.390625
5393		-152.343750
5394		-148.437500
5395		-150.390625
5396		-146.484375
5397		-150.390625
5398		-142.578125
5399		-148.437500
5400		-140.625000
5401		-144.531250
5402		-138.671875
5403		-142.578125
5404		-134.765625
5405		-138.671875
5406		-132.812500
5407		-134.765625
5408		-130.859375
5409		-132.812500
5410		-126.953125
5411		-128.906250
5412		-125.000000
5413		-126.953125
5414		-121.093750
5415		-125.000000
5416		-115.234375
5417		-119.140625
5418		-113.281250
5419		-117.187500
5420		-109.375000
5421		-113.281250
5422		-107.421875
5423		-109.375000
5424		-103.515625
5425		-105.468750
5426		-99.609375
5427		-101.562500
5428		-95.703125
5429		-97.656250
5430		-91.796875
5431		-93.750000
5432		-85.937500
5433		-91.796875
5434		-83.984375
5435		-85.937500
5436		-80.078125
5437		-83.984375
5438		-76.171875
5439		-78.125000
5440		-72.265625
5441		-74.218750
5442		-68.359375
5443		-70.312500
5444		-64.453125
5445		-66.406250
5446		-60.546875
5447		-60.546875
5448		-52.734375
5449		-60.546875
5450		-50.781250
5451		-52.734375
5452		-46.875000
5453		-50.781250
5454		-42.968750
5455		-44.921875
5456		-39.062500
5457		-41.015625
5458		-35.156250
5459		-35.156250
5460		-31.250000
5461		-31.250000
5462		-27.343750
5463		-27.343750
5464		-21.484375
5465		-23.437500
5466		-15.625000
5467		-21.484375
5468		-13.671875
5469		-15.625000
5470		-7.812500
5471		-9.765625
5472		-5.859375
5473		-7.812500
5474		0.000000
5475		-1.953125
5476		3.906250
5477		1.953125
5478		7.812500
5479		5.859375
5480		11.718750
5481		9.765625
5482		17.578125
5483		11.718750
5484		19.531250
5485		17.578125
5486		23.437500
5487		21.484375
5488		27.343750
5489		25.390625
5490		31.250000
5491		29.296875
5492		35.156250
5493		33.203125
5494		39.062500
5495		37.109375
5496		42.968750
5497		41.015625
5498		44.921875
5499		42.968750
5500		50.781250
5501		46.875000
5502		52.734375
5503		50.781250
5504		56.640625
5505		54.687500
5506		60.546875
5507		58.593750
5508		62.500000
5509		62.500000
5510		66.406250
5511		64.453125
5512		70.312500
5513		68.359375
5514		72.265625
5515		70.312500
5516		78.125000
5517		72.265625
5518		80.078125
5519		78.125000
5520		82.031250
5521		78.125000
5522		85.937500
5523		83.984375
5524		87.890625
5525		85.937500
5526		89.843750
5527		87.890625
5528		93.750000
5529		91.796875
5530		95.703125
5531		93.750000
5532		99.609375
5533		93.750000
5534		103.515625
5535		97.656250
5536		103.515625
5537		101.562500
5538		105.468750
5539		103.515625
5540		107.421875
5541		105.468750
5542		111.328125
5543		107.421875
5544		111.328125
5545		109.375000
5546		113.281250
5547		111.328125
5548		117.187500
5549		111.328125
5550		119.140625
5551		113.281250
5552		121.093750
5553		117.187500
5554		121.093750
5555		119.140625
5556		123.046875
5557		121.093750
5558		125.000000
5559		123.046875
5560		126.953125
5561		123.046875
5562		126.953125
5563		125.000000
5564		128.906250
5565		125.000000
5566		132.812500
5567		125.000000
5568		132.812500
5569		128.906250
5570		132.812500
5571		130.859375
5572		132.812500
5573		130.859375
5574		134.765625
5575		132.812500
5576		136.718750
5577		132.812500
5578		136.718750
5579		134.765625
5580		136.718750
5581		134.765625
5582		138.671875
5583		132.812500
5584		140.625000
5585		136.718750
5586		140.625000
5587		136.718750
5588		138.671875
5589		136.718750
5590		140.625000
5591		136.718750
5592		140.625000
5593		136.718750
5594		142.578125
5595		138.671875
5596		140.625000
5597		138.671875
5598		140.625000
5599		136.718750
5600		142.578125
5601		136.718750
5602		142.578125
5603		136.718750
5604		140.625000
5605		136.718750
5606		140.625000
5607		136.718750
5608		140.625000
5609		136.718750
5610		140.625000
5611		136.718750
5612		138.671875
5613		136.718750
5614		138.671875
5615		132.812500
5616		138.671875
5617		132.812500
5618		140.625000
5619		134.765625
5620		138.671875
5621		132.812500
5622		136.718750
5623		132.812500
5624		136.718750
5625		130.859375
5626		134.765625
5627		128.906250
5628		134.765625
5629		128.906250
5630		132.812500
5631		128.906250
5632		132.812500
5633		125.000000
5634		132.812500
5635		125.000000
5636		130.859375
5637		125.000000
5638		126.953125
5639		123.046875
5640		126.953125
5641		121.093750
5642		125.000000
5643		119.140625
5644		125.000000
5645		119.140625
5646		121.093750
5647		117.187500
5648		121.093750
5649		111.328125
5650		119.140625
5651		111.328125
5652		117.187500
5653		111.328125
5654		113.281250
5655		107.421875
5656		113.281250
5657		105.468750
5658		109.375000
5659		103.515625
5660		107.421875
5661		101.562500
5662		105.468750
5663		99.609375
5664		103.515625
5665		95.703125
5666		101.562500
5667		91.796875
5668		99.609375
5669		91.796875
5670		97.656250
5671		87.890625
5672		93.750000
5673		83.984375
5674		89.843750
5675		82.031250
5676		87.890625
5677		80.078125
5678		83.984375
5679		76.171875
5680		82.031250
5681		74.218750
5682		78.125000
5683		66.406250
5684		76.171875
5685		66.406250
5686		74.218750
5687		64.453125
5688		68.359375
5689		60.546875
5690		64.453125
5691		56.640625
5692		62.500000
5693		52.734375
5694		58.593750
5695		48.828125
5696		54.687500
5697		46.875000
5698		50.781250
5699		41.015625
5700		46.875000
5701		35.156250
5702		46.875000
5703		35.156250
5704		41.015625
5705		31.250000
5706		37.109375
5707		27.343750
5708		33.203125
5709		23.437500
5710		29.296875
5711		19.531250
5712		25.390625
5713		15.625000
5714		19.531250
5715		11.718750
5716		15.625000
5717		3.906250
5718		13.671875
5719		1.953125
5720		11.718750
5721		-1.953125
5722		3.906250
5723		-5.859375
5724		0.000000
5725		-9.765625
5726		-3.906250
5727		-15.625000
5728		-7.812500
5729		-17.578125
5730		-11.718750
5731		-21.484375
5732		-15.625000
5733		-27.343750
5734		-19.531250
5735		-33.203125
5736		-21.484375
5737		-35.156250
5738		-29.296875
5739		-39.062500
5740		-33.203125
5741		-42.968750
5742		-37.109375
5743		-46.875000
5744		-41.015625
5745		-50.781250
5746		-44.921875
5747		-54.687500
5748		-50.781250
5749		-60.546875
5750		-52.734375
5751		-66.406250
5752		-56.640625
5753		-68.359375
5754		-58.593750
5755		-72.265625
5756		-66.406250
5757		-76.171875
5758		-70.312500
5759		-80.078125
5760		-74.218750
5761		-83.984375
5762		-78.125000
5763		-87.890625
5764		-82.031250
5765		-91.796875
5766		-85.937500
5767		-97.656250
5768		-89.843750
5769		-99.609375
5770		-89.843750
5771		-101.562500
5772		-95.703125
5773		-105.468750
5774		-101.562500
5775		-109.375000
5776		-103.515625
5777		-113.281250
5778		-107.421875
5779		-117.187500
5780		-111.328125
5781		-119.140625
5782		-115.234375
5783		-123.046875
5784		-119.140625
5785		-128.906250
5786		-119.140625
5787		-128.906250
5788		-125.000000
5789		-132.812500
5790		-128.906250
5791		-134.765625
5792		-128.906250
5793		-138.671875
5794		-132.812500
5795		-142.578125
5796		-136.718750
5797		-144.531250
5798		-140.625000
5799		-146.484375
5800		-142.578125
5801		-152.343750
5802		-142.578125
5803		-152.343750
5804		-144.531250
5805		-152.343750
5806		-148.437500
5807		-156.250000
5808		-150.390625
5809		-158.203125
5810		-152.343750
5811		-158.203125
5812		-154.296875
5813		-160.156250
5814		-156.250000
5815		-162.109375
5816		-158.203125
5817		-166.015625
5818		-158.203125
5819		-167.968750
5820		-158.203125
5821		-166.015625
5822		-162.109375
5823		-167.968750
5824		-164.062500
5825		-167.968750
5826		-166.015625
5827		-169.921875
5828		-166.015625
5829		-169.921875
5830		-167.968750
5831		-171.875000
5832		-167.968750
5833		-173.828125
5834		-167.968750
5835		-173.828125
5836		-166.015625
5837		-173.828125
5838		-166.015625
5839		-171.875000
5840		-167.968750
5841		-171.875000
5842		-167.968750
5843		-171.875000
5844		-167.968750
5845		-171.875000
5846		-167.968750
5847		-171.875000
5848		-167.968750
5849		-169.921875
5850		-167.968750
5851		-171.875000
5852		-164.062500
5853		-171.875000
5854		-164.062500
5855		-167.968750
5856		-164.062500
5857		-167.968750
5858		-164.062500
5859		-166.015625
5860		-162.109375
5861		-164.062500
5862		-162.109375
5863		-164.062500
5864		-158.203125
5865		-162.109375
5866		-158.203125
5867		-160.156250
5868		-156.250000
5869		-160.156250
5870		-152.343750
5871		-156.250000
5872		-150.390625
5873		-154.296875
5874		-150.390625
5875		-152.343750
5876		-146.484375
5877		-148.437500
5878		-144.531250
5879		-146.484375
5880		-142.578125
5881		-144.531250
5882		-140.625000
5883		-140.625000
5884		-136.718750
5885		-140.625000
5886		-130.859375
5887		-138.671875
5888		-130.859375
5889		-132.812500
5890		-128.906250
5891		-128.906250
5892		-125.000000
5893		-126.953125
5894		-121.093750
5895		-123.046875
5896		-119.140625
5897		-121.093750
5898		-115.234375
5899		-117.187500
5900		-111.328125
5901		-113.281250
5902		-105.468750
5903		-111.328125
5904		-103.515625
5905		-105.468750
5906		-99.609375
5907		-101.562500
5908		-95.703125
5909		-97.656250
5910		-93.750000
5911		-95.703125
5912		-87.890625
5913		-89.843750
5914		-85.937500
5915		-85.937500
5916		-82.031250
5917		-82.031250
5918		-76.171875
5919		-80.078125
5920		-72.265625
5921		-76.171875
5922		-68.359375
5923		-70.312500
5924		-64.453125
5925		-66.406250
5926		-60.546875
5927		-62.500000
5928		-56.640625
5929		-56.640625
5930		-50.781250
5931		-52.734375
5932		-46.875000
5933		-48.828125
5934		-42.968750
5935		-44.921875
5936		-37.109375
5937		-42.968750
5938		-35.156250
5939		-37.109375
5940		-29.296875
5941		-33.203125
5942		-25.390625
5943		-27.343750
5944		-21.484375
5945		-23.437500
5946		-17.578125
5947		-19.531250
5948		-13.671875
5949		-15.625000
5950		-9.765625
5951		-11.718750
5952		-3.906250
5953		-9.765625
5954		0.000000
5955		-3.906250
5956		3.906250
5957		1.953125
5958		7.812500
5959		5.859375
5960		11.718750
5961		9.765625
5962		15.625000
5963		13.671875
5964		19.531250
5965		17.578125
5966		23.437500
5967		21.484375
5968		27.343750
5969		23.437500
5970		33.203125
5971		27.343750
5972		35.156250
5973		33.203125
5974		39.062500
5975		37.109375
5976		42.968750
5977		41.015625
5978		44.921875
5979		44.921875
5980		48.828125
5981		46.875000
5982		52.734375
5983		50.781250
5984		56.640625
5985		54.687500
5986		62.500000
5987		56.640625
5988		64.453125
5989		62.500000
5990		66.406250
5991		64.453125
5992		70.312500
5993		68.359375
5994		72.265625
5995		70.312500
5996		76.171875
5997		74.218750
5998		80.078125
5999		78.125000
6000		82.031250
6001		80.078125
6002		83.984375
6003		82.031250
6004		89.843750
6005		82.031250
6006		91.796875
6007		87.890625
6008		93.750000
6009		91.796875
6010		95.703125
6011		93.750000
6012		97.656250
6013		95.703125
6014		101.562500
6015		99.609375
6016		103.515625
6017		101.562500
6018		105.468750
6019		101.562500
6020		109.375000
6021		103.515625
6022		111.328125
6023		107.421875
6024		111.328125
6025		109.375000
6026		113.281250
6027		111.328125
6028		115.234375
6029		113.281250
6030		117.187500
6031		115.234375
6032		119.140625
6033		117.187500
6034		121.093750
6035		119.140625
6036		123.046875
6037		117.187500
6038		126.953125
6039		119.140625
6040		126.953125
6041		123.046875
6042		126.953125
6043		125.000000
6044		128.906250
6045		126.953125
6046		130.859375
6047		126.953125
6048		130.859375
6049		128.906250
6050		132.812500
6051		130.859375
6052		132.812500
6053		128.906250
6054		136.718750
6055		128.906250
6056		136.718750
6057		132.812500
6058		136.718750
6059		132.812500
6060		136.718750
6061		134.765625
6062		138.671875
6063		134.765625
6064		138.671875
6065		134.765625
6066		138.671875
6067		136.718750
6068		138.671875
6069		134.765625
6070		140.625000
6071		132.812500
6072		142.578125
6073		136.718750
6074		140.625000
6075		136.718750
6076		140.625000
6077		136.718750
6078		140.625000
6079		136.718750
6080		140.625000
6081		136.718750
6082		140.625000
6083		136.718750
6084		138.671875
6085		134.765625
6086		140.625000
6087		134.765625
6088		140.625000
6089		132.812500
6090		140.625000
6091		134.765625
6092		138.671875
6093		134.765625
6094		138.671875
6095		134.765625
6096		136.718750
6097		132.812500
6098		136.718750
6099		132.812500
6100		136.718750
6101		132.812500
6102		134.765625
6103		128.906250
6104		136.718750
6105		128.906250
6106		136.718750
6107		128.906250
6108		132.812500
6109		128.906250
6110		130.859375
6111		126.953125
6112		130.859375
6113		125.000000
6114		128.906250
6115		125.000000
6116		126.953125
6117		123.046875
6118		126.953125
6119		121.093750
6120		125.000000
6121		117.187500
6122		125.000000
6123		117.187500
6124		123.046875
6125		115.234375
6126		119.140625
6127		115.234375
6128		117.187500
6129		113.281250
6130		115.234375
6131		109.375000
6132		113.281250
6133		107.421875
6134		111.328125
6135		105.468750
6136		109.375000
6137		101.562500
6138		109.375000
6139		99.609375
6140		107.421875
6141		99.609375
6142		103.515625
6143		95.703125
6144		101.562500
6145		93.750000
6146		97.656250
6147		91.796875
6148		95.703125
6149		87.890625
6150		93.750000
6151		85.937500
6152		89.843750
6153		80.078125
6154		87.890625
6155		78.125000
6156		87.890625
6157		76.171875
6158		82.031250
6159		72.265625
6160		78.125000
6161		70.312500
6162		76.171875
6163		66.406250
6164		72.265625
6165		64.453125
6166		68.359375
6167		60.546875
6168		66.406250
6169		56.640625
6170		62.500000
6171		50.781250
6172		60.546875
6173		50.781250
6174		58.593750
6175		46.875000
6176		52.734375
6177		42.968750
6178		48.828125
6179		39.062500
6180		44.921875
6181		35.156250
6182		41.015625
6183		31.250000
6184		37.109375
6185		27.343750
6186		33.203125
6187		21.484375
6188		29.296875
6189		19.531250
6190		27.343750
6191		15.625000
6192		21.484375
6193		11.718750
6194		17.578125
6195		7.812500
6196		13.671875
6197		3.906250
6198		9.765625
6199		0.000000
6200		5.859375
6201		-3.906250
6202		1.953125
6203		-7.812500
6204		-1.953125
6205		-15.625000
6206		-3.906250
6207		-15.625000
6208		-9.765625
6209		-21.484375
6210		-11.718750
6211		-27.343750
6212		-19.531250
6213		-31.250000
6214		-21.484375
6215		-33.203125
6216		-25.390625
6217		-37.109375
6218		-31.250000
6219		-41.015625
6220		-37.109375
6221		-48.828125
6222		-41.015625
6223		-50.781250
6224		-42.968750
6225		-56.640625
6226		-48.828125
6227		-60.546875
6228		-52.734375
6229		-62.500000
6230		-54.687500
6231		-66.406250
6232		-58.593750
6233		-70.312500
6234		-64.453125
6235		-74.218750
6236		-70.312500
6237		-80.078125
6238		-74.218750
6239		-85.937500
6240		-74.218750
6241		-89.843750
6242		-80.078125
6243		-91.796875
6244		-83.984375
6245		-95.703125
6246		-85.937500
6247		-101.562500
6248		-91.796875
6249		-101.562500
6250		-95.703125
6251		-105.468750
6252		-99.609375
6253		-109.375000
6254		-103.515625
6255		-115.234375
6256		-105.468750
6257		-117.187500
6258		-109.375000
6259		-121.093750
6260		-111.328125
6261		-125.000000
6262		-115.234375
6263		-128.906250
6264		-119.140625
6265		-130.859375
6266		-123.046875
6267		-130.859375
6268		-126.953125
6269		-134.765625
6270		-130.859375
6271		-140.625000
6272		-132.812500
6273		-142.578125
6274		-132.812500
6275		-144.531250
6276		-136.718750
6277		-148.437500
6278		-138.671875
6279		-150.390625
6280		-140.625000
6281		-152.343750
6282		-144.531250
6283		-152.343750
6284		-146.484375
6285		-154.296875
6286		-150.390625
6287		-158.203125
6288		-152.343750
6289		-162.109375
6290		-152.343750
6291		-162.109375
6292		-154.296875
6293		-164.062500
6294		-156.250000
6295		-166.015625
6296		-158.203125
6297		-167.968750
6298		-160.156250
6299		-167.968750
6300		-160.156250
6301		-167.968750
6302		-164.062500
6303		-167.968750
6304		-166.015625
6305		-171.875000
6306		-164.062500
6307		-171.875000
6308		-164.062500
6309		-173.828125
6310		-166.015625
6311		-173.828125
6312		-166.015625
6313		-173.828125
6314		-166.015625
6315		-175.781250
6316		-167.968750
6317		-171.875000
6318		-169.921875
6319		-171.875000
6320		-169.921875
6321		-175.781250
6322		-166.015625
6323		-175.781250
6324		-166.015625
6325		-173.828125
6326		-166.015625
6327		-173.828125
6328		-166.015625
6329		-173.828125
6330		-166.015625
6331		-171.875000
6332		-164.062500
6333		-169.921875
6334		-164.062500
6335		-167.968750
6336		-164.062500
6337		-166.015625
6338		-164.062500
6339		-167.968750
6340		-160.156250
6341		-166.015625
6342		-158.203125
6343		-164.062500
6344		-156.250000
6345		-162.109375
6346		-154.296875
6347		-160.156250
6348		-154.296875
6349		-160.156250
6350		-150.390625
6351		-156.250000
6352		-150.390625
6353		-152.343750
6354		-148.437500
6355		-150.390625
6356		-144.531250
6357		-150.390625
6358		-142.578125
6359		-148.437500
6360		-138.671875
6361		-146.484375
6362		-136.718750
6363		-140.625000
6364		-132.812500
6365		-140.625000
6366		-130.859375
6367		-136.718750
6368		-128.906250
6369		-130.859375
6370		-126.953125
6371		-128.906250
6372		-123.046875
6373		-126.953125
6374		-117.187500
6375		-123.046875
6376		-115.234375
6377		-121.093750
6378		-111.328125
6379		-117.187500
6380		-107.421875
6381		-113.281250
6382		-103.515625
6383		-109.375000
6384		-101.562500
6385		-103.515625
6386		-99.609375
6387		-99.609375
6388		-93.750000
6389		-97.656250
6390		-89.843750
6391		-95.703125
6392		-85.937500
6393		-89.843750
6394		-80.078125
6395		-85.937500
6396		-78.125000
6397		-82.031250
6398		-72.265625
6399		-78.125000
6400		-68.359375
6401		-72.265625
6402		-66.406250
6403		-68.359375
6404		-62.500000
6405		-64.453125
6406		-54.687500
6407		-62.500000
6408		-50.781250
6409		-58.593750
6410		-46.875000
6411		-52.734375
6412		-42.968750
6413		-48.828125
6414		-39.062500
6415		-44.921875
6416		-35.156250
6417		-39.062500
6418		-33.203125
6419		-33.203125
6420		-29.296875
6421		-29.296875
6422		-25.390625
6423		-27.343750
6424		-17.578125
6425		-23.437500
6426		-13.671875
6427		-19.531250
6428		-9.765625
6429		-15.625000
6430		-5.859375
6431		-11.718750
6432		0.000000
6433		-7.812500
6434		1.953125
6435		-1.953125
6436		5.859375
6437		3.906250
6438		7.812500
6439		7.812500
6440		15.625000
6441		9.765625
6442		19.531250
6443		13.671875
6444		23.437500
6445		17.578125
6446		27.343750
6447		21.484375
6448		29.296875
6449		23.437500
6450		33.203125
6451		29.296875
6452		37.109375
6453		35.156250
6454		41.015625
6455		39.062500
6456		44.921875
6457		39.062500
6458		50.781250
6459		42.968750
6460		52.734375
6461		48.828125
6462		56.640625
6463		50.781250
6464		58.593750
6465		52.734375
6466		62.500000
6467		58.593750
6468		66.406250
6469		62.500000
6470		68.359375
6471		66.406250
6472		70.312500
6473		68.359375
6474		76.171875
6475		70.312500
6476		80.078125
6477		74.218750
6478		82.031250
6479		76.171875
6480		85.937500
6481		80.078125
6482		87.890625
6483		82.031250
6484		91.796875
6485		83.984375
6486		91.796875
6487		89.843750
6488		93.750000
6489		93.750000
6490		97.656250
6491		91.796875
6492		101.562500
6493		95.703125
6494		103.515625
6495		97.656250
6496		105.468750
6497		101.562500
6498		109.375000
6499		103.515625
6500		111.328125
6501		103.515625
6502		111.328125
6503		109.375000
6504		113.281250
6505		111.328125
6506		115.234375
6507		111.328125
6508		119.140625
6509		113.281250
6510		121.093750
6511		113.281250
6512		123.046875
6513		117.187500
6514		125.000000
6515		119.140625
6516		125.000000
6517		119.140625
6518		126.953125
6519		123.046875
6520		126.953125
6521		125.000000
6522		128.906250
6523		125.000000
6524		132.812500
6525		125.000000
6526		132.812500
6527		126.953125
6528		134.765625
6529		126.953125
6530		134.765625
6531		128.906250
6532		136.718750
6533		128.906250
6534		136.718750
6535		130.859375
6536		138.671875
6537		132.812500
6538		136.718750
6539		134.765625
6540		138.671875
6541		132.812500
6542		140.625000
6543		132.812500
6544		142.578125
6545		132.812500
6546		142.578125
6547		134.765625
6548		142.578125
6549		134.765625
6550		142.578125
6551		134.765625
6552		142.578125
6553		138.671875
6554		140.625000
6555		138.671875
6556		140.625000
6557		136.718750
6558		142.578125
6559		134.765625
6560		142.578125
6561		134.765625
6562		142.578125
6563		134.765625
6564		142.578125
6565		134.765625
6566		142.578125
6567		134.765625
6568		142.578125
6569		136.718750
6570		142.578125
6571		134.765625
6572		138.671875
6573		134.765625
6574		138.671875
6575		132.812500
6576		140.625000
6577		132.812500
6578		140.625000
6579		130.859375
6580		138.671875
6581		130.859375
6582		138.671875
6583		128.906250
6584		136.718750
6585		128.906250
6586		136.718750
6587		130.859375
6588		132.812500
6589		128.906250
6590		132.812500
6591		125.000000
6592		132.812500
6593		123.046875
6594		132.812500
6595		123.046875
6596		130.859375
6597		121.093750
6598		130.859375
6599		119.140625
6600		126.953125
6601		117.187500
6602		126.953125
6603		119.140625
6604		121.093750
6605		117.187500
6606		119.140625
6607		113.281250
6608		119.140625
6609		109.375000
6610		119.140625
6611		109.375000
6612		117.187500
6613		107.421875
6614		115.234375
6615		105.468750
6616		113.281250
6617		101.562500
6618		109.375000
6619		101.562500
6620		107.421875
6621		99.609375
6622		103.515625
6623		93.750000
6624		101.562500
6625		91.796875
6626		101.562500
6627		89.843750
6628		97.656250
6629		85.937500
6630		95.703125
6631		83.984375
6632		91.796875
6633		82.031250
6634		89.843750
6635		78.125000
6636		85.937500
6637		76.171875
6638		82.031250
6639		74.218750
6640		78.125000
6641		68.359375
6642		76.171875
6643		64.453125
6644		74.218750
6645		62.500000
6646		70.312500
6647		58.593750
6648		68.359375
6649		54.687500
6650		64.453125
6651		50.781250
6652		58.593750
6653		50.781250
6654		56.640625
6655		46.875000
6656		50.781250
6657		41.015625
6658		46.875000
6659		37.109375
6660		46.875000
6661		33.203125
6662		42.968750
6663		29.296875
6664		39.062500
6665		25.390625
6666		35.156250
6667		21.484375
6668		29.296875
6669		19.531250
6670		27.343750
6671		15.625000
6672		21.484375
6673		11.718750
6674		17.578125
6675		5.859375
6676		13.671875
6677		1.953125
6678		11.718750
6679		-1.953125
6680		7.812500
6681		-5.859375
6682		1.953125
6683		-9.765625
6684		-1.953125
6685		-15.625000
6686		-5.859375
6687		-17.578125
6688		-9.765625
6689		-21.484375
6690		-15.625000
6691		-27.343750
6692		-19.531250
6693		-33.203125
6694		-23.437500
6695		-37.109375
6696		-27.343750
6697		-41.015625
6698		-31.250000
6699		-42.968750
6700		-33.203125
6701		-48.828125
6702		-39.062500
6703		-50.781250
6704		-42.968750
6705		-54.687500
6706		-48.828125
6707		-60.546875
6708		-52.734375
6709		-66.406250
6710		-56.640625
6711		-68.359375
6712		-60.546875
6713		-74.218750
6714		-64.453125
6715		-78.125000
6716		-68.359375
6717		-80.078125
6718		-72.265625
6719		-83.984375
6720		-76.171875
6721		-85.937500
6722		-82.031250
6723		-89.843750
6724		-85.937500
6725		-95.703125
6726		-87.890625
6727		-99.609375
6728		-91.796875
6729		-103.515625
6730		-95.703125
6731		-107.421875
6732		-99.609375
6733		-111.328125
6734		-101.562500
6735		-115.234375
6736		-105.468750
6737		-115.234375
6738		-109.375000
6739		-119.140625
6740		-115.234375
6741		-123.046875
6742		-117.187500
6743		-128.906250
6744		-119.140625
6745		-130.859375
6746		-121.093750
6747		-134.765625
6748		-126.953125
6749		-136.718750
6750		-128.906250
6751		-140.625000
6752		-130.859375
6753		-140.625000
6754		-134.765625
6755		-142.578125
6756		-138.671875
6757		-144.531250
6758		-140.625000
6759		-148.437500
6760		-142.578125
6761		-152.343750
6762		-142.578125
6763		-154.296875
6764		-146.484375
6765		-156.250000
6766		-148.437500
6767		-158.203125
6768		-150.390625
6769		-160.156250
6770		-152.343750
6771		-160.156250
6772		-154.296875
6773		-162.109375
6774		-158.203125
6775		-166.015625
6776		-158.203125
6777		-167.968750
6778		-160.156250
6779		-167.968750
6780		-160.156250
6781		-169.921875
6782		-162.109375
6783		-169.921875
6784		-162.109375
6785		-171.875000
6786		-164.062500
6787		-171.875000
6788		-166.015625
6789		-169.921875
6790		-167.968750
6791		-171.875000
6792		-167.968750
6793		-173.828125
6794		-166.015625
6795		-173.828125
6796		-166.015625
6797		-173.828125
6798		-166.015625
6799		-173.828125
6800		-166.015625
6801		-173.828125
6802		-166.015625
6803		-173.828125
6804		-166.015625
6805		-169.921875
6806		-167.968750
6807		-169.921875
6808		-167.968750
6809		-171.875000
6810		-164.062500
6811		-169.921875
6812		-162.109375
6813		-169.921875
6814		-162.109375
6815		-167.968750
6816		-160.156250
6817		-166.015625
6818		-160.156250
6819		-166.015625
6820		-158.203125
6821		-164.062500
6822		-158.203125
6823		-160.156250
6824		-156.250000
6825		-158.203125
6826		-154.296875
6827		-158.203125
6828		-150.390625
6829		-156.250000
6830		-148.437500
6831		-154.296875
6832		-146.484375
6833		-152.343750
6834		-144.531250
6835		-150.390625
6836		-142.578125
6837		-148.437500
6838		-140.625000
6839		-142.578125
6840		-138.671875
6841		-140.625000
6842		-136.718750
6843		-138.671875
6844		-132.812500
6845		-136.718750
6846		-128.906250
6847		-132.812500
6848		-125.000000
6849		-130.859375
6850		-121.093750
6851		-126.953125
6852		-119.140625
6853		-123.046875
6854		-115.234375
6855		-119.140625
6856		-113.281250
6857		-115.234375
6858		-111.328125
6859		-113.281250
6860		-103.515625
6861		-109.375000
6862		-101.562500
6863		-107.421875
6864		-95.703125
6865		-101.562500
6866		-93.750000
6867		-99.609375
6868		-89.843750
6869		-95.703125
6870		-83.984375
6871		-89.843750
6872		-83.984375
6873		-85.937500
6874		-80.078125
6875		-82.031250
6876		-76.171875
6877		-80.078125
6878		-70.312500
6879		-74.218750
6880		-64.453125
6881		-72.265625
6882		-60.546875
6883		-66.406250
6884		-58.593750
6885		-62.500000
6886		-52.734375
6887		-58.593750
6888		-48.828125
6889		-52.734375
6890		-46.875000
6891		-46.875000
6892		-42.968750
6893		-42.968750
6894		-37.109375
6895		-41.015625
6896		-31.250000
6897		-37.109375
6898		-29.296875
6899		-33.203125
6900		-23.437500
6901		-29.296875
6902		-19.531250
6903		-25.390625
6904		-15.625000
6905		-19.531250
6906		-11.718750
6907		-13.671875
6908		-7.812500
6909		-9.765625
6910		-3.906250
6911		-7.812500
6912		1.953125
6913		-1.953125
6914		5.859375
6915		0.000000
6916		9.765625
6917		5.859375
6918		15.625000
6919		9.765625
6920		17.578125
6921		11.718750
6922		21.484375
6923		19.531250
6924		23.437500
6925		23.437500
6926		27.343750
6927		25.390625
6928		31.250000
6929		29.296875
6930		37.109375
6931		33.203125
6932		41.015625
6933		35.156250
6934		44.921875
6935		39.062500
6936		48.828125
6937		42.968750
6938		52.734375
6939		48.828125
6940		52.734375
6941		52.734375
6942		56.640625
6943		54.687500
6944		62.500000
6945		58.593750
6946		66.406250
6947		60.546875
6948		68.359375
6949		62.500000
6950		72.265625
6951		66.406250
6952		76.171875
6953		70.312500
6954		78.125000
6955		72.265625
6956		80.078125
6957		78.125000
6958		82.031250
6959		82.031250
6960		85.937500
6961		83.984375
6962		89.843750
6963		85.937500
6964		91.796875
6965		87.890625
6966		95.703125
6967		89.843750
6968		97.656250
6969		93.750000
6970		99.609375
6971		95.703125
6972		103.515625
6973		97.656250
6974		103.515625
6975		101.562500
6976		105.468750
6977		103.515625
6978		109.375000
6979		105.468750
6980		113.281250
6981		105.468750
6982		115.234375
6983		109.375000
6984		117.187500
6985		111.328125
6986		119.140625
6987		113.281250
6988		121.093750
6989		115.234375
6990		121.093750
6991		119.140625
6992		121.093750
6993		119.140625
6994		125.000000
6995		119.140625
6996		126.953125
6997		121.093750
6998		128.906250
6999		123.046875
7000		130.859375
7001		123.046875
7002		132.812500
7003		125.000000
7004		132.812500
7005		126.953125
7006		132.812500
7007		130.859375
7008		132.812500
7009		130.859375
7010		134.765625
7011		128.906250
7012		136.718750
7013		130.859375
7014		138.671875
7015		130.859375
7016		138.671875
7017		132.812500
7018		140.625000
7019		132.812500
7020		140.625000
7021		132.812500
7022		140.625000
7023		134.765625
7024		140.625000
7025		136.718750
7026		140.625000
7027		134.765625
7028		142.578125
7029		134.765625
7030		142.578125
7031		134.765625
7032		142.578125
7033		136.718750
7034		144.531250
7035		136.718750
7036		142.578125
7037		136.718750
7038		144.531250
7039		136.718750
7040		144.531250
7041		138.671875
7042		140.625000
7043		138.671875
7044		140.625000
7045		134.765625
7046		142.578125
7047		134.765625
7048		142.578125
7049		134.765625
7050		142.578125
7051		134.765625
7052		140.625000
7053		134.765625
7054		140.625000
7055		132.812500
7056		140.625000
7057		134.765625
7058		138.671875
7059		134.765625
7060		136.718750
7061		130.859375
7062		138.671875
7063		128.906250
7064		138.671875
7065		128.906250
7066		136.718750
7067		126.953125
7068		134.765625
7069		126.953125
7070		134.765625
7071		125.000000
7072		132.812500
7073		125.000000
7074		130.859375
7075		125.000000
7076		128.906250
7077		121.093750
7078		126.953125
7079		119.140625
7080		126.953125
7081		117.187500
7082		125.000000
7083		115.234375
7084		123.046875
7085		115.234375
7086		123.046875
7087		113.281250
7088		121.093750
7089		111.328125
7090		119.140625
7091		111.328125
7092		113.281250
7093		109.375000
7094		111.328125
7095		103.515625
7096		111.328125
7097		101.562500
7098		109.375000
7099		99.609375
7100		107.421875
7101		97.656250
7102		105.468750
7103		93.750000
7104		103.515625
7105		91.796875
7106		101.562500
7107		89.843750
7108		97.656250
7109		87.890625
7110		91.796875
7111		83.984375
7112		89.843750
7113		80.078125
7114		87.890625
7115		78.125000
7116		85.937500
7117		74.218750
7118		83.984375
7119		72.265625
7120		80.078125
7121		68.359375
7122		76.171875
7123		66.406250
7124		74.218750
7125		64.453125
7126		68.359375
7127		60.546875
7128		64.453125
7129		56.640625
7130		62.500000
7131		50.781250
7132		60.546875
7133		48.828125
7134		56.640625
7135		42.968750
7136		54.687500
7137		41.015625
7138		48.828125
7139		37.109375
7140		44.921875
7141		35.156250
7142		41.015625
7143		31.250000
7144		37.109375
7145		25.390625
7146		33.203125
7147		21.484375
7148		29.296875
7149		17.578125
7150		27.343750
7151		13.671875
7152		23.437500
7153		9.765625
7154		19.531250
7155		5.859375
7156		15.625000
7157		3.906250
7158		9.765625
7159		-1.953125
7160		3.906250
7161		-5.859375
7162		0.000000
7163		-11.718750
7164		-1.953125
7165		-15.625000
7166		-5.859375
7167		-19.531250
7168		-11.718750
7169		-23.437500
7170		-13.671875
7171		-27.343750
7172		-17.578125
7173		-31.250000
7174		-23.437500
7175		-35.156250
7176		-29.296875
7177		-39.062500
7178		-33.203125
7179		-44.921875
7180		-35.156250
7181		-48.828125
7182		-39.062500
7183		-52.734375
7184		-42.968750
7185		-56.640625
7186		-48.828125
7187		-62.500000
7188		-50.781250
7189		-66.406250
7190		-56.640625
7191		-68.359375
7192		-60.546875
7193		-72.265625
7194		-66.406250
7195		-78.125000
7196		-70.312500
7197		-82.031250
7198		-72.265625
7199		-85.937500
7200		-76.171875
7201		-89.843750
7202		-80.078125
7203		-93.750000
7204		-83.984375
7205		-97.656250
7206		-87.890625
7207		-99.609375
7208		-91.796875
7209		-101.562500
7210		-97.656250
7211		-105.468750
7212		-99.609375
7213		-109.375000
7214		-101.562500
7215		-113.281250
7216		-105.468750
7217		-117.187500
7218		-107.421875
7219		-121.093750
7220		-111.328125
7221		-125.000000
7222		-115.234375
7223		-126.953125
7224		-117.187500
7225		-128.906250
7226		-123.046875
7227		-130.859375
7228		-126.953125
7229		-134.765625
7230		-128.906250
7231		-138.671875
7232		-130.859375
7233		-140.625000
7234		-132.812500
7235		-142.578125
7236		-136.718750
7237		-146.484375
7238		-136.718750
7239		-148.437500
7240		-140.625000
7241		-150.390625
7242		-142.578125
7243		-152.343750
7244		-146.484375
7245		-154.296875
7246		-148.437500
7247		-158.203125
7248		-148.437500
7249		-160.156250
7250		-150.390625
7251		-162.109375
7252		-152.343750
7253		-162.109375
7254		-154.296875
7255		-164.062500
7256		-156.250000
7257		-164.062500
7258		-156.250000
7259		-164.062500
7260		-162.109375
7261		-166.015625
7262		-162.109375
7263		-167.968750
7264		-162.109375
7265		-169.921875
7266		-162.109375
7267		-169.921875
7268		-162.109375
7269		-169.921875
7270		-164.062500
7271		-171.875000
7272		-164.062500
7273		-171.875000
7274		-164.062500
7275		-169.921875
7276		-164.062500
7277		-169.921875
7278		-166.015625
7279		-171.875000
7280		-164.062500
7281		-171.875000
7282		-164.062500
7283		-171.875000
7284		-164.062500
7285		-169.921875
7286		-162.109375
7287		-169.921875
7288		-162.109375
7289		-167.968750
7290		-160.156250
7291		-167.968750
7292		-160.156250
7293		-164.062500
7294		-162.109375
7295		-164.062500
7296		-160.156250
7297		-164.062500
7298		-158.203125
7299		-162.109375
7300		-156.250000
7301		-162.109375
7302		-152.343750
7303		-160.156250
7304		-152.343750
7305		-158.203125
7306		-150.390625
7307		-156.250000
7308		-146.484375
7309		-152.343750
7310		-148.437500
7311		-150.390625
7312		-146.484375
7313		-148.437500
7314		-140.625000
7315		-146.484375
7316		-138.671875
7317		-144.531250
7318		-136.718750
7319		-142.578125
7320		-134.765625
7321		-138.671875
7322		-130.859375
7323		-136.718750
7324		-126.953125
7325		-132.812500
7326		-126.953125
7327		-128.906250
7328		-123.046875
7329		-125.000000
7330		-119.140625
7331		-125.000000
7332		-115.234375
7333		-119.140625
7334		-111.328125
7335		-117.187500
7336		-109.375000
7337		-115.234375
7338		-103.515625
7339		-111.328125
7340		-101.562500
7341		-107.421875
7342		-97.656250
7343		-101.562500
7344		-95.703125
7345		-97.656250
7346		-91.796875
7347		-93.750000
7348		-87.890625
7349		-91.796875
7350		-82.031250
7351		-87.890625
7352		-78.125000
7353		-83.984375
7354		-74.218750
7355		-80.078125
7356		-70.312500
7357		-76.171875
7358		-66.406250
7359		-72.265625
7360		-64.453125
7361		-66.406250
7362		-60.546875
7363		-60.546875
7364		-52.734375
7365		-58.593750
7366		-50.781250
7367		-54.687500
7368		-46.875000
7369		-50.781250
7370		-41.015625
7371		-46.875000
7372		-37.109375
7373		-42.968750
7374		-33.203125
7375		-39.062500
7376		-29.296875
7377		-31.250000
7378		-25.390625
7379		-27.343750
7380		-21.484375
7381		-25.390625
7382		-17.578125
7383		-19.531250
7384		-11.718750
7385		-17.578125
7386		-7.812500
7387		-11.718750
7388		-1.953125
7389		-9.765625
7390		0.000000
7391		-5.859375
7392		5.859375
7393		0.000000
7394		7.812500
7395		5.859375
7396		11.718750
7397		9.765625
7398		17.578125
7399		11.718750
7400		19.531250
7401		15.625000
7402		25.390625
7403		19.531250
7404		29.296875
7405		23.437500
7406		33.203125
7407		27.343750
7408		37.109375
7409		31.250000
7410		39.062500
7411		37.109375
7412		42.968750
7413		41.015625
7414		46.875000
7415		42.968750
7416		52.734375
7417		46.875000
7418		56.640625
7419		48.828125
7420		58.593750
7421		52.734375
7422		62.500000
7423		56.640625
7424		66.406250
7425		58.593750
7426		68.359375
7427		64.453125
7428		70.312500
7429		68.359375
7430		72.265625
7431		70.312500
7432		78.125000
7433		74.218750
7434		82.031250
7435		76.171875
7436		83.984375
7437		78.125000
7438		87.890625
7439		82.031250
7440		89.843750
7441		85.937500
7442		91.796875
7443		85.937500
7444		93.750000
7445		91.796875
7446		95.703125
7447		93.750000
7448		99.609375
7449		97.656250
7450		101.562500
7451		97.656250
7452		105.468750
7453		99.609375
7454		109.375000
7455		101.562500
7456		111.328125
7457		105.468750
7458		113.281250
7459		105.468750
7460		113.281250
7461		111.328125
7462		115.234375
7463		113.281250
7464		117.187500
7465		113.281250
7466		119.140625
7467		115.234375
7468		123.046875
7469		115.234375
7470		125.000000
7471		117.187500
7472		126.953125
7473		119.140625
7474		128.906250
7475		121.093750
7476		128.906250
7477		123.046875
7478		128.906250
7479		126.953125
7480		128.906250
7481		125.000000
7482		132.812500
7483		128.906250
7484		132.812500
7485		126.953125
7486		136.718750
7487		128.906250
7488		136.718750
7489		130.859375
7490		138.671875
7491		130.859375
7492		138.671875
7493		130.859375
7494		138.671875
7495		134.765625
7496		138.671875
7497		136.718750
7498		138.671875
7499		134.765625
7500		142.578125
7501		134.765625
7502		142.578125
7503		136.718750
7504		142.578125
7505		136.718750
7506		144.531250
7507		136.718750
7508		144.531250
7509		136.718750
7510		144.531250
7511		138.671875
7512		142.578125
7513		138.671875
7514		142.578125
7515		136.718750
7516		144.531250
7517		136.718750
7518		144.531250
7519		136.718750
7520		144.531250
7521		136.718750
7522		144.531250
7523		136.718750
7524		144.531250
7525		136.718750
7526		144.531250
7527		136.718750
7528		142.578125
7529		138.671875
7530		140.625000
7531		134.765625
7532		142.578125
7533		136.718750
7534		140.625000
7535		132.812500
7536		142.578125
7537		132.812500
7538		140.625000
7539		132.812500
7540		140.625000
7541		130.859375
7542		138.671875
7543		130.859375
7544		138.671875
7545		130.859375
7546		134.765625
7547		130.859375
7548		132.812500
7549		126.953125
7550		134.765625
7551		126.953125
7552		130.859375
7553		125.000000
7554		132.812500
7555		123.046875
7556		130.859375
7557		121.093750
7558		128.906250
7559		119.140625
7560		128.906250
7561		119.140625
7562		126.953125
7563		119.140625
7564		123.046875
7565		113.281250
7566		121.093750
7567		115.234375
7568		119.140625
7569		111.328125
7570		119.140625
7571		107.421875
7572		117.187500
7573		105.468750
7574		115.234375
7575		103.515625
7576		111.328125
7577		103.515625
7578		111.328125
7579		101.562500
7580		105.468750
7581		99.609375
7582		103.515625
7583		95.703125
7584		103.515625
7585		91.796875
7586		99.609375
7587		89.843750
7588		97.656250
7589		85.937500
7590		95.703125
7591		82.031250
7592		91.796875
7593		80.078125
7594		89.843750
7595		80.078125
7596		85.937500
7597		76.171875
7598		80.078125
7599		72.265625
7600		78.125000
7601		68.359375
7602		74.218750
7603		64.453125
7604		74.218750
7605		60.546875
7606		70.312500
7607		58.593750
7608		66.406250
7609		54.687500
7610		64.453125
7611		52.734375
7612		60.546875
7613		48.828125
7614		54.687500
7615		42.968750
7616		50.781250
7617		41.015625
7618		48.828125
7619		35.156250
7620		44.921875
7621		33.203125
7622		41.015625
7623		27.343750
7624		39.062500
7625		25.390625
7626		33.203125
7627		21.484375
7628		29.296875
7629		17.578125
7630		23.437500
7631		15.625000
7632		19.531250
7633		9.765625
7634		17.578125
7635		3.906250
7636		11.718750
7637		0.000000
7638		9.765625
7639		-3.906250
7640		5.859375
7641		-7.812500
7642		1.953125
7643		-11.718750
7644		-1.953125
7645		-13.671875
7646		-5.859375
7647		-17.578125
7648		-11.718750
7649		-25.390625
7650		-15.625000
7651		-27.343750
7652		-21.484375
7653		-33.203125
7654		-23.437500
7655		-37.109375
7656		-27.343750
7657		-41.015625
7658		-31.250000
7659		-44.921875
7660		-35.156250
7661		-46.875000
7662		-39.062500
7663		-50.781250
7664		-46.875000
7665		-54.687500
7666		-50.781250
7667		-60.546875
7668		-52.734375
7669		-66.406250
7670		-58.593750
7671		-70.312500
7672		-60.546875
7673		-74.218750
7674		-64.453125
7675		-80.078125
7676		-68.359375
7677		-82.031250
7678		-72.265625
7679		-83.984375
7680		-76.171875
7681		-87.890625
7682		-82.031250
7683		-93.750000
7684		-85.937500
7685		-95.703125
7686		-89.843750
7687		-99.609375
7688		-91.796875
7689		-105.468750
7690		-93.750000
7691		-107.421875
7692		-97.656250
7693		-109.375000
7694		-101.562500
7695		-113.281250
7696		-105.468750
7697		-115.234375
7698		-111.328125
7699		-123.046875
7700		-115.234375
7701		-123.046875
7702		-115.234375
7703		-126.953125
7704		-119.140625
7705		-130.859375
7706		-121.093750
7707		-132.812500
7708		-125.000000
7709		-136.718750
7710		-126.953125
7711		-138.671875
7712		-130.859375
7713		-138.671875
7714		-134.765625
7715		-142.578125
7716		-138.671875
7717		-146.484375
7718		-138.671875
7719		-150.390625
7720		-142.578125
7721		-152.343750
7722		-144.531250
7723		-154.296875
7724		-144.531250
7725		-156.250000
7726		-148.437500
7727		-158.203125
7728		-150.390625
7729		-156.250000
7730		-150.390625
7731		-158.203125
7732		-154.296875
7733		-164.062500
7734		-156.250000
7735		-162.109375
7736		-158.203125
7737		-166.015625
7738		-158.203125
7739		-166.015625
7740		-158.203125
7741		-166.015625
7742		-160.156250
7743		-167.968750
7744		-160.156250
7745		-169.921875
7746		-162.109375
7747		-167.968750
7748		-164.062500
7749		-167.968750
7750		-166.015625
7751		-169.921875
7752		-164.062500
7753		-171.875000
7754		-164.062500
7755		-171.875000
7756		-164.062500
7757		-169.921875
7758		-164.062500
7759		-171.875000
7760		-162.109375
7761		-171.875000
7762		-162.109375
7763		-169.921875
7764		-166.015625
7765		-167.968750
7766		-164.062500
7767		-167.968750
7768		-162.109375
7769		-167.968750
7770		-162.109375
7771		-167.968750
7772		-160.156250
7773		-166.015625
7774		-158.203125
7775		-166.015625
7776		-156.250000
7777		-164.062500
7778		-156.250000
7779		-162.109375
7780		-154.296875
7781		-158.203125
7782		-154.296875
7783		-156.250000
7784		-150.390625
7785		-158.203125
7786		-150.390625
7787		-154.296875
7788		-146.484375
7789		-152.343750
7790		-144.531250
7791		-150.390625
7792		-142.578125
7793		-148.437500
7794		-138.671875
7795		-146.484375
7796		-138.671875
7797		-142.578125
7798		-136.718750
7799		-138.671875
7800		-134.765625
7801		-136.718750
7802		-130.859375
7803		-132.812500
7804		-126.953125
7805		-130.859375
7806		-123.046875
7807		-126.953125
7808		-121.093750
7809		-125.000000
7810		-117.187500
7811		-121.093750
7812		-115.234375
7813		-119.140625
7814		-113.281250
7815		-113.281250
7816		-109.375000
7817		-111.328125
7818		-103.515625
7819		-107.421875
7820		-101.562500
7821		-103.515625
7822		-95.703125
7823		-101.562500
7824		-91.796875
7825		-97.656250
7826		-89.843750
7827		-95.703125
7828		-85.937500
7829		-89.843750
7830		-82.031250
7831		-83.984375
7832		-80.078125
7833		-82.031250
7834		-74.218750
7835		-78.125000
7836		-70.312500
7837		-74.218750
7838		-66.406250
7839		-70.312500
7840		-60.546875
7841		-66.406250
7842		-56.640625
7843		-62.500000
7844		-52.734375
7845		-58.593750
7846		-46.875000
7847		-52.734375
7848		-46.875000
7849		-46.875000
7850		-41.015625
7851		-42.968750
7852		-35.156250
7853		-39.062500
7854		-31.250000
7855		-37.109375
7856		-27.343750
7857		-31.250000
7858		-23.437500
7859		-27.343750
7860		-17.578125
7861		-25.390625
7862		-13.671875
7863		-17.578125
7864		-11.718750
7865		-13.671875
7866		-7.812500
7867		-9.765625
7868		-1.953125
7869		-7.812500
7870		0.000000
7871		-1.953125
7872		5.859375
7873		1.953125
7874		11.718750
7875		3.906250
7876		15.625000
7877		9.765625
7878		17.578125
7879		13.671875
7880		21.484375
7881		19.531250
7882		23.437500
7883		21.484375
7884		27.343750
7885		25.390625
7886		33.203125
7887		31.250000
7888		39.062500
7889		33.203125
7890		41.015625
7891		35.156250
7892		44.921875
7893		39.062500
7894		50.781250
7895		42.968750
7896		52.734375
7897		46.875000
7898		54.687500
7899		52.734375
7900		56.640625
7901		56.640625
7902		62.500000
7903		58.593750
7904		64.453125
7905		60.546875
7906		70.312500
7907		64.453125
7908		72.265625
7909		66.406250
7910		76.171875
7911		70.312500
7912		80.078125
7913		74.218750
7914		82.031250
7915		78.125000
7916		82.031250
7917		82.031250
7918		85.937500
7919		82.031250
7920		89.843750
7921		85.937500
7922		93.750000
7923		87.890625
7924		95.703125
7925		89.843750
7926		99.609375
7927		93.750000
7928		101.562500
7929		95.703125
7930		105.468750
7931		99.609375
7932		103.515625
7933		103.515625
7934		105.468750
7935		103.515625
7936		111.328125
7937		107.421875
7938		113.281250
7939		107.421875
7940		115.234375
7941		109.375000
7942		117.187500
7943		111.328125
7944		119.140625
7945		113.281250
7946		121.093750
7947		115.234375
7948		121.093750
7949		119.140625
7950		123.046875
7951		121.093750
7952		126.953125
7953		119.140625
7954		126.953125
7955		123.046875
7956		128.906250
7957		123.046875
7958		130.859375
7959		125.000000
7960		132.812500
7961		125.000000
7962		132.812500
7963		126.953125
7964		134.765625
7965		130.859375
7966		132.812500
7967		132.812500
7968		134.765625
7969		130.859375
7970		138.671875
7971		132.812500
7972		138.671875
7973		132.812500
7974		138.671875
7975		132.812500
7976		140.625000
7977		134.765625
7978		140.625000
7979		134.765625
7980		142.578125
7981		134.765625
7982		142.578125
7983		138.671875
7984		140.625000
7985		136.718750
7986		142.578125
7987		138.671875
7988		142.578125
7989		136.718750
7990		144.531250
7991		136.718750
7992		144.531250
7993		136.718750
7994		144.531250
7995		136.718750
7996		144.531250
7997		136.718750
7998		144.531250
7999		138.671875
8000		142.578125
8001		138.671875
8002		142.578125
8003		136.718750
8004		142.578125
8005		136.718750
8006		144.531250
8007		136.718750
8008		142.578125
8009		134.765625
8010		142.578125
8011		134.765625
8012		142.578125
8013		134.765625
8014		142.578125
8015		134.765625
8016		138.671875
8017		134.765625
8018		138.671875
8019		132.812500
8020		138.671875
8021		132.812500
8022		136.718750
8023		128.906250
8024		136.718750
8025		128.906250
8026		136.718750
8027		128.906250
8028		134.765625
8029		126.953125
8030		134.765625
8031		125.000000
8032		130.859375
8033		126.953125
8034		128.906250
8035		125.000000
8036		126.953125
8037		121.093750
8038		128.906250
8039		119.140625
8040		126.953125
8041		117.187500
8042		125.000000
8043		115.234375
8044		123.046875
8045		113.281250
8046		123.046875
8047		113.281250
8048		121.093750
8049		111.328125
8050		115.234375
8051		109.375000
8052		113.281250
8053		105.468750
8054		111.328125
8055		103.515625
8056		109.375000
8057		101.562500
8058		109.375000
8059		99.609375
8060		107.421875
8061		95.703125
8062		103.515625
8063		93.750000
8064		101.562500
8065		93.750000
8066		99.609375
8067		89.843750
8068		93.750000
8069		85.937500
8070		91.796875
8071		83.984375
8072		89.843750
8073		80.078125
8074		87.890625
8075		76.171875
8076		85.937500
8077		74.218750
8078		82.031250
8079		72.265625
8080		78.125000
8081		68.359375
8082		76.171875
8083		64.453125
8084		70.312500
8085		62.500000
8086		66.406250
8087		58.593750
8088		64.453125
8089		52.734375
8090		60.546875
8091		48.828125
8092		56.640625
8093		44.921875
8094		54.687500
8095		42.968750
8096		52.734375
8097		37.109375
8098		46.875000
8099		37.109375
8100		42.968750
8101		33.203125
8102		37.109375
8103		25.390625
8104		35.156250
8105		25.390625
8106		31.250000
8107		19.531250
8108		29.296875
8109		15.625000
8110		25.390625
8111		11.718750
8112		21.484375
8113		7.812500
8114		15.625000
8115		3.906250
8116		13.671875
8117		1.953125
8118		5.859375
8119		-3.906250
8120		1.953125
8121		-7.812500
8122		0.000000
8123		-13.671875
8124		-5.859375
8125		-17.578125
8126		-7.812500
8127		-21.484375
8128		-11.718750
8129		-25.390625
8130		-15.625000
8131		-29.296875
8132		-19.531250
8133		-31.250000
8134		-25.390625
8135		-37.109375
8136		-31.250000
8137		-41.015625
8138		-35.156250
8139		-46.875000
8140		-39.062500
8141		-50.781250
8142		-41.015625
8143		-54.687500
8144		-44.921875
8145		-60.546875
8146		-48.828125
8147		-62.500000
8148		-52.734375
8149		-64.453125
8150		-56.640625
8151		-70.312500
8152		-64.453125
8153		-74.218750
8154		-68.359375
8155		-78.125000
8156		-70.312500
8157		-82.031250
8158		-74.218750
8159		-87.890625
8160		-78.125000
8161		-89.843750
8162		-82.031250
8163		-95.703125
8164		-85.937500
8165		-97.656250
8166		-87.890625
8167		-99.609375
8168		-95.703125
8169		-103.515625
8170		-97.656250
8171		-107.421875
8172		-101.562500
8173		-111.328125
8174		-105.468750
8175		-117.187500
8176		-107.421875
8177		-119.140625
8178		-109.375000
8179		-121.093750
8180		-113.281250
8181		-126.953125
8182		-117.187500
8183		-126.953125
8184		-119.140625
8185		-128.906250
8186		-125.000000
8187		-134.765625
8188		-126.953125
8189		-134.765625
8190		-130.859375
8191		-140.625000
8192		-130.859375
8193		-142.578125
8194		-134.765625
8195		-146.484375
8196		-136.718750
8197		-146.484375
8198		-140.625000
8199		-150.390625
8200		-140.625000
8201		-150.390625
8202		-146.484375
8203		-152.343750
8204		-148.437500
8205		-156.250000
8206		-148.437500
8207		-158.203125
8208		-150.390625
8209		-160.156250
8210		-152.343750
8211		-162.109375
8212		-152.343750
8213		-162.109375
8214		-154.296875
8215		-164.062500
8216		-156.250000
8217		-164.062500
8218		-158.203125
8219		-164.062500
8220		-160.156250
8221		-167.968750
8222		-160.156250
8223		-167.968750
8224		-160.156250
8225		-169.921875
8226		-162.109375
8227		-169.921875
8228		-162.109375
8229		-169.921875
8230		-162.109375
8231		-169.921875
8232		-162.109375
8233		-169.921875
8234		-164.062500
8235		-167.968750
8236		-166.015625
8237		-169.921875
8238		-164.062500
8239		-169.921875
8240		-164.062500
8241		-169.921875
8242		-162.109375
8243		-169.921875
8244		-162.109375
8245		-169.921875
8246		-162.109375
8247		-167.968750
8248		-160.156250
8249		-167.968750
8250		-160.156250
8251		-164.062500
8252		-162.109375
8253		-164.062500
8254		-160.156250
8255		-164.062500
8256		-158.203125
8257		-162.109375
8258		-156.250000
8259		-162.109375
8260		-154.296875
8261		-160.156250
8262		-152.343750
8263		-158.203125
8264		-150.390625
8265		-156.250000
8266		-148.437500
8267		-154.296875
8268		-146.484375
8269		-150.390625
8270		-146.484375
8271		-148.437500
8272		-140.625000
8273		-144.531250
8274		-140.625000
8275		-144.531250
8276		-136.718750
8277		-142.578125
8278		-132.812500
8279		-138.671875
8280		-130.859375
8281		-136.718750
8282		-128.906250
8283		-134.765625
8284		-126.953125
8285		-128.906250
8286		-125.000000
8287		-125.000000
8288		-121.093750
8289		-125.000000
8290		-117.187500
8291		-121.093750
8292		-113.281250
8293		-117.187500
8294		-109.375000
8295		-115.234375
8296		-105.468750
8297		-111.328125
8298		-101.562500
8299		-107.421875
8300		-99.609375
8301		-103.515625
8302		-95.703125
8303		-97.656250
8304		-91.796875
8305		-93.750000
8306		-85.937500
8307		-91.796875
8308		-82.031250
8309		-87.890625
8310		-80.078125
8311		-85.937500
8312		-76.171875
8313		-82.031250
8314		-70.312500
8315		-76.171875
8316		-66.406250
8317		-72.265625
8318		-64.453125
8319		-66.406250
8320		-60.546875
8321		-62.500000
8322		-56.640625
8323		-60.546875
8324		-52.734375
8325		-54.687500
8326		-44.921875
8327		-50.781250
8328		-42.968750
8329		-46.875000
8330		-39.062500
8331		-42.968750
8332		-33.203125
8333		-39.062500
8334		-29.296875
8335		-33.203125
8336		-27.343750
8337		-27.343750
8338		-23.437500
8339		-27.343750
8340		-17.578125
8341		-19.531250
8342		-11.718750
8343		-17.578125
8344		-7.812500
8345		-13.671875
8346		-3.906250
8347		-9.765625
8348		0.000000
8349		-5.859375
8350		3.906250
8351		0.000000
8352		5.859375
8353		5.859375
8354		9.765625
8355		9.765625
8356		17.578125
8357		13.671875
8358		17.578125
8359		13.671875
8360		25.390625
8361		19.531250
8362		29.296875
8363		23.437500
8364		33.203125
8365		27.343750
8366		37.109375
8367		31.250000
8368		37.109375
8369		37.109375
8370		41.015625
8371		41.015625
8372		44.921875
8373		42.968750
8374		48.828125
8375		46.875000
8376		54.687500
8377		48.828125
8378		58.593750
8379		50.781250
8380		60.546875
8381		56.640625
8382		64.453125
8383		58.593750
8384		68.359375
8385		62.500000
8386		68.359375
8387		68.359375
8388		72.265625
8389		70.312500
8390		76.171875
8391		72.265625
8392		80.078125
8393		74.218750
8394		83.984375
8395		78.125000
8396		87.890625
8397		82.031250
8398		89.843750
8399		83.984375
8400		91.796875
8401		85.937500
8402		93.750000
8403		91.796875
8404		95.703125
8405		93.750000
8406		99.609375
8407		93.750000
8408		101.562500
8409		97.656250
8410		105.468750
8411		99.609375
8412		107.421875
8413		101.562500
8414		109.375000
8415		103.515625
8416		113.281250
8417		105.468750
8418		113.281250
8419		111.328125
8420		113.281250
8421		113.281250
8422		117.187500
8423		113.281250
8424		119.140625
8425		115.234375
8426		123.046875
8427		115.234375
8428		125.000000
8429		117.187500
8430		125.000000
8431		119.140625
8432		126.953125
8433		121.093750
8434		128.906250
8435		123.046875
8436		128.906250
8437		126.953125
8438		128.906250
8439		126.953125
8440		132.812500
8441		128.906250
8442		132.812500
8443		126.953125
8444		136.718750
8445		128.906250
8446		136.718750
8447		130.859375
8448		138.671875
8449		130.859375
8450		138.671875
8451		130.859375
8452		138.671875
8453		134.765625
8454		138.671875
8455		136.718750
8456		138.671875
8457		136.718750
8458		140.625000
8459		134.765625
8460		142.578125
8461		134.765625
8462		142.578125
8463		136.718750
8464		144.531250
8465		136.718750
8466		144.531250
8467		136.718750
8468		144.531250
8469		138.671875
8470		142.578125
8471		140.625000
8472		142.578125
8473		138.671875
8474		142.578125
8475		136.718750
8476		144.531250
8477		136.718750
8478		144.531250
8479		136.718750
8480		144.531250
8481		136.718750
8482		144.531250
8483		136.718750
8484		144.531250
8485		136.718750
8486		144.531250
8487		138.671875
8488		142.578125
8489		136.718750
8490		140.625000
8491		136.718750
8492		140.625000
8493		134.765625
8494		142.578125
8495		132.812500
8496		140.625000
8497		132.812500
8498		140.625000
8499		132.812500
8500		138.671875
8501		130.859375
8502		138.671875
8503		132.812500
8504		134.765625
8505		130.859375
8506		134.765625
8507		128.906250
8508		134.765625
8509		126.953125
8510		134.765625
8511		125.000000
8512		132.812500
8513		123.046875
8514		130.859375
8515		123.046875
8516		130.859375
8517		121.093750
8518		128.906250
8519		121.093750
8520		126.953125
8521		119.140625
8522		123.046875
8523		117.187500
8524		121.093750
8525		115.234375
8526		121.093750
8527		111.328125
8528		119.140625
8529		109.375000
8530		117.187500
8531		107.421875
8532		115.234375
8533		105.468750
8534		113.281250
8535		103.515625
8536		109.375000
8537		103.515625
8538		107.421875
8539		99.609375
8540		103.515625
8541		97.656250
8542		101.562500
8543		93.750000
8544		99.609375
8545		89.843750
8546		99.609375
8547		87.890625
8548		95.703125
8549		83.984375
8550		93.750000
8551		82.031250
8552		91.796875
8553		80.078125
8554		85.937500
8555		78.125000
8556		82.031250
8557		74.218750
8558		80.078125
8559		68.359375
8560		76.171875
8561		66.406250
8562		76.171875
8563		62.500000
8564		70.312500
8565		60.546875
8566		68.359375
8567		56.640625
8568		64.453125
8569		54.687500
8570		60.546875
8571		50.781250
8572		56.640625
8573		46.875000
8574		52.734375
8575		42.968750
8576		48.828125
8577		39.062500
8578		46.875000
8579		33.203125
8580		42.968750
8581		31.250000
8582		39.062500
8583		27.343750
8584		35.156250
8585		23.437500
8586		31.250000
8587		21.484375
8588		25.390625
8589		15.625000
8590		21.484375
8591		11.718750
8592		17.578125
8593		3.906250
8594		15.625000
8595		1.953125
8596		11.718750
8597		-1.953125
8598		7.812500
8599		-5.859375
8600		3.906250
8601		-11.718750
8602		-1.953125
8603		-11.718750
8604		-3.906250
8605		-15.625000
8606		-9.765625
8607		-19.531250
8608		-15.625000
8609		-25.390625
8610		-19.531250
8611		-31.250000
8612		-21.484375
8613		-35.156250
8614		-23.437500
8615		-39.062500
8616		-29.296875
8617		-42.968750
8618		-33.203125
8619		-44.921875
8620		-37.109375
8621		-48.828125
8622		-42.968750
8623		-54.687500
8624		-48.828125
8625		-58.593750
8626		-50.781250
8627		-64.453125
8628		-54.687500
8629		-68.359375
8630		-58.593750
8631		-72.265625
8632		-62.500000
8633		-76.171875
8634		-66.406250
8635		-80.078125
8636		-70.312500
8637		-82.031250
8638		-76.171875
8639		-85.937500
8640		-80.078125
8641		-89.843750
8642		-83.984375
8643		-93.750000
8644		-85.937500
8645		-99.609375
8646		-87.890625
8647		-101.562500
8648		-91.796875
8649		-107.421875
8650		-97.656250
8651		-109.375000
8652		-101.562500
8653		-111.328125
8654		-103.515625
8655		-115.234375
8656		-109.375000
8657		-117.187500
8658		-113.281250
8659		-123.046875
8660		-113.281250
8661		-125.000000
8662		-119.140625
8663		-128.906250
8664		-119.140625
8665		-132.812500
8666		-123.046875
8667		-134.765625
8668		-126.953125
8669		-138.671875
8670		-128.906250
8671		-138.671875
8672		-132.812500
8673		-140.625000
8674		-136.718750
8675		-142.578125
8676		-138.671875
8677		-148.437500
8678		-140.625000
8679		-150.390625
8680		-142.578125
8681		-152.343750
8682		-144.531250
8683		-154.296875
8684		-146.484375
8685		-156.250000
8686		-148.437500
8687		-158.203125
8688		-150.390625
8689		-158.203125
8690		-154.296875
8691		-162.109375
8692		-156.250000
8693		-162.109375
8694		-158.203125
8695		-166.015625
8696		-156.250000
8697		-166.015625
8698		-158.203125
8699		-167.968750
8700		-160.156250
8701		-167.968750
8702		-160.156250
8703		-167.968750
8704		-162.109375
8705		-167.968750
8706		-164.062500
8707		-167.968750
8708		-166.015625
8709		-169.921875
8710		-164.062500
8711		-171.875000
8712		-164.062500
8713		-171.875000
8714		-164.062500
8715		-171.875000
8716		-164.062500
8717		-171.875000
8718		-164.062500
8719		-169.921875
8720		-164.062500
8721		-171.875000
8722		-164.062500
8723		-167.968750
8724		-166.015625
8725		-167.968750
8726		-164.062500
8727		-167.968750
8728		-162.109375
8729		-167.968750
8730		-160.156250
8731		-167.968750
8732		-158.203125
8733		-166.015625
8734		-158.203125
8735		-166.015625
8736		-156.250000
8737		-162.109375
8738		-156.250000
8739		-160.156250
8740		-156.250000
8741		-158.203125
8742		-154.296875
8743		-156.250000
8744		-152.343750
8745		-156.250000
8746		-148.437500
8747		-154.296875
8748		-146.484375
8749		-152.343750
8750		-144.531250
8751		-150.390625
8752		-142.578125
8753		-148.437500
8754		-138.671875
8755		-144.531250
8756		-138.671875
8757		-140.625000
8758		-134.765625
8759		-136.718750
8760		-132.812500
8761		-134.765625
8762		-128.906250
8763		-134.765625
8764		-125.000000
8765		-130.859375
8766		-121.093750
8767		-126.953125
8768		-119.140625
8769		-125.000000
8770		-115.234375
8771		-121.093750
8772		-113.281250
8773		-115.234375
8774		-111.328125
8775		-111.328125
8776		-105.468750
8777		-109.375000
8778		-103.515625
8779		-107.421875
8780		-97.656250
8781		-103.515625
8782		-93.750000
8783		-99.609375
8784		-89.843750
8785		-95.703125
8786		-85.937500
8787		-91.796875
8788		-83.984375
8789		-85.937500
8790		-80.078125
8791		-82.031250
8792		-76.171875
8793		-78.125000
8794		-72.265625
8795		-74.218750
8796		-66.406250
8797		-72.265625
8798		-62.500000
8799		-68.359375
8800		-56.640625
8801		-62.500000
8802		-54.687500
8803		-58.593750
8804		-50.781250
8805		-54.687500
8806		-46.875000
8807		-48.828125
8808		-42.968750
8809		-44.921875
8810		-39.062500
8811		-39.062500
8812		-35.156250
8813		-37.109375
8814		-27.343750
8815		-35.156250
8816		-23.437500
8817		-31.250000
8818		-19.531250
8819		-25.390625
8820		-15.625000
8821		-21.484375
8822		-11.718750
8823		-15.625000
8824		-9.765625
8825		-9.765625
8826		-5.859375
8827		-7.812500
8828		0.000000
8829		-3.906250
8830		5.859375
8831		0.000000
8832		9.765625
8833		3.906250
8834		13.671875
8835		7.812500
8836		17.578125
8837		13.671875
8838		21.484375
8839		17.578125
8840		23.437500
8841		21.484375
8842		27.343750
8843		25.390625
8844		31.250000
8845		29.296875
8846		37.109375
8847		31.250000
8848		41.015625
8849		35.156250
8850		44.921875
8851		39.062500
8852		48.828125
8853		42.968750
8854		52.734375
8855		46.875000
8856		52.734375
8857		50.781250
8858		56.640625
8859		54.687500
8860		60.546875
8861		58.593750
8862		64.453125
8863		60.546875
8864		68.359375
8865		62.500000
8866		72.265625
8867		66.406250
8868		74.218750
8869		70.312500
8870		78.125000
8871		72.265625
8872		80.078125
8873		78.125000
8874		82.031250
8875		80.078125
8876		85.937500
8877		83.984375
8878		87.890625
8879		85.937500
8880		93.750000
8881		87.890625
8882		95.703125
8883		89.843750
8884		99.609375
8885		91.796875
8886		101.562500
8887		93.750000
8888		103.515625
8889		97.656250
8890		103.515625
8891		101.562500
8892		105.468750
8893		103.515625
8894		109.375000
8895		105.468750
8896		111.328125
8897		105.468750
8898		113.281250
8899		109.375000
8900		117.187500
8901		111.328125
8902		119.140625
8903		113.281250
8904		119.140625
8905		113.281250
8906		121.093750
8907		119.140625
8908		121.093750
8909		121.093750
8910		123.046875
8911		119.140625
8912		125.000000
8913		121.093750
8914		128.906250
8915		123.046875
8916		130.859375
8917		123.046875
8918		130.859375
8919		125.000000
8920		132.812500
8921		125.000000
8922		134.765625
8923		128.906250
8924		132.812500
8925		130.859375
8926		134.765625
8927		132.812500
8928		136.718750
8929		130.859375
8930		138.671875
8931		130.859375
8932		138.671875
8933		132.812500
8934		140.625000
8935		132.812500
8936		140.625000
8937		134.765625
8938		140.625000
8939		134.765625
8940		142.578125
8941		136.718750
8942		140.625000
8943		136.718750
8944		140.625000
8945		138.671875
8946		140.625000
8947		136.718750
8948		142.578125
8949		136.718750
8950		144.531250
8951		136.718750
8952		144.531250
8953		136.718750
8954		144.531250
8955		136.718750
8956		144.531250
8957		138.671875
8958		142.578125
8959		138.671875
8960		140.625000
8961		138.671875
8962		140.625000
8963		136.718750
8964		142.578125
8965		134.765625
8966		142.578125
8967		134.765625
8968		142.578125
8969		134.765625
8970		142.578125
8971		132.812500
8972		142.578125
8973		134.765625
8974		140.625000
8975		134.765625
8976		136.718750
8977		132.812500
8978		136.718750
8979		132.812500
8980		136.718750
8981		130.859375
8982		136.718750
8983		128.906250
8984		136.718750
8985		126.953125
8986		136.718750
8987		126.953125
8988		134.765625
8989		125.000000
8990		132.812500
8991		125.000000
8992		130.859375
8993		125.000000
8994		128.906250
8995		123.046875
8996		126.953125
8997		119.140625
8998		126.953125
8999		117.187500
9000		125.000000
9001		115.234375
9002		125.000000
9003		113.281250
9004		121.093750
9005		111.328125
9006		121.093750
9007		113.281250
9008		117.187500
9009		109.375000
9010		113.281250
9011		107.421875
9012		111.328125
9013		103.515625
9014		109.375000
9015		99.609375
9016		107.421875
9017		97.656250
9018		107.421875
9019		95.703125
9020		105.468750
9021		93.750000
9022		101.562500
9023		91.796875
9024		99.609375
9025		89.843750
9026		93.750000
9027		85.937500
9028		91.796875
9029		83.984375
9030		89.843750
9031		80.078125
9032		87.890625
9033		78.125000
9034		85.937500
9035		74.218750
9036		82.031250
9037		70.312500
9038		80.078125
9039		68.359375
9040		76.171875
9041		66.406250
9042		70.312500
9043		62.500000
9044		66.406250
9045		58.593750
9046		64.453125
9047		54.687500
9048		62.500000
9049		48.828125
9050		60.546875
9051		46.875000
9052		54.687500
9053		42.968750
9054		52.734375
9055		39.062500
9056		48.828125
9057		37.109375
9058		42.968750
9059		33.203125
9060		39.062500
9061		29.296875
9062		35.156250
9063		25.390625
9064		31.250000
9065		19.531250
9066		29.296875
9067		15.625000
9068		25.390625
9069		13.671875
9070		21.484375
9071		7.812500
9072		17.578125
9073		3.906250
9074		11.718750
9075		1.953125
9076		7.812500
9077		-1.953125
9078		3.906250
9079		-7.812500
9080		0.000000
9081		-11.718750
9082		-3.906250
9083		-17.578125
9084		-7.812500
9085		-21.484375
9086		-11.718750
9087		-25.390625
9088		-15.625000
9089		-29.296875
9090		-19.531250
9091		-31.250000
9092		-25.390625
9093		-35.156250
9094		-29.296875
9095		-41.015625
9096		-35.156250
9097		-46.875000
9098		-39.062500
9099		-50.781250
9100		-39.062500
9101		-54.687500
9102		-44.921875
9103		-58.593750
9104		-48.828125
9105		-64.453125
9106		-52.734375
9107		-64.453125
9108		-56.640625
9109		-68.359375
9110		-62.500000
9111		-74.218750
9112		-66.406250
9113		-78.125000
9114		-70.312500
9115		-82.031250
9116		-74.218750
9117		-85.937500
9118		-78.125000
9119		-89.843750
9120		-80.078125
9121		-93.750000
9122		-83.984375
9123		-97.656250
9124		-89.843750
9125		-99.609375
9126		-93.750000
9127		-103.515625
9128		-97.656250
9129		-107.421875
9130		-99.609375
9131		-111.328125
9132		-105.468750
9133		-117.187500
9134		-105.468750
9135		-119.140625
9136		-111.328125
9137		-123.046875
9138		-113.281250
9139		-125.000000
9140		-115.234375
9141		-126.953125
9142		-119.140625
9143		-128.906250
9144		-125.000000
9145		-132.812500
9146		-128.906250
9147		-134.765625
9148		-130.859375
9149		-140.625000
9150		-132.812500
9151		-142.578125
9152		-134.765625
9153		-144.531250
9154		-136.718750
9155		-148.437500
9156		-140.625000
9157		-150.390625
9158		-142.578125
9159		-150.390625
9160		-146.484375
9161		-152.343750
9162		-148.437500
9163		-156.250000
9164		-150.390625
9165		-158.203125
9166		-152.343750
9167		-160.156250
9168		-152.343750
9169		-162.109375
9170		-154.296875
9171		-164.062500
9172		-156.250000
9173		-164.062500
9174		-158.203125
9175		-164.062500
9176		-160.156250
9177		-166.015625
9178		-162.109375
9179		-167.968750
9180		-162.109375
9181		-169.921875
9182		-164.062500
9183		-171.875000
9184		-162.109375
9185		-171.875000
9186		-164.062500
9187		-171.875000
9188		-164.062500
9189		-171.875000
9190		-166.015625
9191		-173.828125
9192		-166.015625
9193		-169.921875
9194		-167.968750
9195		-171.875000
9196		-166.015625
9197		-169.921875
9198		-167.968750
9199		-171.875000
9200		-164.062500
9201		-171.875000
9202		-164.062500
9203		-171.875000
9204		-164.062500
9205		-171.875000
9206		-162.109375
9207		-169.921875
9208		-162.109375
9209		-166.015625
9210		-164.062500
9211		-166.015625
9212		-162.109375
9213		-166.015625
9214		-160.156250
9215		-166.015625
9216		-158.203125
9217		-164.062500
9218		-156.250000
9219		-162.109375
9220		-154.296875
9221		-160.156250
9222		-152.343750
9223		-158.203125
9224		-150.390625
9225		-156.250000
9226		-150.390625
9227		-152.343750
9228		-148.437500
9229		-150.390625
9230		-144.531250
9231		-148.437500
9232		-144.531250
9233		-148.437500
9234		-138.671875
9235		-146.484375
9236		-136.718750
9237		-142.578125
9238		-134.765625
9239		-138.671875
9240		-132.812500
9241		-136.718750
9242		-128.906250
9243		-132.812500
9244		-126.953125
9245		-128.906250
9246		-123.046875
9247		-126.953125
9248		-121.093750
9249		-123.046875
9250		-115.234375
9251		-121.093750
9252		-113.281250
9253		-117.187500
9254		-109.375000
9255		-115.234375
9256		-105.468750
9257		-111.328125
9258		-101.562500
9259		-107.421875
9260		-99.609375
9261		-101.562500
9262		-95.703125
9263		-97.656250
9264		-91.796875
9265		-93.750000
9266		-87.890625
9267		-91.796875
9268		-82.031250
9269		-87.890625
9270		-78.125000
9271		-83.984375
9272		-74.218750
9273		-80.078125
9274		-70.312500
9275		-76.171875
9276		-68.359375
9277		-70.312500
9278		-64.453125
9279		-64.453125
9280		-58.593750
9281		-62.500000
9282		-56.640625
9283		-58.593750
9284		-48.828125
9285		-54.687500
9286		-44.921875
9287		-48.828125
9288		-41.015625
9289		-46.875000
9290		-37.109375
9291		-42.968750
9292		-33.203125
9293		-37.109375
9294		-29.296875
9295		-31.250000
9296		-25.390625
9297		-29.296875
9298		-21.484375
9299		-23.437500
9300		-15.625000
9301		-21.484375
9302		-11.718750
9303		-17.578125
9304		-5.859375
9305		-13.671875
9306		-1.953125
9307		-9.765625
9308		1.953125
9309		-5.859375
9310		3.906250
9311		1.953125
9312		7.812500
9313		5.859375
9314		13.671875
9315		9.765625
9316		15.625000
9317		11.718750
9318		21.484375
9319		15.625000
9320		25.390625
9321		19.531250
9322		29.296875
9323		25.390625
9324		33.203125
9325		27.343750
9326		35.156250
9327		33.203125
9328		39.062500
9329		37.109375
9330		42.968750
9331		39.062500
9332		46.875000
9333		42.968750
9334		52.734375
9335		44.921875
9336		54.687500
9337		48.828125
9338		58.593750
9339		52.734375
9340		62.500000
9341		56.640625
9342		64.453125
9343		58.593750
9344		66.406250
9345		64.453125
9346		70.312500
9347		68.359375
9348		72.265625
9349		72.265625
9350		76.171875
9351		72.265625
9352		80.078125
9353		76.171875
9354		83.984375
9355		78.125000
9356		87.890625
9357		80.078125
9358		89.843750
9359		83.984375
9360		91.796875
9361		87.890625
9362		93.750000
9363		91.796875
9364		95.703125
9365		93.750000
9366		97.656250
9367		95.703125
9368		103.515625
9369		97.656250
9370		105.468750
9371		97.656250
9372		107.421875
9373		101.562500
9374		109.375000
9375		103.515625
9376		111.328125
9377		107.421875
9378		111.328125
9379		109.375000
9380		113.281250
9381		111.328125
9382		115.234375
9383		113.281250
9384		119.140625
9385		113.281250
9386		123.046875
9387		115.234375
9388		123.046875
9389		117.187500
9390		126.953125
9391		119.140625
9392		126.953125
9393		119.140625
9394		126.953125
9395		123.046875
9396		126.953125
9397		125.000000
9398		128.906250
9399		126.953125
9400		130.859375
9401		126.953125
9402		132.812500
9403		126.953125
9404		134.765625
9405		128.906250
9406		134.765625
9407		128.906250
9408		136.718750
9409		128.906250
9410		136.718750
9411		132.812500
9412		136.718750
9413		134.765625
9414		136.718750
9415		134.765625
9416		138.671875
9417		132.812500
9418		140.625000
9419		132.812500
9420		140.625000
9421		132.812500
9422		140.625000
9423		134.765625
9424		142.578125
9425		134.765625
9426		142.578125
9427		134.765625
9428		142.578125
9429		138.671875
9430		140.625000
9431		138.671875
9432		140.625000
9433		136.718750
9434		140.625000
9435		134.765625
9436		142.578125
9437		134.765625
9438		142.578125
9439		134.765625
9440		142.578125
9441		134.765625
9442		142.578125
9443		134.765625
9444		142.578125
9445		136.718750
9446		138.671875
9447		136.718750
9448		138.671875
9449		134.765625
9450		138.671875
9451		132.812500
9452		140.625000
9453		130.859375
9454		138.671875
9455		130.859375
9456		138.671875
9457		128.906250
9458		138.671875
9459		128.906250
9460		136.718750
9461		128.906250
9462		134.765625
9463		128.906250
9464		132.812500
9465		126.953125
9466		132.812500
9467		125.000000
9468		130.859375
9469		123.046875
9470		130.859375
9471		121.093750
9472		128.906250
9473		121.093750
9474		128.906250
9475		119.140625
9476		126.953125
9477		117.187500
9478		125.000000
9479		117.187500
9480		121.093750
9481		115.234375
9482		119.140625
9483		113.281250
9484		117.187500
9485		109.375000
9486		115.234375
9487		109.375000
9488		115.234375
9489		105.468750
9490		113.281250
9491		103.515625
9492		109.375000
9493		101.562500
9494		109.375000
9495		101.562500
9496		105.468750
9497		97.656250
9498		103.515625
9499		95.703125
9500		101.562500
9501		91.796875
9502		97.656250
9503		89.843750
9504		97.656250
9505		83.984375
9506		93.750000
9507		82.031250
9508		91.796875
9509		80.078125
9510		87.890625
9511		78.125000
9512		85.937500
9513		76.171875
9514		80.078125
9515		72.265625
9516		76.171875
9517		68.359375
9518		74.218750
9519		64.453125
9520		72.265625
9521		60.546875
9522		70.312500
9523		56.640625
9524		66.406250
9525		52.734375
9526		62.500000
9527		50.781250
9528		58.593750
9529		48.828125
9530		52.734375
9531		44.921875
9532		50.781250
9533		41.015625
9534		46.875000
9535		35.156250
9536		42.968750
9537		31.250000
9538		41.015625
9539		29.296875
9540		37.109375
9541		23.437500
9542		35.156250
9543		19.531250
9544		29.296875
9545		17.578125
9546		23.437500
9547		13.671875
9548		19.531250
9549		9.765625
9550		15.625000
9551		3.906250
9552		11.718750
9553		0.000000
9554		9.765625
9555		-3.906250
9556		5.859375
9557		-7.812500
9558		1.953125
9559		-11.718750
9560		-3.906250
9561		-15.625000
9562		-5.859375
9563		-19.531250
9564		-13.671875
9565		-23.437500
9566		-17.578125
9567		-27.343750
9568		-21.484375
9569		-33.203125
9570		-25.390625
9571		-39.062500
9572		-29.296875
9573		-41.015625
9574		-33.203125
9575		-46.875000
9576		-37.109375
9577		-50.781250
9578		-39.062500
9579		-52.734375
9580		-46.875000
9581		-56.640625
9582		-50.781250
9583		-60.546875
9584		-54.687500
9585		-66.406250
9586		-58.593750
9587		-70.312500
9588		-62.500000
9589		-74.218750
9590		-64.453125
9591		-80.078125
9592		-68.359375
9593		-83.984375
9594		-74.218750
9595		-83.984375
9596		-78.125000
9597		-87.890625
9598		-82.031250
9599		-93.750000
9600		-87.890625
9601		-95.703125
9602		-89.843750
9603		-101.562500
9604		-91.796875
9605		-105.468750
9606		-95.703125
9607		-109.375000
9608		-99.609375
9609		-111.328125
9610		-103.515625
9611		-115.234375
9612		-105.468750
9613		-117.187500
9614		-111.328125
9615		-121.093750
9616		-115.234375
9617		-123.046875
9618		-117.187500
9619		-130.859375
9620		-121.093750
9621		-132.812500
9622		-123.046875
9623		-134.765625
9624		-126.953125
9625		-138.671875
9626		-128.906250
9627		-140.625000
9628		-132.812500
9629		-140.625000
9630		-134.765625
9631		-144.531250
9632		-138.671875
9633		-146.484375
9634		-142.578125
9635		-150.390625
9636		-144.531250
9637		-152.343750
9638		-144.531250
9639		-154.296875
9640		-146.484375
9641		-158.203125
9642		-148.437500
9643		-160.156250
9644		-152.343750
9645		-160.156250
9646		-152.343750
9647		-160.156250
9648		-158.203125
9649		-164.062500
9650		-160.156250
9651		-166.015625
9652		-160.156250
9653		-166.015625
9654		-160.156250
9655		-169.921875
9656		-160.156250
9657		-169.921875
9658		-162.109375
9659		-169.921875
9660		-164.062500
9661		-171.875000
9662		-164.062500
9663		-169.921875
9664		-167.968750
9665		-169.921875
9666		-167.968750
9667		-171.875000
9668		-167.968750
9669		-173.828125
9670		-167.968750
9671		-173.828125
9672		-166.015625
9673		-173.828125
9674		-166.015625
9675		-173.828125
9676		-166.015625
9677		-173.828125
9678		-166.015625
9679		-173.828125
9680		-166.015625
9681		-169.921875
9682		-167.968750
9683		-171.875000
9684		-166.015625
9685		-169.921875
9686		-166.015625
9687		-171.875000
9688		-164.062500
9689		-169.921875
9690		-162.109375
9691		-169.921875
9692		-160.156250
9693		-167.968750
9694		-160.156250
9695		-166.015625
9696		-158.203125
9697		-162.109375
9698		-160.156250
9699		-160.156250
9700		-158.203125
9701		-160.156250
9702		-154.296875
9703		-158.203125
9704		-152.343750
9705		-158.203125
9706		-148.437500
9707		-156.250000
9708		-148.437500
9709		-154.296875
9710		-144.531250
9711		-150.390625
9712		-142.578125
9713		-148.437500
9714		-140.625000
9715		-142.578125
9716		-138.671875
9717		-140.625000
9718		-136.718750
9719		-138.671875
9720		-130.859375
9721		-138.671875
9722		-128.906250
9723		-134.765625
9724		-125.000000
9725		-130.859375
9726		-121.093750
9727		-128.906250
9728		-119.140625
9729		-123.046875
9730		-117.187500
9731		-119.140625
9732		-113.281250
9733		-115.234375
9734		-109.375000
9735		-113.281250
9736		-107.421875
9737		-109.375000
9738		-101.562500
9739		-107.421875
9740		-97.656250
9741		-103.515625
9742		-93.750000
9743		-99.609375
9744		-89.843750
9745		-95.703125
9746		-85.937500
9747		-89.843750
9748		-83.984375
9749		-85.937500
9750		-80.078125
9751		-82.031250
9752		-76.171875
9753		-78.125000
9754		-70.312500
9755		-76.171875
9756		-64.453125
9757		-70.312500
9758		-60.546875
9759		-66.406250
9760		-56.640625
9761		-62.500000
9762		-52.734375
9763		-58.593750
9764		-50.781250
9765		-52.734375
9766		-46.875000
9767		-48.828125
9768		-41.015625
9769		-44.921875
9770		-37.109375
9771		-41.015625
9772		-31.250000
9773		-37.109375
9774		-29.296875
9775		-33.203125
9776		-23.437500
9777		-29.296875
9778		-19.531250
9779		-23.437500
9780		-15.625000
9781		-17.578125
9782		-11.718750
9783		-13.671875
9784		-7.812500
9785		-9.765625
9786		-3.906250
9787		-5.859375
9788		1.953125
9789		-3.906250
9790		7.812500
9791		0.000000
9792		9.765625
9793		3.906250
9794		13.671875
9795		9.765625
9796		17.578125
9797		13.671875
9798		19.531250
9799		17.578125
9800		23.437500
9801		23.437500
9802		27.343750
9803		27.343750
9804		31.250000
9805		27.343750
9806		37.109375
9807		31.250000
9808		41.015625
9809		37.109375
9810		44.921875
9811		39.062500
9812		48.828125
9813		42.968750
9814		50.781250
9815		48.828125
9816		52.734375
9817		50.781250
9818		58.593750
9819		54.687500
9820		60.546875
9821		58.593750
9822		66.406250
9823		58.593750
9824		70.312500
9825		64.453125
9826		72.265625
9827		66.406250
9828		76.171875
9829		70.312500
9830		78.125000
9831		74.218750
9832		78.125000
9833		78.125000
9834		82.031250
9835		80.078125
9836		85.937500
9837		82.031250
9838		89.843750
9839		83.984375
9840		93.750000
9841		87.890625
9842		95.703125
9843		89.843750
9844		97.656250
9845		91.796875
9846		101.562500
9847		95.703125
9848		101.562500
9849		99.609375
9850		103.515625
9851		101.562500
9852		105.468750
9853		103.515625
9854		107.421875
9855		103.515625
9856		113.281250
9857		105.468750
9858		113.281250
9859		107.421875
9860		117.187500
9861		109.375000
9862		119.140625
9863		111.328125
9864		119.140625
9865		115.234375
9866		119.140625
9867		117.187500
9868		121.093750
9869		119.140625
9870		123.046875
9871		119.140625
9872		126.953125
9873		119.140625
9874		128.906250
9875		123.046875
9876		130.859375
9877		123.046875
9878		130.859375
9879		123.046875
9880		132.812500
9881		125.000000
9882		132.812500
9883		128.906250
9884		132.812500
9885		128.906250
9886		134.765625
9887		130.859375
9888		134.765625
9889		130.859375
9890		138.671875
9891		130.859375
9892		138.671875
9893		130.859375
9894		138.671875
9895		132.812500
9896		140.625000
9897		132.812500
9898		140.625000
9899		134.765625
9900		138.671875
9901		136.718750
9902		138.671875
9903		134.765625
9904		140.625000
9905		134.765625
9906		142.578125
9907		134.765625
9908		142.578125
9909		134.765625
9910		142.578125
9911		134.765625
9912		142.578125
9913		134.765625
9914		142.578125
9915		136.718750
9916		140.625000
9917		136.718750
9918		140.625000
9919		136.718750
9920		140.625000
9921		134.765625
9922		140.625000
9923		132.812500
9924		140.625000
9925		132.812500
9926		140.625000
9927		132.812500
9928		140.625000
9929		132.812500
9930		140.625000
9931		132.812500
9932		138.671875
9933		132.812500
9934		136.718750
9935		132.812500
9936		136.718750
9937		130.859375
9938		134.765625
9939		128.906250
9940		136.718750
9941		126.953125
9942		134.765625
9943		126.953125
9944		134.765625
9945		125.000000
9946		132.812500
9947		125.000000
9948		132.812500
9949		125.000000
9950		128.906250
9951		123.046875
9952		126.953125
9953		121.093750
9954		126.953125
9955		117.187500
9956		125.000000
9957		117.187500
9958		125.000000
9959		113.281250
9960		123.046875
9961		113.281250
9962		121.093750
9963		111.328125
9964		119.140625
9965		109.375000
9966		117.187500
9967		109.375000
9968		113.281250
9969		105.468750
9970		111.328125
9971		105.468750
9972		109.375000
9973		101.562500
9974		109.375000
9975		97.656250
9976		105.468750
9977		95.703125
9978		103.515625
9979		93.750000
9980		101.562500
9981		89.843750
9982		99.609375
9983		89.843750
9984		93.750000
9985		85.937500
9986		91.796875
9987		83.984375
9988		89.843750
9989		78.125000
9990		85.937500
9991		74.218750
9992		83.984375
9993		72.265625
9994		80.078125
9995		70.312500
9996		78.125000
9997		66.406250
9998		74.218750
9999		64.453125
10000		70.312500
