Channel              :		CH1
Frequency            :		1.061kHz
Period               :		0.942ms
PK-PK                :		230.5mV
Probe attenuation    :		1X
Voltage per ADC value:		0.122070mV
Time interval        :		2.00000us

index		CH1_Voltage(mV)
1		58.593750
2		58.593750
3		62.500000
4		54.687500
5		62.500000
6		52.734375
7		60.546875
8		50.781250
9		58.593750
10		48.828125
11		56.640625
12		46.875000
13		54.687500
14		44.921875
15		50.781250
16		42.968750
17		46.875000
18		39.062500
19		44.921875
20		35.156250
21		42.968750
22		33.203125
23		41.015625
24		29.296875
25		39.062500
26		27.343750
27		37.109375
28		25.390625
29		33.203125
30		23.437500
31		29.296875
32		21.484375
33		27.343750
34		17.578125
35		23.437500
36		13.671875
37		19.531250
38		11.718750
39		17.578125
40		7.812500
41		15.625000
42		5.859375
43		11.718750
44		3.906250
45		9.765625
46		0.000000
47		5.859375
48		-1.953125
49		3.906250
50		-3.906250
51		0.000000
52		-7.812500
53		-3.906250
54		-13.671875
55		-5.859375
56		-15.625000
57		-7.812500
58		-19.531250
59		-9.765625
60		-21.484375
61		-13.671875
62		-25.390625
63		-17.578125
64		-27.343750
65		-19.531250
66		-29.296875
67		-21.484375
68		-31.250000
69		-27.343750
70		-37.109375
71		-29.296875
72		-39.062500
73		-31.250000
74		-42.968750
75		-33.203125
76		-44.921875
77		-39.062500
78		-46.875000
79		-39.062500
80		-50.781250
81		-42.968750
82		-52.734375
83		-44.921875
84		-54.687500
85		-50.781250
86		-58.593750
87		-52.734375
88		-60.546875
89		-54.687500
90		-64.453125
91		-56.640625
92		-66.406250
93		-60.546875
94		-70.312500
95		-62.500000
96		-72.265625
97		-64.453125
98		-74.218750
99		-64.453125
100		-74.218750
101		-70.312500
102		-78.125000
103		-72.265625
104		-82.031250
105		-74.218750
106		-83.984375
107		-76.171875
108		-85.937500
109		-78.125000
110		-87.890625
111		-82.031250
112		-89.843750
113		-83.984375
114		-91.796875
115		-83.984375
116		-91.796875
117		-87.890625
118		-93.750000
119		-89.843750
120		-97.656250
121		-91.796875
122		-99.609375
123		-91.796875
124		-101.562500
125		-93.750000
126		-103.515625
127		-95.703125
128		-103.515625
129		-95.703125
130		-105.468750
131		-99.609375
132		-107.421875
133		-99.609375
134		-107.421875
135		-103.515625
136		-107.421875
137		-103.515625
138		-111.328125
139		-105.468750
140		-113.281250
141		-105.468750
142		-111.328125
143		-105.468750
144		-113.281250
145		-107.421875
146		-115.234375
147		-107.421875
148		-115.234375
149		-109.375000
150		-115.234375
151		-109.375000
152		-115.234375
153		-111.328125
154		-117.187500
155		-111.328125
156		-117.187500
157		-111.328125
158		-117.187500
159		-111.328125
160		-117.187500
161		-111.328125
162		-119.140625
163		-111.328125
164		-117.187500
165		-111.328125
166		-117.187500
167		-111.328125
168		-115.234375
169		-113.281250
170		-117.187500
171		-113.281250
172		-119.140625
173		-111.328125
174		-117.187500
175		-111.328125
176		-117.187500
177		-109.375000
178		-117.187500
179		-109.375000
180		-115.234375
181		-109.375000
182		-115.234375
183		-109.375000
184		-111.328125
185		-109.375000
186		-111.328125
187		-109.375000
188		-111.328125
189		-105.468750
190		-111.328125
191		-105.468750
192		-109.375000
193		-103.515625
194		-109.375000
195		-101.562500
196		-107.421875
197		-101.562500
198		-107.421875
199		-99.609375
200		-105.468750
201		-99.609375
202		-101.562500
203		-97.656250
204		-99.609375
205		-95.703125
206		-99.609375
207		-93.750000
208		-99.609375
209		-91.796875
210		-97.656250
211		-89.843750
212		-95.703125
213		-87.890625
214		-93.750000
215		-85.937500
216		-91.796875
217		-83.984375
218		-87.890625
219		-83.984375
220		-83.984375
221		-80.078125
222		-83.984375
223		-76.171875
224		-82.031250
225		-74.218750
226		-80.078125
227		-72.265625
228		-78.125000
229		-70.312500
230		-76.171875
231		-68.359375
232		-72.265625
233		-64.453125
234		-70.312500
235		-64.453125
236		-66.406250
237		-60.546875
238		-62.500000
239		-56.640625
240		-62.500000
241		-54.687500
242		-58.593750
243		-50.781250
244		-56.640625
245		-48.828125
246		-54.687500
247		-46.875000
248		-50.781250
249		-42.968750
250		-48.828125
251		-41.015625
252		-42.968750
253		-39.062500
254		-41.015625
255		-35.156250
256		-41.015625
257		-31.250000
258		-37.109375
259		-29.296875
260		-33.203125
261		-25.390625
262		-31.250000
263		-23.437500
264		-29.296875
265		-19.531250
266		-25.390625
267		-17.578125
268		-19.531250
269		-15.625000
270		-17.578125
271		-11.718750
272		-15.625000
273		-7.812500
274		-13.671875
275		-3.906250
276		-9.765625
277		-1.953125
278		-5.859375
279		0.000000
280		-3.906250
281		3.906250
282		-1.953125
283		7.812500
284		1.953125
285		7.812500
286		5.859375
287		11.718750
288		9.765625
289		17.578125
290		9.765625
291		17.578125
292		13.671875
293		21.484375
294		15.625000
295		23.437500
296		19.531250
297		27.343750
298		21.484375
299		29.296875
300		25.390625
301		33.203125
302		29.296875
303		33.203125
304		31.250000
305		37.109375
306		33.203125
307		41.015625
308		35.156250
309		42.968750
310		37.109375
311		46.875000
312		41.015625
313		48.828125
314		42.968750
315		50.781250
316		46.875000
317		52.734375
318		48.828125
319		54.687500
320		52.734375
321		56.640625
322		54.687500
323		60.546875
324		54.687500
325		62.500000
326		58.593750
327		64.453125
328		60.546875
329		68.359375
330		62.500000
331		68.359375
332		62.500000
333		70.312500
334		66.406250
335		72.265625
336		70.312500
337		74.218750
338		72.265625
339		76.171875
340		72.265625
341		78.125000
342		72.265625
343		82.031250
344		74.218750
345		82.031250
346		78.125000
347		83.984375
348		78.125000
349		85.937500
350		80.078125
351		87.890625
352		83.984375
353		87.890625
354		85.937500
355		87.890625
356		85.937500
357		91.796875
358		85.937500
359		93.750000
360		87.890625
361		93.750000
362		89.843750
363		95.703125
364		89.843750
365		97.656250
366		91.796875
367		97.656250
368		91.796875
369		99.609375
370		95.703125
371		97.656250
372		95.703125
373		99.609375
374		93.750000
375		101.562500
376		95.703125
377		103.515625
378		97.656250
379		103.515625
380		97.656250
381		103.515625
382		97.656250
383		105.468750
384		99.609375
385		105.468750
386		101.562500
387		103.515625
388		101.562500
389		105.468750
390		99.609375
391		107.421875
392		99.609375
393		107.421875
394		101.562500
395		107.421875
396		101.562500
397		107.421875
398		101.562500
399		107.421875
400		101.562500
401		107.421875
402		101.562500
403		107.421875
404		103.515625
405		105.468750
406		101.562500
407		107.421875
408		101.562500
409		107.421875
410		99.609375
411		107.421875
412		101.562500
413		107.421875
414		99.609375
415		105.468750
416		97.656250
417		105.468750
418		99.609375
419		105.468750
420		99.609375
421		103.515625
422		99.609375
423		101.562500
424		97.656250
425		103.515625
426		95.703125
427		101.562500
428		95.703125
429		101.562500
430		93.750000
431		101.562500
432		93.750000
433		99.609375
434		91.796875
435		99.609375
436		91.796875
437		95.703125
438		91.796875
439		95.703125
440		87.890625
441		95.703125
442		87.890625
443		93.750000
444		85.937500
445		93.750000
446		83.984375
447		91.796875
448		82.031250
449		89.843750
450		82.031250
451		87.890625
452		80.078125
453		87.890625
454		80.078125
455		83.984375
456		76.171875
457		82.031250
458		74.218750
459		82.031250
460		72.265625
461		80.078125
462		70.312500
463		78.125000
464		68.359375
465		76.171875
466		68.359375
467		74.218750
468		64.453125
469		72.265625
470		64.453125
471		68.359375
472		62.500000
473		66.406250
474		58.593750
475		64.453125
476		56.640625
477		64.453125
478		52.734375
479		60.546875
480		50.781250
481		58.593750
482		48.828125
483		56.640625
484		46.875000
485		54.687500
486		44.921875
487		50.781250
488		42.968750
489		46.875000
490		39.062500
491		44.921875
492		35.156250
493		42.968750
494		33.203125
495		41.015625
496		31.250000
497		39.062500
498		27.343750
499		37.109375
500		25.390625
501		33.203125
502		23.437500
503		31.250000
504		21.484375
505		25.390625
506		17.578125
507		23.437500
508		15.625000
509		21.484375
510		11.718750
511		19.531250
512		9.765625
513		15.625000
514		5.859375
515		13.671875
516		1.953125
517		9.765625
518		0.000000
519		7.812500
520		-1.953125
521		3.906250
522		-5.859375
523		0.000000
524		-9.765625
525		-1.953125
526		-11.718750
527		-5.859375
528		-15.625000
529		-7.812500
530		-17.578125
531		-11.718750
532		-21.484375
533		-13.671875
534		-25.390625
535		-15.625000
536		-25.390625
537		-17.578125
538		-29.296875
539		-23.437500
540		-33.203125
541		-27.343750
542		-37.109375
543		-27.343750
544		-39.062500
545		-31.250000
546		-41.015625
547		-33.203125
548		-44.921875
549		-37.109375
550		-46.875000
551		-39.062500
552		-48.828125
553		-42.968750
554		-50.781250
555		-46.875000
556		-54.687500
557		-48.828125
558		-58.593750
559		-50.781250
560		-60.546875
561		-52.734375
562		-62.500000
563		-56.640625
564		-66.406250
565		-58.593750
566		-68.359375
567		-60.546875
568		-72.265625
569		-62.500000
570		-72.265625
571		-66.406250
572		-74.218750
573		-70.312500
574		-78.125000
575		-72.265625
576		-80.078125
577		-72.265625
578		-83.984375
579		-76.171875
580		-85.937500
581		-76.171875
582		-87.890625
583		-80.078125
584		-89.843750
585		-82.031250
586		-89.843750
587		-83.984375
588		-91.796875
589		-87.890625
590		-93.750000
591		-89.843750
592		-97.656250
593		-89.843750
594		-97.656250
595		-91.796875
596		-99.609375
597		-93.750000
598		-103.515625
599		-95.703125
600		-103.515625
601		-95.703125
602		-105.468750
603		-97.656250
604		-105.468750
605		-99.609375
606		-105.468750
607		-101.562500
608		-109.375000
609		-103.515625
610		-109.375000
611		-101.562500
612		-111.328125
613		-103.515625
614		-113.281250
615		-105.468750
616		-113.281250
617		-107.421875
618		-113.281250
619		-107.421875
620		-113.281250
621		-107.421875
622		-113.281250
623		-109.375000
624		-115.234375
625		-109.375000
626		-115.234375
627		-109.375000
628		-115.234375
629		-109.375000
630		-117.187500
631		-109.375000
632		-117.187500
633		-109.375000
634		-117.187500
635		-111.328125
636		-117.187500
637		-109.375000
638		-115.234375
639		-113.281250
640		-115.234375
641		-111.328125
642		-117.187500
643		-109.375000
644		-117.187500
645		-109.375000
646		-117.187500
647		-109.375000
648		-115.234375
649		-109.375000
650		-115.234375
651		-107.421875
652		-113.281250
653		-107.421875
654		-113.281250
655		-107.421875
656		-111.328125
657		-107.421875
658		-111.328125
659		-105.468750
660		-111.328125
661		-103.515625
662		-111.328125
663		-103.515625
664		-109.375000
665		-101.562500
666		-107.421875
667		-101.562500
668		-105.468750
669		-99.609375
670		-105.468750
671		-97.656250
672		-101.562500
673		-97.656250
674		-99.609375
675		-95.703125
676		-99.609375
677		-93.750000
678		-99.609375
679		-91.796875
680		-97.656250
681		-89.843750
682		-93.750000
683		-87.890625
684		-93.750000
685		-85.937500
686		-89.843750
687		-83.984375
688		-89.843750
689		-83.984375
690		-85.937500
691		-82.031250
692		-83.984375
693		-76.171875
694		-83.984375
695		-74.218750
696		-80.078125
697		-72.265625
698		-78.125000
699		-70.312500
700		-76.171875
701		-68.359375
702		-72.265625
703		-64.453125
704		-70.312500
705		-64.453125
706		-66.406250
707		-62.500000
708		-64.453125
709		-58.593750
710		-62.500000
711		-54.687500
712		-60.546875
713		-52.734375
714		-58.593750
715		-48.828125
716		-54.687500
717		-46.875000
718		-52.734375
719		-42.968750
720		-48.828125
721		-41.015625
722		-44.921875
723		-39.062500
724		-41.015625
725		-37.109375
726		-39.062500
727		-33.203125
728		-37.109375
729		-29.296875
730		-35.156250
731		-27.343750
732		-31.250000
733		-23.437500
734		-29.296875
735		-21.484375
736		-25.390625
737		-17.578125
738		-21.484375
739		-15.625000
740		-17.578125
741		-13.671875
742		-15.625000
743		-7.812500
744		-13.671875
745		-5.859375
746		-9.765625
747		-3.906250
748		-7.812500
749		0.000000
750		-5.859375
751		1.953125
752		-1.953125
753		7.812500
754		0.000000
755		7.812500
756		5.859375
757		9.765625
758		7.812500
759		13.671875
760		9.765625
761		17.578125
762		11.718750
763		19.531250
764		15.625000
765		23.437500
766		17.578125
767		25.390625
768		21.484375
769		27.343750
770		23.437500
771		31.250000
772		27.343750
773		33.203125
774		31.250000
775		35.156250
776		33.203125
777		39.062500
778		35.156250
779		41.015625
780		37.109375
781		44.921875
782		41.015625
783		46.875000
784		42.968750
785		48.828125
786		44.921875
787		52.734375
788		46.875000
789		54.687500
790		50.781250
791		54.687500
792		52.734375
793		58.593750
794		54.687500
795		60.546875
796		56.640625
797		64.453125
798		58.593750
799		66.406250
800		60.546875
801		68.359375
802		62.500000
803		70.312500
804		66.406250
805		72.265625
806		68.359375
807		72.265625
808		70.312500
809		74.218750
810		72.265625
811		78.125000
812		74.218750
813		80.078125
814		74.218750
815		82.031250
816		76.171875
817		83.984375
818		78.125000
819		85.937500
820		80.078125
821		87.890625
822		82.031250
823		87.890625
824		83.984375
825		87.890625
826		85.937500
827		91.796875
828		85.937500
829		93.750000
830		87.890625
831		93.750000
832		87.890625
833		95.703125
834		89.843750
835		97.656250
836		91.796875
837		97.656250
838		91.796875
839		99.609375
840		95.703125
841		97.656250
842		95.703125
843		99.609375
844		95.703125
845		101.562500
846		95.703125
847		103.515625
848		97.656250
849		103.515625
850		97.656250
851		105.468750
852		97.656250
853		105.468750
854		99.609375
855		105.468750
856		99.609375
857		105.468750
858		101.562500
859		105.468750
860		101.562500
861		107.421875
862		99.609375
863		107.421875
864		101.562500
865		107.421875
866		101.562500
867		107.421875
868		101.562500
869		107.421875
870		101.562500
871		107.421875
872		101.562500
873		107.421875
874		103.515625
875		107.421875
876		103.515625
877		105.468750
878		101.562500
879		109.375000
880		101.562500
881		107.421875
882		101.562500
883		107.421875
884		99.609375
885		107.421875
886		99.609375
887		105.468750
888		99.609375
889		105.468750
890		101.562500
891		103.515625
892		99.609375
893		103.515625
894		97.656250
895		103.515625
896		97.656250
897		103.515625
898		95.703125
899		103.515625
900		95.703125
901		101.562500
902		93.750000
903		101.562500
904		93.750000
905		99.609375
906		93.750000
907		97.656250
908		93.750000
909		95.703125
910		89.843750
911		95.703125
912		89.843750
913		95.703125
914		87.890625
915		95.703125
916		85.937500
917		93.750000
918		83.984375
919		91.796875
920		82.031250
921		89.843750
922		82.031250
923		87.890625
924		82.031250
925		85.937500
926		80.078125
927		83.984375
928		76.171875
929		82.031250
930		74.218750
931		80.078125
932		72.265625
933		80.078125
934		70.312500
935		78.125000
936		70.312500
937		76.171875
938		66.406250
939		74.218750
940		66.406250
941		72.265625
942		64.453125
943		68.359375
944		60.546875
945		66.406250
946		58.593750
947		64.453125
948		56.640625
949		64.453125
950		54.687500
951		60.546875
952		50.781250
953		58.593750
954		48.828125
955		56.640625
956		46.875000
957		54.687500
958		44.921875
959		50.781250
960		42.968750
961		46.875000
962		37.109375
963		46.875000
964		35.156250
965		44.921875
966		33.203125
967		41.015625
968		31.250000
969		37.109375
970		27.343750
971		37.109375
972		25.390625
973		33.203125
974		23.437500
975		29.296875
976		21.484375
977		25.390625
978		17.578125
979		23.437500
980		13.671875
981		21.484375
982		11.718750
983		19.531250
984		7.812500
985		15.625000
986		5.859375
987		13.671875
988		1.953125
989		9.765625
990		0.000000
991		7.812500
992		-1.953125
993		1.953125
994		-5.859375
995		0.000000
996		-9.765625
997		-1.953125
998		-13.671875
999		-3.906250
1000		-15.625000
1001		-7.812500
1002		-17.578125
1003		-11.718750
1004		-21.484375
1005		-13.671875
1006		-23.437500
1007		-15.625000
1008		-25.390625
1009		-21.484375
1010		-29.296875
1011		-23.437500
1012		-33.203125
1013		-25.390625
1014		-35.156250
1015		-29.296875
1016		-37.109375
1017		-31.250000
1018		-41.015625
1019		-33.203125
1020		-44.921875
1021		-37.109375
1022		-46.875000
1023		-39.062500
1024		-48.828125
1025		-42.968750
1026		-50.781250
1027		-46.875000
1028		-54.687500
1029		-48.828125
1030		-58.593750
1031		-50.781250
1032		-60.546875
1033		-52.734375
1034		-64.453125
1035		-54.687500
1036		-66.406250
1037		-58.593750
1038		-68.359375
1039		-60.546875
1040		-70.312500
1041		-62.500000
1042		-72.265625
1043		-68.359375
1044		-74.218750
1045		-70.312500
1046		-78.125000
1047		-70.312500
1048		-80.078125
1049		-72.265625
1050		-82.031250
1051		-76.171875
1052		-85.937500
1053		-78.125000
1054		-85.937500
1055		-80.078125
1056		-89.843750
1057		-82.031250
1058		-89.843750
1059		-85.937500
1060		-91.796875
1061		-87.890625
1062		-95.703125
1063		-87.890625
1064		-97.656250
1065		-87.890625
1066		-97.656250
1067		-91.796875
1068		-99.609375
1069		-91.796875
1070		-101.562500
1071		-93.750000
1072		-103.515625
1073		-95.703125
1074		-103.515625
1075		-97.656250
1076		-103.515625
1077		-99.609375
1078		-105.468750
1079		-101.562500
1080		-109.375000
1081		-101.562500
1082		-109.375000
1083		-101.562500
1084		-109.375000
1085		-103.515625
1086		-111.328125
1087		-105.468750
1088		-111.328125
1089		-105.468750
1090		-113.281250
1091		-105.468750
1092		-111.328125
1093		-109.375000
1094		-113.281250
1095		-107.421875
1096		-115.234375
1097		-109.375000
1098		-115.234375
1099		-109.375000
1100		-115.234375
1101		-109.375000
1102		-115.234375
1103		-109.375000
1104		-115.234375
1105		-109.375000
1106		-117.187500
1107		-109.375000
1108		-115.234375
1109		-109.375000
1110		-113.281250
1111		-111.328125
1112		-115.234375
1113		-109.375000
1114		-115.234375
1115		-109.375000
1116		-115.234375
1117		-109.375000
1118		-115.234375
1119		-109.375000
1120		-115.234375
1121		-107.421875
1122		-113.281250
1123		-107.421875
1124		-113.281250
1125		-105.468750
1126		-111.328125
1127		-107.421875
1128		-109.375000
1129		-105.468750
1130		-111.328125
1131		-103.515625
1132		-109.375000
1133		-103.515625
1134		-109.375000
1135		-101.562500
1136		-107.421875
1137		-99.609375
1138		-105.468750
1139		-99.609375
1140		-103.515625
1141		-97.656250
1142		-101.562500
1143		-97.656250
1144		-99.609375
1145		-95.703125
1146		-99.609375
1147		-93.750000
1148		-99.609375
1149		-91.796875
1150		-97.656250
1151		-89.843750
1152		-95.703125
1153		-87.890625
1154		-93.750000
1155		-85.937500
1156		-91.796875
1157		-83.984375
1158		-89.843750
1159		-83.984375
1160		-85.937500
1161		-82.031250
1162		-83.984375
1163		-78.125000
1164		-83.984375
1165		-76.171875
1166		-82.031250
1167		-72.265625
1168		-78.125000
1169		-72.265625
1170		-76.171875
1171		-68.359375
1172		-74.218750
1173		-66.406250
1174		-72.265625
1175		-64.453125
1176		-66.406250
1177		-62.500000
1178		-64.453125
1179		-60.546875
1180		-62.500000
1181		-56.640625
1182		-60.546875
1183		-52.734375
1184		-58.593750
1185		-50.781250
1186		-54.687500
1187		-46.875000
1188		-52.734375
1189		-44.921875
1190		-48.828125
1191		-42.968750
1192		-46.875000
1193		-41.015625
1194		-42.968750
1195		-39.062500
1196		-39.062500
1197		-33.203125
1198		-39.062500
1199		-31.250000
1200		-35.156250
1201		-27.343750
1202		-33.203125
1203		-25.390625
1204		-29.296875
1205		-23.437500
1206		-27.343750
1207		-19.531250
1208		-23.437500
1209		-17.578125
1210		-19.531250
1211		-13.671875
1212		-17.578125
1213		-11.718750
1214		-15.625000
1215		-7.812500
1216		-13.671875
1217		-3.906250
1218		-9.765625
1219		-1.953125
1220		-7.812500
1221		0.000000
1222		-3.906250
1223		5.859375
1224		-1.953125
1225		7.812500
1226		1.953125
1227		9.765625
1228		5.859375
1229		11.718750
1230		9.765625
1231		15.625000
1232		11.718750
1233		19.531250
1234		13.671875
1235		21.484375
1236		17.578125
1237		23.437500
1238		19.531250
1239		27.343750
1240		23.437500
1241		29.296875
1242		25.390625
1243		31.250000
1244		29.296875
1245		35.156250
1246		33.203125
1247		37.109375
1248		33.203125
1249		41.015625
1250		35.156250
1251		42.968750
1252		39.062500
1253		46.875000
1254		41.015625
1255		48.828125
1256		42.968750
1257		50.781250
1258		44.921875
1259		52.734375
1260		50.781250
1261		54.687500
1262		52.734375
1263		56.640625
1264		54.687500
1265		60.546875
1266		54.687500
1267		62.500000
1268		56.640625
1269		64.453125
1270		60.546875
1271		66.406250
1272		62.500000
1273		68.359375
1274		64.453125
1275		72.265625
1276		66.406250
1277		72.265625
1278		70.312500
1279		74.218750
1280		72.265625
1281		78.125000
1282		72.265625
1283		78.125000
1284		74.218750
1285		82.031250
1286		76.171875
1287		82.031250
1288		78.125000
1289		85.937500
1290		80.078125
1291		85.937500
1292		80.078125
1293		87.890625
1294		83.984375
1295		87.890625
1296		85.937500
1297		89.843750
1298		85.937500
1299		93.750000
1300		85.937500
1301		93.750000
1302		87.890625
1303		95.703125
1304		89.843750
1305		95.703125
1306		91.796875
1307		97.656250
1308		91.796875
1309		97.656250
1310		93.750000
1311		99.609375
1312		95.703125
1313		99.609375
1314		95.703125
1315		101.562500
1316		95.703125
1317		103.515625
1318		95.703125
1319		103.515625
1320		97.656250
1321		103.515625
1322		97.656250
1323		105.468750
1324		97.656250
1325		105.468750
1326		99.609375
1327		105.468750
1328		101.562500
1329		105.468750
1330		101.562500
1331		105.468750
1332		101.562500
1333		107.421875
1334		101.562500
1335		107.421875
1336		101.562500
1337		109.375000
1338		101.562500
1339		109.375000
1340		101.562500
1341		109.375000
1342		101.562500
1343		109.375000
1344		103.515625
1345		107.421875
1346		103.515625
1347		107.421875
1348		103.515625
1349		107.421875
1350		101.562500
1351		109.375000
1352		101.562500
1353		107.421875
1354		101.562500
1355		107.421875
1356		101.562500
1357		107.421875
1358		99.609375
1359		107.421875
1360		101.562500
1361		107.421875
1362		101.562500
1363		105.468750
1364		99.609375
1365		105.468750
1366		97.656250
1367		105.468750
1368		97.656250
1369		103.515625
1370		97.656250
1371		103.515625
1372		95.703125
1373		101.562500
1374		95.703125
1375		101.562500
1376		95.703125
1377		101.562500
1378		95.703125
1379		97.656250
1380		93.750000
1381		97.656250
1382		91.796875
1383		97.656250
1384		87.890625
1385		95.703125
1386		87.890625
1387		93.750000
1388		85.937500
1389		93.750000
1390		83.984375
1391		91.796875
1392		83.984375
1393		89.843750
1394		83.984375
1395		87.890625
1396		82.031250
1397		85.937500
1398		78.125000
1399		85.937500
1400		76.171875
1401		83.984375
1402		74.218750
1403		83.984375
1404		72.265625
1405		80.078125
1406		70.312500
1407		78.125000
1408		70.312500
1409		76.171875
1410		68.359375
1411		74.218750
1412		66.406250
1413		70.312500
1414		62.500000
1415		68.359375
1416		60.546875
1417		68.359375
1418		60.546875
1419		64.453125
1420		56.640625
1421		62.500000
1422		54.687500
1423		60.546875
1424		50.781250
1425		58.593750
1426		48.828125
1427		56.640625
1428		48.828125
1429		52.734375
1430		44.921875
1431		50.781250
1432		41.015625
1433		48.828125
1434		39.062500
1435		46.875000
1436		37.109375
1437		42.968750
1438		33.203125
1439		41.015625
1440		31.250000
1441		39.062500
1442		27.343750
1443		37.109375
1444		27.343750
1445		33.203125
1446		23.437500
1447		29.296875
1448		21.484375
1449		27.343750
1450		17.578125
1451		25.390625
1452		15.625000
1453		21.484375
1454		11.718750
1455		17.578125
1456		9.765625
1457		15.625000
1458		5.859375
1459		13.671875
1460		3.906250
1461		9.765625
1462		1.953125
1463		5.859375
1464		-1.953125
1465		3.906250
1466		-5.859375
1467		1.953125
1468		-7.812500
1469		0.000000
1470		-11.718750
1471		-3.906250
1472		-15.625000
1473		-7.812500
1474		-17.578125
1475		-9.765625
1476		-21.484375
1477		-13.671875
1478		-21.484375
1479		-15.625000
1480		-25.390625
1481		-19.531250
1482		-29.296875
1483		-21.484375
1484		-31.250000
1485		-25.390625
1486		-35.156250
1487		-27.343750
1488		-39.062500
1489		-29.296875
1490		-41.015625
1491		-33.203125
1492		-44.921875
1493		-37.109375
1494		-44.921875
1495		-39.062500
1496		-48.828125
1497		-42.968750
1498		-52.734375
1499		-44.921875
1500		-54.687500
1501		-46.875000
1502		-56.640625
1503		-50.781250
1504		-60.546875
1505		-52.734375
1506		-62.500000
1507		-54.687500
1508		-66.406250
1509		-58.593750
1510		-68.359375
1511		-60.546875
1512		-68.359375
1513		-64.453125
1514		-70.312500
1515		-66.406250
1516		-76.171875
1517		-68.359375
1518		-78.125000
1519		-70.312500
1520		-80.078125
1521		-72.265625
1522		-82.031250
1523		-74.218750
1524		-83.984375
1525		-76.171875
1526		-87.890625
1527		-78.125000
1528		-87.890625
1529		-82.031250
1530		-87.890625
1531		-83.984375
1532		-91.796875
1533		-85.937500
1534		-93.750000
1535		-87.890625
1536		-95.703125
1537		-89.843750
1538		-97.656250
1539		-89.843750
1540		-99.609375
1541		-91.796875
1542		-101.562500
1543		-93.750000
1544		-101.562500
1545		-95.703125
1546		-101.562500
1547		-97.656250
1548		-103.515625
1549		-99.609375
1550		-105.468750
1551		-99.609375
1552		-107.421875
1553		-101.562500
1554		-109.375000
1555		-101.562500
1556		-109.375000
1557		-103.515625
1558		-109.375000
1559		-103.515625
1560		-111.328125
1561		-103.515625
1562		-111.328125
1563		-105.468750
1564		-111.328125
1565		-107.421875
1566		-113.281250
1567		-107.421875
1568		-113.281250
1569		-107.421875
1570		-115.234375
1571		-107.421875
1572		-115.234375
1573		-107.421875
1574		-115.234375
1575		-109.375000
1576		-115.234375
1577		-109.375000
1578		-115.234375
1579		-109.375000
1580		-113.281250
1581		-109.375000
1582		-113.281250
1583		-109.375000
1584		-115.234375
1585		-109.375000
1586		-115.234375
1587		-107.421875
1588		-115.234375
1589		-107.421875
1590		-113.281250
1591		-107.421875
1592		-113.281250
1593		-107.421875
1594		-113.281250
1595		-105.468750
1596		-109.375000
1597		-107.421875
1598		-109.375000
1599		-105.468750
1600		-109.375000
1601		-103.515625
1602		-109.375000
1603		-103.515625
1604		-109.375000
1605		-101.562500
1606		-107.421875
1607		-101.562500
1608		-107.421875
1609		-99.609375
1610		-105.468750
1611		-97.656250
1612		-103.515625
1613		-97.656250
1614		-101.562500
1615		-95.703125
1616		-99.609375
1617		-93.750000
1618		-99.609375
1619		-91.796875
1620		-97.656250
1621		-89.843750
1622		-95.703125
1623		-89.843750
1624		-93.750000
1625		-87.890625
1626		-91.796875
1627		-85.937500
1628		-89.843750
1629		-83.984375
1630		-85.937500
1631		-82.031250
1632		-83.984375
1633		-80.078125
1634		-82.031250
1635		-76.171875
1636		-82.031250
1637		-74.218750
1638		-80.078125
1639		-72.265625
1640		-78.125000
1641		-70.312500
1642		-76.171875
1643		-66.406250
1644		-72.265625
1645		-66.406250
1646		-70.312500
1647		-64.453125
1648		-66.406250
1649		-60.546875
1650		-62.500000
1651		-56.640625
1652		-62.500000
1653		-54.687500
1654		-60.546875
1655		-50.781250
1656		-56.640625
1657		-48.828125
1658		-54.687500
1659		-44.921875
1660		-50.781250
1661		-44.921875
1662		-48.828125
1663		-42.968750
1664		-44.921875
1665		-39.062500
1666		-41.015625
1667		-37.109375
1668		-39.062500
1669		-33.203125
1670		-39.062500
1671		-29.296875
1672		-33.203125
1673		-25.390625
1674		-31.250000
1675		-23.437500
1676		-29.296875
1677		-19.531250
1678		-27.343750
1679		-17.578125
1680		-21.484375
1681		-15.625000
1682		-17.578125
1683		-13.671875
1684		-15.625000
1685		-7.812500
1686		-13.671875
1687		-5.859375
1688		-11.718750
1689		-1.953125
1690		-7.812500
1691		0.000000
1692		-5.859375
1693		3.906250
1694		-1.953125
1695		5.859375
1696		1.953125
1697		7.812500
1698		5.859375
1699		9.765625
1700		7.812500
1701		13.671875
1702		9.765625
1703		17.578125
1704		13.671875
1705		21.484375
1706		15.625000
1707		23.437500
1708		17.578125
1709		25.390625
1710		21.484375
1711		29.296875
1712		23.437500
1713		31.250000
1714		27.343750
1715		33.203125
1716		31.250000
1717		35.156250
1718		33.203125
1719		39.062500
1720		35.156250
1721		42.968750
1722		39.062500
1723		42.968750
1724		41.015625
1725		46.875000
1726		44.921875
1727		48.828125
1728		44.921875
1729		50.781250
1730		48.828125
1731		52.734375
1732		50.781250
1733		56.640625
1734		54.687500
1735		58.593750
1736		54.687500
1737		60.546875
1738		56.640625
1739		64.453125
1740		60.546875
1741		66.406250
1742		62.500000
1743		68.359375
1744		62.500000
1745		70.312500
1746		64.453125
1747		72.265625
1748		70.312500
1749		74.218750
1750		72.265625
1751		76.171875
1752		72.265625
1753		80.078125
1754		74.218750
1755		82.031250
1756		76.171875
1757		82.031250
1758		78.125000
1759		83.984375
1760		78.125000
1761		85.937500
1762		80.078125
1763		87.890625
1764		83.984375
1765		87.890625
1766		85.937500
1767		89.843750
1768		85.937500
1769		93.750000
1770		85.937500
1771		93.750000
1772		87.890625
1773		95.703125
1774		89.843750
1775		95.703125
1776		89.843750
1777		97.656250
1778		91.796875
1779		99.609375
1780		93.750000
1781		99.609375
1782		95.703125
1783		99.609375
1784		97.656250
1785		101.562500
1786		97.656250
1787		103.515625
1788		97.656250
1789		103.515625
1790		97.656250
1791		105.468750
1792		99.609375
1793		105.468750
1794		99.609375
1795		105.468750
1796		101.562500
1797		107.421875
1798		103.515625
1799		105.468750
1800		103.515625
1801		105.468750
1802		101.562500
1803		109.375000
1804		103.515625
1805		109.375000
1806		101.562500
1807		109.375000
1808		103.515625
1809		109.375000
1810		103.515625
1811		109.375000
1812		103.515625
1813		109.375000
1814		103.515625
1815		109.375000
1816		105.468750
1817		107.421875
1818		103.515625
1819		109.375000
1820		103.515625
1821		109.375000
1822		103.515625
1823		109.375000
1824		103.515625
1825		109.375000
1826		101.562500
1827		109.375000
1828		101.562500
1829		107.421875
1830		101.562500
1831		107.421875
1832		103.515625
1833		105.468750
1834		101.562500
1835		105.468750
1836		99.609375
1837		107.421875
1838		99.609375
1839		105.468750
1840		99.609375
1841		105.468750
1842		97.656250
1843		105.468750
1844		97.656250
1845		103.515625
1846		95.703125
1847		101.562500
1848		95.703125
1849		101.562500
1850		95.703125
1851		99.609375
1852		91.796875
1853		97.656250
1854		91.796875
1855		97.656250
1856		89.843750
1857		97.656250
1858		87.890625
1859		95.703125
1860		87.890625
1861		95.703125
1862		85.937500
1863		91.796875
1864		85.937500
1865		91.796875
1866		83.984375
1867		87.890625
1868		82.031250
1869		85.937500
1870		80.078125
1871		87.890625
1872		78.125000
1873		85.937500
1874		74.218750
1875		82.031250
1876		74.218750
1877		82.031250
1878		72.265625
1879		80.078125
1880		70.312500
1881		76.171875
1882		70.312500
1883		74.218750
1884		68.359375
1885		72.265625
1886		62.500000
1887		70.312500
1888		60.546875
1889		68.359375
1890		58.593750
1891		66.406250
1892		56.640625
1893		64.453125
1894		54.687500
1895		62.500000
1896		52.734375
1897		58.593750
1898		50.781250
1899		56.640625
1900		48.828125
1901		52.734375
1902		44.921875
1903		50.781250
1904		42.968750
1905		48.828125
1906		39.062500
1907		46.875000
1908		37.109375
1909		44.921875
1910		33.203125
1911		41.015625
1912		31.250000
1913		39.062500
1914		29.296875
1915		37.109375
1916		27.343750
1917		31.250000
1918		25.390625
1919		29.296875
1920		19.531250
1921		27.343750
1922		17.578125
1923		25.390625
1924		13.671875
1925		21.484375
1926		11.718750
1927		19.531250
1928		7.812500
1929		15.625000
1930		5.859375
1931		13.671875
1932		3.906250
1933		11.718750
1934		1.953125
1935		5.859375
1936		-1.953125
1937		3.906250
1938		-5.859375
1939		1.953125
1940		-9.765625
1941		0.000000
1942		-11.718750
1943		-3.906250
1944		-13.671875
1945		-5.859375
1946		-17.578125
1947		-9.765625
1948		-19.531250
1949		-11.718750
1950		-21.484375
1951		-17.578125
1952		-25.390625
1953		-19.531250
1954		-29.296875
1955		-21.484375
1956		-31.250000
1957		-25.390625
1958		-35.156250
1959		-27.343750
1960		-39.062500
1961		-29.296875
1962		-41.015625
1963		-33.203125
1964		-42.968750
1965		-37.109375
1966		-44.921875
1967		-41.015625
1968		-46.875000
1969		-42.968750
1970		-52.734375
1971		-44.921875
1972		-52.734375
1973		-46.875000
1974		-56.640625
1975		-50.781250
1976		-60.546875
1977		-52.734375
1978		-62.500000
1979		-54.687500
1980		-64.453125
1981		-56.640625
1982		-66.406250
1983		-60.546875
1984		-68.359375
1985		-64.453125
1986		-70.312500
1987		-66.406250
1988		-74.218750
1989		-66.406250
1990		-78.125000
1991		-70.312500
1992		-80.078125
1993		-72.265625
1994		-82.031250
1995		-74.218750
1996		-83.984375
1997		-76.171875
1998		-85.937500
1999		-78.125000
2000		-85.937500
2001		-82.031250
2002		-87.890625
2003		-83.984375
2004		-91.796875
2005		-83.984375
2006		-93.750000
2007		-85.937500
2008		-95.703125
2009		-87.890625
2010		-95.703125
2011		-89.843750
2012		-99.609375
2013		-91.796875
2014		-101.562500
2015		-93.750000
2016		-99.609375
2017		-95.703125
2018		-101.562500
2019		-97.656250
2020		-103.515625
2021		-99.609375
2022		-105.468750
2023		-97.656250
2024		-107.421875
2025		-99.609375
2026		-107.421875
2027		-99.609375
2028		-109.375000
2029		-101.562500
2030		-109.375000
2031		-103.515625
2032		-109.375000
2033		-103.515625
2034		-109.375000
2035		-105.468750
2036		-111.328125
2037		-107.421875
2038		-113.281250
2039		-105.468750
2040		-113.281250
2041		-105.468750
2042		-113.281250
2043		-107.421875
2044		-113.281250
2045		-107.421875
2046		-115.234375
2047		-107.421875
2048		-115.234375
2049		-107.421875
2050		-113.281250
2051		-109.375000
2052		-111.328125
2053		-109.375000
2054		-113.281250
2055		-107.421875
2056		-113.281250
2057		-107.421875
2058		-113.281250
2059		-107.421875
2060		-113.281250
2061		-105.468750
2062		-113.281250
2063		-105.468750
2064		-113.281250
2065		-105.468750
2066		-111.328125
2067		-105.468750
2068		-109.375000
2069		-105.468750
2070		-107.421875
2071		-105.468750
2072		-109.375000
2073		-103.515625
2074		-109.375000
2075		-101.562500
2076		-107.421875
2077		-99.609375
2078		-105.468750
2079		-99.609375
2080		-105.468750
2081		-97.656250
2082		-103.515625
2083		-97.656250
2084		-101.562500
2085		-97.656250
2086		-99.609375
2087		-95.703125
2088		-99.609375
2089		-91.796875
2090		-97.656250
2091		-89.843750
2092		-95.703125
2093		-89.843750
2094		-95.703125
2095		-87.890625
2096		-91.796875
2097		-83.984375
2098		-89.843750
2099		-83.984375
2100		-87.890625
2101		-83.984375
2102		-83.984375
2103		-80.078125
2104		-83.984375
2105		-78.125000
2106		-82.031250
2107		-74.218750
2108		-80.078125
2109		-72.265625
2110		-78.125000
2111		-70.312500
2112		-76.171875
2113		-68.359375
2114		-74.218750
2115		-66.406250
2116		-72.265625
2117		-64.453125
2118		-66.406250
2119		-62.500000
2120		-64.453125
2121		-60.546875
2122		-62.500000
2123		-54.687500
2124		-60.546875
2125		-52.734375
2126		-58.593750
2127		-50.781250
2128		-54.687500
2129		-48.828125
2130		-52.734375
2131		-44.921875
2132		-50.781250
2133		-42.968750
2134		-44.921875
2135		-41.015625
2136		-42.968750
2137		-37.109375
2138		-39.062500
2139		-35.156250
2140		-39.062500
2141		-31.250000
2142		-35.156250
2143		-27.343750
2144		-31.250000
2145		-25.390625
2146		-29.296875
2147		-21.484375
2148		-27.343750
2149		-19.531250
2150		-23.437500
2151		-17.578125
2152		-19.531250
2153		-13.671875
2154		-17.578125
2155		-11.718750
2156		-15.625000
2157		-7.812500
2158		-11.718750
2159		-3.906250
2160		-9.765625
2161		-1.953125
2162		-5.859375
2163		1.953125
2164		-3.906250
2165		5.859375
2166		0.000000
2167		7.812500
2168		3.906250
2169		9.765625
2170		7.812500
2171		11.718750
2172		9.765625
2173		17.578125
2174		11.718750
2175		19.531250
2176		13.671875
2177		21.484375
2178		15.625000
2179		25.390625
2180		19.531250
2181		27.343750
2182		23.437500
2183		31.250000
2184		25.390625
2185		31.250000
2186		29.296875
2187		35.156250
2188		31.250000
2189		39.062500
2190		33.203125
2191		41.015625
2192		35.156250
2193		42.968750
2194		37.109375
2195		46.875000
2196		41.015625
2197		48.828125
2198		42.968750
2199		50.781250
2200		46.875000
2201		52.734375
2202		50.781250
2203		54.687500
2204		52.734375
2205		56.640625
2206		54.687500
2207		60.546875
2208		56.640625
2209		64.453125
2210		58.593750
2211		64.453125
2212		60.546875
2213		68.359375
2214		62.500000
2215		70.312500
2216		64.453125
2217		72.265625
2218		68.359375
2219		72.265625
2220		70.312500
2221		74.218750
2222		72.265625
2223		78.125000
2224		72.265625
2225		80.078125
2226		74.218750
2227		82.031250
2228		76.171875
2229		83.984375
2230		78.125000
2231		83.984375
2232		80.078125
2233		87.890625
2234		82.031250
2235		87.890625
2236		85.937500
2237		89.843750
2238		85.937500
2239		91.796875
2240		85.937500
2241		93.750000
2242		87.890625
2243		95.703125
2244		89.843750
2245		95.703125
2246		89.843750
2247		97.656250
2248		91.796875
2249		99.609375
2250		93.750000
2251		99.609375
2252		95.703125
2253		99.609375
2254		97.656250
2255		101.562500
2256		97.656250
2257		103.515625
2258		97.656250
2259		103.515625
2260		97.656250
2261		105.468750
2262		99.609375
2263		105.468750
2264		99.609375
2265		105.468750
2266		99.609375
2267		107.421875
2268		101.562500
2269		107.421875
2270		103.515625
2271		107.421875
2272		103.515625
2273		109.375000
2274		101.562500
2275		109.375000
2276		103.515625
2277		109.375000
2278		103.515625
2279		109.375000
2280		103.515625
2281		109.375000
2282		103.515625
2283		109.375000
2284		103.515625
2285		109.375000
2286		105.468750
2287		109.375000
2288		105.468750
2289		109.375000
2290		103.515625
2291		109.375000
2292		103.515625
2293		109.375000
2294		103.515625
2295		109.375000
2296		103.515625
2297		109.375000
2298		103.515625
2299		109.375000
2300		101.562500
2301		109.375000
2302		103.515625
2303		107.421875
2304		103.515625
2305		105.468750
2306		101.562500
2307		105.468750
2308		99.609375
2309		107.421875
2310		99.609375
2311		105.468750
2312		99.609375
2313		105.468750
2314		97.656250
2315		105.468750
2316		97.656250
2317		103.515625
2318		97.656250
2319		101.562500
2320		95.703125
2321		99.609375
2322		95.703125
2323		99.609375
2324		91.796875
2325		99.609375
2326		91.796875
2327		97.656250
2328		89.843750
2329		97.656250
2330		87.890625
2331		95.703125
2332		87.890625
2333		93.750000
2334		85.937500
2335		91.796875
2336		85.937500
2337		89.843750
2338		83.984375
2339		87.890625
2340		80.078125
2341		87.890625
2342		78.125000
2343		85.937500
2344		76.171875
2345		83.984375
2346		76.171875
2347		82.031250
2348		72.265625
2349		80.078125
2350		72.265625
2351		80.078125
2352		70.312500
2353		76.171875
2354		68.359375
2355		74.218750
2356		64.453125
2357		72.265625
2358		64.453125
2359		70.312500
2360		60.546875
2361		68.359375
2362		58.593750
2363		66.406250
2364		56.640625
2365		64.453125
2366		54.687500
2367		62.500000
2368		52.734375
2369		60.546875
2370		50.781250
2371		54.687500
2372		48.828125
2373		52.734375
2374		44.921875
2375		50.781250
2376		42.968750
2377		48.828125
2378		39.062500
2379		46.875000
2380		37.109375
2381		44.921875
2382		33.203125
2383		42.968750
2384		31.250000
2385		39.062500
2386		29.296875
2387		35.156250
2388		27.343750
2389		31.250000
2390		23.437500
2391		29.296875
2392		19.531250
2393		27.343750
2394		17.578125
2395		23.437500
2396		15.625000
2397		23.437500
2398		9.765625
2399		19.531250
2400		7.812500
2401		17.578125
2402		5.859375
2403		13.671875
2404		3.906250
2405		9.765625
2406		0.000000
2407		5.859375
2408		-3.906250
2409		3.906250
2410		-5.859375
2411		1.953125
2412		-7.812500
2413		0.000000
2414		-13.671875
2415		-3.906250
2416		-15.625000
2417		-7.812500
2418		-17.578125
2419		-9.765625
2420		-19.531250
2421		-13.671875
2422		-23.437500
2423		-17.578125
2424		-27.343750
2425		-19.531250
2426		-29.296875
2427		-21.484375
2428		-33.203125
2429		-23.437500
2430		-35.156250
2431		-27.343750
2432		-39.062500
2433		-31.250000
2434		-41.015625
2435		-33.203125
2436		-42.968750
2437		-35.156250
2438		-44.921875
2439		-41.015625
2440		-50.781250
2441		-42.968750
2442		-50.781250
2443		-44.921875
2444		-54.687500
2445		-46.875000
2446		-58.593750
2447		-48.828125
2448		-60.546875
2449		-52.734375
2450		-62.500000
2451		-54.687500
2452		-64.453125
2453		-58.593750
2454		-66.406250
2455		-60.546875
2456		-68.359375
2457		-64.453125
2458		-72.265625
2459		-64.453125
2460		-74.218750
2461		-66.406250
2462		-78.125000
2463		-70.312500
2464		-80.078125
2465		-70.312500
2466		-80.078125
2467		-74.218750
2468		-83.984375
2469		-76.171875
2470		-83.984375
2471		-80.078125
2472		-85.937500
2473		-82.031250
2474		-89.843750
2475		-83.984375
2476		-91.796875
2477		-83.984375
2478		-93.750000
2479		-85.937500
2480		-95.703125
2481		-87.890625
2482		-97.656250
2483		-89.843750
2484		-97.656250
2485		-91.796875
2486		-99.609375
2487		-91.796875
2488		-99.609375
2489		-95.703125
2490		-101.562500
2491		-97.656250
2492		-103.515625
2493		-97.656250
2494		-103.515625
2495		-97.656250
2496		-105.468750
2497		-99.609375
2498		-107.421875
2499		-99.609375
2500		-107.421875
2501		-101.562500
2502		-109.375000
2503		-101.562500
2504		-107.421875
2505		-105.468750
2506		-109.375000
2507		-105.468750
2508		-111.328125
2509		-105.468750
2510		-111.328125
2511		-105.468750
2512		-113.281250
2513		-105.468750
2514		-113.281250
2515		-105.468750
2516		-113.281250
2517		-105.468750
2518		-113.281250
2519		-107.421875
2520		-113.281250
2521		-107.421875
2522		-111.328125
2523		-109.375000
2524		-113.281250
2525		-107.421875
2526		-113.281250
2527		-107.421875
2528		-113.281250
2529		-107.421875
2530		-113.281250
2531		-105.468750
2532		-113.281250
2533		-105.468750
2534		-111.328125
2535		-105.468750
2536		-111.328125
2537		-105.468750
2538		-109.375000
2539		-105.468750
2540		-107.421875
2541		-105.468750
2542		-109.375000
2543		-103.515625
2544		-107.421875
2545		-101.562500
2546		-107.421875
2547		-101.562500
2548		-105.468750
2549		-99.609375
2550		-105.468750
2551		-97.656250
2552		-103.515625
2553		-95.703125
2554		-103.515625
2555		-97.656250
2556		-99.609375
2557		-95.703125
2558		-97.656250
2559		-93.750000
2560		-97.656250
2561		-91.796875
2562		-95.703125
2563		-89.843750
2564		-93.750000
2565		-87.890625
2566		-91.796875
2567		-85.937500
2568		-91.796875
2569		-83.984375
2570		-87.890625
2571		-83.984375
2572		-85.937500
2573		-82.031250
2574		-83.984375
2575		-80.078125
2576		-82.031250
2577		-76.171875
2578		-80.078125
2579		-74.218750
2580		-80.078125
2581		-70.312500
2582		-76.171875
2583		-68.359375
2584		-74.218750
2585		-66.406250
2586		-72.265625
2587		-64.453125
2588		-68.359375
2589		-64.453125
2590		-64.453125
2591		-60.546875
2592		-64.453125
2593		-56.640625
2594		-62.500000
2595		-54.687500
2596		-58.593750
2597		-52.734375
2598		-56.640625
2599		-48.828125
2600		-54.687500
2601		-46.875000
2602		-50.781250
2603		-42.968750
2604		-48.828125
2605		-42.968750
2606		-44.921875
2607		-39.062500
2608		-41.015625
2609		-37.109375
2610		-41.015625
2611		-31.250000
2612		-39.062500
2613		-29.296875
2614		-33.203125
2615		-25.390625
2616		-31.250000
2617		-23.437500
2618		-29.296875
2619		-21.484375
2620		-25.390625
2621		-17.578125
2622		-21.484375
2623		-15.625000
2624		-17.578125
2625		-13.671875
2626		-15.625000
2627		-7.812500
2628		-13.671875
2629		-5.859375
2630		-11.718750
2631		-1.953125
2632		-7.812500
2633		0.000000
2634		-5.859375
2635		1.953125
2636		-1.953125
2637		5.859375
2638		0.000000
2639		7.812500
2640		5.859375
2641		11.718750
2642		7.812500
2643		15.625000
2644		9.765625
2645		17.578125
2646		11.718750
2647		21.484375
2648		15.625000
2649		23.437500
2650		17.578125
2651		27.343750
2652		21.484375
2653		29.296875
2654		23.437500
2655		29.296875
2656		29.296875
2657		33.203125
2658		31.250000
2659		37.109375
2660		31.250000
2661		41.015625
2662		35.156250
2663		42.968750
2664		37.109375
2665		46.875000
2666		39.062500
2667		48.828125
2668		42.968750
2669		48.828125
2670		44.921875
2671		52.734375
2672		48.828125
2673		54.687500
2674		52.734375
2675		56.640625
2676		54.687500
2677		60.546875
2678		54.687500
2679		62.500000
2680		56.640625
2681		64.453125
2682		60.546875
2683		68.359375
2684		62.500000
2685		68.359375
2686		64.453125
2687		70.312500
2688		66.406250
2689		72.265625
2690		70.312500
2691		74.218750
2692		72.265625
2693		76.171875
2694		72.265625
2695		80.078125
2696		74.218750
2697		82.031250
2698		76.171875
2699		82.031250
2700		76.171875
2701		85.937500
2702		80.078125
2703		87.890625
2704		82.031250
2705		87.890625
2706		83.984375
2707		87.890625
2708		85.937500
2709		89.843750
2710		85.937500
2711		93.750000
2712		87.890625
2713		95.703125
2714		89.843750
2715		95.703125
2716		89.843750
2717		97.656250
2718		91.796875
2719		99.609375
2720		91.796875
2721		99.609375
2722		93.750000
2723		99.609375
2724		95.703125
2725		99.609375
2726		97.656250
2727		103.515625
2728		97.656250
2729		103.515625
2730		97.656250
2731		105.468750
2732		99.609375
2733		105.468750
2734		99.609375
2735		107.421875
2736		99.609375
2737		107.421875
2738		101.562500
2739		107.421875
2740		103.515625
2741		107.421875
2742		103.515625
2743		107.421875
2744		101.562500
2745		109.375000
2746		101.562500
2747		109.375000
2748		103.515625
2749		109.375000
2750		103.515625
2751		109.375000
2752		103.515625
2753		111.328125
2754		103.515625
2755		111.328125
2756		105.468750
2757		109.375000
2758		105.468750
2759		109.375000
2760		103.515625
2761		109.375000
2762		103.515625
2763		109.375000
2764		103.515625
2765		109.375000
2766		103.515625
2767		111.328125
2768		103.515625
2769		109.375000
2770		103.515625
2771		109.375000
2772		103.515625
2773		109.375000
2774		103.515625
2775		107.421875
2776		103.515625
2777		107.421875
2778		101.562500
2779		107.421875
2780		99.609375
2781		107.421875
2782		99.609375
2783		105.468750
2784		99.609375
2785		105.468750
2786		97.656250
2787		103.515625
2788		97.656250
2789		103.515625
2790		97.656250
2791		101.562500
2792		95.703125
2793		99.609375
2794		93.750000
2795		99.609375
2796		93.750000
2797		99.609375
2798		91.796875
2799		97.656250
2800		89.843750
2801		97.656250
2802		87.890625
2803		95.703125
2804		87.890625
2805		93.750000
2806		87.890625
2807		93.750000
2808		85.937500
2809		89.843750
2810		82.031250
2811		89.843750
2812		82.031250
2813		87.890625
2814		80.078125
2815		85.937500
2816		78.125000
2817		85.937500
2818		76.171875
2819		82.031250
2820		74.218750
2821		82.031250
2822		72.265625
2823		80.078125
2824		72.265625
2825		76.171875
2826		68.359375
2827		74.218750
2828		66.406250
2829		72.265625
2830		62.500000
2831		70.312500
2832		60.546875
2833		68.359375
2834		58.593750
2835		66.406250
2836		56.640625
2837		64.453125
2838		54.687500
2839		60.546875
2840		52.734375
2841		58.593750
2842		50.781250
2843		54.687500
2844		48.828125
2845		52.734375
2846		44.921875
2847		50.781250
2848		41.015625
2849		48.828125
2850		41.015625
2851		46.875000
2852		37.109375
2853		44.921875
2854		35.156250
2855		41.015625
2856		33.203125
2857		37.109375
2858		29.296875
2859		35.156250
2860		25.390625
2861		33.203125
2862		23.437500
2863		29.296875
2864		21.484375
2865		25.390625
2866		19.531250
2867		23.437500
2868		15.625000
2869		21.484375
2870		11.718750
2871		17.578125
2872		9.765625
2873		15.625000
2874		7.812500
2875		11.718750
2876		3.906250
2877		9.765625
2878		1.953125
2879		5.859375
2880		-1.953125
2881		3.906250
2882		-5.859375
2883		0.000000
2884		-9.765625
2885		-1.953125
2886		-11.718750
2887		-3.906250
2888		-13.671875
2889		-7.812500
2890		-15.625000
2891		-11.718750
2892		-19.531250
2893		-13.671875
2894		-23.437500
2895		-17.578125
2896		-25.390625
2897		-19.531250
2898		-29.296875
2899		-23.437500
2900		-31.250000
2901		-25.390625
2902		-33.203125
2903		-27.343750
2904		-37.109375
2905		-31.250000
2906		-39.062500
2907		-35.156250
2908		-42.968750
2909		-37.109375
2910		-44.921875
2911		-41.015625
2912		-46.875000
2913		-42.968750
2914		-50.781250
2915		-44.921875
2916		-52.734375
2917		-48.828125
2918		-56.640625
2919		-50.781250
2920		-58.593750
2921		-54.687500
2922		-60.546875
2923		-56.640625
2924		-62.500000
2925		-58.593750
2926		-66.406250
2927		-60.546875
2928		-68.359375
2929		-64.453125
2930		-70.312500
2931		-66.406250
2932		-74.218750
2933		-68.359375
2934		-76.171875
2935		-70.312500
2936		-78.125000
2937		-72.265625
2938		-80.078125
2939		-74.218750
2940		-82.031250
2941		-78.125000
2942		-83.984375
2943		-80.078125
2944		-85.937500
2945		-82.031250
2946		-87.890625
2947		-83.984375
2948		-89.843750
2949		-85.937500
2950		-91.796875
2951		-87.890625
2952		-93.750000
2953		-89.843750
2954		-95.703125
2955		-89.843750
2956		-97.656250
2957		-91.796875
2958		-97.656250
2959		-93.750000
2960		-99.609375
2961		-95.703125
2962		-101.562500
2963		-97.656250
2964		-101.562500
2965		-97.656250
2966		-103.515625
2967		-99.609375
2968		-105.468750
2969		-101.562500
2970		-105.468750
2971		-101.562500
2972		-107.421875
2973		-103.515625
2974		-107.421875
2975		-103.515625
2976		-107.421875
2977		-105.468750
2978		-109.375000
2979		-105.468750
2980		-109.375000
2981		-105.468750
2982		-109.375000
2983		-107.421875
2984		-109.375000
2985		-107.421875
2986		-111.328125
2987		-107.421875
2988		-111.328125
2989		-107.421875
2990		-111.328125
2991		-107.421875
2992		-111.328125
2993		-109.375000
2994		-111.328125
2995		-107.421875
2996		-111.328125
2997		-107.421875
2998		-111.328125
2999		-107.421875
3000		-111.328125
3001		-107.421875
3002		-111.328125
3003		-107.421875
3004		-109.375000
3005		-107.421875
3006		-111.328125
3007		-107.421875
3008		-109.375000
3009		-105.468750
3010		-107.421875
3011		-105.468750
3012		-107.421875
3013		-103.515625
3014		-107.421875
3015		-103.515625
3016		-105.468750
3017		-103.515625
3018		-105.468750
3019		-101.562500
3020		-103.515625
3021		-99.609375
3022		-103.515625
3023		-99.609375
3024		-101.562500
3025		-97.656250
3026		-99.609375
3027		-95.703125
3028		-99.609375
3029		-95.703125
3030		-97.656250
3031		-93.750000
3032		-95.703125
3033		-91.796875
3034		-93.750000
3035		-89.843750
3036		-93.750000
3037		-89.843750
3038		-91.796875
3039		-87.890625
3040		-89.843750
3041		-83.984375
3042		-87.890625
3043		-82.031250
3044		-85.937500
3045		-82.031250
3046		-82.031250
3047		-78.125000
3048		-82.031250
3049		-76.171875
3050		-80.078125
3051		-74.218750
3052		-76.171875
3053		-72.265625
3054		-74.218750
3055		-70.312500
3056		-72.265625
3057		-68.359375
3058		-70.312500
3059		-66.406250
3060		-68.359375
3061		-62.500000
3062		-64.453125
3063		-60.546875
3064		-62.500000
3065		-56.640625
3066		-58.593750
3067		-54.687500
3068		-56.640625
3069		-52.734375
3070		-54.687500
3071		-48.828125
3072		-52.734375
3073		-46.875000
3074		-48.828125
3075		-44.921875
3076		-46.875000
3077		-41.015625
3078		-42.968750
3079		-39.062500
3080		-41.015625
3081		-35.156250
3082		-39.062500
3083		-33.203125
3084		-35.156250
3085		-29.296875
3086		-31.250000
3087		-27.343750
3088		-29.296875
3089		-23.437500
3090		-25.390625
3091		-21.484375
3092		-23.437500
3093		-17.578125
3094		-19.531250
3095		-15.625000
3096		-17.578125
3097		-11.718750
3098		-13.671875
3099		-9.765625
3100		-11.718750
3101		-5.859375
3102		-7.812500
3103		-3.906250
3104		-5.859375
3105		0.000000
3106		-3.906250
3107		1.953125
3108		0.000000
3109		5.859375
3110		3.906250
3111		7.812500
3112		5.859375
3113		11.718750
3114		7.812500
3115		13.671875
3116		11.718750
3117		17.578125
3118		15.625000
3119		19.531250
3120		17.578125
3121		21.484375
3122		21.484375
3123		25.390625
3124		23.437500
3125		27.343750
3126		25.390625
3127		31.250000
3128		29.296875
3129		33.203125
3130		31.250000
3131		37.109375
3132		33.203125
3133		39.062500
3134		37.109375
3135		41.015625
3136		39.062500
3137		44.921875
3138		41.015625
3139		46.875000
3140		44.921875
3141		48.828125
3142		46.875000
3143		52.734375
3144		48.828125
3145		54.687500
3146		52.734375
3147		56.640625
3148		54.687500
3149		58.593750
3150		56.640625
3151		60.546875
3152		58.593750
3153		62.500000
3154		62.500000
3155		66.406250
3156		64.453125
3157		68.359375
3158		64.453125
3159		70.312500
3160		68.359375
3161		72.265625
3162		70.312500
3163		74.218750
3164		72.265625
3165		76.171875
3166		74.218750
3167		78.125000
3168		76.171875
3169		80.078125
3170		78.125000
3171		82.031250
3172		78.125000
3173		83.984375
3174		82.031250
3175		85.937500
3176		82.031250
3177		85.937500
3178		83.984375
3179		87.890625
3180		85.937500
3181		89.843750
3182		87.890625
3183		91.796875
3184		87.890625
3185		93.750000
3186		89.843750
3187		95.703125
3188		91.796875
3189		95.703125
3190		91.796875
3191		97.656250
3192		93.750000
3193		97.656250
3194		95.703125
3195		99.609375
3196		97.656250
3197		101.562500
3198		97.656250
3199		101.562500
3200		97.656250
3201		101.562500
3202		99.609375
3203		103.515625
3204		99.609375
3205		103.515625
3206		101.562500
3207		105.468750
3208		101.562500
3209		105.468750
3210		103.515625
3211		107.421875
3212		103.515625
3213		105.468750
3214		103.515625
3215		107.421875
3216		103.515625
3217		107.421875
3218		105.468750
3219		107.421875
3220		105.468750
3221		109.375000
3222		105.468750
3223		109.375000
3224		105.468750
3225		109.375000
3226		105.468750
3227		109.375000
3228		105.468750
3229		109.375000
3230		105.468750
3231		109.375000
3232		105.468750
3233		109.375000
3234		105.468750
3235		109.375000
3236		105.468750
3237		109.375000
3238		105.468750
3239		109.375000
3240		105.468750
3241		109.375000
3242		103.515625
3243		109.375000
3244		103.515625
3245		107.421875
3246		103.515625
3247		107.421875
3248		103.515625
3249		107.421875
3250		103.515625
3251		105.468750
3252		101.562500
3253		105.468750
3254		101.562500
3255		103.515625
3256		99.609375
3257		103.515625
3258		99.609375
3259		103.515625
3260		97.656250
3261		103.515625
3262		97.656250
3263		101.562500
3264		95.703125
3265		99.609375
3266		95.703125
3267		99.609375
3268		93.750000
3269		97.656250
3270		91.796875
3271		97.656250
3272		91.796875
3273		95.703125
3274		89.843750
3275		95.703125
3276		87.890625
3277		91.796875
3278		87.890625
3279		91.796875
3280		85.937500
3281		89.843750
3282		83.984375
3283		87.890625
3284		82.031250
3285		85.937500
3286		80.078125
3287		83.984375
3288		78.125000
3289		83.984375
3290		76.171875
3291		82.031250
3292		74.218750
3293		78.125000
3294		72.265625
3295		78.125000
3296		70.312500
3297		76.171875
3298		68.359375
3299		74.218750
3300		66.406250
3301		70.312500
3302		64.453125
3303		68.359375
3304		62.500000
3305		66.406250
3306		60.546875
3307		64.453125
3308		56.640625
3309		62.500000
3310		54.687500
3311		60.546875
3312		52.734375
3313		56.640625
3314		50.781250
3315		54.687500
3316		46.875000
3317		52.734375
3318		44.921875
3319		50.781250
3320		42.968750
3321		46.875000
3322		39.062500
3323		44.921875
3324		37.109375
3325		42.968750
3326		35.156250
3327		39.062500
3328		31.250000
3329		37.109375
3330		29.296875
3331		33.203125
3332		25.390625
3333		31.250000
3334		23.437500
3335		29.296875
3336		19.531250
3337		25.390625
3338		17.578125
3339		23.437500
3340		15.625000
3341		19.531250
3342		11.718750
3343		17.578125
3344		9.765625
3345		13.671875
3346		5.859375
3347		11.718750
3348		1.953125
3349		7.812500
3350		0.000000
3351		5.859375
3352		-1.953125
3353		1.953125
3354		-5.859375
3355		0.000000
3356		-7.812500
3357		-3.906250
3358		-11.718750
3359		-5.859375
3360		-13.671875
3361		-9.765625
3362		-17.578125
3363		-11.718750
3364		-21.484375
3365		-15.625000
3366		-23.437500
3367		-17.578125
3368		-25.390625
3369		-21.484375
3370		-29.296875
3371		-23.437500
3372		-31.250000
3373		-27.343750
3374		-35.156250
3375		-29.296875
3376		-39.062500
3377		-33.203125
3378		-41.015625
3379		-35.156250
3380		-42.968750
3381		-39.062500
3382		-46.875000
3383		-41.015625
3384		-48.828125
3385		-42.968750
3386		-50.781250
3387		-46.875000
3388		-54.687500
3389		-48.828125
3390		-56.640625
3391		-52.734375
3392		-60.546875
3393		-54.687500
3394		-62.500000
3395		-56.640625
3396		-64.453125
3397		-60.546875
3398		-66.406250
3399		-62.500000
3400		-68.359375
3401		-64.453125
3402		-72.265625
3403		-66.406250
3404		-74.218750
3405		-68.359375
3406		-76.171875
3407		-72.265625
3408		-78.125000
3409		-74.218750
3410		-80.078125
3411		-76.171875
3412		-82.031250
3413		-78.125000
3414		-85.937500
3415		-80.078125
3416		-85.937500
3417		-82.031250
3418		-87.890625
3419		-83.984375
3420		-91.796875
3421		-85.937500
3422		-91.796875
3423		-87.890625
3424		-93.750000
3425		-89.843750
3426		-95.703125
3427		-89.843750
3428		-97.656250
3429		-93.750000
3430		-97.656250
3431		-93.750000
3432		-101.562500
3433		-95.703125
3434		-101.562500
3435		-97.656250
3436		-101.562500
3437		-97.656250
3438		-103.515625
3439		-99.609375
3440		-105.468750
3441		-101.562500
3442		-105.468750
3443		-101.562500
3444		-107.421875
3445		-103.515625
3446		-107.421875
3447		-103.515625
3448		-107.421875
3449		-105.468750
3450		-109.375000
3451		-105.468750
3452		-109.375000
3453		-107.421875
3454		-109.375000
3455		-107.421875
3456		-111.328125
3457		-107.421875
3458		-111.328125
3459		-107.421875
3460		-111.328125
3461		-107.421875
3462		-111.328125
3463		-107.421875
3464		-111.328125
3465		-107.421875
3466		-111.328125
3467		-107.421875
3468		-111.328125
3469		-107.421875
3470		-111.328125
3471		-107.421875
3472		-111.328125
3473		-107.421875
3474		-111.328125
3475		-107.421875
3476		-111.328125
3477		-107.421875
3478		-109.375000
3479		-105.468750
3480		-109.375000
3481		-105.468750
3482		-109.375000
3483		-105.468750
3484		-107.421875
3485		-103.515625
3486		-107.421875
3487		-103.515625
3488		-105.468750
3489		-103.515625
3490		-105.468750
3491		-101.562500
3492		-103.515625
3493		-99.609375
3494		-103.515625
3495		-97.656250
3496		-101.562500
3497		-97.656250
3498		-99.609375
3499		-97.656250
3500		-99.609375
3501		-93.750000
3502		-97.656250
3503		-93.750000
3504		-95.703125
3505		-91.796875
3506		-93.750000
3507		-89.843750
3508		-93.750000
3509		-87.890625
3510		-89.843750
3511		-85.937500
3512		-89.843750
3513		-83.984375
3514		-85.937500
3515		-82.031250
3516		-83.984375
3517		-80.078125
3518		-82.031250
3519		-78.125000
3520		-80.078125
3521		-76.171875
3522		-78.125000
3523		-74.218750
3524		-76.171875
3525		-72.265625
3526		-74.218750
3527		-68.359375
3528		-72.265625
3529		-66.406250
3530		-68.359375
3531		-64.453125
3532		-66.406250
3533		-62.500000
3534		-64.453125
3535		-60.546875
3536		-62.500000
3537		-56.640625
3538		-58.593750
3539		-54.687500
3540		-56.640625
3541		-50.781250
3542		-54.687500
3543		-48.828125
3544		-50.781250
3545		-46.875000
3546		-48.828125
3547		-42.968750
3548		-44.921875
3549		-41.015625
3550		-42.968750
3551		-37.109375
3552		-41.015625
3553		-35.156250
3554		-37.109375
3555		-31.250000
3556		-35.156250
3557		-29.296875
3558		-31.250000
3559		-27.343750
3560		-29.296875
3561		-23.437500
3562		-25.390625
3563		-19.531250
3564		-21.484375
3565		-17.578125
3566		-19.531250
3567		-13.671875
3568		-15.625000
3569		-11.718750
3570		-13.671875
3571		-9.765625
3572		-11.718750
3573		-3.906250
3574		-7.812500
3575		-1.953125
3576		-5.859375
3577		0.000000
3578		-1.953125
3579		3.906250
3580		1.953125
3581		5.859375
3582		3.906250
3583		7.812500
3584		5.859375
3585		11.718750
3586		9.765625
3587		15.625000
3588		11.718750
3589		17.578125
3590		15.625000
3591		19.531250
3592		17.578125
3593		23.437500
3594		21.484375
3595		25.390625
3596		23.437500
3597		29.296875
3598		27.343750
3599		31.250000
3600		29.296875
3601		35.156250
3602		33.203125
3603		37.109375
3604		35.156250
3605		39.062500
3606		37.109375
3607		41.015625
3608		41.015625
3609		44.921875
3610		42.968750
3611		46.875000
3612		44.921875
3613		50.781250
3614		46.875000
3615		52.734375
3616		50.781250
3617		54.687500
3618		52.734375
3619		56.640625
3620		54.687500
3621		60.546875
3622		56.640625
3623		62.500000
3624		60.546875
3625		64.453125
3626		62.500000
3627		66.406250
3628		64.453125
3629		68.359375
3630		66.406250
3631		70.312500
3632		68.359375
3633		72.265625
3634		70.312500
3635		74.218750
3636		72.265625
3637		76.171875
3638		74.218750
3639		78.125000
3640		76.171875
3641		80.078125
3642		78.125000
3643		82.031250
3644		80.078125
3645		83.984375
3646		82.031250
3647		85.937500
3648		83.984375
3649		87.890625
3650		85.937500
3651		89.843750
3652		85.937500
3653		89.843750
3654		87.890625
3655		91.796875
3656		89.843750
3657		93.750000
3658		89.843750
3659		95.703125
3660		91.796875
3661		95.703125
3662		93.750000
3663		97.656250
3664		93.750000
3665		97.656250
3666		95.703125
3667		99.609375
3668		97.656250
3669		101.562500
3670		97.656250
3671		101.562500
3672		99.609375
3673		101.562500
3674		99.609375
3675		103.515625
3676		101.562500
3677		103.515625
3678		101.562500
3679		105.468750
3680		101.562500
3681		105.468750
3682		103.515625
3683		105.468750
3684		103.515625
3685		107.421875
3686		103.515625
3687		107.421875
3688		105.468750
3689		107.421875
3690		105.468750
3691		107.421875
3692		105.468750
3693		109.375000
3694		105.468750
3695		109.375000
3696		105.468750
3697		109.375000
3698		105.468750
3699		109.375000
3700		105.468750
3701		109.375000
3702		105.468750
3703		109.375000
3704		105.468750
3705		109.375000
3706		105.468750
3707		109.375000
3708		105.468750
3709		109.375000
3710		105.468750
3711		109.375000
3712		105.468750
3713		107.421875
3714		105.468750
3715		107.421875
3716		103.515625
3717		107.421875
3718		103.515625
3719		107.421875
3720		103.515625
3721		107.421875
3722		101.562500
3723		105.468750
3724		101.562500
3725		105.468750
3726		101.562500
3727		103.515625
3728		99.609375
3729		103.515625
3730		99.609375
3731		103.515625
3732		97.656250
3733		101.562500
3734		95.703125
3735		101.562500
3736		95.703125
3737		99.609375
3738		95.703125
3739		97.656250
3740		91.796875
3741		97.656250
3742		91.796875
3743		95.703125
3744		91.796875
3745		95.703125
3746		87.890625
3747		93.750000
3748		87.890625
3749		91.796875
3750		85.937500
3751		89.843750
3752		83.984375
3753		89.843750
3754		83.984375
3755		87.890625
3756		82.031250
3757		85.937500
3758		80.078125
3759		83.984375
3760		78.125000
3761		82.031250
3762		76.171875
3763		80.078125
3764		74.218750
3765		78.125000
3766		72.265625
3767		76.171875
3768		70.312500
3769		74.218750
3770		68.359375
3771		72.265625
3772		66.406250
3773		70.312500
3774		64.453125
3775		68.359375
3776		62.500000
3777		66.406250
3778		58.593750
3779		64.453125
3780		56.640625
3781		62.500000
3782		54.687500
3783		58.593750
3784		52.734375
3785		56.640625
3786		48.828125
3787		54.687500
3788		46.875000
3789		50.781250
3790		44.921875
3791		48.828125
3792		41.015625
3793		46.875000
3794		39.062500
3795		44.921875
3796		37.109375
3797		41.015625
3798		33.203125
3799		39.062500
3800		31.250000
3801		37.109375
3802		29.296875
3803		33.203125
3804		25.390625
3805		31.250000
3806		23.437500
3807		27.343750
3808		19.531250
3809		25.390625
3810		17.578125
3811		21.484375
3812		13.671875
3813		19.531250
3814		11.718750
3815		15.625000
3816		7.812500
3817		13.671875
3818		5.859375
3819		9.765625
3820		1.953125
3821		7.812500
3822		0.000000
3823		3.906250
3824		-3.906250
3825		1.953125
3826		-5.859375
3827		-1.953125
3828		-9.765625
3829		-3.906250
3830		-13.671875
3831		-7.812500
3832		-15.625000
3833		-9.765625
3834		-17.578125
3835		-13.671875
3836		-21.484375
3837		-15.625000
3838		-23.437500
3839		-19.531250
3840		-27.343750
3841		-21.484375
3842		-29.296875
3843		-25.390625
3844		-33.203125
3845		-27.343750
3846		-35.156250
3847		-31.250000
3848		-37.109375
3849		-33.203125
3850		-41.015625
3851		-37.109375
3852		-44.921875
3853		-39.062500
3854		-46.875000
3855		-41.015625
3856		-50.781250
3857		-44.921875
3858		-50.781250
3859		-46.875000
3860		-54.687500
3861		-48.828125
3862		-56.640625
3863		-52.734375
3864		-60.546875
3865		-54.687500
3866		-62.500000
3867		-56.640625
3868		-64.453125
3869		-60.546875
3870		-68.359375
3871		-62.500000
3872		-70.312500
3873		-64.453125
3874		-72.265625
3875		-68.359375
3876		-74.218750
3877		-70.312500
3878		-76.171875
3879		-72.265625
3880		-80.078125
3881		-74.218750
3882		-80.078125
3883		-76.171875
3884		-82.031250
3885		-78.125000
3886		-83.984375
3887		-80.078125
3888		-87.890625
3889		-82.031250
3890		-89.843750
3891		-83.984375
3892		-89.843750
3893		-85.937500
3894		-91.796875
3895		-87.890625
3896		-93.750000
3897		-89.843750
3898		-95.703125
3899		-91.796875
3900		-97.656250
3901		-93.750000
3902		-97.656250
3903		-95.703125
3904		-99.609375
3905		-95.703125
3906		-101.562500
3907		-95.703125
3908		-103.515625
3909		-99.609375
3910		-103.515625
3911		-99.609375
3912		-105.468750
3913		-101.562500
3914		-105.468750
3915		-101.562500
3916		-105.468750
3917		-103.515625
3918		-107.421875
3919		-103.515625
3920		-107.421875
3921		-103.515625
3922		-109.375000
3923		-105.468750
3924		-111.328125
3925		-105.468750
3926		-109.375000
3927		-107.421875
3928		-109.375000
3929		-107.421875
3930		-111.328125
3931		-107.421875
3932		-111.328125
3933		-107.421875
3934		-111.328125
3935		-107.421875
3936		-111.328125
3937		-107.421875
3938		-111.328125
3939		-107.421875
3940		-111.328125
3941		-107.421875
3942		-111.328125
3943		-107.421875
3944		-111.328125
3945		-107.421875
3946		-111.328125
3947		-107.421875
3948		-109.375000
3949		-105.468750
3950		-109.375000
3951		-105.468750
3952		-107.421875
3953		-105.468750
3954		-107.421875
3955		-103.515625
3956		-107.421875
3957		-103.515625
3958		-105.468750
3959		-103.515625
3960		-105.468750
3961		-101.562500
3962		-103.515625
3963		-99.609375
3964		-103.515625
3965		-99.609375
3966		-101.562500
3967		-97.656250
3968		-99.609375
3969		-97.656250
3970		-99.609375
3971		-95.703125
3972		-97.656250
3973		-93.750000
3974		-95.703125
3975		-91.796875
3976		-93.750000
3977		-89.843750
3978		-93.750000
3979		-89.843750
3980		-91.796875
3981		-87.890625
3982		-89.843750
3983		-85.937500
3984		-87.890625
3985		-83.984375
3986		-85.937500
3987		-82.031250
3988		-83.984375
3989		-80.078125
3990		-82.031250
3991		-78.125000
3992		-80.078125
3993		-76.171875
3994		-78.125000
3995		-72.265625
3996		-76.171875
3997		-70.312500
3998		-72.265625
3999		-68.359375
4000		-70.312500
4001		-66.406250
4002		-68.359375
4003		-64.453125
4004		-66.406250
4005		-60.546875
4006		-62.500000
4007		-58.593750
4008		-60.546875
4009		-54.687500
4010		-58.593750
4011		-52.734375
4012		-54.687500
4013		-50.781250
4014		-52.734375
4015		-48.828125
4016		-50.781250
4017		-44.921875
4018		-46.875000
4019		-42.968750
4020		-44.921875
4021		-39.062500
4022		-41.015625
4023		-37.109375
4024		-39.062500
4025		-33.203125
4026		-37.109375
4027		-31.250000
4028		-33.203125
4029		-27.343750
4030		-29.296875
4031		-25.390625
4032		-27.343750
4033		-21.484375
4034		-23.437500
4035		-19.531250
4036		-21.484375
4037		-15.625000
4038		-19.531250
4039		-13.671875
4040		-15.625000
4041		-9.765625
4042		-11.718750
4043		-7.812500
4044		-9.765625
4045		-3.906250
4046		-5.859375
4047		-1.953125
4048		-3.906250
4049		1.953125
4050		0.000000
4051		3.906250
4052		1.953125
4053		7.812500
4054		5.859375
4055		9.765625
4056		7.812500
4057		11.718750
4058		9.765625
4059		15.625000
4060		13.671875
4061		17.578125
4062		15.625000
4063		21.484375
4064		19.531250
4065		25.390625
4066		21.484375
4067		27.343750
4068		25.390625
4069		29.296875
4070		27.343750
4071		33.203125
4072		29.296875
4073		35.156250
4074		33.203125
4075		37.109375
4076		35.156250
4077		41.015625
4078		37.109375
4079		42.968750
4080		41.015625
4081		46.875000
4082		42.968750
4083		48.828125
4084		44.921875
4085		50.781250
4086		48.828125
4087		52.734375
4088		50.781250
4089		56.640625
4090		52.734375
4091		58.593750
4092		56.640625
4093		60.546875
4094		58.593750
4095		62.500000
4096		60.546875
4097		64.453125
4098		62.500000
4099		66.406250
4100		64.453125
4101		68.359375
4102		68.359375
4103		72.265625
4104		68.359375
4105		74.218750
4106		70.312500
4107		76.171875
4108		74.218750
4109		78.125000
4110		74.218750
4111		80.078125
4112		78.125000
4113		82.031250
4114		78.125000
4115		83.984375
4116		80.078125
4117		83.984375
4118		82.031250
4119		85.937500
4120		83.984375
4121		87.890625
4122		83.984375
4123		89.843750
4124		87.890625
4125		91.796875
4126		87.890625
4127		93.750000
4128		89.843750
4129		93.750000
4130		91.796875
4131		95.703125
4132		91.796875
4133		97.656250
4134		93.750000
4135		97.656250
4136		95.703125
4137		99.609375
4138		95.703125
4139		101.562500
4140		97.656250
4141		101.562500
4142		97.656250
4143		101.562500
4144		99.609375
4145		105.468750
4146		99.609375
4147		103.515625
4148		99.609375
4149		105.468750
4150		101.562500
4151		105.468750
4152		103.515625
4153		105.468750
4154		103.515625
4155		105.468750
4156		103.515625
4157		107.421875
4158		103.515625
4159		107.421875
4160		105.468750
4161		107.421875
4162		105.468750
4163		109.375000
4164		105.468750
4165		109.375000
4166		105.468750
4167		109.375000
4168		105.468750
4169		109.375000
4170		105.468750
4171		109.375000
4172		105.468750
4173		109.375000
4174		105.468750
4175		109.375000
4176		105.468750
4177		109.375000
4178		105.468750
4179		109.375000
4180		105.468750
4181		109.375000
4182		103.515625
4183		109.375000
4184		103.515625
4185		109.375000
4186		103.515625
4187		107.421875
4188		103.515625
4189		107.421875
4190		103.515625
4191		107.421875
4192		101.562500
4193		107.421875
4194		99.609375
4195		105.468750
4196		99.609375
4197		105.468750
4198		99.609375
4199		105.468750
4200		99.609375
4201		103.515625
4202		99.609375
4203		101.562500
4204		97.656250
4205		101.562500
4206		95.703125
4207		101.562500
4208		93.750000
4209		99.609375
4210		93.750000
4211		97.656250
4212		93.750000
4213		97.656250
4214		89.843750
4215		95.703125
4216		89.843750
4217		93.750000
4218		89.843750
4219		93.750000
4220		87.890625
4221		91.796875
4222		85.937500
4223		89.843750
4224		83.984375
4225		89.843750
4226		82.031250
4227		87.890625
4228		80.078125
4229		85.937500
4230		78.125000
4231		83.984375
4232		76.171875
4233		82.031250
4234		74.218750
4235		80.078125
4236		74.218750
4237		78.125000
4238		72.265625
4239		76.171875
4240		70.312500
4241		74.218750
4242		66.406250
4243		72.265625
4244		64.453125
4245		70.312500
4246		62.500000
4247		66.406250
4248		60.546875
4249		64.453125
4250		58.593750
4251		62.500000
4252		56.640625
4253		60.546875
4254		52.734375
4255		58.593750
4256		50.781250
4257		54.687500
4258		48.828125
4259		52.734375
4260		46.875000
4261		50.781250
4262		42.968750
4263		48.828125
4264		41.015625
4265		44.921875
4266		39.062500
4267		42.968750
4268		35.156250
4269		41.015625
4270		33.203125
4271		37.109375
4272		29.296875
4273		35.156250
4274		27.343750
4275		31.250000
4276		25.390625
4277		29.296875
4278		21.484375
4279		27.343750
4280		19.531250
4281		23.437500
4282		15.625000
4283		21.484375
4284		13.671875
4285		17.578125
4286		9.765625
4287		15.625000
4288		7.812500
4289		11.718750
4290		3.906250
4291		9.765625
4292		1.953125
4293		5.859375
4294		-1.953125
4295		3.906250
4296		-3.906250
4297		0.000000
4298		-7.812500
4299		-1.953125
4300		-9.765625
4301		-5.859375
4302		-13.671875
4303		-7.812500
4304		-15.625000
4305		-9.765625
4306		-19.531250
4307		-13.671875
4308		-21.484375
4309		-17.578125
4310		-23.437500
4311		-19.531250
4312		-27.343750
4313		-23.437500
4314		-31.250000
4315		-25.390625
4316		-33.203125
4317		-27.343750
4318		-37.109375
4319		-31.250000
4320		-39.062500
4321		-35.156250
4322		-42.968750
4323		-37.109375
4324		-44.921875
4325		-41.015625
4326		-46.875000
4327		-42.968750
4328		-50.781250
4329		-44.921875
4330		-52.734375
4331		-46.875000
4332		-54.687500
4333		-50.781250
4334		-58.593750
4335		-54.687500
4336		-60.546875
4337		-56.640625
4338		-62.500000
4339		-58.593750
4340		-68.359375
4341		-60.546875
4342		-72.265625
4343		-62.500000
4344		-74.218750
4345		-64.453125
4346		-72.265625
4347		-68.359375
4348		-74.218750
4349		-70.312500
4350		-78.125000
4351		-74.218750
4352		-80.078125
4353		-76.171875
4354		-82.031250
4355		-78.125000
4356		-85.937500
4357		-80.078125
4358		-87.890625
4359		-78.125000
4360		-89.843750
4361		-82.031250
4362		-91.796875
4363		-83.984375
4364		-91.796875
4365		-87.890625
4366		-93.750000
4367		-89.843750
4368		-93.750000
4369		-91.796875
4370		-95.703125
4371		-93.750000
4372		-97.656250
4373		-93.750000
4374		-101.562500
4375		-93.750000
4376		-103.515625
4377		-93.750000
4378		-103.515625
4379		-95.703125
4380		-103.515625
4381		-99.609375
4382		-105.468750
4383		-101.562500
4384		-105.468750
4385		-101.562500
4386		-105.468750
4387		-103.515625
4388		-107.421875
4389		-103.515625
4390		-111.328125
4391		-101.562500
4392		-111.328125
4393		-103.515625
4394		-113.281250
4395		-103.515625
4396		-111.328125
4397		-103.515625
4398		-111.328125
4399		-107.421875
4400		-111.328125
4401		-107.421875
4402		-111.328125
4403		-107.421875
4404		-111.328125
4405		-109.375000
4406		-111.328125
4407		-109.375000
4408		-115.234375
4409		-105.468750
4410		-115.234375
4411		-105.468750
4412		-115.234375
4413		-105.468750
4414		-111.328125
4415		-109.375000
4416		-111.328125
4417		-107.421875
4418		-111.328125
4419		-107.421875
4420		-109.375000
4421		-107.421875
4422		-109.375000
4423		-107.421875
4424		-113.281250
4425		-103.515625
4426		-111.328125
4427		-101.562500
4428		-111.328125
4429		-101.562500
4430		-107.421875
4431		-103.515625
4432		-105.468750
4433		-101.562500
4434		-105.468750
4435		-101.562500
4436		-103.515625
4437		-99.609375
4438		-103.515625
4439		-99.609375
4440		-101.562500
4441		-95.703125
4442		-103.515625
4443		-93.750000
4444		-101.562500
4445		-91.796875
4446		-99.609375
4447		-91.796875
4448		-95.703125
4449		-91.796875
4450		-93.750000
4451		-89.843750
4452		-91.796875
4453		-87.890625
4454		-89.843750
4455		-85.937500
4456		-87.890625
4457		-83.984375
4458		-87.890625
4459		-80.078125
4460		-85.937500
4461		-78.125000
4462		-83.984375
4463		-76.171875
4464		-80.078125
4465		-76.171875
4466		-78.125000
4467		-74.218750
4468		-76.171875
4469		-70.312500
4470		-74.218750
4471		-68.359375
4472		-70.312500
4473		-66.406250
4474		-68.359375
4475		-60.546875
4476		-68.359375
4477		-58.593750
4478		-66.406250
4479		-56.640625
4480		-64.453125
4481		-56.640625
4482		-58.593750
4483		-54.687500
4484		-54.687500
4485		-50.781250
4486		-52.734375
4487		-48.828125
4488		-50.781250
4489		-44.921875
4490		-48.828125
4491		-42.968750
4492		-46.875000
4493		-39.062500
4494		-44.921875
4495		-35.156250
4496		-41.015625
4497		-33.203125
4498		-37.109375
4499		-31.250000
4500		-33.203125
4501		-29.296875
4502		-31.250000
4503		-25.390625
4504		-27.343750
4505		-21.484375
4506		-25.390625
4507		-19.531250
4508		-23.437500
4509		-13.671875
4510		-21.484375
4511		-11.718750
4512		-19.531250
4513		-7.812500
4514		-13.671875
4515		-7.812500
4516		-9.765625
4517		-3.906250
4518		-7.812500
4519		-1.953125
4520		-3.906250
4521		1.953125
4522		0.000000
4523		3.906250
4524		1.953125
4525		7.812500
4526		3.906250
4527		11.718750
4528		7.812500
4529		11.718750
4530		9.765625
4531		15.625000
4532		13.671875
4533		17.578125
4534		15.625000
4535		21.484375
4536		19.531250
4537		23.437500
4538		21.484375
4539		27.343750
4540		25.390625
4541		29.296875
4542		27.343750
4543		31.250000
4544		29.296875
4545		37.109375
4546		33.203125
4547		39.062500
4548		35.156250
4549		41.015625
4550		39.062500
4551		42.968750
4552		41.015625
4553		44.921875
4554		42.968750
4555		46.875000
4556		44.921875
4557		50.781250
4558		48.828125
4559		54.687500
4560		50.781250
4561		56.640625
4562		52.734375
4563		58.593750
4564		56.640625
4565		60.546875
4566		58.593750
4567		62.500000
4568		60.546875
4569		64.453125
4570		62.500000
4571		66.406250
4572		64.453125
4573		68.359375
4574		66.406250
4575		70.312500
4576		68.359375
4577		72.265625
4578		70.312500
4579		74.218750
4580		72.265625
4581		76.171875
4582		76.171875
4583		80.078125
4584		76.171875
4585		80.078125
4586		78.125000
4587		82.031250
4588		80.078125
4589		83.984375
4590		82.031250
4591		85.937500
4592		83.984375
4593		87.890625
4594		85.937500
4595		89.843750
4596		85.937500
4597		89.843750
4598		87.890625
4599		91.796875
4600		89.843750
4601		93.750000
4602		91.796875
4603		95.703125
4604		91.796875
4605		95.703125
4606		93.750000
4607		97.656250
4608		95.703125
4609		97.656250
4610		95.703125
4611		99.609375
4612		97.656250
4613		99.609375
4614		97.656250
4615		101.562500
4616		99.609375
4617		101.562500
4618		99.609375
4619		103.515625
4620		101.562500
4621		103.515625
4622		101.562500
4623		105.468750
4624		101.562500
4625		105.468750
4626		101.562500
4627		105.468750
4628		103.515625
4629		107.421875
4630		103.515625
4631		107.421875
4632		103.515625
4633		107.421875
4634		103.515625
4635		107.421875
4636		105.468750
4637		107.421875
4638		105.468750
4639		107.421875
4640		105.468750
4641		107.421875
4642		103.515625
4643		109.375000
4644		105.468750
4645		109.375000
4646		105.468750
4647		107.421875
4648		105.468750
4649		107.421875
4650		105.468750
4651		109.375000
4652		105.468750
4653		107.421875
4654		105.468750
4655		107.421875
4656		105.468750
4657		107.421875
4658		103.515625
4659		107.421875
4660		103.515625
4661		107.421875
4662		103.515625
4663		107.421875
4664		101.562500
4665		105.468750
4666		101.562500
4667		105.468750
4668		101.562500
4669		105.468750
4670		99.609375
4671		103.515625
4672		99.609375
4673		101.562500
4674		97.656250
4675		101.562500
4676		95.703125
4677		101.562500
4678		95.703125
4679		99.609375
4680		95.703125
4681		99.609375
4682		93.750000
4683		97.656250
4684		91.796875
4685		97.656250
4686		91.796875
4687		95.703125
4688		89.843750
4689		93.750000
4690		87.890625
4691		91.796875
4692		85.937500
4693		91.796875
4694		85.937500
4695		89.843750
4696		83.984375
4697		87.890625
4698		82.031250
4699		85.937500
4700		80.078125
4701		83.984375
4702		78.125000
4703		83.984375
4704		76.171875
4705		80.078125
4706		74.218750
4707		78.125000
4708		72.265625
4709		78.125000
4710		70.312500
4711		76.171875
4712		68.359375
4713		74.218750
4714		66.406250
4715		72.265625
4716		64.453125
4717		68.359375
4718		62.500000
4719		66.406250
4720		60.546875
4721		64.453125
4722		58.593750
4723		62.500000
4724		54.687500
4725		60.546875
4726		52.734375
4727		56.640625
4728		48.828125
4729		54.687500
4730		48.828125
4731		52.734375
4732		44.921875
4733		50.781250
4734		42.968750
4735		48.828125
4736		41.015625
4737		44.921875
4738		37.109375
4739		42.968750
4740		35.156250
4741		39.062500
4742		33.203125
4743		37.109375
4744		29.296875
4745		37.109375
4746		27.343750
4747		31.250000
4748		23.437500
4749		29.296875
4750		21.484375
4751		25.390625
4752		17.578125
4753		23.437500
4754		15.625000
4755		19.531250
4756		11.718750
4757		17.578125
4758		9.765625
4759		13.671875
4760		5.859375
4761		11.718750
4762		1.953125
4763		9.765625
4764		0.000000
4765		5.859375
4766		-1.953125
4767		1.953125
4768		-5.859375
4769		0.000000
4770		-7.812500
4771		-3.906250
4772		-11.718750
4773		-5.859375
4774		-13.671875
4775		-9.765625
4776		-19.531250
4777		-11.718750
4778		-19.531250
4779		-13.671875
4780		-23.437500
4781		-17.578125
4782		-25.390625
4783		-21.484375
4784		-29.296875
4785		-23.437500
4786		-31.250000
4787		-25.390625
4788		-33.203125
4789		-29.296875
4790		-37.109375
4791		-33.203125
4792		-41.015625
4793		-35.156250
4794		-42.968750
4795		-39.062500
4796		-44.921875
4797		-41.015625
4798		-48.828125
4799		-42.968750
4800		-50.781250
4801		-46.875000
4802		-54.687500
4803		-48.828125
4804		-56.640625
4805		-50.781250
4806		-58.593750
4807		-54.687500
4808		-62.500000
4809		-56.640625
4810		-64.453125
4811		-58.593750
4812		-66.406250
4813		-62.500000
4814		-68.359375
4815		-64.453125
4816		-72.265625
4817		-66.406250
4818		-74.218750
4819		-70.312500
4820		-76.171875
4821		-72.265625
4822		-78.125000
4823		-74.218750
4824		-80.078125
4825		-76.171875
4826		-82.031250
4827		-78.125000
4828		-83.984375
4829		-80.078125
4830		-85.937500
4831		-82.031250
4832		-87.890625
4833		-83.984375
4834		-89.843750
4835		-85.937500
4836		-91.796875
4837		-87.890625
4838		-93.750000
4839		-89.843750
4840		-95.703125
4841		-91.796875
4842		-97.656250
4843		-93.750000
4844		-99.609375
4845		-95.703125
4846		-99.609375
4847		-95.703125
4848		-101.562500
4849		-97.656250
4850		-103.515625
4851		-99.609375
4852		-103.515625
4853		-101.562500
4854		-105.468750
4855		-101.562500
4856		-105.468750
4857		-103.515625
4858		-107.421875
4859		-103.515625
4860		-107.421875
4861		-105.468750
4862		-109.375000
4863		-105.468750
4864		-109.375000
4865		-107.421875
4866		-111.328125
4867		-105.468750
4868		-111.328125
4869		-107.421875
4870		-111.328125
4871		-107.421875
4872		-111.328125
4873		-109.375000
4874		-111.328125
4875		-109.375000
4876		-111.328125
4877		-109.375000
4878		-113.281250
4879		-109.375000
4880		-113.281250
4881		-109.375000
4882		-113.281250
4883		-109.375000
4884		-113.281250
4885		-109.375000
4886		-111.328125
4887		-109.375000
4888		-111.328125
4889		-109.375000
4890		-111.328125
4891		-107.421875
4892		-111.328125
4893		-107.421875
4894		-109.375000
4895		-107.421875
4896		-109.375000
4897		-105.468750
4898		-109.375000
4899		-105.468750
4900		-107.421875
4901		-105.468750
4902		-107.421875
4903		-103.515625
4904		-105.468750
4905		-103.515625
4906		-105.468750
4907		-101.562500
4908		-103.515625
4909		-99.609375
4910		-103.515625
4911		-99.609375
4912		-101.562500
4913		-97.656250
4914		-99.609375
4915		-95.703125
4916		-97.656250
4917		-95.703125
4918		-97.656250
4919		-93.750000
4920		-95.703125
4921		-91.796875
4922		-93.750000
4923		-89.843750
4924		-91.796875
4925		-87.890625
4926		-89.843750
4927		-85.937500
4928		-87.890625
4929		-83.984375
4930		-85.937500
4931		-82.031250
4932		-83.984375
4933		-80.078125
4934		-82.031250
4935		-78.125000
4936		-80.078125
4937		-76.171875
4938		-78.125000
4939		-74.218750
4940		-76.171875
4941		-70.312500
4942		-74.218750
4943		-68.359375
4944		-70.312500
4945		-64.453125
4946		-68.359375
4947		-64.453125
4948		-66.406250
4949		-60.546875
4950		-62.500000
4951		-58.593750
4952		-60.546875
4953		-54.687500
4954		-58.593750
4955		-52.734375
4956		-54.687500
4957		-50.781250
4958		-52.734375
4959		-46.875000
4960		-50.781250
4961		-44.921875
4962		-46.875000
4963		-42.968750
4964		-44.921875
4965		-39.062500
4966		-41.015625
4967		-37.109375
4968		-39.062500
4969		-33.203125
4970		-35.156250
4971		-31.250000
4972		-33.203125
4973		-27.343750
4974		-29.296875
4975		-25.390625
4976		-27.343750
4977		-21.484375
4978		-23.437500
4979		-17.578125
4980		-21.484375
4981		-15.625000
4982		-19.531250
4983		-13.671875
4984		-15.625000
4985		-9.765625
4986		-11.718750
4987		-7.812500
4988		-9.765625
4989		-3.906250
4990		-5.859375
4991		-1.953125
4992		-3.906250
4993		1.953125
4994		0.000000
4995		3.906250
4996		0.000000
4997		7.812500
4998		3.906250
4999		9.765625
5000		7.812500
5001		13.671875
5002		11.718750
5003		15.625000
5004		13.671875
5005		19.531250
5006		17.578125
5007		21.484375
5008		19.531250
5009		25.390625
5010		23.437500
5011		27.343750
5012		25.390625
5013		31.250000
5014		27.343750
5015		33.203125
5016		31.250000
5017		35.156250
5018		33.203125
5019		39.062500
5020		37.109375
5021		41.015625
5022		39.062500
5023		42.968750
5024		41.015625
5025		46.875000
5026		44.921875
5027		48.828125
5028		46.875000
5029		50.781250
5030		46.875000
5031		54.687500
5032		50.781250
5033		56.640625
5034		54.687500
5035		58.593750
5036		56.640625
5037		60.546875
5038		58.593750
5039		62.500000
5040		60.546875
5041		64.453125
5042		62.500000
5043		68.359375
5044		64.453125
5045		68.359375
5046		66.406250
5047		72.265625
5048		68.359375
5049		74.218750
5050		72.265625
5051		76.171875
5052		74.218750
5053		78.125000
5054		76.171875
5055		80.078125
5056		78.125000
5057		82.031250
5058		80.078125
5059		83.984375
5060		80.078125
5061		83.984375
5062		82.031250
5063		87.890625
5064		82.031250
5065		89.843750
5066		85.937500
5067		89.843750
5068		87.890625
5069		91.796875
5070		89.843750
5071		91.796875
5072		89.843750
5073		93.750000
5074		91.796875
5075		95.703125
5076		91.796875
5077		95.703125
5078		93.750000
5079		97.656250
5080		93.750000
5081		99.609375
5082		95.703125
5083		101.562500
5084		97.656250
5085		101.562500
5086		97.656250
5087		101.562500
5088		99.609375
5089		103.515625
5090		99.609375
5091		103.515625
5092		101.562500
5093		103.515625
5094		101.562500
5095		105.468750
5096		101.562500
5097		105.468750
5098		101.562500
5099		107.421875
5100		103.515625
5101		107.421875
5102		103.515625
5103		107.421875
5104		105.468750
5105		107.421875
5106		105.468750
5107		107.421875
5108		105.468750
5109		107.421875
5110		105.468750
5111		109.375000
5112		105.468750
5113		107.421875
5114		103.515625
5115		111.328125
5116		103.515625
5117		109.375000
5118		105.468750
5119		107.421875
5120		105.468750
5121		109.375000
5122		105.468750
5123		107.421875
5124		105.468750
5125		107.421875
5126		105.468750
5127		107.421875
5128		103.515625
5129		107.421875
5130		101.562500
5131		107.421875
5132		101.562500
5133		107.421875
5134		103.515625
5135		105.468750
5136		101.562500
5137		105.468750
5138		101.562500
5139		105.468750
5140		101.562500
5141		103.515625
5142		99.609375
5143		103.515625
5144		97.656250
5145		101.562500
5146		97.656250
5147		101.562500
5148		97.656250
5149		101.562500
5150		95.703125
5151		99.609375
5152		95.703125
5153		97.656250
5154		93.750000
5155		97.656250
5156		91.796875
5157		95.703125
5158		91.796875
5159		95.703125
5160		89.843750
5161		93.750000
5162		87.890625
5163		91.796875
5164		85.937500
5165		91.796875
5166		83.984375
5167		89.843750
5168		83.984375
5169		87.890625
5170		82.031250
5171		85.937500
5172		80.078125
5173		83.984375
5174		78.125000
5175		82.031250
5176		76.171875
5177		80.078125
5178		74.218750
5179		78.125000
5180		72.265625
5181		76.171875
5182		70.312500
5183		74.218750
5184		68.359375
5185		72.265625
5186		66.406250
5187		70.312500
5188		64.453125
5189		68.359375
5190		62.500000
5191		66.406250
5192		60.546875
5193		64.453125
5194		56.640625
5195		60.546875
5196		54.687500
5197		58.593750
5198		52.734375
5199		56.640625
5200		50.781250
5201		54.687500
5202		46.875000
5203		50.781250
5204		44.921875
5205		48.828125
5206		42.968750
5207		46.875000
5208		39.062500
5209		44.921875
5210		37.109375
5211		41.015625
5212		33.203125
5213		39.062500
5214		31.250000
5215		37.109375
5216		29.296875
5217		33.203125
5218		25.390625
5219		31.250000
5220		23.437500
5221		29.296875
5222		19.531250
5223		25.390625
5224		17.578125
5225		21.484375
5226		15.625000
5227		19.531250
5228		11.718750
5229		17.578125
5230		7.812500
5231		13.671875
5232		5.859375
5233		9.765625
5234		1.953125
5235		7.812500
5236		0.000000
5237		3.906250
5238		-3.906250
5239		1.953125
5240		-5.859375
5241		-1.953125
5242		-9.765625
5243		-3.906250
5244		-11.718750
5245		-7.812500
5246		-13.671875
5247		-9.765625
5248		-17.578125
5249		-13.671875
5250		-21.484375
5251		-15.625000
5252		-23.437500
5253		-17.578125
5254		-27.343750
5255		-21.484375
5256		-29.296875
5257		-25.390625
5258		-33.203125
5259		-27.343750
5260		-35.156250
5261		-31.250000
5262		-37.109375
5263		-33.203125
5264		-41.015625
5265		-35.156250
5266		-42.968750
5267		-39.062500
5268		-46.875000
5269		-41.015625
5270		-48.828125
5271		-44.921875
5272		-52.734375
5273		-46.875000
5274		-54.687500
5275		-50.781250
5276		-56.640625
5277		-52.734375
5278		-60.546875
5279		-54.687500
5280		-62.500000
5281		-58.593750
5282		-64.453125
5283		-60.546875
5284		-68.359375
5285		-62.500000
5286		-70.312500
5287		-64.453125
5288		-72.265625
5289		-68.359375
5290		-74.218750
5291		-70.312500
5292		-76.171875
5293		-72.265625
5294		-78.125000
5295		-74.218750
5296		-82.031250
5297		-76.171875
5298		-83.984375
5299		-78.125000
5300		-85.937500
5301		-80.078125
5302		-87.890625
5303		-83.984375
5304		-89.843750
5305		-85.937500
5306		-91.796875
5307		-85.937500
5308		-91.796875
5309		-87.890625
5310		-93.750000
5311		-89.843750
5312		-95.703125
5313		-91.796875
5314		-97.656250
5315		-93.750000
5316		-99.609375
5317		-95.703125
5318		-99.609375
5319		-95.703125
5320		-101.562500
5321		-97.656250
5322		-103.515625
5323		-99.609375
5324		-103.515625
5325		-101.562500
5326		-105.468750
5327		-101.562500
5328		-107.421875
5329		-103.515625
5330		-107.421875
5331		-103.515625
5332		-107.421875
5333		-105.468750
5334		-109.375000
5335		-105.468750
5336		-109.375000
5337		-107.421875
5338		-111.328125
5339		-107.421875
5340		-111.328125
5341		-107.421875
5342		-111.328125
5343		-109.375000
5344		-111.328125
5345		-109.375000
5346		-111.328125
5347		-109.375000
5348		-111.328125
5349		-109.375000
5350		-111.328125
5351		-109.375000
5352		-111.328125
5353		-109.375000
5354		-111.328125
5355		-109.375000
5356		-111.328125
5357		-109.375000
5358		-111.328125
5359		-109.375000
5360		-111.328125
5361		-107.421875
5362		-111.328125
5363		-107.421875
5364		-111.328125
5365		-107.421875
5366		-109.375000
5367		-107.421875
5368		-109.375000
5369		-105.468750
5370		-109.375000
5371		-105.468750
5372		-107.421875
5373		-105.468750
5374		-107.421875
5375		-103.515625
5376		-105.468750
5377		-101.562500
5378		-105.468750
5379		-101.562500
5380		-103.515625
5381		-99.609375
5382		-101.562500
5383		-99.609375
5384		-101.562500
5385		-97.656250
5386		-99.609375
5387		-95.703125
5388		-97.656250
5389		-93.750000
5390		-97.656250
5391		-91.796875
5392		-95.703125
5393		-91.796875
5394		-93.750000
5395		-89.843750
5396		-91.796875
5397		-87.890625
5398		-89.843750
5399		-85.937500
5400		-87.890625
5401		-83.984375
5402		-85.937500
5403		-82.031250
5404		-83.984375
5405		-80.078125
5406		-82.031250
5407		-78.125000
5408		-80.078125
5409		-76.171875
5410		-76.171875
5411		-72.265625
5412		-74.218750
5413		-70.312500
5414		-72.265625
5415		-68.359375
5416		-70.312500
5417		-66.406250
5418		-68.359375
5419		-62.500000
5420		-64.453125
5421		-60.546875
5422		-62.500000
5423		-58.593750
5424		-60.546875
5425		-54.687500
5426		-56.640625
5427		-52.734375
5428		-54.687500
5429		-50.781250
5430		-52.734375
5431		-46.875000
5432		-48.828125
5433		-44.921875
5434		-46.875000
5435		-41.015625
5436		-42.968750
5437		-39.062500
5438		-41.015625
5439		-37.109375
5440		-39.062500
5441		-33.203125
5442		-35.156250
5443		-31.250000
5444		-31.250000
5445		-27.343750
5446		-29.296875
5447		-25.390625
5448		-27.343750
5449		-21.484375
5450		-23.437500
5451		-19.531250
5452		-21.484375
5453		-15.625000
5454		-17.578125
5455		-13.671875
5456		-15.625000
5457		-9.765625
5458		-11.718750
5459		-7.812500
5460		-7.812500
5461		-3.906250
5462		-5.859375
5463		-1.953125
5464		-3.906250
5465		1.953125
5466		0.000000
5467		5.859375
5468		3.906250
5469		7.812500
5470		5.859375
5471		11.718750
5472		7.812500
5473		13.671875
5474		11.718750
5475		15.625000
5476		13.671875
5477		19.531250
5478		17.578125
5479		21.484375
5480		19.531250
5481		25.390625
5482		23.437500
5483		27.343750
5484		25.390625
5485		31.250000
5486		29.296875
5487		33.203125
5488		31.250000
5489		35.156250
5490		33.203125
5491		39.062500
5492		37.109375
5493		41.015625
5494		39.062500
5495		42.968750
5496		41.015625
5497		46.875000
5498		44.921875
5499		48.828125
5500		46.875000
5501		50.781250
5502		48.828125
5503		54.687500
5504		52.734375
5505		56.640625
5506		54.687500
5507		58.593750
5508		56.640625
5509		60.546875
5510		58.593750
5511		62.500000
5512		60.546875
5513		64.453125
5514		62.500000
5515		68.359375
5516		66.406250
5517		70.312500
5518		68.359375
5519		72.265625
5520		70.312500
5521		74.218750
5522		72.265625
5523		76.171875
5524		74.218750
5525		78.125000
5526		76.171875
5527		80.078125
5528		78.125000
5529		82.031250
5530		78.125000
5531		82.031250
5532		80.078125
5533		83.984375
5534		82.031250
5535		85.937500
5536		83.984375
5537		87.890625
5538		85.937500
5539		89.843750
5540		87.890625
5541		91.796875
5542		87.890625
5543		91.796875
5544		89.843750
5545		93.750000
5546		91.796875
5547		95.703125
5548		93.750000
5549		95.703125
5550		93.750000
5551		97.656250
5552		95.703125
5553		97.656250
5554		95.703125
5555		99.609375
5556		97.656250
5557		99.609375
5558		97.656250
5559		101.562500
5560		99.609375
5561		101.562500
5562		99.609375
5563		103.515625
5564		101.562500
5565		103.515625
5566		101.562500
5567		103.515625
5568		101.562500
5569		105.468750
5570		103.515625
5571		105.468750
5572		103.515625
5573		105.468750
5574		103.515625
5575		107.421875
5576		103.515625
5577		107.421875
5578		103.515625
5579		107.421875
5580		105.468750
5581		107.421875
5582		105.468750
5583		107.421875
5584		105.468750
5585		107.421875
5586		105.468750
5587		107.421875
5588		105.468750
5589		107.421875
5590		105.468750
5591		107.421875
5592		105.468750
5593		107.421875
5594		105.468750
5595		107.421875
5596		105.468750
5597		107.421875
5598		103.515625
5599		107.421875
5600		103.515625
5601		107.421875
5602		103.515625
5603		105.468750
5604		103.515625
5605		107.421875
5606		101.562500
5607		105.468750
5608		101.562500
5609		103.515625
5610		101.562500
5611		103.515625
5612		99.609375
5613		103.515625
5614		99.609375
5615		101.562500
5616		97.656250
5617		101.562500
5618		97.656250
5619		99.609375
5620		95.703125
5621		99.609375
5622		95.703125
5623		99.609375
5624		93.750000
5625		97.656250
5626		93.750000
5627		97.656250
5628		91.796875
5629		95.703125
5630		89.843750
5631		93.750000
5632		87.890625
5633		91.796875
5634		87.890625
5635		91.796875
5636		85.937500
5637		89.843750
5638		83.984375
5639		87.890625
5640		82.031250
5641		85.937500
5642		80.078125
5643		83.984375
5644		80.078125
5645		82.031250
5646		76.171875
5647		82.031250
5648		76.171875
5649		80.078125
5650		72.265625
5651		78.125000
5652		72.265625
5653		76.171875
5654		68.359375
5655		74.218750
5656		66.406250
5657		72.265625
5658		64.453125
5659		68.359375
5660		62.500000
5661		66.406250
5662		60.546875
5663		64.453125
5664		58.593750
5665		62.500000
5666		56.640625
5667		60.546875
5668		52.734375
5669		58.593750
5670		50.781250
5671		54.687500
5672		48.828125
5673		52.734375
5674		46.875000
5675		50.781250
5676		42.968750
5677		48.828125
5678		41.015625
5679		44.921875
5680		37.109375
5681		42.968750
5682		35.156250
5683		41.015625
5684		33.203125
5685		37.109375
5686		29.296875
5687		35.156250
5688		27.343750
5689		31.250000
5690		23.437500
5691		29.296875
5692		21.484375
5693		25.390625
5694		19.531250
5695		23.437500
5696		15.625000
5697		21.484375
5698		11.718750
5699		17.578125
5700		9.765625
5701		15.625000
5702		7.812500
5703		11.718750
5704		3.906250
5705		9.765625
5706		1.953125
5707		5.859375
5708		-1.953125
5709		3.906250
5710		-3.906250
5711		0.000000
5712		-7.812500
5713		-1.953125
5714		-9.765625
5715		-3.906250
5716		-13.671875
5717		-7.812500
5718		-15.625000
5719		-11.718750
5720		-19.531250
5721		-13.671875
5722		-21.484375
5723		-17.578125
5724		-25.390625
5725		-19.531250
5726		-27.343750
5727		-23.437500
5728		-31.250000
5729		-25.390625
5730		-33.203125
5731		-29.296875
5732		-37.109375
5733		-31.250000
5734		-39.062500
5735		-35.156250
5736		-42.968750
5737		-37.109375
5738		-44.921875
5739		-41.015625
5740		-46.875000
5741		-42.968750
5742		-50.781250
5743		-46.875000
5744		-52.734375
5745		-48.828125
5746		-56.640625
5747		-50.781250
5748		-58.593750
5749		-54.687500
5750		-60.546875
5751		-56.640625
5752		-64.453125
5753		-58.593750
5754		-66.406250
5755		-62.500000
5756		-68.359375
5757		-64.453125
5758		-70.312500
5759		-66.406250
5760		-74.218750
5761		-68.359375
5762		-76.171875
5763		-72.265625
5764		-78.125000
5765		-74.218750
5766		-80.078125
5767		-76.171875
5768		-82.031250
5769		-78.125000
5770		-83.984375
5771		-80.078125
5772		-85.937500
5773		-82.031250
5774		-87.890625
5775		-83.984375
5776		-89.843750
5777		-85.937500
5778		-91.796875
5779		-87.890625
5780		-93.750000
5781		-89.843750
5782		-95.703125
5783		-91.796875
5784		-97.656250
5785		-93.750000
5786		-99.609375
5787		-95.703125
5788		-99.609375
5789		-95.703125
5790		-101.562500
5791		-97.656250
5792		-103.515625
5793		-99.609375
5794		-103.515625
5795		-101.562500
5796		-105.468750
5797		-101.562500
5798		-107.421875
5799		-103.515625
5800		-107.421875
5801		-103.515625
5802		-109.375000
5803		-105.468750
5804		-109.375000
5805		-105.468750
5806		-109.375000
5807		-107.421875
5808		-111.328125
5809		-107.421875
5810		-111.328125
5811		-107.421875
5812		-111.328125
5813		-109.375000
5814		-111.328125
5815		-109.375000
5816		-113.281250
5817		-109.375000
5818		-113.281250
5819		-109.375000
5820		-113.281250
5821		-109.375000
5822		-113.281250
5823		-109.375000
5824		-113.281250
5825		-109.375000
5826		-113.281250
5827		-109.375000
5828		-113.281250
5829		-109.375000
5830		-113.281250
5831		-109.375000
5832		-113.281250
5833		-109.375000
5834		-111.328125
5835		-109.375000
5836		-111.328125
5837		-107.421875
5838		-111.328125
5839		-107.421875
5840		-109.375000
5841		-107.421875
5842		-109.375000
5843		-105.468750
5844		-107.421875
5845		-105.468750
5846		-107.421875
5847		-103.515625
5848		-105.468750
5849		-103.515625
5850		-105.468750
5851		-101.562500
5852		-103.515625
5853		-101.562500
5854		-103.515625
5855		-99.609375
5856		-101.562500
5857		-97.656250
5858		-99.609375
5859		-95.703125
5860		-99.609375
5861		-95.703125
5862		-97.656250
5863		-93.750000
5864		-95.703125
5865		-91.796875
5866		-93.750000
5867		-89.843750
5868		-91.796875
5869		-87.890625
5870		-89.843750
5871		-85.937500
5872		-87.890625
5873		-83.984375
5874		-85.937500
5875		-82.031250
5876		-83.984375
5877		-80.078125
5878		-82.031250
5879		-78.125000
5880		-80.078125
5881		-76.171875
5882		-78.125000
5883		-72.265625
5884		-76.171875
5885		-70.312500
5886		-72.265625
5887		-68.359375
5888		-70.312500
5889		-66.406250
5890		-68.359375
5891		-64.453125
5892		-66.406250
5893		-60.546875
5894		-62.500000
5895		-58.593750
5896		-60.546875
5897		-54.687500
5898		-58.593750
5899		-52.734375
5900		-54.687500
5901		-50.781250
5902		-52.734375
5903		-46.875000
5904		-48.828125
5905		-44.921875
5906		-46.875000
5907		-42.968750
5908		-44.921875
5909		-39.062500
5910		-41.015625
5911		-37.109375
5912		-39.062500
5913		-33.203125
5914		-35.156250
5915		-31.250000
5916		-33.203125
5917		-27.343750
5918		-29.296875
5919		-25.390625
5920		-27.343750
5921		-21.484375
5922		-23.437500
5923		-17.578125
5924		-21.484375
5925		-15.625000
5926		-17.578125
5927		-13.671875
5928		-15.625000
5929		-9.765625
5930		-11.718750
5931		-7.812500
5932		-9.765625
5933		-3.906250
5934		-5.859375
5935		-1.953125
5936		-1.953125
5937		1.953125
5938		0.000000
5939		5.859375
5940		1.953125
5941		7.812500
5942		5.859375
5943		9.765625
5944		7.812500
5945		13.671875
5946		11.718750
5947		15.625000
5948		15.625000
5949		19.531250
5950		17.578125
5951		21.484375
5952		19.531250
5953		25.390625
5954		23.437500
5955		27.343750
5956		25.390625
5957		31.250000
5958		29.296875
5959		33.203125
5960		31.250000
5961		37.109375
5962		33.203125
5963		39.062500
5964		37.109375
5965		41.015625
5966		39.062500
5967		42.968750
5968		41.015625
5969		46.875000
5970		44.921875
5971		48.828125
5972		46.875000
5973		50.781250
5974		48.828125
5975		54.687500
5976		50.781250
5977		56.640625
5978		54.687500
5979		58.593750
5980		56.640625
5981		60.546875
5982		58.593750
5983		62.500000
5984		60.546875
5985		64.453125
5986		62.500000
5987		66.406250
5988		64.453125
5989		70.312500
5990		68.359375
5991		72.265625
5992		68.359375
5993		74.218750
5994		72.265625
5995		76.171875
5996		72.265625
5997		78.125000
5998		76.171875
5999		78.125000
6000		78.125000
6001		82.031250
6002		78.125000
6003		82.031250
6004		80.078125
6005		83.984375
6006		82.031250
6007		85.937500
6008		82.031250
6009		87.890625
6010		85.937500
6011		89.843750
6012		85.937500
6013		91.796875
6014		87.890625
6015		91.796875
6016		87.890625
6017		93.750000
6018		91.796875
6019		93.750000
6020		91.796875
6021		95.703125
6022		91.796875
6023		97.656250
6024		93.750000
6025		99.609375
6026		95.703125
6027		99.609375
6028		95.703125
6029		101.562500
6030		95.703125
6031		101.562500
6032		95.703125
6033		105.468750
6034		99.609375
6035		103.515625
6036		99.609375
6037		103.515625
6038		99.609375
6039		105.468750
6040		99.609375
6041		105.468750
6042		101.562500
6043		105.468750
6044		101.562500
6045		105.468750
6046		101.562500
6047		107.421875
6048		103.515625
6049		105.468750
6050		101.562500
6051		109.375000
6052		103.515625
6053		107.421875
6054		103.515625
6055		107.421875
6056		101.562500
6057		109.375000
6058		101.562500
6059		109.375000
6060		103.515625
6061		107.421875
6062		103.515625
6063		107.421875
6064		103.515625
6065		107.421875
6066		103.515625
6067		107.421875
6068		103.515625
6069		107.421875
6070		103.515625
6071		105.468750
6072		101.562500
6073		107.421875
6074		99.609375
6075		107.421875
6076		101.562500
6077		105.468750
6078		101.562500
6079		105.468750
6080		97.656250
6081		105.468750
6082		99.609375
6083		103.515625
6084		97.656250
6085		103.515625
6086		97.656250
6087		101.562500
6088		95.703125
6089		101.562500
6090		93.750000
6091		101.562500
6092		93.750000
6093		99.609375
6094		93.750000
6095		97.656250
6096		89.843750
6097		97.656250
6098		89.843750
6099		97.656250
6100		87.890625
6101		95.703125
6102		89.843750
6103		93.750000
6104		87.890625
6105		91.796875
6106		83.984375
6107		89.843750
6108		82.031250
6109		89.843750
6110		83.984375
6111		87.890625
6112		82.031250
6113		83.984375
6114		76.171875
6115		85.937500
6116		74.218750
6117		82.031250
6118		76.171875
6119		80.078125
6120		74.218750
6121		78.125000
6122		70.312500
6123		76.171875
6124		68.359375
6125		76.171875
6126		68.359375
6127		72.265625
6128		66.406250
6129		70.312500
6130		60.546875
6131		68.359375
6132		60.546875
6133		70.312500
6134		56.640625
6135		66.406250
6136		56.640625
6137		60.546875
6138		52.734375
6139		58.593750
6140		48.828125
6141		58.593750
6142		48.828125
6143		56.640625
6144		46.875000
6145		50.781250
6146		44.921875
6147		48.828125
6148		39.062500
6149		48.828125
6150		37.109375
6151		44.921875
6152		37.109375
6153		41.015625
6154		33.203125
6155		39.062500
6156		31.250000
6157		35.156250
6158		27.343750
6159		35.156250
6160		25.390625
6161		31.250000
6162		23.437500
6163		27.343750
6164		17.578125
6165		27.343750
6166		17.578125
6167		25.390625
6168		13.671875
6169		21.484375
6170		11.718750
6171		15.625000
6172		7.812500
6173		13.671875
6174		3.906250
6175		11.718750
6176		1.953125
6177		7.812500
6178		0.000000
6179		3.906250
6180		-5.859375
6181		1.953125
6182		-7.812500
6183		1.953125
6184		-9.765625
6185		-3.906250
6186		-11.718750
6187		-7.812500
6188		-15.625000
6189		-9.765625
6190		-19.531250
6191		-13.671875
6192		-23.437500
6193		-13.671875
6194		-23.437500
6195		-19.531250
6196		-27.343750
6197		-21.484375
6198		-31.250000
6199		-23.437500
6200		-35.156250
6201		-27.343750
6202		-35.156250
6203		-31.250000
6204		-39.062500
6205		-33.203125
6206		-42.968750
6207		-37.109375
6208		-46.875000
6209		-37.109375
6210		-46.875000
6211		-42.968750
6212		-50.781250
6213		-44.921875
6214		-54.687500
6215		-46.875000
6216		-56.640625
6217		-46.875000
6218		-56.640625
6219		-52.734375
6220		-60.546875
6221		-54.687500
6222		-64.453125
6223		-58.593750
6224		-68.359375
6225		-60.546875
6226		-68.359375
6227		-60.546875
6228		-70.312500
6229		-66.406250
6230		-74.218750
6231		-68.359375
6232		-76.171875
6233		-68.359375
6234		-78.125000
6235		-72.265625
6236		-80.078125
6237		-76.171875
6238		-82.031250
6239		-78.125000
6240		-83.984375
6241		-80.078125
6242		-85.937500
6243		-82.031250
6244		-87.890625
6245		-82.031250
6246		-89.843750
6247		-85.937500
6248		-95.703125
6249		-85.937500
6250		-95.703125
6251		-85.937500
6252		-95.703125
6253		-89.843750
6254		-97.656250
6255		-93.750000
6256		-99.609375
6257		-95.703125
6258		-103.515625
6259		-95.703125
6260		-103.515625
6261		-97.656250
6262		-103.515625
6263		-99.609375
6264		-105.468750
6265		-101.562500
6266		-105.468750
6267		-101.562500
6268		-109.375000
6269		-101.562500
6270		-107.421875
6271		-105.468750
6272		-109.375000
6273		-105.468750
6274		-109.375000
6275		-107.421875
6276		-113.281250
6277		-105.468750
6278		-113.281250
6279		-105.468750
6280		-113.281250
6281		-109.375000
6282		-113.281250
6283		-107.421875
6284		-113.281250
6285		-109.375000
6286		-113.281250
6287		-111.328125
6288		-113.281250
6289		-111.328125
6290		-113.281250
6291		-111.328125
6292		-113.281250
6293		-111.328125
6294		-115.234375
6295		-111.328125
6296		-113.281250
6297		-111.328125
6298		-115.234375
6299		-109.375000
6300		-113.281250
6301		-111.328125
6302		-113.281250
6303		-111.328125
6304		-113.281250
6305		-111.328125
6306		-113.281250
6307		-109.375000
6308		-113.281250
6309		-109.375000
6310		-111.328125
6311		-109.375000
6312		-111.328125
6313		-107.421875
6314		-111.328125
6315		-107.421875
6316		-109.375000
6317		-105.468750
6318		-107.421875
6319		-103.515625
6320		-107.421875
6321		-103.515625
6322		-105.468750
6323		-103.515625
6324		-105.468750
6325		-101.562500
6326		-103.515625
6327		-99.609375
6328		-103.515625
6329		-99.609375
6330		-101.562500
6331		-97.656250
6332		-99.609375
6333		-95.703125
6334		-97.656250
6335		-93.750000
6336		-97.656250
6337		-91.796875
6338		-93.750000
6339		-89.843750
6340		-91.796875
6341		-87.890625
6342		-91.796875
6343		-85.937500
6344		-89.843750
6345		-83.984375
6346		-87.890625
6347		-82.031250
6348		-85.937500
6349		-80.078125
6350		-83.984375
6351		-78.125000
6352		-82.031250
6353		-76.171875
6354		-78.125000
6355		-74.218750
6356		-76.171875
6357		-72.265625
6358		-74.218750
6359		-68.359375
6360		-70.312500
6361		-66.406250
6362		-70.312500
6363		-62.500000
6364		-68.359375
6365		-60.546875
6366		-64.453125
6367		-58.593750
6368		-60.546875
6369		-56.640625
6370		-58.593750
6371		-52.734375
6372		-54.687500
6373		-50.781250
6374		-52.734375
6375		-46.875000
6376		-50.781250
6377		-44.921875
6378		-48.828125
6379		-42.968750
6380		-44.921875
6381		-39.062500
6382		-41.015625
6383		-35.156250
6384		-39.062500
6385		-33.203125
6386		-37.109375
6387		-31.250000
6388		-33.203125
6389		-27.343750
6390		-29.296875
6391		-25.390625
6392		-27.343750
6393		-21.484375
6394		-25.390625
6395		-17.578125
6396		-21.484375
6397		-15.625000
6398		-19.531250
6399		-13.671875
6400		-15.625000
6401		-9.765625
6402		-13.671875
6403		-5.859375
6404		-9.765625
6405		-3.906250
6406		-5.859375
6407		-1.953125
6408		-3.906250
6409		1.953125
6410		0.000000
6411		5.859375
6412		1.953125
6413		7.812500
6414		3.906250
6415		11.718750
6416		7.812500
6417		13.671875
6418		11.718750
6419		17.578125
6420		13.671875
6421		19.531250
6422		17.578125
6423		21.484375
6424		19.531250
6425		25.390625
6426		21.484375
6427		29.296875
6428		25.390625
6429		29.296875
6430		27.343750
6431		35.156250
6432		31.250000
6433		35.156250
6434		33.203125
6435		39.062500
6436		35.156250
6437		41.015625
6438		39.062500
6439		42.968750
6440		41.015625
6441		44.921875
6442		42.968750
6443		48.828125
6444		46.875000
6445		50.781250
6446		48.828125
6447		54.687500
6448		50.781250
6449		56.640625
6450		52.734375
6451		58.593750
6452		56.640625
6453		62.500000
6454		56.640625
6455		62.500000
6456		60.546875
6457		64.453125
6458		62.500000
6459		68.359375
6460		64.453125
6461		68.359375
6462		66.406250
6463		72.265625
6464		68.359375
6465		74.218750
6466		70.312500
6467		76.171875
6468		72.265625
6469		76.171875
6470		74.218750
6471		78.125000
6472		76.171875
6473		80.078125
6474		78.125000
6475		82.031250
6476		80.078125
6477		83.984375
6478		82.031250
6479		85.937500
6480		83.984375
6481		87.890625
6482		83.984375
6483		87.890625
6484		85.937500
6485		89.843750
6486		87.890625
6487		91.796875
6488		89.843750
6489		93.750000
6490		89.843750
6491		93.750000
6492		91.796875
6493		95.703125
6494		91.796875
6495		97.656250
6496		93.750000
6497		97.656250
6498		93.750000
6499		99.609375
6500		95.703125
6501		99.609375
6502		97.656250
6503		99.609375
6504		97.656250
6505		101.562500
6506		99.609375
6507		101.562500
6508		99.609375
6509		103.515625
6510		99.609375
6511		103.515625
6512		101.562500
6513		103.515625
6514		101.562500
6515		105.468750
6516		101.562500
6517		105.468750
6518		101.562500
6519		105.468750
6520		101.562500
6521		107.421875
6522		103.515625
6523		105.468750
6524		103.515625
6525		105.468750
6526		103.515625
6527		107.421875
6528		103.515625
6529		105.468750
6530		103.515625
6531		107.421875
6532		103.515625
6533		107.421875
6534		103.515625
6535		107.421875
6536		103.515625
6537		107.421875
6538		103.515625
6539		105.468750
6540		103.515625
6541		105.468750
6542		101.562500
6543		105.468750
6544		101.562500
6545		105.468750
6546		101.562500
6547		105.468750
6548		99.609375
6549		105.468750
6550		99.609375
6551		103.515625
6552		99.609375
6553		103.515625
6554		97.656250
6555		101.562500
6556		97.656250
6557		101.562500
6558		97.656250
6559		99.609375
6560		95.703125
6561		99.609375
6562		95.703125
6563		97.656250
6564		93.750000
6565		97.656250
6566		93.750000
6567		97.656250
6568		91.796875
6569		95.703125
6570		89.843750
6571		93.750000
6572		89.843750
6573		93.750000
6574		87.890625
6575		91.796875
6576		85.937500
6577		89.843750
6578		83.984375
6579		87.890625
6580		83.984375
6581		87.890625
6582		80.078125
6583		85.937500
6584		80.078125
6585		83.984375
6586		78.125000
6587		82.031250
6588		76.171875
6589		80.078125
6590		74.218750
6591		78.125000
6592		72.265625
6593		76.171875
6594		70.312500
6595		74.218750
6596		68.359375
6597		72.265625
6598		66.406250
6599		70.312500
6600		64.453125
6601		68.359375
6602		62.500000
6603		66.406250
6604		58.593750
6605		64.453125
6606		56.640625
6607		62.500000
6608		54.687500
6609		60.546875
6610		52.734375
6611		56.640625
6612		50.781250
6613		54.687500
6614		46.875000
6615		52.734375
6616		44.921875
6617		48.828125
6618		42.968750
6619		46.875000
6620		41.015625
6621		44.921875
6622		37.109375
6623		42.968750
6624		35.156250
6625		39.062500
6626		31.250000
6627		37.109375
6628		29.296875
6629		35.156250
6630		27.343750
6631		31.250000
6632		23.437500
6633		29.296875
6634		19.531250
6635		25.390625
6636		17.578125
6637		23.437500
6638		15.625000
6639		19.531250
6640		11.718750
6641		17.578125
6642		9.765625
6643		15.625000
6644		5.859375
6645		11.718750
6646		3.906250
6647		7.812500
6648		0.000000
6649		5.859375
6650		-1.953125
6651		1.953125
6652		-5.859375
6653		0.000000
6654		-7.812500
6655		-3.906250
6656		-11.718750
6657		-5.859375
6658		-13.671875
6659		-9.765625
6660		-17.578125
6661		-11.718750
6662		-19.531250
6663		-15.625000
6664		-23.437500
6665		-17.578125
6666		-25.390625
6667		-19.531250
6668		-29.296875
6669		-23.437500
6670		-31.250000
6671		-27.343750
6672		-35.156250
6673		-29.296875
6674		-37.109375
6675		-33.203125
6676		-41.015625
6677		-35.156250
6678		-42.968750
6679		-39.062500
6680		-44.921875
6681		-41.015625
6682		-48.828125
6683		-44.921875
6684		-50.781250
6685		-46.875000
6686		-54.687500
6687		-48.828125
6688		-58.593750
6689		-52.734375
6690		-58.593750
6691		-54.687500
6692		-62.500000
6693		-58.593750
6694		-64.453125
6695		-60.546875
6696		-68.359375
6697		-62.500000
6698		-70.312500
6699		-64.453125
6700		-72.265625
6701		-68.359375
6702		-74.218750
6703		-70.312500
6704		-76.171875
6705		-72.265625
6706		-80.078125
6707		-74.218750
6708		-82.031250
6709		-78.125000
6710		-83.984375
6711		-80.078125
6712		-85.937500
6713		-82.031250
6714		-87.890625
6715		-83.984375
6716		-89.843750
6717		-85.937500
6718		-91.796875
6719		-87.890625
6720		-93.750000
6721		-89.843750
6722		-95.703125
6723		-91.796875
6724		-97.656250
6725		-93.750000
6726		-99.609375
6727		-95.703125
6728		-101.562500
6729		-95.703125
6730		-101.562500
6731		-97.656250
6732		-103.515625
6733		-99.609375
6734		-105.468750
6735		-101.562500
6736		-105.468750
6737		-101.562500
6738		-107.421875
6739		-103.515625
6740		-107.421875
6741		-103.515625
6742		-109.375000
6743		-105.468750
6744		-109.375000
6745		-107.421875
6746		-111.328125
6747		-107.421875
6748		-113.281250
6749		-109.375000
6750		-113.281250
6751		-109.375000
6752		-113.281250
6753		-109.375000
6754		-113.281250
6755		-111.328125
6756		-115.234375
6757		-111.328125
6758		-115.234375
6759		-111.328125
6760		-115.234375
6761		-111.328125
6762		-115.234375
6763		-111.328125
6764		-115.234375
6765		-113.281250
6766		-115.234375
6767		-111.328125
6768		-115.234375
6769		-111.328125
6770		-115.234375
6771		-111.328125
6772		-115.234375
6773		-111.328125
6774		-115.234375
6775		-111.328125
6776		-113.281250
6777		-111.328125
6778		-115.234375
6779		-109.375000
6780		-113.281250
6781		-109.375000
6782		-113.281250
6783		-109.375000
6784		-111.328125
6785		-109.375000
6786		-111.328125
6787		-107.421875
6788		-109.375000
6789		-107.421875
6790		-109.375000
6791		-105.468750
6792		-107.421875
6793		-105.468750
6794		-107.421875
6795		-103.515625
6796		-105.468750
6797		-101.562500
6798		-105.468750
6799		-101.562500
6800		-103.515625
6801		-99.609375
6802		-101.562500
6803		-97.656250
6804		-99.609375
6805		-95.703125
6806		-99.609375
6807		-93.750000
6808		-97.656250
6809		-93.750000
6810		-95.703125
6811		-91.796875
6812		-93.750000
6813		-89.843750
6814		-91.796875
6815		-87.890625
6816		-89.843750
6817		-85.937500
6818		-87.890625
6819		-83.984375
6820		-85.937500
6821		-82.031250
6822		-83.984375
6823		-80.078125
6824		-82.031250
6825		-76.171875
6826		-78.125000
6827		-74.218750
6828		-76.171875
6829		-72.265625
6830		-74.218750
6831		-68.359375
6832		-72.265625
6833		-66.406250
6834		-70.312500
6835		-64.453125
6836		-66.406250
6837		-62.500000
6838		-64.453125
6839		-58.593750
6840		-60.546875
6841		-56.640625
6842		-58.593750
6843		-54.687500
6844		-56.640625
6845		-48.828125
6846		-52.734375
6847		-48.828125
6848		-50.781250
6849		-44.921875
6850		-46.875000
6851		-41.015625
6852		-44.921875
6853		-39.062500
6854		-41.015625
6855		-37.109375
6856		-39.062500
6857		-33.203125
6858		-35.156250
6859		-31.250000
6860		-33.203125
6861		-29.296875
6862		-29.296875
6863		-25.390625
6864		-27.343750
6865		-21.484375
6866		-23.437500
6867		-19.531250
6868		-21.484375
6869		-15.625000
6870		-17.578125
6871		-13.671875
6872		-15.625000
6873		-9.765625
6874		-13.671875
6875		-7.812500
6876		-9.765625
6877		-3.906250
6878		-5.859375
6879		-1.953125
6880		-3.906250
6881		1.953125
6882		0.000000
6883		3.906250
6884		1.953125
6885		7.812500
6886		5.859375
6887		9.765625
6888		7.812500
6889		13.671875
6890		11.718750
6891		15.625000
6892		13.671875
6893		17.578125
6894		17.578125
6895		21.484375
6896		19.531250
6897		25.390625
6898		21.484375
6899		27.343750
6900		25.390625
6901		29.296875
6902		27.343750
6903		33.203125
6904		31.250000
6905		35.156250
6906		33.203125
6907		39.062500
6908		37.109375
6909		41.015625
6910		39.062500
6911		42.968750
6912		41.015625
6913		46.875000
6914		42.968750
6915		48.828125
6916		46.875000
6917		50.781250
6918		48.828125
6919		52.734375
6920		50.781250
6921		54.687500
6922		52.734375
6923		58.593750
6924		56.640625
6925		60.546875
6926		58.593750
6927		62.500000
6928		60.546875
6929		66.406250
6930		62.500000
6931		66.406250
6932		64.453125
6933		68.359375
6934		66.406250
6935		70.312500
6936		68.359375
6937		72.265625
6938		70.312500
6939		74.218750
6940		72.265625
6941		76.171875
6942		74.218750
6943		78.125000
6944		76.171875
6945		80.078125
6946		78.125000
6947		82.031250
6948		80.078125
6949		83.984375
6950		82.031250
6951		85.937500
6952		82.031250
6953		87.890625
6954		83.984375
6955		87.890625
6956		85.937500
6957		89.843750
6958		87.890625
6959		91.796875
6960		87.890625
6961		91.796875
6962		89.843750
6963		93.750000
6964		91.796875
6965		95.703125
6966		93.750000
6967		95.703125
6968		93.750000
6969		97.656250
6970		93.750000
6971		97.656250
6972		95.703125
6973		99.609375
6974		95.703125
6975		101.562500
6976		97.656250
6977		101.562500
6978		97.656250
6979		101.562500
6980		97.656250
6981		103.515625
6982		99.609375
6983		103.515625
6984		99.609375
6985		103.515625
6986		101.562500
6987		105.468750
6988		101.562500
6989		105.468750
6990		101.562500
6991		105.468750
6992		101.562500
6993		105.468750
6994		101.562500
6995		105.468750
6996		103.515625
6997		105.468750
6998		103.515625
6999		105.468750
7000		103.515625
7001		105.468750
7002		103.515625
7003		105.468750
7004		101.562500
7005		105.468750
7006		101.562500
7007		105.468750
7008		101.562500
7009		105.468750
7010		101.562500
7011		105.468750
7012		101.562500
7013		105.468750
7014		101.562500
7015		105.468750
7016		101.562500
7017		103.515625
7018		101.562500
7019		103.515625
7020		99.609375
7021		103.515625
7022		99.609375
7023		103.515625
7024		97.656250
7025		101.562500
7026		97.656250
7027		101.562500
7028		97.656250
7029		99.609375
7030		95.703125
7031		99.609375
7032		95.703125
7033		99.609375
7034		93.750000
7035		97.656250
7036		93.750000
7037		95.703125
7038		91.796875
7039		95.703125
7040		89.843750
7041		93.750000
7042		89.843750
7043		93.750000
7044		87.890625
7045		91.796875
7046		85.937500
7047		89.843750
7048		85.937500
7049		89.843750
7050		83.984375
7051		87.890625
7052		82.031250
7053		85.937500
7054		80.078125
7055		83.984375
7056		80.078125
7057		82.031250
7058		76.171875
7059		82.031250
7060		76.171875
7061		78.125000
7062		74.218750
7063		78.125000
7064		70.312500
7065		76.171875
7066		68.359375
7067		74.218750
7068		68.359375
7069		72.265625
7070		64.453125
7071		70.312500
7072		62.500000
7073		68.359375
7074		60.546875
7075		66.406250
7076		58.593750
7077		62.500000
7078		56.640625
7079		60.546875
7080		54.687500
7081		58.593750
7082		50.781250
7083		56.640625
7084		48.828125
7085		54.687500
7086		46.875000
7087		50.781250
7088		44.921875
7089		48.828125
7090		41.015625
7091		44.921875
7092		39.062500
7093		42.968750
7094		37.109375
7095		41.015625
7096		33.203125
7097		39.062500
7098		31.250000
7099		37.109375
7100		27.343750
7101		33.203125
7102		25.390625
7103		29.296875
7104		21.484375
7105		27.343750
7106		19.531250
7107		25.390625
7108		15.625000
7109		21.484375
7110		13.671875
7111		19.531250
7112		11.718750
7113		15.625000
7114		7.812500
7115		13.671875
7116		3.906250
7117		9.765625
7118		1.953125
7119		7.812500
7120		0.000000
7121		3.906250
7122		-3.906250
7123		1.953125
7124		-5.859375
7125		-1.953125
7126		-9.765625
7127		-3.906250
7128		-11.718750
7129		-7.812500
7130		-15.625000
7131		-9.765625
7132		-17.578125
7133		-13.671875
7134		-21.484375
7135		-15.625000
7136		-23.437500
7137		-19.531250
7138		-27.343750
7139		-21.484375
7140		-29.296875
7141		-25.390625
7142		-33.203125
7143		-27.343750
7144		-35.156250
7145		-31.250000
7146		-39.062500
7147		-33.203125
7148		-41.015625
7149		-37.109375
7150		-44.921875
7151		-39.062500
7152		-46.875000
7153		-42.968750
7154		-50.781250
7155		-44.921875
7156		-52.734375
7157		-48.828125
7158		-56.640625
7159		-50.781250
7160		-58.593750
7161		-52.734375
7162		-60.546875
7163		-56.640625
7164		-64.453125
7165		-58.593750
7166		-66.406250
7167		-60.546875
7168		-68.359375
7169		-64.453125
7170		-70.312500
7171		-66.406250
7172		-74.218750
7173		-68.359375
7174		-76.171875
7175		-70.312500
7176		-78.125000
7177		-74.218750
7178		-80.078125
7179		-76.171875
7180		-82.031250
7181		-78.125000
7182		-83.984375
7183		-80.078125
7184		-85.937500
7185		-82.031250
7186		-87.890625
7187		-83.984375
7188		-89.843750
7189		-85.937500
7190		-91.796875
7191		-89.843750
7192		-93.750000
7193		-89.843750
7194		-95.703125
7195		-91.796875
7196		-97.656250
7197		-93.750000
7198		-99.609375
7199		-95.703125
7200		-101.562500
7201		-97.656250
7202		-103.515625
7203		-99.609375
7204		-103.515625
7205		-99.609375
7206		-105.468750
7207		-101.562500
7208		-107.421875
7209		-103.515625
7210		-107.421875
7211		-105.468750
7212		-109.375000
7213		-105.468750
7214		-111.328125
7215		-107.421875
7216		-111.328125
7217		-107.421875
7218		-111.328125
7219		-109.375000
7220		-113.281250
7221		-109.375000
7222		-113.281250
7223		-109.375000
7224		-113.281250
7225		-111.328125
7226		-115.234375
7227		-111.328125
7228		-115.234375
7229		-111.328125
7230		-115.234375
7231		-113.281250
7232		-115.234375
7233		-111.328125
7234		-115.234375
7235		-113.281250
7236		-115.234375
7237		-113.281250
7238		-115.234375
7239		-113.281250
7240		-117.187500
7241		-113.281250
7242		-117.187500
7243		-113.281250
7244		-115.234375
7245		-111.328125
7246		-115.234375
7247		-113.281250
7248		-115.234375
7249		-111.328125
7250		-115.234375
7251		-111.328125
7252		-113.281250
7253		-111.328125
7254		-113.281250
7255		-109.375000
7256		-113.281250
7257		-109.375000
7258		-111.328125
7259		-107.421875
7260		-111.328125
7261		-107.421875
7262		-109.375000
7263		-107.421875
7264		-107.421875
7265		-105.468750
7266		-107.421875
7267		-103.515625
7268		-105.468750
7269		-101.562500
7270		-105.468750
7271		-101.562500
7272		-103.515625
7273		-99.609375
7274		-101.562500
7275		-97.656250
7276		-99.609375
7277		-95.703125
7278		-99.609375
7279		-95.703125
7280		-97.656250
7281		-93.750000
7282		-95.703125
7283		-91.796875
7284		-93.750000
7285		-87.890625
7286		-91.796875
7287		-87.890625
7288		-89.843750
7289		-83.984375
7290		-87.890625
7291		-83.984375
7292		-85.937500
7293		-82.031250
7294		-83.984375
7295		-78.125000
7296		-80.078125
7297		-76.171875
7298		-78.125000
7299		-74.218750
7300		-76.171875
7301		-72.265625
7302		-74.218750
7303		-70.312500
7304		-70.312500
7305		-66.406250
7306		-70.312500
7307		-64.453125
7308		-66.406250
7309		-62.500000
7310		-64.453125
7311		-58.593750
7312		-60.546875
7313		-56.640625
7314		-58.593750
7315		-52.734375
7316		-56.640625
7317		-50.781250
7318		-52.734375
7319		-48.828125
7320		-50.781250
7321		-44.921875
7322		-46.875000
7323		-42.968750
7324		-44.921875
7325		-39.062500
7326		-41.015625
7327		-37.109375
7328		-39.062500
7329		-33.203125
7330		-35.156250
7331		-31.250000
7332		-33.203125
7333		-27.343750
7334		-29.296875
7335		-25.390625
7336		-27.343750
7337		-21.484375
7338		-23.437500
7339		-19.531250
7340		-21.484375
7341		-15.625000
7342		-17.578125
7343		-13.671875
7344		-15.625000
7345		-9.765625
7346		-11.718750
7347		-7.812500
7348		-9.765625
7349		-3.906250
7350		-7.812500
7351		-1.953125
7352		-3.906250
7353		1.953125
7354		0.000000
7355		3.906250
7356		1.953125
7357		7.812500
7358		3.906250
7359		9.765625
7360		7.812500
7361		13.671875
7362		9.765625
7363		15.625000
7364		13.671875
7365		19.531250
7366		17.578125
7367		21.484375
7368		19.531250
7369		25.390625
7370		23.437500
7371		27.343750
7372		25.390625
7373		31.250000
7374		27.343750
7375		33.203125
7376		31.250000
7377		35.156250
7378		33.203125
7379		37.109375
7380		35.156250
7381		41.015625
7382		37.109375
7383		42.968750
7384		41.015625
7385		46.875000
7386		42.968750
7387		48.828125
7388		46.875000
7389		50.781250
7390		48.828125
7391		52.734375
7392		50.781250
7393		56.640625
7394		52.734375
7395		58.593750
7396		56.640625
7397		60.546875
7398		58.593750
7399		62.500000
7400		60.546875
7401		64.453125
7402		62.500000
7403		66.406250
7404		64.453125
7405		70.312500
7406		66.406250
7407		70.312500
7408		68.359375
7409		72.265625
7410		70.312500
7411		74.218750
7412		72.265625
7413		76.171875
7414		74.218750
7415		78.125000
7416		76.171875
7417		80.078125
7418		78.125000
7419		82.031250
7420		80.078125
7421		83.984375
7422		82.031250
7423		85.937500
7424		82.031250
7425		87.890625
7426		83.984375
7427		87.890625
7428		85.937500
7429		89.843750
7430		87.890625
7431		89.843750
7432		87.890625
7433		91.796875
7434		89.843750
7435		93.750000
7436		89.843750
7437		95.703125
7438		91.796875
7439		95.703125
7440		93.750000
7441		97.656250
7442		93.750000
7443		97.656250
7444		95.703125
7445		99.609375
7446		95.703125
7447		99.609375
7448		97.656250
7449		99.609375
7450		97.656250
7451		101.562500
7452		99.609375
7453		101.562500
7454		99.609375
7455		103.515625
7456		99.609375
7457		103.515625
7458		99.609375
7459		103.515625
7460		101.562500
7461		103.515625
7462		101.562500
7463		105.468750
7464		101.562500
7465		105.468750
7466		101.562500
7467		105.468750
7468		101.562500
7469		105.468750
7470		101.562500
7471		105.468750
7472		101.562500
7473		105.468750
7474		101.562500
7475		105.468750
7476		101.562500
7477		105.468750
7478		101.562500
7479		105.468750
7480		101.562500
7481		105.468750
7482		101.562500
7483		103.515625
7484		101.562500
7485		105.468750
7486		99.609375
7487		103.515625
7488		99.609375
7489		103.515625
7490		99.609375
7491		103.515625
7492		97.656250
7493		103.515625
7494		97.656250
7495		101.562500
7496		97.656250
7497		101.562500
7498		97.656250
7499		101.562500
7500		95.703125
7501		99.609375
7502		95.703125
7503		99.609375
7504		93.750000
7505		97.656250
7506		93.750000
7507		97.656250
7508		91.796875
7509		95.703125
7510		91.796875
7511		95.703125
7512		89.843750
7513		93.750000
7514		87.890625
7515		91.796875
7516		87.890625
7517		89.843750
7518		85.937500
7519		89.843750
7520		83.984375
7521		87.890625
7522		82.031250
7523		85.937500
7524		80.078125
7525		85.937500
7526		80.078125
7527		83.984375
7528		78.125000
7529		82.031250
7530		76.171875
7531		80.078125
7532		74.218750
7533		78.125000
7534		70.312500
7535		76.171875
7536		70.312500
7537		74.218750
7538		68.359375
7539		72.265625
7540		66.406250
7541		70.312500
7542		64.453125
7543		68.359375
7544		62.500000
7545		66.406250
7546		58.593750
7547		64.453125
7548		56.640625
7549		60.546875
7550		52.734375
7551		58.593750
7552		52.734375
7553		56.640625
7554		50.781250
7555		56.640625
7556		46.875000
7557		52.734375
7558		44.921875
7559		48.828125
7560		42.968750
7561		48.828125
7562		39.062500
7563		44.921875
7564		37.109375
7565		42.968750
7566		35.156250
7567		39.062500
7568		31.250000
7569		37.109375
7570		29.296875
7571		35.156250
7572		27.343750
7573		31.250000
7574		23.437500
7575		29.296875
7576		21.484375
7577		25.390625
7578		17.578125
7579		23.437500
7580		15.625000
7581		21.484375
7582		11.718750
7583		17.578125
7584		9.765625
7585		13.671875
7586		5.859375
7587		11.718750
7588		3.906250
7589		7.812500
7590		1.953125
7591		5.859375
7592		-1.953125
7593		1.953125
7594		-5.859375
7595		0.000000
7596		-7.812500
7597		-3.906250
7598		-9.765625
7599		-5.859375
7600		-13.671875
7601		-9.765625
7602		-17.578125
7603		-11.718750
7604		-19.531250
7605		-13.671875
7606		-23.437500
7607		-15.625000
7608		-25.390625
7609		-21.484375
7610		-29.296875
7611		-23.437500
7612		-31.250000
7613		-27.343750
7614		-35.156250
7615		-29.296875
7616		-39.062500
7617		-33.203125
7618		-41.015625
7619		-35.156250
7620		-42.968750
7621		-39.062500
7622		-46.875000
7623		-41.015625
7624		-48.828125
7625		-42.968750
7626		-50.781250
7627		-46.875000
7628		-54.687500
7629		-48.828125
7630		-56.640625
7631		-52.734375
7632		-60.546875
7633		-54.687500
7634		-62.500000
7635		-58.593750
7636		-64.453125
7637		-58.593750
7638		-68.359375
7639		-62.500000
7640		-70.312500
7641		-66.406250
7642		-72.265625
7643		-68.359375
7644		-76.171875
7645		-70.312500
7646		-78.125000
7647		-72.265625
7648		-80.078125
7649		-76.171875
7650		-82.031250
7651		-78.125000
7652		-83.984375
7653		-80.078125
7654		-85.937500
7655		-82.031250
7656		-87.890625
7657		-83.984375
7658		-89.843750
7659		-85.937500
7660		-91.796875
7661		-87.890625
7662		-93.750000
7663		-89.843750
7664		-97.656250
7665		-91.796875
7666		-97.656250
7667		-93.750000
7668		-99.609375
7669		-95.703125
7670		-101.562500
7671		-97.656250
7672		-101.562500
7673		-99.609375
7674		-103.515625
7675		-99.609375
7676		-105.468750
7677		-101.562500
7678		-107.421875
7679		-103.515625
7680		-107.421875
7681		-103.515625
7682		-109.375000
7683		-105.468750
7684		-109.375000
7685		-107.421875
7686		-111.328125
7687		-107.421875
7688		-113.281250
7689		-109.375000
7690		-113.281250
7691		-109.375000
7692		-115.234375
7693		-109.375000
7694		-115.234375
7695		-111.328125
7696		-115.234375
7697		-111.328125
7698		-115.234375
7699		-111.328125
7700		-117.187500
7701		-113.281250
7702		-117.187500
7703		-113.281250
7704		-117.187500
7705		-113.281250
7706		-117.187500
7707		-113.281250
7708		-117.187500
7709		-113.281250
7710		-117.187500
7711		-113.281250
7712		-117.187500
7713		-113.281250
7714		-117.187500
7715		-113.281250
7716		-115.234375
7717		-113.281250
7718		-115.234375
7719		-113.281250
7720		-115.234375
7721		-111.328125
7722		-115.234375
7723		-111.328125
7724		-115.234375
7725		-111.328125
7726		-113.281250
7727		-111.328125
7728		-113.281250
7729		-109.375000
7730		-111.328125
7731		-109.375000
7732		-111.328125
7733		-107.421875
7734		-111.328125
7735		-107.421875
7736		-109.375000
7737		-105.468750
7738		-107.421875
7739		-103.515625
7740		-107.421875
7741		-103.515625
7742		-105.468750
7743		-101.562500
7744		-103.515625
7745		-99.609375
7746		-101.562500
7747		-97.656250
7748		-101.562500
7749		-97.656250
7750		-99.609375
7751		-95.703125
7752		-97.656250
7753		-91.796875
7754		-95.703125
7755		-91.796875
7756		-93.750000
7757		-89.843750
7758		-91.796875
7759		-87.890625
7760		-89.843750
7761		-85.937500
7762		-87.890625
7763		-83.984375
7764		-85.937500
7765		-82.031250
7766		-83.984375
7767		-78.125000
7768		-82.031250
7769		-76.171875
7770		-78.125000
7771		-74.218750
7772		-76.171875
7773		-72.265625
7774		-74.218750
7775		-70.312500
7776		-70.312500
7777		-66.406250
7778		-68.359375
7779		-64.453125
7780		-66.406250
7781		-60.546875
7782		-64.453125
7783		-58.593750
7784		-60.546875
7785		-56.640625
7786		-58.593750
7787		-52.734375
7788		-56.640625
7789		-50.781250
7790		-52.734375
7791		-48.828125
7792		-50.781250
7793		-44.921875
7794		-48.828125
7795		-42.968750
7796		-44.921875
7797		-39.062500
7798		-41.015625
7799		-37.109375
7800		-39.062500
7801		-33.203125
7802		-35.156250
7803		-31.250000
7804		-33.203125
7805		-27.343750
7806		-31.250000
7807		-25.390625
7808		-27.343750
7809		-21.484375
7810		-23.437500
7811		-19.531250
7812		-21.484375
7813		-15.625000
7814		-19.531250
7815		-13.671875
7816		-15.625000
7817		-9.765625
7818		-11.718750
7819		-7.812500
7820		-9.765625
7821		-3.906250
7822		-5.859375
7823		-1.953125
7824		-3.906250
7825		1.953125
7826		0.000000
7827		3.906250
7828		1.953125
7829		7.812500
7830		5.859375
7831		9.765625
7832		7.812500
7833		13.671875
7834		11.718750
7835		15.625000
7836		13.671875
7837		19.531250
7838		17.578125
7839		21.484375
7840		19.531250
7841		25.390625
7842		21.484375
7843		27.343750
7844		25.390625
7845		29.296875
7846		27.343750
7847		33.203125
7848		31.250000
7849		35.156250
7850		33.203125
7851		37.109375
7852		37.109375
7853		41.015625
7854		39.062500
7855		44.921875
7856		41.015625
7857		46.875000
7858		42.968750
7859		48.828125
7860		46.875000
7861		50.781250
7862		48.828125
7863		54.687500
7864		50.781250
7865		56.640625
7866		52.734375
7867		58.593750
7868		56.640625
7869		60.546875
7870		58.593750
7871		64.453125
7872		58.593750
7873		66.406250
7874		60.546875
7875		66.406250
7876		64.453125
7877		68.359375
7878		66.406250
7879		70.312500
7880		68.359375
7881		72.265625
7882		70.312500
7883		74.218750
7884		72.265625
7885		76.171875
7886		74.218750
7887		78.125000
7888		74.218750
7889		82.031250
7890		76.171875
7891		82.031250
7892		78.125000
7893		83.984375
7894		80.078125
7895		85.937500
7896		82.031250
7897		87.890625
7898		82.031250
7899		89.843750
7900		85.937500
7901		89.843750
7902		87.890625
7903		91.796875
7904		87.890625
7905		93.750000
7906		87.890625
7907		95.703125
7908		87.890625
7909		95.703125
7910		91.796875
7911		95.703125
7912		93.750000
7913		95.703125
7914		91.796875
7915		99.609375
7916		93.750000
7917		99.609375
7918		95.703125
7919		99.609375
7920		95.703125
7921		99.609375
7922		95.703125
7923		101.562500
7924		97.656250
7925		103.515625
7926		97.656250
7927		103.515625
7928		99.609375
7929		103.515625
7930		97.656250
7931		105.468750
7932		99.609375
7933		105.468750
7934		101.562500
7935		103.515625
7936		101.562500
7937		105.468750
7938		99.609375
7939		105.468750
7940		99.609375
7941		107.421875
7942		99.609375
7943		107.421875
7944		99.609375
7945		105.468750
7946		99.609375
7947		107.421875
7948		101.562500
7949		107.421875
7950		101.562500
7951		105.468750
7952		101.562500
7953		105.468750
7954		99.609375
7955		105.468750
7956		99.609375
7957		105.468750
7958		99.609375
7959		105.468750
7960		97.656250
7961		105.468750
7962		97.656250
7963		103.515625
7964		97.656250
7965		103.515625
7966		97.656250
7967		103.515625
7968		97.656250
7969		101.562500
7970		97.656250
7971		99.609375
7972		93.750000
7973		101.562500
7974		93.750000
7975		99.609375
7976		91.796875
7977		99.609375
7978		91.796875
7979		97.656250
7980		89.843750
7981		95.703125
7982		89.843750
7983		95.703125
7984		89.843750
7985		93.750000
7986		87.890625
7987		91.796875
7988		83.984375
7989		91.796875
7990		83.984375
7991		91.796875
7992		82.031250
7993		87.890625
7994		80.078125
7995		87.890625
7996		78.125000
7997		85.937500
7998		78.125000
7999		83.984375
8000		76.171875
8001		82.031250
8002		76.171875
8003		80.078125
8004		74.218750
8005		78.125000
8006		70.312500
8007		76.171875
8008		68.359375
8009		76.171875
8010		66.406250
8011		74.218750
8012		64.453125
8013		70.312500
8014		60.546875
8015		68.359375
8016		60.546875
8017		66.406250
8018		58.593750
8019		62.500000
8020		56.640625
8021		60.546875
8022		52.734375
8023		58.593750
8024		50.781250
8025		56.640625
8026		48.828125
8027		54.687500
8028		44.921875
8029		52.734375
8030		42.968750
8031		48.828125
8032		41.015625
8033		46.875000
8034		39.062500
8035		44.921875
8036		37.109375
8037		41.015625
8038		31.250000
8039		39.062500
8040		29.296875
8041		37.109375
8042		27.343750
8043		35.156250
8044		23.437500
8045		33.203125
8046		21.484375
8047		29.296875
8048		17.578125
8049		25.390625
8050		17.578125
8051		23.437500
8052		13.671875
8053		19.531250
8054		11.718750
8055		15.625000
8056		7.812500
8057		15.625000
8058		3.906250
8059		11.718750
8060		1.953125
8061		9.765625
8062		-1.953125
8063		5.859375
8064		-3.906250
8065		1.953125
8066		-7.812500
8067		1.953125
8068		-9.765625
8069		-3.906250
8070		-11.718750
8071		-5.859375
8072		-15.625000
8073		-9.765625
8074		-19.531250
8075		-9.765625
8076		-23.437500
8077		-13.671875
8078		-25.390625
8079		-17.578125
8080		-29.296875
8081		-21.484375
8082		-31.250000
8083		-23.437500
8084		-33.203125
8085		-25.390625
8086		-35.156250
8087		-31.250000
8088		-39.062500
8089		-33.203125
8090		-42.968750
8091		-33.203125
8092		-44.921875
8093		-37.109375
8094		-48.828125
8095		-41.015625
8096		-50.781250
8097		-42.968750
8098		-54.687500
8099		-44.921875
8100		-56.640625
8101		-48.828125
8102		-58.593750
8103		-52.734375
8104		-60.546875
8105		-54.687500
8106		-64.453125
8107		-58.593750
8108		-68.359375
8109		-60.546875
8110		-70.312500
8111		-62.500000
8112		-74.218750
8113		-64.453125
8114		-76.171875
8115		-66.406250
8116		-78.125000
8117		-70.312500
8118		-78.125000
8119		-72.265625
8120		-80.078125
8121		-76.171875
8122		-83.984375
8123		-78.125000
8124		-85.937500
8125		-80.078125
8126		-87.890625
8127		-80.078125
8128		-89.843750
8129		-83.984375
8130		-91.796875
8131		-85.937500
8132		-95.703125
8133		-87.890625
8134		-95.703125
8135		-87.890625
8136		-95.703125
8137		-91.796875
8138		-97.656250
8139		-93.750000
8140		-101.562500
8141		-95.703125
8142		-103.515625
8143		-95.703125
8144		-105.468750
8145		-97.656250
8146		-107.421875
8147		-99.609375
8148		-107.421875
8149		-99.609375
8150		-109.375000
8151		-101.562500
8152		-109.375000
8153		-103.515625
8154		-109.375000
8155		-105.468750
8156		-111.328125
8157		-105.468750
8158		-113.281250
8159		-105.468750
8160		-113.281250
8161		-107.421875
8162		-115.234375
8163		-109.375000
8164		-115.234375
8165		-109.375000
8166		-117.187500
8167		-111.328125
8168		-117.187500
8169		-109.375000
8170		-115.234375
8171		-113.281250
8172		-117.187500
8173		-113.281250
8174		-117.187500
8175		-111.328125
8176		-119.140625
8177		-111.328125
8178		-119.140625
8179		-113.281250
8180		-119.140625
8181		-111.328125
8182		-119.140625
8183		-111.328125
8184		-117.187500
8185		-111.328125
8186		-117.187500
8187		-113.281250
8188		-115.234375
8189		-113.281250
8190		-117.187500
8191		-109.375000
8192		-117.187500
8193		-111.328125
8194		-117.187500
8195		-109.375000
8196		-115.234375
8197		-109.375000
8198		-115.234375
8199		-107.421875
8200		-115.234375
8201		-107.421875
8202		-113.281250
8203		-107.421875
8204		-111.328125
8205		-107.421875
8206		-111.328125
8207		-103.515625
8208		-109.375000
8209		-103.515625
8210		-109.375000
8211		-101.562500
8212		-107.421875
8213		-101.562500
8214		-107.421875
8215		-99.609375
8216		-105.468750
8217		-97.656250
8218		-103.515625
8219		-97.656250
8220		-99.609375
8221		-95.703125
8222		-97.656250
8223		-93.750000
8224		-97.656250
8225		-91.796875
8226		-97.656250
8227		-89.843750
8228		-95.703125
8229		-85.937500
8230		-91.796875
8231		-85.937500
8232		-91.796875
8233		-83.984375
8234		-87.890625
8235		-80.078125
8236		-85.937500
8237		-80.078125
8238		-82.031250
8239		-78.125000
8240		-80.078125
8241		-74.218750
8242		-80.078125
8243		-72.265625
8244		-76.171875
8245		-68.359375
8246		-76.171875
8247		-68.359375
8248		-72.265625
8249		-66.406250
8250		-70.312500
8251		-60.546875
8252		-66.406250
8253		-60.546875
8254		-62.500000
8255		-58.593750
8256		-60.546875
8257		-56.640625
8258		-60.546875
8259		-50.781250
8260		-54.687500
8261		-48.828125
8262		-54.687500
8263		-46.875000
8264		-50.781250
8265		-42.968750
8266		-48.828125
8267		-41.015625
8268		-44.921875
8269		-37.109375
8270		-41.015625
8271		-35.156250
8272		-39.062500
8273		-33.203125
8274		-35.156250
8275		-27.343750
8276		-33.203125
8277		-25.390625
8278		-31.250000
8279		-23.437500
8280		-27.343750
8281		-19.531250
8282		-23.437500
8283		-15.625000
8284		-21.484375
8285		-13.671875
8286		-19.531250
8287		-11.718750
8288		-13.671875
8289		-9.765625
8290		-11.718750
8291		-3.906250
8292		-9.765625
8293		-1.953125
8294		-7.812500
8295		1.953125
8296		-3.906250
8297		3.906250
8298		0.000000
8299		7.812500
8300		1.953125
8301		9.765625
8302		5.859375
8303		11.718750
8304		9.765625
8305		13.671875
8306		11.718750
8307		17.578125
8308		13.671875
8309		21.484375
8310		17.578125
8311		23.437500
8312		19.531250
8313		27.343750
8314		21.484375
8315		29.296875
8316		23.437500
8317		33.203125
8318		27.343750
8319		35.156250
8320		31.250000
8321		37.109375
8322		35.156250
8323		39.062500
8324		35.156250
8325		42.968750
8326		39.062500
8327		46.875000
8328		41.015625
8329		48.828125
8330		42.968750
8331		50.781250
8332		44.921875
8333		54.687500
8334		46.875000
8335		56.640625
8336		50.781250
8337		56.640625
8338		54.687500
8339		58.593750
8340		56.640625
8341		60.546875
8342		56.640625
8343		64.453125
8344		60.546875
8345		68.359375
8346		62.500000
8347		68.359375
8348		64.453125
8349		70.312500
8350		64.453125
8351		72.265625
8352		66.406250
8353		74.218750
8354		70.312500
8355		76.171875
8356		72.265625
8357		76.171875
8358		74.218750
8359		80.078125
8360		74.218750
8361		82.031250
8362		76.171875
8363		83.984375
8364		78.125000
8365		85.937500
8366		80.078125
8367		87.890625
8368		82.031250
8369		87.890625
8370		82.031250
8371		89.843750
8372		85.937500
8373		89.843750
8374		87.890625
8375		91.796875
8376		87.890625
8377		93.750000
8378		87.890625
8379		93.750000
8380		89.843750
8381		95.703125
8382		91.796875
8383		97.656250
8384		91.796875
8385		99.609375
8386		93.750000
8387		99.609375
8388		95.703125
8389		97.656250
8390		95.703125
8391		99.609375
8392		95.703125
8393		101.562500
8394		95.703125
8395		101.562500
8396		97.656250
8397		103.515625
8398		97.656250
8399		103.515625
8400		97.656250
8401		105.468750
8402		99.609375
8403		105.468750
8404		99.609375
8405		103.515625
8406		101.562500
8407		103.515625
8408		99.609375
8409		105.468750
8410		99.609375
8411		107.421875
8412		99.609375
8413		107.421875
8414		99.609375
8415		105.468750
8416		99.609375
8417		105.468750
8418		99.609375
8419		107.421875
8420		99.609375
8421		105.468750
8422		101.562500
8423		105.468750
8424		101.562500
8425		103.515625
8426		99.609375
8427		105.468750
8428		99.609375
8429		105.468750
8430		97.656250
8431		105.468750
8432		97.656250
8433		105.468750
8434		97.656250
8435		103.515625
8436		95.703125
8437		103.515625
8438		97.656250
8439		101.562500
8440		97.656250
8441		101.562500
8442		93.750000
8443		101.562500
8444		93.750000
8445		101.562500
8446		93.750000
8447		99.609375
8448		91.796875
8449		97.656250
8450		89.843750
8451		97.656250
8452		89.843750
8453		95.703125
8454		87.890625
8455		95.703125
8456		87.890625
8457		91.796875
8458		85.937500
8459		91.796875
8460		83.984375
8461		91.796875
8462		82.031250
8463		89.843750
8464		80.078125
8465		87.890625
8466		80.078125
8467		85.937500
8468		78.125000
8469		85.937500
8470		76.171875
8471		83.984375
8472		76.171875
8473		80.078125
8474		74.218750
8475		78.125000
8476		72.265625
8477		78.125000
8478		68.359375
8479		76.171875
8480		66.406250
8481		74.218750
8482		64.453125
8483		72.265625
8484		64.453125
8485		70.312500
8486		60.546875
8487		68.359375
8488		60.546875
8489		64.453125
8490		58.593750
8491		62.500000
8492		54.687500
8493		60.546875
8494		50.781250
8495		60.546875
8496		48.828125
8497		56.640625
8498		46.875000
8499		54.687500
8500		44.921875
8501		52.734375
8502		42.968750
8503		48.828125
8504		41.015625
8505		46.875000
8506		39.062500
8507		42.968750
8508		35.156250
8509		41.015625
8510		31.250000
8511		39.062500
8512		29.296875
8513		37.109375
8514		25.390625
8515		35.156250
8516		23.437500
8517		31.250000
8518		19.531250
8519		27.343750
8520		17.578125
8521		25.390625
8522		17.578125
8523		21.484375
8524		13.671875
8525		17.578125
8526		7.812500
8527		15.625000
8528		5.859375
8529		13.671875
8530		3.906250
8531		11.718750
8532		0.000000
8533		7.812500
8534		-1.953125
8535		5.859375
8536		-5.859375
8537		1.953125
8538		-5.859375
8539		0.000000
8540		-9.765625
8541		-5.859375
8542		-13.671875
8543		-7.812500
8544		-17.578125
8545		-7.812500
8546		-19.531250
8547		-11.718750
8548		-23.437500
8549		-15.625000
8550		-25.390625
8551		-17.578125
8552		-29.296875
8553		-21.484375
8554		-31.250000
8555		-23.437500
8556		-33.203125
8557		-29.296875
8558		-37.109375
8559		-31.250000
8560		-41.015625
8561		-33.203125
8562		-44.921875
8563		-35.156250
8564		-46.875000
8565		-39.062500
8566		-48.828125
8567		-41.015625
8568		-52.734375
8569		-44.921875
8570		-54.687500
8571		-46.875000
8572		-56.640625
8573		-50.781250
8574		-58.593750
8575		-54.687500
8576		-62.500000
8577		-56.640625
8578		-66.406250
8579		-58.593750
8580		-68.359375
8581		-60.546875
8582		-70.312500
8583		-62.500000
8584		-72.265625
8585		-66.406250
8586		-76.171875
8587		-68.359375
8588		-78.125000
8589		-70.312500
8590		-78.125000
8591		-74.218750
8592		-82.031250
8593		-76.171875
8594		-83.984375
8595		-78.125000
8596		-85.937500
8597		-78.125000
8598		-89.843750
8599		-82.031250
8600		-91.796875
8601		-83.984375
8602		-93.750000
8603		-85.937500
8604		-95.703125
8605		-87.890625
8606		-95.703125
8607		-91.796875
8608		-97.656250
8609		-93.750000
8610		-99.609375
8611		-93.750000
8612		-101.562500
8613		-95.703125
8614		-103.515625
8615		-95.703125
8616		-105.468750
8617		-97.656250
8618		-105.468750
8619		-99.609375
8620		-107.421875
8621		-101.562500
8622		-109.375000
8623		-101.562500
8624		-107.421875
8625		-105.468750
8626		-111.328125
8627		-105.468750
8628		-113.281250
8629		-105.468750
8630		-113.281250
8631		-105.468750
8632		-113.281250
8633		-107.421875
8634		-115.234375
8635		-109.375000
8636		-117.187500
8637		-109.375000
8638		-117.187500
8639		-109.375000
8640		-115.234375
8641		-111.328125
8642		-115.234375
8643		-113.281250
8644		-119.140625
8645		-111.328125
8646		-119.140625
8647		-111.328125
8648		-119.140625
8649		-111.328125
8650		-119.140625
8651		-111.328125
8652		-119.140625
8653		-111.328125
8654		-119.140625
8655		-111.328125
8656		-117.187500
8657		-111.328125
8658		-115.234375
8659		-113.281250
8660		-117.187500
8661		-111.328125
8662		-117.187500
8663		-111.328125
8664		-117.187500
8665		-109.375000
8666		-115.234375
8667		-109.375000
8668		-115.234375
8669		-109.375000
8670		-115.234375
8671		-107.421875
8672		-113.281250
8673		-107.421875
8674		-111.328125
8675		-107.421875
8676		-109.375000
8677		-107.421875
8678		-111.328125
8679		-103.515625
8680		-109.375000
8681		-103.515625
8682		-107.421875
8683		-101.562500
8684		-107.421875
8685		-99.609375
8686		-105.468750
8687		-97.656250
8688		-103.515625
8689		-97.656250
8690		-101.562500
8691		-97.656250
8692		-99.609375
8693		-95.703125
8694		-97.656250
8695		-91.796875
8696		-97.656250
8697		-89.843750
8698		-95.703125
8699		-87.890625
8700		-93.750000
8701		-85.937500
8702		-91.796875
8703		-83.984375
8704		-89.843750
8705		-82.031250
8706		-87.890625
8707		-82.031250
8708		-83.984375
8709		-80.078125
8710		-82.031250
8711		-76.171875
8712		-80.078125
8713		-72.265625
8714		-78.125000
8715		-70.312500
8716		-76.171875
8717		-68.359375
8718		-74.218750
8719		-66.406250
8720		-72.265625
8721		-62.500000
8722		-68.359375
8723		-60.546875
8724		-64.453125
8725		-60.546875
8726		-62.500000
8727		-56.640625
8728		-60.546875
8729		-52.734375
8730		-58.593750
8731		-48.828125
8732		-54.687500
8733		-48.828125
8734		-52.734375
8735		-44.921875
8736		-50.781250
8737		-41.015625
8738		-46.875000
8739		-39.062500
8740		-42.968750
8741		-37.109375
8742		-39.062500
8743		-35.156250
8744		-37.109375
8745		-31.250000
8746		-35.156250
8747		-27.343750
8748		-31.250000
8749		-25.390625
8750		-29.296875
8751		-21.484375
8752		-25.390625
8753		-17.578125
8754		-23.437500
8755		-15.625000
8756		-21.484375
8757		-13.671875
8758		-15.625000
8759		-11.718750
8760		-13.671875
8761		-7.812500
8762		-11.718750
8763		-3.906250
8764		-7.812500
8765		-1.953125
8766		-5.859375
8767		1.953125
8768		-1.953125
8769		5.859375
8770		0.000000
8771		7.812500
8772		1.953125
8773		11.718750
8774		7.812500
8775		11.718750
8776		9.765625
8777		15.625000
8778		13.671875
8779		19.531250
8780		13.671875
8781		23.437500
8782		17.578125
8783		25.390625
8784		21.484375
8785		27.343750
8786		23.437500
8787		31.250000
8788		25.390625
8789		33.203125
8790		27.343750
8791		37.109375
8792		33.203125
8793		37.109375
8794		35.156250
8795		41.015625
8796		37.109375
8797		44.921875
8798		39.062500
8799		46.875000
8800		41.015625
8801		48.828125
8802		44.921875
8803		50.781250
8804		44.921875
8805		54.687500
8806		48.828125
8807		56.640625
8808		52.734375
8809		56.640625
8810		54.687500
8811		60.546875
8812		56.640625
8813		64.453125
8814		58.593750
8815		66.406250
8816		60.546875
8817		68.359375
8818		62.500000
8819		70.312500
8820		64.453125
8821		72.265625
8822		66.406250
8823		74.218750
8824		68.359375
8825		74.218750
8826		72.265625
8827		76.171875
8828		72.265625
8829		80.078125
8830		74.218750
8831		80.078125
8832		76.171875
8833		82.031250
8834		78.125000
8835		83.984375
8836		78.125000
8837		85.937500
8838		80.078125
8839		87.890625
8840		82.031250
8841		89.843750
8842		85.937500
8843		89.843750
8844		85.937500
8845		91.796875
8846		85.937500
8847		93.750000
8848		87.890625
8849		95.703125
8850		89.843750
8851		95.703125
8852		89.843750
8853		97.656250
8854		91.796875
8855		97.656250
8856		91.796875
8857		99.609375
8858		93.750000
8859		99.609375
8860		95.703125
8861		99.609375
8862		95.703125
8863		101.562500
8864		95.703125
8865		101.562500
8866		97.656250
8867		103.515625
8868		97.656250
8869		103.515625
8870		97.656250
8871		103.515625
8872		99.609375
8873		103.515625
8874		99.609375
8875		105.468750
8876		101.562500
8877		103.515625
8878		101.562500
8879		103.515625
8880		99.609375
8881		107.421875
8882		99.609375
8883		107.421875
8884		101.562500
8885		107.421875
8886		99.609375
8887		107.421875
8888		99.609375
8889		107.421875
8890		99.609375
8891		107.421875
8892		101.562500
8893		105.468750
8894		101.562500
8895		105.468750
8896		99.609375
8897		105.468750
8898		99.609375
8899		107.421875
8900		99.609375
8901		105.468750
8902		99.609375
8903		105.468750
8904		97.656250
8905		105.468750
8906		97.656250
8907		103.515625
8908		97.656250
8909		103.515625
8910		97.656250
8911		101.562500
8912		95.703125
8913		101.562500
8914		95.703125
8915		101.562500
8916		93.750000
8917		99.609375
8918		91.796875
8919		99.609375
8920		91.796875
8921		99.609375
8922		89.843750
8923		97.656250
8924		89.843750
8925		95.703125
8926		89.843750
8927		93.750000
8928		87.890625
8929		91.796875
8930		85.937500
8931		91.796875
8932		83.984375
8933		91.796875
8934		83.984375
8935		89.843750
8936		82.031250
8937		87.890625
8938		80.078125
8939		87.890625
8940		78.125000
8941		83.984375
8942		78.125000
8943		83.984375
8944		76.171875
8945		80.078125
8946		72.265625
8947		80.078125
8948		70.312500
8949		78.125000
8950		68.359375
8951		78.125000
8952		66.406250
8953		74.218750
8954		64.453125
8955		72.265625
8956		62.500000
8957		70.312500
8958		62.500000
8959		68.359375
8960		60.546875
8961		64.453125
8962		58.593750
8963		62.500000
8964		54.687500
8965		62.500000
8966		50.781250
8967		58.593750
8968		48.828125
8969		56.640625
8970		44.921875
8971		54.687500
8972		44.921875
8973		52.734375
8974		41.015625
8975		48.828125
8976		41.015625
8977		46.875000
8978		39.062500
8979		42.968750
8980		35.156250
8981		41.015625
8982		31.250000
8983		39.062500
8984		29.296875
8985		35.156250
8986		25.390625
8987		33.203125
8988		23.437500
8989		31.250000
8990		19.531250
8991		27.343750
8992		19.531250
8993		25.390625
8994		15.625000
8995		21.484375
8996		11.718750
8997		17.578125
8998		9.765625
8999		17.578125
9000		5.859375
9001		13.671875
9002		3.906250
9003		11.718750
9004		0.000000
9005		7.812500
9006		-1.953125
9007		3.906250
9008		-5.859375
9009		1.953125
9010		-7.812500
9011		-1.953125
9012		-9.765625
9013		-3.906250
9014		-13.671875
9015		-5.859375
9016		-17.578125
9017		-9.765625
9018		-19.531250
9019		-13.671875
9020		-23.437500
9021		-15.625000
9022		-25.390625
9023		-17.578125
9024		-29.296875
9025		-21.484375
9026		-31.250000
9027		-25.390625
9028		-33.203125
9029		-29.296875
9030		-37.109375
9031		-31.250000
9032		-41.015625
9033		-33.203125
9034		-42.968750
9035		-37.109375
9036		-46.875000
9037		-39.062500
9038		-48.828125
9039		-41.015625
9040		-52.734375
9041		-44.921875
9042		-52.734375
9043		-48.828125
9044		-56.640625
9045		-50.781250
9046		-58.593750
9047		-52.734375
9048		-64.453125
9049		-54.687500
9050		-66.406250
9051		-58.593750
9052		-68.359375
9053		-60.546875
9054		-70.312500
9055		-62.500000
9056		-72.265625
9057		-64.453125
9058		-76.171875
9059		-68.359375
9060		-76.171875
9061		-70.312500
9062		-78.125000
9063		-74.218750
9064		-82.031250
9065		-76.171875
9066		-85.937500
9067		-78.125000
9068		-85.937500
9069		-80.078125
9070		-89.843750
9071		-82.031250
9072		-89.843750
9073		-83.984375
9074		-93.750000
9075		-85.937500
9076		-93.750000
9077		-87.890625
9078		-95.703125
9079		-91.796875
9080		-97.656250
9081		-93.750000
9082		-99.609375
9083		-93.750000
9084		-101.562500
9085		-95.703125
9086		-103.515625
9087		-95.703125
9088		-105.468750
9089		-97.656250
9090		-107.421875
9091		-99.609375
9092		-107.421875
9093		-101.562500
9094		-107.421875
9095		-103.515625
9096		-109.375000
9097		-105.468750
9098		-111.328125
9099		-103.515625
9100		-113.281250
9101		-105.468750
9102		-113.281250
9103		-107.421875
9104		-113.281250
9105		-107.421875
9106		-115.234375
9107		-107.421875
9108		-115.234375
9109		-109.375000
9110		-115.234375
9111		-109.375000
9112		-115.234375
9113		-111.328125
9114		-117.187500
9115		-111.328125
9116		-117.187500
9117		-109.375000
9118		-117.187500
9119		-111.328125
9120		-117.187500
9121		-111.328125
9122		-119.140625
9123		-111.328125
9124		-119.140625
9125		-111.328125
9126		-117.187500
9127		-111.328125
9128		-115.234375
9129		-113.281250
9130		-115.234375
9131		-113.281250
9132		-117.187500
9133		-109.375000
9134		-117.187500
9135		-111.328125
9136		-117.187500
9137		-109.375000
9138		-115.234375
9139		-107.421875
9140		-115.234375
9141		-107.421875
9142		-113.281250
9143		-107.421875
9144		-113.281250
9145		-107.421875
9146		-111.328125
9147		-107.421875
9148		-111.328125
9149		-105.468750
9150		-109.375000
9151		-103.515625
9152		-109.375000
9153		-101.562500
9154		-107.421875
9155		-101.562500
9156		-107.421875
9157		-99.609375
9158		-105.468750
9159		-97.656250
9160		-103.515625
9161		-95.703125
9162		-99.609375
9163		-95.703125
9164		-97.656250
9165		-93.750000
9166		-97.656250
9167		-91.796875
9168		-97.656250
9169		-89.843750
9170		-95.703125
9171		-87.890625
9172		-93.750000
9173		-85.937500
9174		-91.796875
9175		-83.984375
9176		-87.890625
9177		-82.031250
9178		-85.937500
9179		-82.031250
9180		-83.984375
9181		-78.125000
9182		-82.031250
9183		-74.218750
9184		-80.078125
9185		-72.265625
9186		-78.125000
9187		-70.312500
9188		-76.171875
9189		-68.359375
9190		-72.265625
9191		-64.453125
9192		-70.312500
9193		-62.500000
9194		-68.359375
9195		-62.500000
9196		-64.453125
9197		-58.593750
9198		-62.500000
9199		-54.687500
9200		-58.593750
9201		-52.734375
9202		-58.593750
9203		-48.828125
9204		-54.687500
9205		-46.875000
9206		-52.734375
9207		-42.968750
9208		-48.828125
9209		-41.015625
9210		-46.875000
9211		-39.062500
9212		-41.015625
9213		-37.109375
9214		-39.062500
9215		-31.250000
9216		-37.109375
9217		-29.296875
9218		-35.156250
9219		-27.343750
9220		-31.250000
9221		-23.437500
9222		-29.296875
9223		-21.484375
9224		-25.390625
9225		-17.578125
9226		-21.484375
9227		-15.625000
9228		-19.531250
9229		-13.671875
9230		-15.625000
9231		-9.765625
9232		-11.718750
9233		-5.859375
9234		-9.765625
9235		-1.953125
9236		-7.812500
9237		0.000000
9238		-3.906250
9239		3.906250
9240		-1.953125
9241		7.812500
9242		1.953125
9243		7.812500
9244		3.906250
9245		9.765625
9246		7.812500
9247		13.671875
9248		11.718750
9249		17.578125
9250		13.671875
9251		19.531250
9252		13.671875
9253		23.437500
9254		17.578125
9255		25.390625
9256		21.484375
9257		29.296875
9258		25.390625
9259		31.250000
9260		25.390625
9261		35.156250
9262		31.250000
9263		35.156250
9264		33.203125
9265		39.062500
9266		35.156250
9267		42.968750
9268		37.109375
9269		44.921875
9270		41.015625
9271		46.875000
9272		42.968750
9273		48.828125
9274		44.921875
9275		52.734375
9276		46.875000
9277		54.687500
9278		48.828125
9279		56.640625
9280		54.687500
9281		58.593750
9282		56.640625
9283		62.500000
9284		56.640625
9285		64.453125
9286		58.593750
9287		66.406250
9288		60.546875
9289		68.359375
9290		62.500000
9291		70.312500
9292		64.453125
9293		74.218750
9294		68.359375
9295		74.218750
9296		70.312500
9297		74.218750
9298		72.265625
9299		76.171875
9300		72.265625
9301		80.078125
9302		74.218750
9303		82.031250
9304		76.171875
9305		83.984375
9306		78.125000
9307		83.984375
9308		78.125000
9309		87.890625
9310		82.031250
9311		87.890625
9312		83.984375
9313		87.890625
9314		85.937500
9315		89.843750
9316		85.937500
9317		93.750000
9318		85.937500
9319		93.750000
9320		87.890625
9321		95.703125
9322		89.843750
9323		95.703125
9324		89.843750
9325		97.656250
9326		91.796875
9327		97.656250
9328		93.750000
9329		99.609375
9330		95.703125
9331		99.609375
9332		95.703125
9333		101.562500
9334		95.703125
9335		101.562500
9336		95.703125
9337		103.515625
9338		97.656250
9339		103.515625
9340		97.656250
9341		105.468750
9342		97.656250
9343		105.468750
9344		99.609375
9345		105.468750
9346		99.609375
9347		105.468750
9348		101.562500
9349		105.468750
9350		101.562500
9351		107.421875
9352		99.609375
9353		107.421875
9354		99.609375
9355		107.421875
9356		101.562500
9357		107.421875
9358		101.562500
9359		107.421875
9360		101.562500
9361		107.421875
9362		101.562500
9363		107.421875
9364		101.562500
9365		105.468750
9366		101.562500
9367		105.468750
9368		99.609375
9369		107.421875
9370		99.609375
9371		105.468750
9372		99.609375
9373		105.468750
9374		99.609375
9375		105.468750
9376		97.656250
9377		105.468750
9378		97.656250
9379		103.515625
9380		99.609375
9381		101.562500
9382		97.656250
9383		101.562500
9384		95.703125
9385		101.562500
9386		95.703125
9387		101.562500
9388		93.750000
9389		101.562500
9390		91.796875
9391		99.609375
9392		91.796875
9393		99.609375
9394		89.843750
9395		97.656250
9396		89.843750
9397		95.703125
9398		89.843750
9399		93.750000
9400		85.937500
9401		93.750000
9402		85.937500
9403		91.796875
9404		83.984375
9405		91.796875
9406		82.031250
9407		89.843750
9408		82.031250
9409		87.890625
9410		80.078125
9411		87.890625
9412		78.125000
9413		85.937500
9414		78.125000
9415		82.031250
9416		76.171875
9417		80.078125
9418		72.265625
9419		80.078125
9420		70.312500
9421		78.125000
9422		68.359375
9423		76.171875
9424		66.406250
9425		74.218750
9426		64.453125
9427		72.265625
9428		62.500000
9429		70.312500
9430		62.500000
9431		66.406250
9432		60.546875
9433		64.453125
9434		56.640625
9435		62.500000
9436		52.734375
9437		60.546875
9438		50.781250
9439		58.593750
9440		48.828125
9441		56.640625
9442		46.875000
9443		54.687500
9444		42.968750
9445		50.781250
9446		42.968750
9447		48.828125
9448		41.015625
9449		44.921875
9450		37.109375
9451		42.968750
9452		33.203125
9453		41.015625
9454		31.250000
9455		39.062500
9456		29.296875
9457		37.109375
9458		25.390625
9459		33.203125
9460		21.484375
9461		31.250000
9462		21.484375
9463		27.343750
9464		17.578125
9465		23.437500
9466		15.625000
9467		21.484375
9468		11.718750
9469		17.578125
9470		9.765625
9471		15.625000
9472		5.859375
9473		13.671875
9474		1.953125
9475		9.765625
9476		0.000000
9477		7.812500
9478		-1.953125
9479		3.906250
9480		-3.906250
9481		1.953125
9482		-7.812500
9483		-1.953125
9484		-11.718750
9485		-5.859375
9486		-15.625000
9487		-7.812500
9488		-17.578125
9489		-9.765625
9490		-21.484375
9491		-13.671875
9492		-23.437500
9493		-15.625000
9494		-27.343750
9495		-19.531250
9496		-29.296875
9497		-23.437500
9498		-31.250000
9499		-25.390625
9500		-35.156250
9501		-29.296875
9502		-39.062500
9503		-29.296875
9504		-41.015625
9505		-33.203125
9506		-44.921875
9507		-37.109375
9508		-46.875000
9509		-39.062500
9510		-50.781250
9511		-42.968750
9512		-52.734375
9513		-44.921875
9514		-54.687500
9515		-48.828125
9516		-56.640625
9517		-50.781250
9518		-60.546875
9519		-54.687500
9520		-64.453125
9521		-56.640625
9522		-66.406250
9523		-58.593750
9524		-68.359375
9525		-60.546875
9526		-70.312500
9527		-62.500000
9528		-74.218750
9529		-66.406250
9530		-74.218750
9531		-68.359375
9532		-76.171875
9533		-72.265625
9534		-80.078125
9535		-74.218750
9536		-83.984375
9537		-74.218750
9538		-85.937500
9539		-78.125000
9540		-87.890625
9541		-80.078125
9542		-89.843750
9543		-82.031250
9544		-89.843750
9545		-83.984375
9546		-91.796875
9547		-85.937500
9548		-93.750000
9549		-89.843750
9550		-95.703125
9551		-91.796875
9552		-99.609375
9553		-91.796875
9554		-99.609375
9555		-93.750000
9556		-103.515625
9557		-93.750000
9558		-103.515625
9559		-95.703125
9560		-105.468750
9561		-97.656250
9562		-105.468750
9563		-99.609375
9564		-107.421875
9565		-101.562500
9566		-107.421875
9567		-103.515625
9568		-109.375000
9569		-105.468750
9570		-111.328125
9571		-103.515625
9572		-111.328125
9573		-105.468750
9574		-113.281250
9575		-105.468750
9576		-115.234375
9577		-107.421875
9578		-115.234375
9579		-109.375000
9580		-115.234375
9581		-109.375000
9582		-115.234375
9583		-111.328125
9584		-115.234375
9585		-111.328125
9586		-117.187500
9587		-109.375000
9588		-117.187500
9589		-111.328125
9590		-117.187500
9591		-111.328125
9592		-119.140625
9593		-111.328125
9594		-117.187500
9595		-111.328125
9596		-117.187500
9597		-111.328125
9598		-117.187500
9599		-113.281250
9600		-115.234375
9601		-113.281250
9602		-117.187500
9603		-111.328125
9604		-117.187500
9605		-109.375000
9606		-117.187500
9607		-109.375000
9608		-115.234375
9609		-109.375000
9610		-115.234375
9611		-109.375000
9612		-115.234375
9613		-107.421875
9614		-113.281250
9615		-107.421875
9616		-111.328125
9617		-107.421875
9618		-111.328125
9619		-105.468750
9620		-111.328125
9621		-103.515625
9622		-109.375000
9623		-103.515625
9624		-109.375000
9625		-101.562500
9626		-107.421875
9627		-101.562500
9628		-105.468750
9629		-99.609375
9630		-105.468750
9631		-97.656250
9632		-101.562500
9633		-97.656250
9634		-99.609375
9635		-95.703125
9636		-99.609375
9637		-93.750000
9638		-97.656250
9639		-89.843750
9640		-95.703125
9641		-89.843750
9642		-93.750000
9643		-87.890625
9644		-91.796875
9645		-83.984375
9646		-89.843750
9647		-83.984375
9648		-87.890625
9649		-82.031250
9650		-83.984375
9651		-80.078125
9652		-82.031250
9653		-76.171875
9654		-82.031250
9655		-74.218750
9656		-80.078125
9657		-72.265625
9658		-76.171875
9659		-70.312500
9660		-74.218750
9661		-66.406250
9662		-72.265625
9663		-64.453125
9664		-70.312500
9665		-62.500000
9666		-66.406250
9667		-60.546875
9668		-62.500000
9669		-58.593750
9670		-60.546875
9671		-52.734375
9672		-58.593750
9673		-50.781250
9674		-56.640625
9675		-48.828125
9676		-54.687500
9677		-44.921875
9678		-48.828125
9679		-42.968750
9680		-46.875000
9681		-41.015625
9682		-44.921875
9683		-39.062500
9684		-41.015625
9685		-35.156250
9686		-39.062500
9687		-31.250000
9688		-35.156250
9689		-29.296875
9690		-33.203125
9691		-25.390625
9692		-31.250000
9693		-23.437500
9694		-27.343750
9695		-19.531250
9696		-23.437500
9697		-15.625000
9698		-21.484375
9699		-13.671875
9700		-17.578125
9701		-11.718750
9702		-13.671875
9703		-7.812500
9704		-13.671875
9705		-3.906250
9706		-9.765625
9707		-1.953125
9708		-5.859375
9709		0.000000
9710		-3.906250
9711		3.906250
9712		0.000000
9713		7.812500
9714		1.953125
9715		9.765625
9716		5.859375
9717		11.718750
9718		9.765625
9719		13.671875
9720		11.718750
9721		17.578125
9722		11.718750
9723		21.484375
9724		17.578125
9725		23.437500
9726		19.531250
9727		27.343750
9728		23.437500
9729		29.296875
9730		23.437500
9731		33.203125
9732		27.343750
9733		33.203125
9734		31.250000
9735		37.109375
9736		33.203125
9737		39.062500
9738		35.156250
9739		42.968750
9740		37.109375
9741		44.921875
9742		41.015625
9743		48.828125
9744		42.968750
9745		50.781250
9746		44.921875
9747		52.734375
9748		46.875000
9749		54.687500
9750		52.734375
9751		56.640625
9752		54.687500
9753		58.593750
9754		54.687500
9755		62.500000
9756		56.640625
9757		64.453125
9758		58.593750
9759		66.406250
9760		60.546875
9761		68.359375
9762		64.453125
9763		72.265625
9764		66.406250
9765		72.265625
9766		68.359375
9767		74.218750
9768		72.265625
9769		76.171875
9770		72.265625
9771		78.125000
9772		72.265625
9773		80.078125
9774		76.171875
9775		82.031250
9776		78.125000
9777		83.984375
9778		78.125000
9779		85.937500
9780		80.078125
9781		87.890625
9782		82.031250
9783		87.890625
9784		85.937500
9785		89.843750
9786		85.937500
9787		91.796875
9788		85.937500
9789		93.750000
9790		87.890625
9791		93.750000
9792		89.843750
9793		95.703125
9794		89.843750
9795		95.703125
9796		91.796875
9797		99.609375
9798		91.796875
9799		97.656250
9800		95.703125
9801		97.656250
9802		95.703125
9803		99.609375
9804		95.703125
9805		101.562500
9806		95.703125
9807		103.515625
9808		97.656250
9809		103.515625
9810		97.656250
9811		103.515625
9812		97.656250
9813		105.468750
9814		99.609375
9815		105.468750
9816		99.609375
9817		105.468750
9818		101.562500
9819		103.515625
9820		99.609375
9821		107.421875
9822		101.562500
9823		107.421875
9824		99.609375
9825		107.421875
9826		101.562500
9827		107.421875
9828		101.562500
9829		107.421875
9830		101.562500
9831		107.421875
9832		101.562500
9833		107.421875
9834		103.515625
9835		105.468750
9836		103.515625
9837		105.468750
9838		101.562500
9839		107.421875
9840		99.609375
9841		105.468750
9842		99.609375
9843		107.421875
9844		99.609375
9845		105.468750
9846		99.609375
9847		105.468750
9848		97.656250
9849		105.468750
9850		97.656250
9851		103.515625
9852		99.609375
9853		103.515625
9854		95.703125
9855		101.562500
9856		95.703125
9857		101.562500
9858		93.750000
9859		101.562500
9860		93.750000
9861		101.562500
9862		93.750000
9863		99.609375
9864		91.796875
9865		99.609375
9866		91.796875
9867		97.656250
9868		91.796875
9869		95.703125
9870		89.843750
9871		93.750000
9872		87.890625
9873		93.750000
9874		85.937500
9875		91.796875
9876		83.984375
9877		91.796875
9878		82.031250
9879		89.843750
9880		82.031250
9881		89.843750
9882		80.078125
9883		87.890625
9884		80.078125
9885		83.984375
9886		78.125000
9887		82.031250
9888		74.218750
9889		80.078125
9890		72.265625
9891		80.078125
9892		70.312500
9893		78.125000
9894		68.359375
9895		76.171875
9896		66.406250
9897		74.218750
9898		64.453125
9899		72.265625
9900		64.453125
9901		70.312500
9902		62.500000
9903		66.406250
9904		58.593750
9905		64.453125
9906		56.640625
9907		64.453125
9908		52.734375
9909		60.546875
9910		50.781250
9911		58.593750
9912		48.828125
9913		56.640625
9914		44.921875
9915		52.734375
9916		44.921875
9917		50.781250
9918		42.968750
9919		46.875000
9920		41.015625
9921		44.921875
9922		35.156250
9923		42.968750
9924		33.203125
9925		41.015625
9926		31.250000
9927		39.062500
9928		29.296875
9929		35.156250
9930		23.437500
9931		33.203125
9932		21.484375
9933		29.296875
9934		21.484375
9935		27.343750
9936		17.578125
9937		23.437500
9938		13.671875
9939		19.531250
9940		11.718750
9941		19.531250
9942		7.812500
9943		15.625000
9944		5.859375
9945		13.671875
9946		1.953125
9947		9.765625
9948		0.000000
9949		7.812500
9950		-1.953125
9951		3.906250
9952		-5.859375
9953		0.000000
9954		-7.812500
9955		-1.953125
9956		-11.718750
9957		-3.906250
9958		-15.625000
9959		-5.859375
9960		-19.531250
9961		-9.765625
9962		-21.484375
9963		-13.671875
9964		-23.437500
9965		-15.625000
9966		-27.343750
9967		-19.531250
9968		-29.296875
9969		-23.437500
9970		-31.250000
9971		-27.343750
9972		-37.109375
9973		-29.296875
9974		-37.109375
9975		-31.250000
9976		-41.015625
9977		-35.156250
9978		-44.921875
9979		-37.109375
9980		-46.875000
9981		-39.062500
9982		-50.781250
9983		-42.968750
9984		-50.781250
9985		-44.921875
9986		-54.687500
9987		-48.828125
9988		-58.593750
9989		-52.734375
9990		-60.546875
9991		-52.734375
9992		-64.453125
9993		-56.640625
9994		-66.406250
9995		-58.593750
9996		-68.359375
9997		-60.546875
9998		-72.265625
9999		-62.500000
10000		-74.218750
