Channel              :		CH1
Frequency            :		1.047kHz
Period               :		0.955ms
PK-PK                :		232.4mV
Probe attenuation    :		1X
Voltage per ADC value:		0.122070mV
Time interval        :		2.00000us

index		CH1_Voltage(mV)
1		-35.156250
2		-35.156250
3		-42.968750
4		-37.109375
5		-44.921875
6		-41.015625
7		-48.828125
8		-42.968750
9		-52.734375
10		-46.875000
11		-54.687500
12		-50.781250
13		-56.640625
14		-52.734375
15		-60.546875
16		-54.687500
17		-62.500000
18		-56.640625
19		-66.406250
20		-60.546875
21		-68.359375
22		-64.453125
23		-70.312500
24		-66.406250
25		-74.218750
26		-68.359375
27		-76.171875
28		-70.312500
29		-78.125000
30		-72.265625
31		-80.078125
32		-76.171875
33		-82.031250
34		-78.125000
35		-85.937500
36		-80.078125
37		-87.890625
38		-83.984375
39		-89.843750
40		-85.937500
41		-91.796875
42		-87.890625
43		-93.750000
44		-89.843750
45		-95.703125
46		-91.796875
47		-97.656250
48		-93.750000
49		-101.562500
50		-95.703125
51		-101.562500
52		-97.656250
53		-103.515625
54		-99.609375
55		-105.468750
56		-101.562500
57		-107.421875
58		-103.515625
59		-109.375000
60		-103.515625
61		-111.328125
62		-105.468750
63		-111.328125
64		-107.421875
65		-113.281250
66		-109.375000
67		-115.234375
68		-111.328125
69		-115.234375
70		-111.328125
71		-117.187500
72		-113.281250
73		-117.187500
74		-113.281250
75		-119.140625
76		-115.234375
77		-119.140625
78		-115.234375
79		-119.140625
80		-117.187500
81		-121.093750
82		-117.187500
83		-123.046875
84		-117.187500
85		-121.093750
86		-119.140625
87		-123.046875
88		-119.140625
89		-123.046875
90		-119.140625
91		-123.046875
92		-119.140625
93		-125.000000
94		-121.093750
95		-125.000000
96		-121.093750
97		-123.046875
98		-121.093750
99		-123.046875
100		-121.093750
101		-125.000000
102		-119.140625
103		-125.000000
104		-119.140625
105		-123.046875
106		-121.093750
107		-123.046875
108		-119.140625
109		-123.046875
110		-119.140625
111		-123.046875
112		-119.140625
113		-123.046875
114		-117.187500
115		-121.093750
116		-117.187500
117		-121.093750
118		-117.187500
119		-119.140625
120		-115.234375
121		-119.140625
122		-115.234375
123		-117.187500
124		-113.281250
125		-117.187500
126		-113.281250
127		-115.234375
128		-111.328125
129		-115.234375
130		-109.375000
131		-113.281250
132		-109.375000
133		-111.328125
134		-107.421875
135		-109.375000
136		-105.468750
137		-109.375000
138		-105.468750
139		-107.421875
140		-103.515625
141		-105.468750
142		-101.562500
143		-103.515625
144		-99.609375
145		-101.562500
146		-95.703125
147		-99.609375
148		-95.703125
149		-97.656250
150		-93.750000
151		-95.703125
152		-91.796875
153		-93.750000
154		-89.843750
155		-91.796875
156		-85.937500
157		-87.890625
158		-85.937500
159		-87.890625
160		-82.031250
161		-83.984375
162		-80.078125
163		-82.031250
164		-78.125000
165		-80.078125
166		-76.171875
167		-78.125000
168		-72.265625
169		-74.218750
170		-70.312500
171		-72.265625
172		-68.359375
173		-70.312500
174		-66.406250
175		-68.359375
176		-62.500000
177		-64.453125
178		-60.546875
179		-62.500000
180		-56.640625
181		-58.593750
182		-54.687500
183		-56.640625
184		-52.734375
185		-54.687500
186		-48.828125
187		-50.781250
188		-44.921875
189		-48.828125
190		-42.968750
191		-44.921875
192		-39.062500
193		-41.015625
194		-37.109375
195		-39.062500
196		-33.203125
197		-37.109375
198		-31.250000
199		-33.203125
200		-29.296875
201		-29.296875
202		-25.390625
203		-27.343750
204		-21.484375
205		-23.437500
206		-19.531250
207		-21.484375
208		-15.625000
209		-19.531250
210		-13.671875
211		-15.625000
212		-9.765625
213		-11.718750
214		-7.812500
215		-9.765625
216		-5.859375
217		-5.859375
218		0.000000
219		-3.906250
220		1.953125
221		0.000000
222		3.906250
223		1.953125
224		7.812500
225		5.859375
226		9.765625
227		7.812500
228		13.671875
229		9.765625
230		15.625000
231		13.671875
232		17.578125
233		15.625000
234		19.531250
235		19.531250
236		23.437500
237		21.484375
238		25.390625
239		23.437500
240		29.296875
241		27.343750
242		31.250000
243		29.296875
244		33.203125
245		31.250000
246		37.109375
247		33.203125
248		39.062500
249		37.109375
250		41.015625
251		39.062500
252		44.921875
253		41.015625
254		46.875000
255		44.921875
256		48.828125
257		46.875000
258		50.781250
259		48.828125
260		52.734375
261		50.781250
262		54.687500
263		52.734375
264		58.593750
265		56.640625
266		60.546875
267		58.593750
268		62.500000
269		58.593750
270		64.453125
271		62.500000
272		66.406250
273		64.453125
274		68.359375
275		64.453125
276		70.312500
277		68.359375
278		72.265625
279		68.359375
280		74.218750
281		70.312500
282		76.171875
283		72.265625
284		76.171875
285		74.218750
286		78.125000
287		76.171875
288		80.078125
289		78.125000
290		82.031250
291		78.125000
292		82.031250
293		80.078125
294		83.984375
295		82.031250
296		85.937500
297		83.984375
298		85.937500
299		83.984375
300		87.890625
301		85.937500
302		91.796875
303		87.890625
304		89.843750
305		87.890625
306		91.796875
307		89.843750
308		93.750000
309		89.843750
310		93.750000
311		89.843750
312		93.750000
313		91.796875
314		95.703125
315		93.750000
316		95.703125
317		93.750000
318		95.703125
319		93.750000
320		97.656250
321		93.750000
322		97.656250
323		95.703125
324		97.656250
325		95.703125
326		99.609375
327		95.703125
328		99.609375
329		95.703125
330		99.609375
331		95.703125
332		99.609375
333		97.656250
334		99.609375
335		97.656250
336		99.609375
337		97.656250
338		99.609375
339		97.656250
340		99.609375
341		95.703125
342		99.609375
343		95.703125
344		99.609375
345		95.703125
346		99.609375
347		95.703125
348		99.609375
349		95.703125
350		97.656250
351		95.703125
352		97.656250
353		93.750000
354		99.609375
355		93.750000
356		97.656250
357		93.750000
358		97.656250
359		93.750000
360		95.703125
361		91.796875
362		95.703125
363		91.796875
364		95.703125
365		91.796875
366		93.750000
367		89.843750
368		93.750000
369		87.890625
370		93.750000
371		87.890625
372		91.796875
373		85.937500
374		89.843750
375		85.937500
376		89.843750
377		83.984375
378		87.890625
379		82.031250
380		87.890625
381		82.031250
382		85.937500
383		80.078125
384		83.984375
385		78.125000
386		83.984375
387		76.171875
388		82.031250
389		76.171875
390		80.078125
391		74.218750
392		78.125000
393		72.265625
394		76.171875
395		70.312500
396		74.218750
397		68.359375
398		72.265625
399		68.359375
400		70.312500
401		66.406250
402		68.359375
403		64.453125
404		66.406250
405		60.546875
406		64.453125
407		58.593750
408		64.453125
409		56.640625
410		60.546875
411		54.687500
412		60.546875
413		52.734375
414		56.640625
415		50.781250
416		54.687500
417		46.875000
418		52.734375
419		44.921875
420		48.828125
421		42.968750
422		46.875000
423		41.015625
424		44.921875
425		37.109375
426		42.968750
427		35.156250
428		41.015625
429		31.250000
430		37.109375
431		29.296875
432		35.156250
433		27.343750
434		31.250000
435		25.390625
436		29.296875
437		21.484375
438		27.343750
439		17.578125
440		23.437500
441		15.625000
442		21.484375
443		11.718750
444		17.578125
445		9.765625
446		15.625000
447		7.812500
448		13.671875
449		3.906250
450		9.765625
451		1.953125
452		7.812500
453		-1.953125
454		3.906250
455		-3.906250
456		0.000000
457		-7.812500
458		-1.953125
459		-11.718750
460		-5.859375
461		-13.671875
462		-7.812500
463		-15.625000
464		-11.718750
465		-19.531250
466		-13.671875
467		-21.484375
468		-17.578125
469		-25.390625
470		-19.531250
471		-27.343750
472		-23.437500
473		-31.250000
474		-25.390625
475		-33.203125
476		-27.343750
477		-37.109375
478		-31.250000
479		-41.015625
480		-35.156250
481		-42.968750
482		-37.109375
483		-44.921875
484		-41.015625
485		-46.875000
486		-42.968750
487		-52.734375
488		-44.921875
489		-54.687500
490		-48.828125
491		-56.640625
492		-50.781250
493		-58.593750
494		-54.687500
495		-62.500000
496		-56.640625
497		-64.453125
498		-60.546875
499		-66.406250
500		-62.500000
501		-70.312500
502		-64.453125
503		-74.218750
504		-68.359375
505		-76.171875
506		-68.359375
507		-78.125000
508		-72.265625
509		-80.078125
510		-76.171875
511		-82.031250
512		-78.125000
513		-83.984375
514		-80.078125
515		-85.937500
516		-82.031250
517		-87.890625
518		-83.984375
519		-89.843750
520		-87.890625
521		-93.750000
522		-87.890625
523		-97.656250
524		-87.890625
525		-99.609375
526		-89.843750
527		-99.609375
528		-93.750000
529		-101.562500
530		-95.703125
531		-103.515625
532		-97.656250
533		-103.515625
534		-99.609375
535		-105.468750
536		-101.562500
537		-109.375000
538		-103.515625
539		-111.328125
540		-103.515625
541		-113.281250
542		-103.515625
543		-113.281250
544		-107.421875
545		-115.234375
546		-107.421875
547		-115.234375
548		-109.375000
549		-115.234375
550		-111.328125
551		-115.234375
552		-113.281250
553		-117.187500
554		-113.281250
555		-119.140625
556		-113.281250
557		-121.093750
558		-115.234375
559		-121.093750
560		-115.234375
561		-121.093750
562		-115.234375
563		-121.093750
564		-117.187500
565		-123.046875
566		-117.187500
567		-121.093750
568		-119.140625
569		-121.093750
570		-119.140625
571		-125.000000
572		-117.187500
573		-125.000000
574		-117.187500
575		-125.000000
576		-117.187500
577		-125.000000
578		-117.187500
579		-123.046875
580		-117.187500
581		-125.000000
582		-117.187500
583		-125.000000
584		-117.187500
585		-121.093750
586		-119.140625
587		-123.046875
588		-117.187500
589		-123.046875
590		-115.234375
591		-123.046875
592		-115.234375
593		-121.093750
594		-113.281250
595		-121.093750
596		-113.281250
597		-121.093750
598		-113.281250
599		-119.140625
600		-111.328125
601		-115.234375
602		-113.281250
603		-115.234375
604		-111.328125
605		-115.234375
606		-107.421875
607		-115.234375
608		-105.468750
609		-113.281250
610		-105.468750
611		-111.328125
612		-103.515625
613		-109.375000
614		-101.562500
615		-109.375000
616		-99.609375
617		-105.468750
618		-101.562500
619		-103.515625
620		-99.609375
621		-103.515625
622		-95.703125
623		-101.562500
624		-93.750000
625		-99.609375
626		-89.843750
627		-97.656250
628		-89.843750
629		-95.703125
630		-87.890625
631		-93.750000
632		-85.937500
633		-91.796875
634		-85.937500
635		-87.890625
636		-83.984375
637		-83.984375
638		-80.078125
639		-85.937500
640		-76.171875
641		-82.031250
642		-74.218750
643		-80.078125
644		-72.265625
645		-78.125000
646		-68.359375
647		-74.218750
648		-66.406250
649		-72.265625
650		-64.453125
651		-68.359375
652		-62.500000
653		-64.453125
654		-60.546875
655		-64.453125
656		-54.687500
657		-62.500000
658		-52.734375
659		-60.546875
660		-50.781250
661		-56.640625
662		-46.875000
663		-52.734375
664		-44.921875
665		-50.781250
666		-42.968750
667		-48.828125
668		-41.015625
669		-42.968750
670		-39.062500
671		-41.015625
672		-33.203125
673		-39.062500
674		-31.250000
675		-37.109375
676		-27.343750
677		-33.203125
678		-23.437500
679		-29.296875
680		-23.437500
681		-27.343750
682		-17.578125
683		-25.390625
684		-15.625000
685		-19.531250
686		-15.625000
687		-15.625000
688		-11.718750
689		-15.625000
690		-5.859375
691		-13.671875
692		-3.906250
693		-9.765625
694		0.000000
695		-7.812500
696		1.953125
697		-3.906250
698		3.906250
699		-1.953125
700		7.812500
701		3.906250
702		7.812500
703		7.812500
704		11.718750
705		7.812500
706		15.625000
707		9.765625
708		19.531250
709		13.671875
710		23.437500
711		15.625000
712		23.437500
713		17.578125
714		27.343750
715		21.484375
716		31.250000
717		23.437500
718		33.203125
719		29.296875
720		33.203125
721		31.250000
722		35.156250
723		31.250000
724		41.015625
725		35.156250
726		42.968750
727		37.109375
728		44.921875
729		39.062500
730		48.828125
731		41.015625
732		50.781250
733		44.921875
734		52.734375
735		46.875000
736		52.734375
737		50.781250
738		54.687500
739		50.781250
740		58.593750
741		52.734375
742		62.500000
743		54.687500
744		64.453125
745		56.640625
746		66.406250
747		58.593750
748		68.359375
749		60.546875
750		70.312500
751		62.500000
752		70.312500
753		68.359375
754		72.265625
755		68.359375
756		76.171875
757		68.359375
758		78.125000
759		70.312500
760		78.125000
761		72.265625
762		80.078125
763		74.218750
764		82.031250
765		74.218750
766		83.984375
767		76.171875
768		83.984375
769		82.031250
770		83.984375
771		82.031250
772		85.937500
773		80.078125
774		89.843750
775		82.031250
776		91.796875
777		83.984375
778		91.796875
779		83.984375
780		93.750000
781		85.937500
782		93.750000
783		87.890625
784		95.703125
785		89.843750
786		93.750000
787		91.796875
788		93.750000
789		91.796875
790		97.656250
791		89.843750
792		99.609375
793		91.796875
794		99.609375
795		91.796875
796		99.609375
797		91.796875
798		99.609375
799		93.750000
800		101.562500
801		93.750000
802		101.562500
803		97.656250
804		99.609375
805		95.703125
806		101.562500
807		93.750000
808		103.515625
809		95.703125
810		103.515625
811		95.703125
812		103.515625
813		95.703125
814		103.515625
815		95.703125
816		103.515625
817		95.703125
818		103.515625
819		95.703125
820		101.562500
821		97.656250
822		99.609375
823		95.703125
824		103.515625
825		93.750000
826		101.562500
827		93.750000
828		103.515625
829		93.750000
830		101.562500
831		93.750000
832		101.562500
833		91.796875
834		101.562500
835		91.796875
836		99.609375
837		93.750000
838		97.656250
839		91.796875
840		97.656250
841		89.843750
842		97.656250
843		89.843750
844		97.656250
845		87.890625
846		95.703125
847		87.890625
848		95.703125
849		85.937500
850		93.750000
851		85.937500
852		93.750000
853		85.937500
854		89.843750
855		85.937500
856		87.890625
857		82.031250
858		89.843750
859		80.078125
860		87.890625
861		78.125000
862		87.890625
863		76.171875
864		85.937500
865		76.171875
866		83.984375
867		74.218750
868		82.031250
869		74.218750
870		80.078125
871		72.265625
872		76.171875
873		68.359375
874		76.171875
875		66.406250
876		76.171875
877		66.406250
878		72.265625
879		64.453125
880		72.265625
881		60.546875
882		70.312500
883		58.593750
884		68.359375
885		58.593750
886		66.406250
887		56.640625
888		60.546875
889		54.687500
890		58.593750
891		50.781250
892		58.593750
893		48.828125
894		56.640625
895		46.875000
896		54.687500
897		42.968750
898		50.781250
899		41.015625
900		50.781250
901		39.062500
902		46.875000
903		39.062500
904		42.968750
905		35.156250
906		39.062500
907		29.296875
908		39.062500
909		29.296875
910		37.109375
911		23.437500
912		35.156250
913		23.437500
914		31.250000
915		21.484375
916		29.296875
917		17.578125
918		27.343750
919		17.578125
920		23.437500
921		13.671875
922		17.578125
923		9.765625
924		15.625000
925		5.859375
926		15.625000
927		1.953125
928		11.718750
929		0.000000
930		9.765625
931		-1.953125
932		5.859375
933		-5.859375
934		1.953125
935		-7.812500
936		0.000000
937		-9.765625
938		-3.906250
939		-11.718750
940		-7.812500
941		-17.578125
942		-9.765625
943		-19.531250
944		-11.718750
945		-23.437500
946		-15.625000
947		-27.343750
948		-17.578125
949		-29.296875
950		-19.531250
951		-33.203125
952		-23.437500
953		-33.203125
954		-27.343750
955		-35.156250
956		-31.250000
957		-41.015625
958		-35.156250
959		-44.921875
960		-35.156250
961		-46.875000
962		-39.062500
963		-48.828125
964		-41.015625
965		-52.734375
966		-42.968750
967		-56.640625
968		-46.875000
969		-58.593750
970		-48.828125
971		-58.593750
972		-54.687500
973		-60.546875
974		-56.640625
975		-66.406250
976		-56.640625
977		-68.359375
978		-58.593750
979		-70.312500
980		-62.500000
981		-74.218750
982		-66.406250
983		-76.171875
984		-68.359375
985		-78.125000
986		-70.312500
987		-78.125000
988		-74.218750
989		-82.031250
990		-78.125000
991		-85.937500
992		-78.125000
993		-87.890625
994		-80.078125
995		-91.796875
996		-82.031250
997		-91.796875
998		-83.984375
999		-95.703125
1000		-85.937500
1001		-97.656250
1002		-87.890625
1003		-97.656250
1004		-89.843750
1005		-97.656250
1006		-93.750000
1007		-101.562500
1008		-95.703125
1009		-103.515625
1010		-95.703125
1011		-105.468750
1012		-97.656250
1013		-107.421875
1014		-99.609375
1015		-109.375000
1016		-99.609375
1017		-111.328125
1018		-101.562500
1019		-111.328125
1020		-103.515625
1021		-111.328125
1022		-107.421875
1023		-111.328125
1024		-109.375000
1025		-117.187500
1026		-107.421875
1027		-117.187500
1028		-109.375000
1029		-117.187500
1030		-111.328125
1031		-119.140625
1032		-109.375000
1033		-119.140625
1034		-111.328125
1035		-121.093750
1036		-113.281250
1037		-121.093750
1038		-113.281250
1039		-119.140625
1040		-117.187500
1041		-123.046875
1042		-115.234375
1043		-123.046875
1044		-115.234375
1045		-123.046875
1046		-115.234375
1047		-123.046875
1048		-115.234375
1049		-123.046875
1050		-115.234375
1051		-123.046875
1052		-117.187500
1053		-123.046875
1054		-115.234375
1055		-121.093750
1056		-119.140625
1057		-121.093750
1058		-119.140625
1059		-123.046875
1060		-115.234375
1061		-123.046875
1062		-115.234375
1063		-123.046875
1064		-115.234375
1065		-121.093750
1066		-113.281250
1067		-121.093750
1068		-113.281250
1069		-121.093750
1070		-113.281250
1071		-119.140625
1072		-113.281250
1073		-117.187500
1074		-113.281250
1075		-117.187500
1076		-111.328125
1077		-117.187500
1078		-109.375000
1079		-115.234375
1080		-109.375000
1081		-115.234375
1082		-107.421875
1083		-115.234375
1084		-105.468750
1085		-113.281250
1086		-105.468750
1087		-111.328125
1088		-105.468750
1089		-107.421875
1090		-103.515625
1091		-105.468750
1092		-101.562500
1093		-107.421875
1094		-99.609375
1095		-107.421875
1096		-95.703125
1097		-103.515625
1098		-95.703125
1099		-101.562500
1100		-93.750000
1101		-99.609375
1102		-91.796875
1103		-97.656250
1104		-89.843750
1105		-93.750000
1106		-89.843750
1107		-91.796875
1108		-87.890625
1109		-91.796875
1110		-83.984375
1111		-89.843750
1112		-80.078125
1113		-87.890625
1114		-80.078125
1115		-85.937500
1116		-78.125000
1117		-83.984375
1118		-74.218750
1119		-80.078125
1120		-72.265625
1121		-78.125000
1122		-72.265625
1123		-74.218750
1124		-68.359375
1125		-70.312500
1126		-64.453125
1127		-70.312500
1128		-60.546875
1129		-68.359375
1130		-60.546875
1131		-66.406250
1132		-56.640625
1133		-62.500000
1134		-54.687500
1135		-60.546875
1136		-50.781250
1137		-58.593750
1138		-50.781250
1139		-52.734375
1140		-46.875000
1141		-48.828125
1142		-44.921875
1143		-48.828125
1144		-41.015625
1145		-44.921875
1146		-37.109375
1147		-42.968750
1148		-33.203125
1149		-41.015625
1150		-31.250000
1151		-37.109375
1152		-29.296875
1153		-35.156250
1154		-25.390625
1155		-29.296875
1156		-25.390625
1157		-25.390625
1158		-21.484375
1159		-23.437500
1160		-17.578125
1161		-23.437500
1162		-13.671875
1163		-19.531250
1164		-9.765625
1165		-17.578125
1166		-7.812500
1167		-13.671875
1168		-3.906250
1169		-9.765625
1170		-1.953125
1171		-7.812500
1172		0.000000
1173		-1.953125
1174		1.953125
1175		0.000000
1176		3.906250
1177		0.000000
1178		9.765625
1179		3.906250
1180		11.718750
1181		5.859375
1182		15.625000
1183		7.812500
1184		19.531250
1185		11.718750
1186		21.484375
1187		15.625000
1188		23.437500
1189		19.531250
1190		23.437500
1191		23.437500
1192		27.343750
1193		23.437500
1194		31.250000
1195		25.390625
1196		35.156250
1197		27.343750
1198		37.109375
1199		31.250000
1200		39.062500
1201		33.203125
1202		41.015625
1203		37.109375
1204		44.921875
1205		39.062500
1206		44.921875
1207		42.968750
1208		46.875000
1209		44.921875
1210		50.781250
1211		44.921875
1212		54.687500
1213		46.875000
1214		56.640625
1215		50.781250
1216		58.593750
1217		52.734375
1218		60.546875
1219		52.734375
1220		62.500000
1221		56.640625
1222		64.453125
1223		60.546875
1224		64.453125
1225		62.500000
1226		66.406250
1227		62.500000
1228		70.312500
1229		64.453125
1230		72.265625
1231		66.406250
1232		76.171875
1233		68.359375
1234		76.171875
1235		70.312500
1236		78.125000
1237		72.265625
1238		80.078125
1239		74.218750
1240		80.078125
1241		78.125000
1242		80.078125
1243		78.125000
1244		85.937500
1245		78.125000
1246		85.937500
1247		80.078125
1248		87.890625
1249		80.078125
1250		89.843750
1251		82.031250
1252		89.843750
1253		83.984375
1254		91.796875
1255		83.984375
1256		91.796875
1257		87.890625
1258		91.796875
1259		89.843750
1260		91.796875
1261		87.890625
1262		95.703125
1263		87.890625
1264		97.656250
1265		89.843750
1266		97.656250
1267		89.843750
1268		99.609375
1269		91.796875
1270		99.609375
1271		91.796875
1272		99.609375
1273		95.703125
1274		97.656250
1275		95.703125
1276		99.609375
1277		93.750000
1278		101.562500
1279		93.750000
1280		103.515625
1281		95.703125
1282		103.515625
1283		95.703125
1284		103.515625
1285		95.703125
1286		103.515625
1287		95.703125
1288		103.515625
1289		97.656250
1290		103.515625
1291		99.609375
1292		101.562500
1293		97.656250
1294		103.515625
1295		95.703125
1296		103.515625
1297		95.703125
1298		103.515625
1299		95.703125
1300		103.515625
1301		95.703125
1302		103.515625
1303		95.703125
1304		103.515625
1305		95.703125
1306		103.515625
1307		97.656250
1308		99.609375
1309		95.703125
1310		99.609375
1311		93.750000
1312		101.562500
1313		91.796875
1314		99.609375
1315		91.796875
1316		99.609375
1317		91.796875
1318		99.609375
1319		89.843750
1320		99.609375
1321		89.843750
1322		97.656250
1323		91.796875
1324		95.703125
1325		89.843750
1326		93.750000
1327		87.890625
1328		93.750000
1329		85.937500
1330		93.750000
1331		83.984375
1332		91.796875
1333		83.984375
1334		91.796875
1335		82.031250
1336		89.843750
1337		80.078125
1338		87.890625
1339		78.125000
1340		87.890625
1341		80.078125
1342		83.984375
1343		78.125000
1344		82.031250
1345		74.218750
1346		82.031250
1347		72.265625
1348		80.078125
1349		72.265625
1350		80.078125
1351		68.359375
1352		78.125000
1353		66.406250
1354		76.171875
1355		66.406250
1356		74.218750
1357		66.406250
1358		70.312500
1359		64.453125
1360		68.359375
1361		58.593750
1362		66.406250
1363		56.640625
1364		64.453125
1365		54.687500
1366		62.500000
1367		52.734375
1368		62.500000
1369		50.781250
1370		58.593750
1371		48.828125
1372		56.640625
1373		46.875000
1374		54.687500
1375		46.875000
1376		50.781250
1377		41.015625
1378		46.875000
1379		39.062500
1380		48.828125
1381		35.156250
1382		44.921875
1383		35.156250
1384		41.015625
1385		31.250000
1386		39.062500
1387		27.343750
1388		37.109375
1389		25.390625
1390		33.203125
1391		25.390625
1392		29.296875
1393		21.484375
1394		27.343750
1395		17.578125
1396		23.437500
1397		15.625000
1398		21.484375
1399		11.718750
1400		19.531250
1401		9.765625
1402		17.578125
1403		5.859375
1404		13.671875
1405		3.906250
1406		11.718750
1407		1.953125
1408		7.812500
1409		0.000000
1410		3.906250
1411		-5.859375
1412		1.953125
1413		-9.765625
1414		1.953125
1415		-13.671875
1416		-3.906250
1417		-13.671875
1418		-5.859375
1419		-19.531250
1420		-9.765625
1421		-21.484375
1422		-11.718750
1423		-23.437500
1424		-15.625000
1425		-23.437500
1426		-19.531250
1427		-27.343750
1428		-23.437500
1429		-33.203125
1430		-23.437500
1431		-35.156250
1432		-27.343750
1433		-39.062500
1434		-29.296875
1435		-41.015625
1436		-31.250000
1437		-42.968750
1438		-35.156250
1439		-46.875000
1440		-37.109375
1441		-46.875000
1442		-42.968750
1443		-50.781250
1444		-46.875000
1445		-54.687500
1446		-48.828125
1447		-58.593750
1448		-48.828125
1449		-62.500000
1450		-50.781250
1451		-64.453125
1452		-54.687500
1453		-66.406250
1454		-58.593750
1455		-70.312500
1456		-60.546875
1457		-70.312500
1458		-62.500000
1459		-72.265625
1460		-68.359375
1461		-76.171875
1462		-70.312500
1463		-78.125000
1464		-70.312500
1465		-82.031250
1466		-72.265625
1467		-83.984375
1468		-74.218750
1469		-85.937500
1470		-78.125000
1471		-87.890625
1472		-80.078125
1473		-91.796875
1474		-82.031250
1475		-89.843750
1476		-85.937500
1477		-91.796875
1478		-87.890625
1479		-97.656250
1480		-89.843750
1481		-99.609375
1482		-89.843750
1483		-101.562500
1484		-91.796875
1485		-103.515625
1486		-93.750000
1487		-103.515625
1488		-95.703125
1489		-105.468750
1490		-97.656250
1491		-107.421875
1492		-99.609375
1493		-107.421875
1494		-103.515625
1495		-109.375000
1496		-103.515625
1497		-111.328125
1498		-103.515625
1499		-113.281250
1500		-105.468750
1501		-115.234375
1502		-107.421875
1503		-117.187500
1504		-107.421875
1505		-117.187500
1506		-109.375000
1507		-117.187500
1508		-109.375000
1509		-115.234375
1510		-113.281250
1511		-117.187500
1512		-113.281250
1513		-119.140625
1514		-113.281250
1515		-121.093750
1516		-113.281250
1517		-121.093750
1518		-113.281250
1519		-121.093750
1520		-113.281250
1521		-123.046875
1522		-115.234375
1523		-123.046875
1524		-115.234375
1525		-121.093750
1526		-117.187500
1527		-121.093750
1528		-119.140625
1529		-123.046875
1530		-115.234375
1531		-123.046875
1532		-115.234375
1533		-123.046875
1534		-115.234375
1535		-123.046875
1536		-115.234375
1537		-123.046875
1538		-115.234375
1539		-123.046875
1540		-115.234375
1541		-123.046875
1542		-113.281250
1543		-119.140625
1544		-117.187500
1545		-119.140625
1546		-115.234375
1547		-121.093750
1548		-113.281250
1549		-119.140625
1550		-111.328125
1551		-119.140625
1552		-111.328125
1553		-117.187500
1554		-109.375000
1555		-117.187500
1556		-109.375000
1557		-115.234375
1558		-107.421875
1559		-111.328125
1560		-109.375000
1561		-111.328125
1562		-107.421875
1563		-111.328125
1564		-103.515625
1565		-111.328125
1566		-101.562500
1567		-109.375000
1568		-101.562500
1569		-107.421875
1570		-99.609375
1571		-107.421875
1572		-97.656250
1573		-105.468750
1574		-95.703125
1575		-103.515625
1576		-95.703125
1577		-97.656250
1578		-95.703125
1579		-97.656250
1580		-91.796875
1581		-97.656250
1582		-89.843750
1583		-93.750000
1584		-85.937500
1585		-93.750000
1586		-83.984375
1587		-91.796875
1588		-83.984375
1589		-87.890625
1590		-80.078125
1591		-87.890625
1592		-78.125000
1593		-82.031250
1594		-78.125000
1595		-80.078125
1596		-76.171875
1597		-80.078125
1598		-70.312500
1599		-78.125000
1600		-68.359375
1601		-76.171875
1602		-66.406250
1603		-72.265625
1604		-62.500000
1605		-70.312500
1606		-58.593750
1607		-68.359375
1608		-58.593750
1609		-62.500000
1610		-56.640625
1611		-58.593750
1612		-54.687500
1613		-56.640625
1614		-48.828125
1615		-56.640625
1616		-46.875000
1617		-52.734375
1618		-42.968750
1619		-50.781250
1620		-41.015625
1621		-48.828125
1622		-39.062500
1623		-44.921875
1624		-35.156250
1625		-41.015625
1626		-35.156250
1627		-37.109375
1628		-31.250000
1629		-33.203125
1630		-27.343750
1631		-33.203125
1632		-23.437500
1633		-29.296875
1634		-21.484375
1635		-27.343750
1636		-17.578125
1637		-25.390625
1638		-15.625000
1639		-21.484375
1640		-11.718750
1641		-17.578125
1642		-9.765625
1643		-13.671875
1644		-7.812500
1645		-9.765625
1646		-5.859375
1647		-9.765625
1648		0.000000
1649		-5.859375
1650		1.953125
1651		-3.906250
1652		3.906250
1653		-1.953125
1654		7.812500
1655		1.953125
1656		11.718750
1657		3.906250
1658		13.671875
1659		9.765625
1660		15.625000
1661		13.671875
1662		17.578125
1663		15.625000
1664		23.437500
1665		15.625000
1666		25.390625
1667		19.531250
1668		27.343750
1669		21.484375
1670		31.250000
1671		23.437500
1672		33.203125
1673		27.343750
1674		35.156250
1675		29.296875
1676		37.109375
1677		35.156250
1678		39.062500
1679		37.109375
1680		41.015625
1681		37.109375
1682		44.921875
1683		39.062500
1684		48.828125
1685		41.015625
1686		50.781250
1687		44.921875
1688		52.734375
1689		46.875000
1690		54.687500
1691		48.828125
1692		58.593750
1693		52.734375
1694		56.640625
1695		56.640625
1696		60.546875
1697		58.593750
1698		64.453125
1699		56.640625
1700		66.406250
1701		58.593750
1702		68.359375
1703		62.500000
1704		70.312500
1705		62.500000
1706		72.265625
1707		64.453125
1708		74.218750
1709		68.359375
1710		76.171875
1711		72.265625
1712		76.171875
1713		74.218750
1714		80.078125
1715		74.218750
1716		80.078125
1717		74.218750
1718		82.031250
1719		76.171875
1720		83.984375
1721		78.125000
1722		85.937500
1723		80.078125
1724		87.890625
1725		80.078125
1726		87.890625
1727		83.984375
1728		87.890625
1729		85.937500
1730		89.843750
1731		83.984375
1732		91.796875
1733		85.937500
1734		93.750000
1735		85.937500
1736		95.703125
1737		87.890625
1738		95.703125
1739		87.890625
1740		95.703125
1741		89.843750
1742		97.656250
1743		89.843750
1744		97.656250
1745		93.750000
1746		97.656250
1747		93.750000
1748		99.609375
1749		93.750000
1750		101.562500
1751		93.750000
1752		101.562500
1753		93.750000
1754		101.562500
1755		93.750000
1756		101.562500
1757		95.703125
1758		103.515625
1759		95.703125
1760		103.515625
1761		97.656250
1762		101.562500
1763		99.609375
1764		101.562500
1765		95.703125
1766		103.515625
1767		95.703125
1768		103.515625
1769		95.703125
1770		103.515625
1771		95.703125
1772		103.515625
1773		95.703125
1774		103.515625
1775		95.703125
1776		103.515625
1777		97.656250
1778		101.562500
1779		99.609375
1780		101.562500
1781		95.703125
1782		103.515625
1783		95.703125
1784		103.515625
1785		93.750000
1786		103.515625
1787		93.750000
1788		101.562500
1789		93.750000
1790		101.562500
1791		93.750000
1792		101.562500
1793		93.750000
1794		101.562500
1795		93.750000
1796		97.656250
1797		93.750000
1798		95.703125
1799		89.843750
1800		97.656250
1801		87.890625
1802		97.656250
1803		87.890625
1804		95.703125
1805		85.937500
1806		95.703125
1807		85.937500
1808		93.750000
1809		85.937500
1810		91.796875
1811		85.937500
1812		89.843750
1813		83.984375
1814		87.890625
1815		80.078125
1816		87.890625
1817		80.078125
1818		87.890625
1819		78.125000
1820		87.890625
1821		76.171875
1822		83.984375
1823		74.218750
1824		83.984375
1825		72.265625
1826		82.031250
1827		72.265625
1828		80.078125
1829		72.265625
1830		76.171875
1831		66.406250
1832		74.218750
1833		66.406250
1834		74.218750
1835		64.453125
1836		72.265625
1837		60.546875
1838		70.312500
1839		58.593750
1840		68.359375
1841		56.640625
1842		66.406250
1843		54.687500
1844		64.453125
1845		54.687500
1846		58.593750
1847		52.734375
1848		56.640625
1849		46.875000
1850		56.640625
1851		44.921875
1852		54.687500
1853		44.921875
1854		52.734375
1855		41.015625
1856		50.781250
1857		39.062500
1858		46.875000
1859		35.156250
1860		44.921875
1861		35.156250
1862		41.015625
1863		33.203125
1864		37.109375
1865		27.343750
1866		35.156250
1867		25.390625
1868		33.203125
1869		21.484375
1870		31.250000
1871		19.531250
1872		29.296875
1873		17.578125
1874		25.390625
1875		15.625000
1876		23.437500
1877		11.718750
1878		21.484375
1879		11.718750
1880		15.625000
1881		7.812500
1882		13.671875
1883		3.906250
1884		11.718750
1885		0.000000
1886		9.765625
1887		-3.906250
1888		5.859375
1889		-5.859375
1890		3.906250
1891		-9.765625
1892		0.000000
1893		-11.718750
1894		-1.953125
1895		-11.718750
1896		-5.859375
1897		-15.625000
1898		-9.765625
1899		-21.484375
1900		-13.671875
1901		-23.437500
1902		-15.625000
1903		-25.390625
1904		-17.578125
1905		-29.296875
1906		-19.531250
1907		-31.250000
1908		-23.437500
1909		-33.203125
1910		-25.390625
1911		-37.109375
1912		-29.296875
1913		-39.062500
1914		-35.156250
1915		-42.968750
1916		-37.109375
1917		-46.875000
1918		-37.109375
1919		-48.828125
1920		-41.015625
1921		-52.734375
1922		-42.968750
1923		-54.687500
1924		-46.875000
1925		-56.640625
1926		-48.828125
1927		-60.546875
1928		-52.734375
1929		-60.546875
1930		-56.640625
1931		-64.453125
1932		-58.593750
1933		-68.359375
1934		-60.546875
1935		-72.265625
1936		-62.500000
1937		-72.265625
1938		-66.406250
1939		-76.171875
1940		-68.359375
1941		-80.078125
1942		-70.312500
1943		-80.078125
1944		-72.265625
1945		-80.078125
1946		-74.218750
1947		-82.031250
1948		-80.078125
1949		-85.937500
1950		-82.031250
1951		-89.843750
1952		-82.031250
1953		-91.796875
1954		-83.984375
1955		-93.750000
1956		-85.937500
1957		-95.703125
1958		-87.890625
1959		-97.656250
1960		-89.843750
1961		-99.609375
1962		-91.796875
1963		-99.609375
1964		-95.703125
1965		-101.562500
1966		-97.656250
1967		-105.468750
1968		-97.656250
1969		-105.468750
1970		-97.656250
1971		-109.375000
1972		-99.609375
1973		-109.375000
1974		-101.562500
1975		-111.328125
1976		-103.515625
1977		-113.281250
1978		-105.468750
1979		-111.328125
1980		-107.421875
1981		-111.328125
1982		-109.375000
1983		-115.234375
1984		-109.375000
1985		-117.187500
1986		-109.375000
1987		-119.140625
1988		-109.375000
1989		-119.140625
1990		-111.328125
1991		-119.140625
1992		-111.328125
1993		-119.140625
1994		-111.328125
1995		-121.093750
1996		-113.281250
1997		-119.140625
1998		-115.234375
1999		-119.140625
2000		-115.234375
2001		-121.093750
2002		-113.281250
2003		-121.093750
2004		-115.234375
2005		-123.046875
2006		-115.234375
2007		-123.046875
2008		-115.234375
2009		-123.046875
2010		-115.234375
2011		-123.046875
2012		-115.234375
2013		-119.140625
2014		-117.187500
2015		-119.140625
2016		-117.187500
2017		-121.093750
2018		-113.281250
2019		-121.093750
2020		-113.281250
2021		-121.093750
2022		-113.281250
2023		-119.140625
2024		-113.281250
2025		-119.140625
2026		-111.328125
2027		-119.140625
2028		-109.375000
2029		-117.187500
2030		-111.328125
2031		-113.281250
2032		-111.328125
2033		-113.281250
2034		-109.375000
2035		-115.234375
2036		-105.468750
2037		-113.281250
2038		-105.468750
2039		-111.328125
2040		-105.468750
2041		-111.328125
2042		-101.562500
2043		-109.375000
2044		-101.562500
2045		-109.375000
2046		-101.562500
2047		-103.515625
2048		-101.562500
2049		-103.515625
2050		-99.609375
2051		-103.515625
2052		-93.750000
2053		-101.562500
2054		-93.750000
2055		-99.609375
2056		-91.796875
2057		-99.609375
2058		-89.843750
2059		-95.703125
2060		-87.890625
2061		-93.750000
2062		-85.937500
2063		-89.843750
2064		-85.937500
2065		-87.890625
2066		-83.984375
2067		-85.937500
2068		-80.078125
2069		-85.937500
2070		-76.171875
2071		-83.984375
2072		-74.218750
2073		-80.078125
2074		-72.265625
2075		-78.125000
2076		-70.312500
2077		-76.171875
2078		-66.406250
2079		-72.265625
2080		-66.406250
2081		-68.359375
2082		-64.453125
2083		-66.406250
2084		-60.546875
2085		-66.406250
2086		-56.640625
2087		-62.500000
2088		-54.687500
2089		-60.546875
2090		-50.781250
2091		-56.640625
2092		-46.875000
2093		-54.687500
2094		-44.921875
2095		-52.734375
2096		-42.968750
2097		-46.875000
2098		-42.968750
2099		-42.968750
2100		-39.062500
2101		-42.968750
2102		-33.203125
2103		-41.015625
2104		-29.296875
2105		-37.109375
2106		-29.296875
2107		-35.156250
2108		-25.390625
2109		-31.250000
2110		-23.437500
2111		-29.296875
2112		-19.531250
2113		-25.390625
2114		-19.531250
2115		-21.484375
2116		-15.625000
2117		-17.578125
2118		-11.718750
2119		-17.578125
2120		-7.812500
2121		-13.671875
2122		-5.859375
2123		-11.718750
2124		-1.953125
2125		-7.812500
2126		1.953125
2127		-3.906250
2128		3.906250
2129		-1.953125
2130		5.859375
2131		3.906250
2132		7.812500
2133		5.859375
2134		9.765625
2135		5.859375
2136		15.625000
2137		7.812500
2138		19.531250
2139		13.671875
2140		21.484375
2141		13.671875
2142		23.437500
2143		15.625000
2144		27.343750
2145		21.484375
2146		29.296875
2147		23.437500
2148		29.296875
2149		27.343750
2150		31.250000
2151		31.250000
2152		37.109375
2153		29.296875
2154		39.062500
2155		33.203125
2156		42.968750
2157		37.109375
2158		44.921875
2159		37.109375
2160		46.875000
2161		41.015625
2162		50.781250
2163		42.968750
2164		50.781250
2165		48.828125
2166		52.734375
2167		50.781250
2168		54.687500
2169		50.781250
2170		58.593750
2171		52.734375
2172		60.546875
2173		54.687500
2174		64.453125
2175		56.640625
2176		64.453125
2177		58.593750
2178		68.359375
2179		60.546875
2180		70.312500
2181		66.406250
2182		68.359375
2183		66.406250
2184		72.265625
2185		68.359375
2186		76.171875
2187		70.312500
2188		78.125000
2189		70.312500
2190		80.078125
2191		72.265625
2192		82.031250
2193		74.218750
2194		82.031250
2195		76.171875
2196		83.984375
2197		78.125000
2198		83.984375
2199		82.031250
2200		83.984375
2201		82.031250
2202		87.890625
2203		82.031250
2204		89.843750
2205		82.031250
2206		91.796875
2207		83.984375
2208		91.796875
2209		85.937500
2210		93.750000
2211		87.890625
2212		93.750000
2213		87.890625
2214		95.703125
2215		91.796875
2216		95.703125
2217		93.750000
2218		95.703125
2219		91.796875
2220		97.656250
2221		91.796875
2222		99.609375
2223		91.796875
2224		101.562500
2225		93.750000
2226		101.562500
2227		93.750000
2228		101.562500
2229		95.703125
2230		103.515625
2231		95.703125
2232		101.562500
2233		99.609375
2234		101.562500
2235		97.656250
2236		103.515625
2237		95.703125
2238		105.468750
2239		95.703125
2240		105.468750
2241		97.656250
2242		105.468750
2243		97.656250
2244		105.468750
2245		97.656250
2246		105.468750
2247		97.656250
2248		105.468750
2249		99.609375
2250		103.515625
2251		99.609375
2252		103.515625
2253		97.656250
2254		105.468750
2255		97.656250
2256		105.468750
2257		97.656250
2258		105.468750
2259		95.703125
2260		103.515625
2261		95.703125
2262		103.515625
2263		95.703125
2264		103.515625
2265		97.656250
2266		99.609375
2267		97.656250
2268		101.562500
2269		93.750000
2270		101.562500
2271		91.796875
2272		101.562500
2273		91.796875
2274		99.609375
2275		91.796875
2276		99.609375
2277		91.796875
2278		97.656250
2279		89.843750
2280		97.656250
2281		91.796875
2282		95.703125
2283		89.843750
2284		93.750000
2285		87.890625
2286		93.750000
2287		85.937500
2288		93.750000
2289		83.984375
2290		91.796875
2291		82.031250
2292		91.796875
2293		82.031250
2294		89.843750
2295		80.078125
2296		87.890625
2297		78.125000
2298		85.937500
2299		80.078125
2300		82.031250
2301		78.125000
2302		82.031250
2303		72.265625
2304		82.031250
2305		72.265625
2306		80.078125
2307		68.359375
2308		78.125000
2309		68.359375
2310		78.125000
2311		66.406250
2312		74.218750
2313		64.453125
2314		72.265625
2315		64.453125
2316		70.312500
2317		62.500000
2318		66.406250
2319		56.640625
2320		64.453125
2321		56.640625
2322		64.453125
2323		52.734375
2324		62.500000
2325		50.781250
2326		60.546875
2327		48.828125
2328		58.593750
2329		46.875000
2330		54.687500
2331		44.921875
2332		54.687500
2333		44.921875
2334		48.828125
2335		41.015625
2336		46.875000
2337		37.109375
2338		44.921875
2339		33.203125
2340		42.968750
2341		31.250000
2342		39.062500
2343		27.343750
2344		37.109375
2345		25.390625
2346		35.156250
2347		23.437500
2348		33.203125
2349		23.437500
2350		27.343750
2351		19.531250
2352		25.390625
2353		15.625000
2354		23.437500
2355		11.718750
2356		19.531250
2357		9.765625
2358		17.578125
2359		5.859375
2360		13.671875
2361		1.953125
2362		11.718750
2363		0.000000
2364		9.765625
2365		-1.953125
2366		5.859375
2367		-1.953125
2368		1.953125
2369		-5.859375
2370		-1.953125
2371		-11.718750
2372		-1.953125
2373		-13.671875
2374		-5.859375
2375		-17.578125
2376		-7.812500
2377		-19.531250
2378		-9.765625
2379		-23.437500
2380		-13.671875
2381		-25.390625
2382		-15.625000
2383		-27.343750
2384		-21.484375
2385		-29.296875
2386		-25.390625
2387		-35.156250
2388		-27.343750
2389		-39.062500
2390		-29.296875
2391		-41.015625
2392		-31.250000
2393		-44.921875
2394		-35.156250
2395		-44.921875
2396		-37.109375
2397		-48.828125
2398		-41.015625
2399		-50.781250
2400		-42.968750
2401		-52.734375
2402		-48.828125
2403		-58.593750
2404		-50.781250
2405		-60.546875
2406		-50.781250
2407		-62.500000
2408		-52.734375
2409		-66.406250
2410		-56.640625
2411		-68.359375
2412		-58.593750
2413		-70.312500
2414		-62.500000
2415		-72.265625
2416		-64.453125
2417		-72.265625
2418		-68.359375
2419		-76.171875
2420		-72.265625
2421		-80.078125
2422		-72.265625
2423		-82.031250
2424		-74.218750
2425		-85.937500
2426		-76.171875
2427		-87.890625
2428		-78.125000
2429		-89.843750
2430		-80.078125
2431		-91.796875
2432		-83.984375
2433		-91.796875
2434		-87.890625
2435		-93.750000
2436		-89.843750
2437		-97.656250
2438		-89.843750
2439		-99.609375
2440		-91.796875
2441		-101.562500
2442		-93.750000
2443		-103.515625
2444		-93.750000
2445		-105.468750
2446		-95.703125
2447		-105.468750
2448		-97.656250
2449		-107.421875
2450		-99.609375
2451		-107.421875
2452		-103.515625
2453		-109.375000
2454		-105.468750
2455		-111.328125
2456		-103.515625
2457		-113.281250
2458		-105.468750
2459		-113.281250
2460		-105.468750
2461		-115.234375
2462		-107.421875
2463		-117.187500
2464		-109.375000
2465		-117.187500
2466		-109.375000
2467		-115.234375
2468		-113.281250
2469		-115.234375
2470		-113.281250
2471		-119.140625
2472		-111.328125
2473		-119.140625
2474		-111.328125
2475		-121.093750
2476		-111.328125
2477		-121.093750
2478		-113.281250
2479		-121.093750
2480		-113.281250
2481		-121.093750
2482		-113.281250
2483		-121.093750
2484		-113.281250
2485		-119.140625
2486		-117.187500
2487		-121.093750
2488		-113.281250
2489		-121.093750
2490		-113.281250
2491		-121.093750
2492		-113.281250
2493		-121.093750
2494		-113.281250
2495		-121.093750
2496		-113.281250
2497		-119.140625
2498		-111.328125
2499		-121.093750
2500		-111.328125
2501		-117.187500
2502		-113.281250
2503		-115.234375
2504		-113.281250
2505		-117.187500
2506		-109.375000
2507		-117.187500
2508		-109.375000
2509		-117.187500
2510		-107.421875
2511		-115.234375
2512		-105.468750
2513		-113.281250
2514		-105.468750
2515		-113.281250
2516		-103.515625
2517		-109.375000
2518		-105.468750
2519		-107.421875
2520		-103.515625
2521		-107.421875
2522		-99.609375
2523		-107.421875
2524		-97.656250
2525		-105.468750
2526		-97.656250
2527		-105.468750
2528		-95.703125
2529		-101.562500
2530		-93.750000
2531		-99.609375
2532		-91.796875
2533		-99.609375
2534		-91.796875
2535		-93.750000
2536		-89.843750
2537		-91.796875
2538		-87.890625
2539		-93.750000
2540		-83.984375
2541		-91.796875
2542		-82.031250
2543		-89.843750
2544		-80.078125
2545		-85.937500
2546		-78.125000
2547		-83.984375
2548		-76.171875
2549		-82.031250
2550		-72.265625
2551		-76.171875
2552		-72.265625
2553		-74.218750
2554		-70.312500
2555		-74.218750
2556		-66.406250
2557		-72.265625
2558		-64.453125
2559		-70.312500
2560		-60.546875
2561		-66.406250
2562		-58.593750
2563		-64.453125
2564		-54.687500
2565		-60.546875
2566		-52.734375
2567		-58.593750
2568		-52.734375
2569		-54.687500
2570		-48.828125
2571		-50.781250
2572		-44.921875
2573		-50.781250
2574		-41.015625
2575		-46.875000
2576		-39.062500
2577		-44.921875
2578		-37.109375
2579		-41.015625
2580		-33.203125
2581		-39.062500
2582		-29.296875
2583		-35.156250
2584		-27.343750
2585		-31.250000
2586		-27.343750
2587		-29.296875
2588		-23.437500
2589		-27.343750
2590		-17.578125
2591		-25.390625
2592		-13.671875
2593		-21.484375
2594		-13.671875
2595		-19.531250
2596		-9.765625
2597		-15.625000
2598		-5.859375
2599		-13.671875
2600		-3.906250
2601		-9.765625
2602		-3.906250
2603		-3.906250
2604		0.000000
2605		-1.953125
2606		3.906250
2607		-1.953125
2608		7.812500
2609		1.953125
2610		9.765625
2611		3.906250
2612		13.671875
2613		7.812500
2614		15.625000
2615		9.765625
2616		19.531250
2617		11.718750
2618		21.484375
2619		17.578125
2620		23.437500
2621		21.484375
2622		27.343750
2623		21.484375
2624		31.250000
2625		23.437500
2626		33.203125
2627		27.343750
2628		35.156250
2629		29.296875
2630		39.062500
2631		31.250000
2632		41.015625
2633		33.203125
2634		42.968750
2635		39.062500
2636		42.968750
2637		41.015625
2638		44.921875
2639		42.968750
2640		50.781250
2641		42.968750
2642		52.734375
2643		46.875000
2644		56.640625
2645		48.828125
2646		56.640625
2647		50.781250
2648		60.546875
2649		52.734375
2650		62.500000
2651		54.687500
2652		62.500000
2653		60.546875
2654		64.453125
2655		62.500000
2656		68.359375
2657		60.546875
2658		72.265625
2659		62.500000
2660		72.265625
2661		66.406250
2662		74.218750
2663		66.406250
2664		76.171875
2665		68.359375
2666		78.125000
2667		72.265625
2668		80.078125
2669		76.171875
2670		78.125000
2671		78.125000
2672		80.078125
2673		76.171875
2674		83.984375
2675		78.125000
2676		85.937500
2677		80.078125
2678		87.890625
2679		80.078125
2680		89.843750
2681		82.031250
2682		89.843750
2683		83.984375
2684		91.796875
2685		85.937500
2686		91.796875
2687		87.890625
2688		91.796875
2689		89.843750
2690		95.703125
2691		87.890625
2692		95.703125
2693		89.843750
2694		97.656250
2695		89.843750
2696		99.609375
2697		91.796875
2698		99.609375
2699		91.796875
2700		99.609375
2701		93.750000
2702		101.562500
2703		95.703125
2704		99.609375
2705		95.703125
2706		101.562500
2707		95.703125
2708		103.515625
2709		95.703125
2710		103.515625
2711		95.703125
2712		103.515625
2713		95.703125
2714		103.515625
2715		97.656250
2716		105.468750
2717		97.656250
2718		105.468750
2719		99.609375
2720		103.515625
2721		101.562500
2722		103.515625
2723		97.656250
2724		105.468750
2725		97.656250
2726		105.468750
2727		97.656250
2728		105.468750
2729		97.656250
2730		105.468750
2731		97.656250
2732		105.468750
2733		97.656250
2734		105.468750
2735		97.656250
2736		103.515625
2737		99.609375
2738		101.562500
2739		95.703125
2740		103.515625
2741		95.703125
2742		103.515625
2743		95.703125
2744		103.515625
2745		93.750000
2746		101.562500
2747		93.750000
2748		101.562500
2749		93.750000
2750		101.562500
2751		91.796875
2752		99.609375
2753		93.750000
2754		97.656250
2755		93.750000
2756		97.656250
2757		89.843750
2758		97.656250
2759		87.890625
2760		97.656250
2761		87.890625
2762		95.703125
2763		85.937500
2764		95.703125
2765		85.937500
2766		93.750000
2767		83.984375
2768		91.796875
2769		83.984375
2770		89.843750
2771		83.984375
2772		87.890625
2773		80.078125
2774		87.890625
2775		78.125000
2776		87.890625
2777		76.171875
2778		85.937500
2779		76.171875
2780		83.984375
2781		72.265625
2782		82.031250
2783		72.265625
2784		80.078125
2785		70.312500
2786		78.125000
2787		70.312500
2788		74.218750
2789		66.406250
2790		72.265625
2791		64.453125
2792		72.265625
2793		62.500000
2794		70.312500
2795		60.546875
2796		68.359375
2797		58.593750
2798		66.406250
2799		54.687500
2800		64.453125
2801		54.687500
2802		62.500000
2803		52.734375
2804		56.640625
2805		50.781250
2806		54.687500
2807		46.875000
2808		54.687500
2809		42.968750
2810		52.734375
2811		41.015625
2812		50.781250
2813		39.062500
2814		48.828125
2815		37.109375
2816		44.921875
2817		33.203125
2818		42.968750
2819		33.203125
2820		41.015625
2821		31.250000
2822		35.156250
2823		25.390625
2824		33.203125
2825		23.437500
2826		31.250000
2827		21.484375
2828		29.296875
2829		15.625000
2830		25.390625
2831		13.671875
2832		23.437500
2833		11.718750
2834		21.484375
2835		9.765625
2836		17.578125
2837		7.812500
2838		11.718750
2839		5.859375
2840		9.765625
2841		0.000000
2842		9.765625
2843		-3.906250
2844		5.859375
2845		-7.812500
2846		1.953125
2847		-9.765625
2848		0.000000
2849		-11.718750
2850		-1.953125
2851		-15.625000
2852		-5.859375
2853		-15.625000
2854		-7.812500
2855		-17.578125
2856		-13.671875
2857		-23.437500
2858		-15.625000
2859		-27.343750
2860		-17.578125
2861		-29.296875
2862		-19.531250
2863		-31.250000
2864		-23.437500
2865		-35.156250
2866		-25.390625
2867		-39.062500
2868		-29.296875
2869		-41.015625
2870		-31.250000
2871		-41.015625
2872		-37.109375
2873		-46.875000
2874		-39.062500
2875		-50.781250
2876		-41.015625
2877		-52.734375
2878		-42.968750
2879		-54.687500
2880		-44.921875
2881		-58.593750
2882		-48.828125
2883		-60.546875
2884		-50.781250
2885		-64.453125
2886		-54.687500
2887		-62.500000
2888		-58.593750
2889		-66.406250
2890		-62.500000
2891		-70.312500
2892		-62.500000
2893		-74.218750
2894		-64.453125
2895		-76.171875
2896		-66.406250
2897		-78.125000
2898		-70.312500
2899		-80.078125
2900		-72.265625
2901		-83.984375
2902		-74.218750
2903		-83.984375
2904		-76.171875
2905		-83.984375
2906		-82.031250
2907		-89.843750
2908		-82.031250
2909		-91.796875
2910		-83.984375
2911		-93.750000
2912		-85.937500
2913		-95.703125
2914		-85.937500
2915		-97.656250
2916		-89.843750
2917		-99.609375
2918		-91.796875
2919		-101.562500
2920		-91.796875
2921		-99.609375
2922		-97.656250
2923		-101.562500
2924		-97.656250
2925		-105.468750
2926		-97.656250
2927		-107.421875
2928		-99.609375
2929		-109.375000
2930		-101.562500
2931		-111.328125
2932		-101.562500
2933		-111.328125
2934		-103.515625
2935		-113.281250
2936		-103.515625
2937		-113.281250
2938		-107.421875
2939		-113.281250
2940		-109.375000
2941		-115.234375
2942		-109.375000
2943		-117.187500
2944		-107.421875
2945		-117.187500
2946		-109.375000
2947		-119.140625
2948		-109.375000
2949		-119.140625
2950		-111.328125
2951		-119.140625
2952		-111.328125
2953		-119.140625
2954		-111.328125
2955		-117.187500
2956		-115.234375
2957		-117.187500
2958		-115.234375
2959		-121.093750
2960		-113.281250
2961		-121.093750
2962		-113.281250
2963		-121.093750
2964		-113.281250
2965		-121.093750
2966		-113.281250
2967		-121.093750
2968		-113.281250
2969		-121.093750
2970		-113.281250
2971		-117.187500
2972		-115.234375
2973		-117.187500
2974		-115.234375
2975		-119.140625
2976		-111.328125
2977		-119.140625
2978		-111.328125
2979		-117.187500
2980		-109.375000
2981		-117.187500
2982		-109.375000
2983		-117.187500
2984		-109.375000
2985		-115.234375
2986		-107.421875
2987		-115.234375
2988		-107.421875
2989		-111.328125
2990		-107.421875
2991		-109.375000
2992		-105.468750
2993		-111.328125
2994		-103.515625
2995		-111.328125
2996		-101.562500
2997		-109.375000
2998		-101.562500
2999		-107.421875
3000		-99.609375
3001		-105.468750
3002		-97.656250
3003		-105.468750
3004		-97.656250
3005		-99.609375
3006		-95.703125
3007		-97.656250
3008		-95.703125
3009		-99.609375
3010		-89.843750
3011		-97.656250
3012		-89.843750
3013		-95.703125
3014		-87.890625
3015		-93.750000
3016		-83.984375
3017		-91.796875
3018		-83.984375
3019		-89.843750
3020		-80.078125
3021		-87.890625
3022		-80.078125
3023		-82.031250
3024		-78.125000
3025		-80.078125
3026		-74.218750
3027		-80.078125
3028		-72.265625
3029		-78.125000
3030		-68.359375
3031		-76.171875
3032		-66.406250
3033		-72.265625
3034		-66.406250
3035		-70.312500
3036		-62.500000
3037		-68.359375
3038		-60.546875
3039		-62.500000
3040		-58.593750
3041		-60.546875
3042		-56.640625
3043		-60.546875
3044		-50.781250
3045		-58.593750
3046		-48.828125
3047		-54.687500
3048		-46.875000
3049		-50.781250
3050		-42.968750
3051		-48.828125
3052		-39.062500
3053		-46.875000
3054		-37.109375
3055		-41.015625
3056		-37.109375
3057		-39.062500
3058		-33.203125
3059		-37.109375
3060		-29.296875
3061		-35.156250
3062		-25.390625
3063		-31.250000
3064		-23.437500
3065		-29.296875
3066		-19.531250
3067		-27.343750
3068		-17.578125
3069		-23.437500
3070		-13.671875
3071		-21.484375
3072		-11.718750
3073		-15.625000
3074		-9.765625
3075		-11.718750
3076		-7.812500
3077		-11.718750
3078		-3.906250
3079		-7.812500
3080		0.000000
3081		-5.859375
3082		1.953125
3083		-1.953125
3084		3.906250
3085		0.000000
3086		7.812500
3087		3.906250
3088		9.765625
3089		7.812500
3090		11.718750
3091		11.718750
3092		15.625000
3093		11.718750
3094		21.484375
3095		13.671875
3096		23.437500
3097		17.578125
3098		25.390625
3099		19.531250
3100		29.296875
3101		21.484375
3102		31.250000
3103		25.390625
3104		33.203125
3105		27.343750
3106		35.156250
3107		33.203125
3108		37.109375
3109		35.156250
3110		42.968750
3111		35.156250
3112		44.921875
3113		39.062500
3114		46.875000
3115		39.062500
3116		48.828125
3117		42.968750
3118		50.781250
3119		44.921875
3120		54.687500
3121		46.875000
3122		56.640625
3123		52.734375
3124		56.640625
3125		54.687500
3126		58.593750
3127		54.687500
3128		62.500000
3129		56.640625
3130		64.453125
3131		58.593750
3132		66.406250
3133		60.546875
3134		68.359375
3135		62.500000
3136		70.312500
3137		64.453125
3138		72.265625
3139		68.359375
3140		72.265625
3141		70.312500
3142		74.218750
3143		70.312500
3144		78.125000
3145		72.265625
3146		82.031250
3147		74.218750
3148		82.031250
3149		76.171875
3150		83.984375
3151		76.171875
3152		85.937500
3153		78.125000
3154		85.937500
3155		80.078125
3156		87.890625
3157		83.984375
3158		87.890625
3159		85.937500
3160		89.843750
3161		83.984375
3162		93.750000
3163		85.937500
3164		93.750000
3165		85.937500
3166		93.750000
3167		87.890625
3168		95.703125
3169		89.843750
3170		97.656250
3171		89.843750
3172		97.656250
3173		93.750000
3174		95.703125
3175		93.750000
3176		97.656250
3177		93.750000
3178		101.562500
3179		93.750000
3180		101.562500
3181		93.750000
3182		101.562500
3183		93.750000
3184		103.515625
3185		95.703125
3186		103.515625
3187		95.703125
3188		103.515625
3189		95.703125
3190		103.515625
3191		99.609375
3192		101.562500
3193		97.656250
3194		103.515625
3195		97.656250
3196		105.468750
3197		97.656250
3198		105.468750
3199		97.656250
3200		105.468750
3201		97.656250
3202		105.468750
3203		97.656250
3204		105.468750
3205		97.656250
3206		105.468750
3207		99.609375
3208		103.515625
3209		99.609375
3210		103.515625
3211		97.656250
3212		105.468750
3213		97.656250
3214		105.468750
3215		97.656250
3216		105.468750
3217		95.703125
3218		103.515625
3219		95.703125
3220		103.515625
3221		95.703125
3222		103.515625
3223		93.750000
3224		101.562500
3225		95.703125
3226		99.609375
3227		93.750000
3228		99.609375
3229		91.796875
3230		99.609375
3231		91.796875
3232		99.609375
3233		89.843750
3234		97.656250
3235		89.843750
3236		97.656250
3237		87.890625
3238		97.656250
3239		87.890625
3240		95.703125
3241		89.843750
3242		91.796875
3243		85.937500
3244		91.796875
3245		83.984375
3246		91.796875
3247		82.031250
3248		91.796875
3249		82.031250
3250		87.890625
3251		80.078125
3252		87.890625
3253		78.125000
3254		85.937500
3255		76.171875
3256		85.937500
3257		78.125000
3258		80.078125
3259		76.171875
3260		80.078125
3261		70.312500
3262		78.125000
3263		70.312500
3264		78.125000
3265		68.359375
3266		76.171875
3267		64.453125
3268		74.218750
3269		64.453125
3270		72.265625
3271		62.500000
3272		70.312500
3273		60.546875
3274		68.359375
3275		60.546875
3276		64.453125
3277		54.687500
3278		62.500000
3279		52.734375
3280		62.500000
3281		50.781250
3282		60.546875
3283		48.828125
3284		56.640625
3285		46.875000
3286		54.687500
3287		42.968750
3288		52.734375
3289		41.015625
3290		48.828125
3291		41.015625
3292		44.921875
3293		39.062500
3294		42.968750
3295		33.203125
3296		41.015625
3297		31.250000
3298		39.062500
3299		29.296875
3300		37.109375
3301		25.390625
3302		33.203125
3303		21.484375
3304		31.250000
3305		19.531250
3306		29.296875
3307		19.531250
3308		25.390625
3309		15.625000
3310		21.484375
3311		11.718750
3312		17.578125
3313		7.812500
3314		17.578125
3315		3.906250
3316		15.625000
3317		1.953125
3318		9.765625
3319		0.000000
3320		7.812500
3321		-3.906250
3322		5.859375
3323		-5.859375
3324		1.953125
3325		-5.859375
3326		-1.953125
3327		-11.718750
3328		-5.859375
3329		-15.625000
3330		-5.859375
3331		-19.531250
3332		-9.765625
3333		-21.484375
3334		-11.718750
3335		-25.390625
3336		-15.625000
3337		-27.343750
3338		-17.578125
3339		-29.296875
3340		-21.484375
3341		-31.250000
3342		-25.390625
3343		-33.203125
3344		-29.296875
3345		-39.062500
3346		-31.250000
3347		-41.015625
3348		-33.203125
3349		-44.921875
3350		-35.156250
3351		-46.875000
3352		-37.109375
3353		-48.828125
3354		-41.015625
3355		-52.734375
3356		-42.968750
3357		-54.687500
3358		-46.875000
3359		-56.640625
3360		-50.781250
3361		-60.546875
3362		-54.687500
3363		-62.500000
3364		-54.687500
3365		-66.406250
3366		-56.640625
3367		-68.359375
3368		-60.546875
3369		-72.265625
3370		-62.500000
3371		-74.218750
3372		-64.453125
3373		-76.171875
3374		-66.406250
3375		-76.171875
3376		-72.265625
3377		-78.125000
3378		-74.218750
3379		-83.984375
3380		-74.218750
3381		-85.937500
3382		-76.171875
3383		-87.890625
3384		-80.078125
3385		-89.843750
3386		-80.078125
3387		-91.796875
3388		-83.984375
3389		-93.750000
3390		-85.937500
3391		-95.703125
3392		-87.890625
3393		-95.703125
3394		-91.796875
3395		-99.609375
3396		-93.750000
3397		-101.562500
3398		-93.750000
3399		-103.515625
3400		-95.703125
3401		-105.468750
3402		-95.703125
3403		-107.421875
3404		-97.656250
3405		-107.421875
3406		-99.609375
3407		-109.375000
3408		-101.562500
3409		-107.421875
3410		-105.468750
3411		-111.328125
3412		-105.468750
3413		-113.281250
3414		-105.468750
3415		-113.281250
3416		-107.421875
3417		-115.234375
3418		-107.421875
3419		-117.187500
3420		-109.375000
3421		-117.187500
3422		-109.375000
3423		-117.187500
3424		-109.375000
3425		-117.187500
3426		-113.281250
3427		-117.187500
3428		-113.281250
3429		-119.140625
3430		-113.281250
3431		-121.093750
3432		-113.281250
3433		-121.093750
3434		-113.281250
3435		-121.093750
3436		-113.281250
3437		-121.093750
3438		-113.281250
3439		-121.093750
3440		-113.281250
3441		-121.093750
3442		-113.281250
3443		-119.140625
3444		-115.234375
3445		-121.093750
3446		-113.281250
3447		-121.093750
3448		-113.281250
3449		-121.093750
3450		-113.281250
3451		-121.093750
3452		-113.281250
3453		-121.093750
3454		-111.328125
3455		-119.140625
3456		-111.328125
3457		-119.140625
3458		-111.328125
3459		-115.234375
3460		-113.281250
3461		-113.281250
3462		-111.328125
3463		-115.234375
3464		-107.421875
3465		-115.234375
3466		-107.421875
3467		-115.234375
3468		-105.468750
3469		-113.281250
3470		-103.515625
3471		-111.328125
3472		-103.515625
3473		-111.328125
3474		-101.562500
3475		-109.375000
3476		-101.562500
3477		-105.468750
3478		-101.562500
3479		-105.468750
3480		-97.656250
3481		-105.468750
3482		-95.703125
3483		-101.562500
3484		-95.703125
3485		-101.562500
3486		-93.750000
3487		-99.609375
3488		-89.843750
3489		-97.656250
3490		-87.890625
3491		-95.703125
3492		-87.890625
3493		-91.796875
3494		-87.890625
3495		-89.843750
3496		-83.984375
3497		-89.843750
3498		-80.078125
3499		-87.890625
3500		-78.125000
3501		-85.937500
3502		-76.171875
3503		-83.984375
3504		-74.218750
3505		-82.031250
3506		-72.265625
3507		-78.125000
3508		-70.312500
3509		-74.218750
3510		-68.359375
3511		-70.312500
3512		-66.406250
3513		-70.312500
3514		-62.500000
3515		-68.359375
3516		-60.546875
3517		-66.406250
3518		-56.640625
3519		-62.500000
3520		-54.687500
3521		-60.546875
3522		-50.781250
3523		-58.593750
3524		-48.828125
3525		-54.687500
3526		-46.875000
3527		-48.828125
3528		-44.921875
3529		-46.875000
3530		-41.015625
3531		-46.875000
3532		-37.109375
3533		-44.921875
3534		-33.203125
3535		-41.015625
3536		-31.250000
3537		-37.109375
3538		-29.296875
3539		-35.156250
3540		-25.390625
3541		-31.250000
3542		-23.437500
3543		-25.390625
3544		-21.484375
3545		-23.437500
3546		-19.531250
3547		-23.437500
3548		-13.671875
3549		-19.531250
3550		-9.765625
3551		-17.578125
3552		-7.812500
3553		-15.625000
3554		-3.906250
3555		-11.718750
3556		-1.953125
3557		-7.812500
3558		1.953125
3559		-5.859375
3560		1.953125
3561		0.000000
3562		3.906250
3563		1.953125
3564		9.765625
3565		3.906250
3566		11.718750
3567		5.859375
3568		13.671875
3569		7.812500
3570		19.531250
3571		11.718750
3572		21.484375
3573		13.671875
3574		21.484375
3575		15.625000
3576		25.390625
3577		21.484375
3578		27.343750
3579		25.390625
3580		29.296875
3581		25.390625
3582		35.156250
3583		27.343750
3584		37.109375
3585		31.250000
3586		39.062500
3587		33.203125
3588		42.968750
3589		37.109375
3590		44.921875
3591		39.062500
3592		46.875000
3593		42.968750
3594		46.875000
3595		44.921875
3596		48.828125
3597		46.875000
3598		54.687500
3599		46.875000
3600		56.640625
3601		50.781250
3602		58.593750
3603		52.734375
3604		60.546875
3605		54.687500
3606		62.500000
3607		56.640625
3608		66.406250
3609		58.593750
3610		66.406250
3611		64.453125
3612		66.406250
3613		66.406250
3614		70.312500
3615		64.453125
3616		74.218750
3617		66.406250
3618		76.171875
3619		68.359375
3620		76.171875
3621		70.312500
3622		80.078125
3623		72.265625
3624		82.031250
3625		74.218750
3626		82.031250
3627		78.125000
3628		82.031250
3629		80.078125
3630		83.984375
3631		78.125000
3632		87.890625
3633		80.078125
3634		87.890625
3635		82.031250
3636		89.843750
3637		83.984375
3638		89.843750
3639		83.984375
3640		91.796875
3641		85.937500
3642		93.750000
3643		87.890625
3644		93.750000
3645		89.843750
3646		93.750000
3647		89.843750
3648		97.656250
3649		89.843750
3650		97.656250
3651		91.796875
3652		99.609375
3653		91.796875
3654		99.609375
3655		91.796875
3656		101.562500
3657		93.750000
3658		101.562500
3659		93.750000
3660		101.562500
3661		97.656250
3662		99.609375
3663		97.656250
3664		101.562500
3665		95.703125
3666		103.515625
3667		97.656250
3668		105.468750
3669		97.656250
3670		105.468750
3671		97.656250
3672		105.468750
3673		97.656250
3674		105.468750
3675		97.656250
3676		105.468750
3677		101.562500
3678		103.515625
3679		101.562500
3680		103.515625
3681		99.609375
3682		105.468750
3683		97.656250
3684		105.468750
3685		97.656250
3686		105.468750
3687		97.656250
3688		105.468750
3689		97.656250
3690		105.468750
3691		97.656250
3692		103.515625
3693		97.656250
3694		105.468750
3695		99.609375
3696		101.562500
3697		97.656250
3698		101.562500
3699		95.703125
3700		103.515625
3701		95.703125
3702		103.515625
3703		93.750000
3704		101.562500
3705		93.750000
3706		101.562500
3707		91.796875
3708		101.562500
3709		91.796875
3710		99.609375
3711		93.750000
3712		95.703125
3713		91.796875
3714		95.703125
3715		87.890625
3716		95.703125
3717		87.890625
3718		95.703125
3719		85.937500
3720		93.750000
3721		83.984375
3722		91.796875
3723		83.984375
3724		91.796875
3725		82.031250
3726		91.796875
3727		82.031250
3728		87.890625
3729		82.031250
3730		85.937500
3731		80.078125
3732		83.984375
3733		76.171875
3734		83.984375
3735		74.218750
3736		82.031250
3737		72.265625
3738		82.031250
3739		70.312500
3740		78.125000
3741		68.359375
3742		78.125000
3743		66.406250
3744		76.171875
3745		68.359375
3746		70.312500
3747		66.406250
3748		68.359375
3749		60.546875
3750		68.359375
3751		58.593750
3752		68.359375
3753		56.640625
3754		64.453125
3755		54.687500
3756		62.500000
3757		50.781250
3758		60.546875
3759		48.828125
3760		58.593750
3761		50.781250
3762		54.687500
3763		46.875000
3764		50.781250
3765		42.968750
3766		50.781250
3767		41.015625
3768		48.828125
3769		37.109375
3770		46.875000
3771		35.156250
3772		42.968750
3773		33.203125
3774		41.015625
3775		29.296875
3776		39.062500
3777		29.296875
3778		35.156250
3779		27.343750
3780		31.250000
3781		23.437500
3782		29.296875
3783		17.578125
3784		27.343750
3785		15.625000
3786		23.437500
3787		13.671875
3788		21.484375
3789		9.765625
3790		19.531250
3791		7.812500
3792		15.625000
3793		5.859375
3794		13.671875
3795		3.906250
3796		7.812500
3797		0.000000
3798		5.859375
3799		-5.859375
3800		3.906250
3801		-5.859375
3802		1.953125
3803		-9.765625
3804		0.000000
3805		-13.671875
3806		-3.906250
3807		-15.625000
3808		-7.812500
3809		-17.578125
3810		-9.765625
3811		-21.484375
3812		-13.671875
3813		-23.437500
3814		-17.578125
3815		-29.296875
3816		-21.484375
3817		-31.250000
3818		-21.484375
3819		-35.156250
3820		-23.437500
3821		-37.109375
3822		-29.296875
3823		-39.062500
3824		-31.250000
3825		-42.968750
3826		-33.203125
3827		-44.921875
3828		-37.109375
3829		-44.921875
3830		-41.015625
3831		-48.828125
3832		-44.921875
3833		-52.734375
3834		-44.921875
3835		-56.640625
3836		-46.875000
3837		-58.593750
3838		-50.781250
3839		-62.500000
3840		-52.734375
3841		-64.453125
3842		-54.687500
3843		-68.359375
3844		-58.593750
3845		-68.359375
3846		-62.500000
3847		-70.312500
3848		-66.406250
3849		-74.218750
3850		-66.406250
3851		-78.125000
3852		-68.359375
3853		-80.078125
3854		-70.312500
3855		-82.031250
3856		-72.265625
3857		-83.984375
3858		-76.171875
3859		-87.890625
3860		-78.125000
3861		-87.890625
3862		-80.078125
3863		-87.890625
3864		-83.984375
3865		-91.796875
3866		-87.890625
3867		-93.750000
3868		-85.937500
3869		-97.656250
3870		-87.890625
3871		-99.609375
3872		-89.843750
3873		-99.609375
3874		-91.796875
3875		-101.562500
3876		-93.750000
3877		-105.468750
3878		-95.703125
3879		-103.515625
3880		-99.609375
3881		-103.515625
3882		-101.562500
3883		-109.375000
3884		-101.562500
3885		-109.375000
3886		-101.562500
3887		-111.328125
3888		-103.515625
3889		-113.281250
3890		-103.515625
3891		-113.281250
3892		-105.468750
3893		-115.234375
3894		-107.421875
3895		-115.234375
3896		-107.421875
3897		-113.281250
3898		-111.328125
3899		-117.187500
3900		-111.328125
3901		-119.140625
3902		-109.375000
3903		-119.140625
3904		-111.328125
3905		-119.140625
3906		-111.328125
3907		-119.140625
3908		-111.328125
3909		-119.140625
3910		-111.328125
3911		-121.093750
3912		-113.281250
3913		-117.187500
3914		-115.234375
3915		-117.187500
3916		-115.234375
3917		-119.140625
3918		-115.234375
3919		-121.093750
3920		-113.281250
3921		-119.140625
3922		-113.281250
3923		-119.140625
3924		-113.281250
3925		-119.140625
3926		-113.281250
3927		-119.140625
3928		-113.281250
3929		-119.140625
3930		-113.281250
3931		-117.187500
3932		-113.281250
3933		-117.187500
3934		-109.375000
3935		-117.187500
3936		-109.375000
3937		-117.187500
3938		-109.375000
3939		-115.234375
3940		-107.421875
3941		-115.234375
3942		-107.421875
3943		-115.234375
3944		-105.468750
3945		-113.281250
3946		-105.468750
3947		-109.375000
3948		-107.421875
3949		-109.375000
3950		-103.515625
3951		-109.375000
3952		-101.562500
3953		-107.421875
3954		-99.609375
3955		-107.421875
3956		-97.656250
3957		-105.468750
3958		-97.656250
3959		-103.515625
3960		-95.703125
3961		-103.515625
3962		-93.750000
3963		-97.656250
3964		-93.750000
3965		-95.703125
3966		-91.796875
3967		-95.703125
3968		-87.890625
3969		-93.750000
3970		-85.937500
3971		-93.750000
3972		-83.984375
3973		-91.796875
3974		-82.031250
3975		-87.890625
3976		-80.078125
3977		-85.937500
3978		-78.125000
3979		-83.984375
3980		-76.171875
3981		-78.125000
3982		-74.218750
3983		-76.171875
3984		-70.312500
3985		-78.125000
3986		-68.359375
3987		-74.218750
3988		-64.453125
3989		-72.265625
3990		-62.500000
3991		-70.312500
3992		-60.546875
3993		-66.406250
3994		-58.593750
3995		-64.453125
3996		-56.640625
3997		-58.593750
3998		-54.687500
3999		-56.640625
4000		-52.734375
4001		-54.687500
4002		-46.875000
4003		-52.734375
4004		-42.968750
4005		-48.828125
4006		-41.015625
4007		-48.828125
4008		-39.062500
4009		-44.921875
4010		-35.156250
4011		-42.968750
4012		-33.203125
4013		-37.109375
4014		-33.203125
4015		-33.203125
4016		-29.296875
4017		-31.250000
4018		-23.437500
4019		-31.250000
4020		-19.531250
4021		-25.390625
4022		-19.531250
4023		-23.437500
4024		-15.625000
4025		-21.484375
4026		-11.718750
4027		-17.578125
4028		-9.765625
4029		-15.625000
4030		-7.812500
4031		-9.765625
4032		-5.859375
4033		-7.812500
4034		-1.953125
4035		-5.859375
4036		1.953125
4037		-3.906250
4038		5.859375
4039		-1.953125
4040		7.812500
4041		1.953125
4042		11.718750
4043		3.906250
4044		11.718750
4045		5.859375
4046		17.578125
4047		11.718750
4048		17.578125
4049		15.625000
4050		19.531250
4051		15.625000
4052		25.390625
4053		17.578125
4054		27.343750
4055		19.531250
4056		31.250000
4057		25.390625
4058		31.250000
4059		25.390625
4060		35.156250
4061		29.296875
4062		37.109375
4063		31.250000
4064		39.062500
4065		37.109375
4066		41.015625
4067		39.062500
4068		44.921875
4069		39.062500
4070		48.828125
4071		41.015625
4072		50.781250
4073		44.921875
4074		52.734375
4075		46.875000
4076		56.640625
4077		48.828125
4078		58.593750
4079		50.781250
4080		58.593750
4081		54.687500
4082		60.546875
4083		58.593750
4084		62.500000
4085		58.593750
4086		68.359375
4087		58.593750
4088		68.359375
4089		62.500000
4090		70.312500
4091		64.453125
4092		72.265625
4093		66.406250
4094		74.218750
4095		68.359375
4096		76.171875
4097		68.359375
4098		76.171875
4099		74.218750
4100		78.125000
4101		74.218750
4102		82.031250
4103		74.218750
4104		83.984375
4105		76.171875
4106		83.984375
4107		78.125000
4108		85.937500
4109		80.078125
4110		87.890625
4111		82.031250
4112		89.843750
4113		82.031250
4114		89.843750
4115		85.937500
4116		89.843750
4117		87.890625
4118		91.796875
4119		85.937500
4120		95.703125
4121		87.890625
4122		95.703125
4123		89.843750
4124		97.656250
4125		89.843750
4126		97.656250
4127		91.796875
4128		99.609375
4129		91.796875
4130		99.609375
4131		95.703125
4132		97.656250
4133		95.703125
4134		99.609375
4135		93.750000
4136		103.515625
4137		95.703125
4138		103.515625
4139		95.703125
4140		103.515625
4141		95.703125
4142		103.515625
4143		97.656250
4144		105.468750
4145		97.656250
4146		105.468750
4147		97.656250
4148		105.468750
4149		101.562500
4150		103.515625
4151		99.609375
4152		103.515625
4153		97.656250
4154		105.468750
4155		99.609375
4156		105.468750
4157		97.656250
4158		107.421875
4159		97.656250
4160		107.421875
4161		97.656250
4162		107.421875
4163		97.656250
4164		105.468750
4165		101.562500
4166		103.515625
4167		101.562500
4168		103.515625
4169		97.656250
4170		105.468750
4171		97.656250
4172		105.468750
4173		97.656250
4174		105.468750
4175		95.703125
4176		103.515625
4177		95.703125
4178		103.515625
4179		95.703125
4180		103.515625
4181		93.750000
4182		101.562500
4183		95.703125
4184		99.609375
4185		91.796875
4186		101.562500
4187		91.796875
4188		99.609375
4189		91.796875
4190		99.609375
4191		89.843750
4192		97.656250
4193		89.843750
4194		97.656250
4195		87.890625
4196		95.703125
4197		85.937500
4198		95.703125
4199		87.890625
4200		91.796875
4201		85.937500
4202		89.843750
4203		82.031250
4204		89.843750
4205		82.031250
4206		89.843750
4207		80.078125
4208		87.890625
4209		78.125000
4210		85.937500
4211		76.171875
4212		83.984375
4213		74.218750
4214		83.984375
4215		76.171875
4216		78.125000
4217		74.218750
4218		76.171875
4219		68.359375
4220		76.171875
4221		68.359375
4222		76.171875
4223		64.453125
4224		74.218750
4225		62.500000
4226		72.265625
4227		60.546875
4228		68.359375
4229		58.593750
4230		66.406250
4231		56.640625
4232		64.453125
4233		56.640625
4234		60.546875
4235		52.734375
4236		58.593750
4237		48.828125
4238		58.593750
4239		46.875000
4240		56.640625
4241		44.921875
4242		52.734375
4243		42.968750
4244		52.734375
4245		41.015625
4246		48.828125
4247		37.109375
4248		46.875000
4249		37.109375
4250		41.015625
4251		35.156250
4252		39.062500
4253		29.296875
4254		39.062500
4255		27.343750
4256		37.109375
4257		25.390625
4258		33.203125
4259		21.484375
4260		29.296875
4261		17.578125
4262		27.343750
4263		15.625000
4264		25.390625
4265		15.625000
4266		23.437500
4267		11.718750
4268		17.578125
4269		7.812500
4270		13.671875
4271		5.859375
4272		13.671875
4273		1.953125
4274		9.765625
4275		-1.953125
4276		7.812500
4277		-5.859375
4278		3.906250
4279		-5.859375
4280		1.953125
4281		-9.765625
4282		0.000000
4283		-9.765625
4284		-5.859375
4285		-13.671875
4286		-9.765625
4287		-17.578125
4288		-11.718750
4289		-23.437500
4290		-13.671875
4291		-25.390625
4292		-15.625000
4293		-27.343750
4294		-19.531250
4295		-31.250000
4296		-21.484375
4297		-33.203125
4298		-25.390625
4299		-35.156250
4300		-29.296875
4301		-37.109375
4302		-33.203125
4303		-42.968750
4304		-35.156250
4305		-44.921875
4306		-35.156250
4307		-48.828125
4308		-39.062500
4309		-50.781250
4310		-42.968750
4311		-52.734375
4312		-44.921875
4313		-56.640625
4314		-46.875000
4315		-56.640625
4316		-50.781250
4317		-58.593750
4318		-54.687500
4319		-62.500000
4320		-58.593750
4321		-66.406250
4322		-58.593750
4323		-70.312500
4324		-60.546875
4325		-72.265625
4326		-62.500000
4327		-74.218750
4328		-66.406250
4329		-78.125000
4330		-68.359375
4331		-78.125000
4332		-72.265625
4333		-80.078125
4334		-76.171875
4335		-82.031250
4336		-78.125000
4337		-85.937500
4338		-78.125000
4339		-87.890625
4340		-80.078125
4341		-89.843750
4342		-82.031250
4343		-91.796875
4344		-83.984375
4345		-93.750000
4346		-85.937500
4347		-95.703125
4348		-87.890625
4349		-95.703125
4350		-91.796875
4351		-97.656250
4352		-93.750000
4353		-99.609375
4354		-95.703125
4355		-103.515625
4356		-95.703125
4357		-103.515625
4358		-97.656250
4359		-107.421875
4360		-99.609375
4361		-107.421875
4362		-99.609375
4363		-109.375000
4364		-101.562500
4365		-109.375000
4366		-103.515625
4367		-109.375000
4368		-107.421875
4369		-111.328125
4370		-107.421875
4371		-111.328125
4372		-107.421875
4373		-113.281250
4374		-109.375000
4375		-113.281250
4376		-109.375000
4377		-117.187500
4378		-109.375000
4379		-117.187500
4380		-109.375000
4381		-117.187500
4382		-111.328125
4383		-117.187500
4384		-113.281250
4385		-117.187500
4386		-113.281250
4387		-119.140625
4388		-113.281250
4389		-117.187500
4390		-115.234375
4391		-119.140625
4392		-115.234375
4393		-119.140625
4394		-113.281250
4395		-121.093750
4396		-113.281250
4397		-119.140625
4398		-113.281250
4399		-119.140625
4400		-113.281250
4401		-117.187500
4402		-115.234375
4403		-117.187500
4404		-113.281250
4405		-117.187500
4406		-113.281250
4407		-117.187500
4408		-113.281250
4409		-117.187500
4410		-113.281250
4411		-115.234375
4412		-111.328125
4413		-117.187500
4414		-109.375000
4415		-115.234375
4416		-109.375000
4417		-113.281250
4418		-109.375000
4419		-111.328125
4420		-109.375000
4421		-113.281250
4422		-107.421875
4423		-109.375000
4424		-107.421875
4425		-109.375000
4426		-105.468750
4427		-109.375000
4428		-103.515625
4429		-107.421875
4430		-103.515625
4431		-107.421875
4432		-99.609375
4433		-103.515625
4434		-99.609375
4435		-101.562500
4436		-97.656250
4437		-101.562500
4438		-95.703125
4439		-99.609375
4440		-95.703125
4441		-97.656250
4442		-93.750000
4443		-95.703125
4444		-91.796875
4445		-93.750000
4446		-87.890625
4447		-91.796875
4448		-87.890625
4449		-89.843750
4450		-85.937500
4451		-87.890625
4452		-83.984375
4453		-85.937500
4454		-82.031250
4455		-83.984375
4456		-78.125000
4457		-80.078125
4458		-76.171875
4459		-78.125000
4460		-74.218750
4461		-76.171875
4462		-70.312500
4463		-74.218750
4464		-68.359375
4465		-72.265625
4466		-66.406250
4467		-70.312500
4468		-64.453125
4469		-66.406250
4470		-62.500000
4471		-64.453125
4472		-58.593750
4473		-62.500000
4474		-56.640625
4475		-58.593750
4476		-52.734375
4477		-56.640625
4478		-50.781250
4479		-52.734375
4480		-48.828125
4481		-50.781250
4482		-44.921875
4483		-48.828125
4484		-42.968750
4485		-44.921875
4486		-41.015625
4487		-41.015625
4488		-37.109375
4489		-39.062500
4490		-33.203125
4491		-35.156250
4492		-31.250000
4493		-33.203125
4494		-27.343750
4495		-29.296875
4496		-25.390625
4497		-27.343750
4498		-21.484375
4499		-25.390625
4500		-19.531250
4501		-21.484375
4502		-17.578125
4503		-17.578125
4504		-13.671875
4505		-15.625000
4506		-9.765625
4507		-11.718750
4508		-7.812500
4509		-9.765625
4510		-3.906250
4511		-7.812500
4512		-1.953125
4513		-3.906250
4514		0.000000
4515		-1.953125
4516		3.906250
4517		0.000000
4518		5.859375
4519		3.906250
4520		9.765625
4521		7.812500
4522		13.671875
4523		9.765625
4524		15.625000
4525		11.718750
4526		17.578125
4527		15.625000
4528		19.531250
4529		17.578125
4530		23.437500
4531		21.484375
4532		25.390625
4533		23.437500
4534		29.296875
4535		27.343750
4536		31.250000
4537		29.296875
4538		33.203125
4539		31.250000
4540		37.109375
4541		35.156250
4542		39.062500
4543		37.109375
4544		41.015625
4545		39.062500
4546		44.921875
4547		42.968750
4548		46.875000
4549		42.968750
4550		50.781250
4551		44.921875
4552		50.781250
4553		48.828125
4554		52.734375
4555		52.734375
4556		56.640625
4557		54.687500
4558		58.593750
4559		56.640625
4560		60.546875
4561		56.640625
4562		62.500000
4563		60.546875
4564		64.453125
4565		62.500000
4566		66.406250
4567		64.453125
4568		68.359375
4569		66.406250
4570		70.312500
4571		68.359375
4572		74.218750
4573		70.312500
4574		76.171875
4575		72.265625
4576		76.171875
4577		74.218750
4578		78.125000
4579		76.171875
4580		80.078125
4581		76.171875
4582		82.031250
4583		78.125000
4584		83.984375
4585		82.031250
4586		83.984375
4587		82.031250
4588		85.937500
4589		82.031250
4590		87.890625
4591		85.937500
4592		89.843750
4593		85.937500
4594		91.796875
4595		85.937500
4596		91.796875
4597		89.843750
4598		91.796875
4599		89.843750
4600		93.750000
4601		89.843750
4602		95.703125
4603		91.796875
4604		95.703125
4605		93.750000
4606		97.656250
4607		93.750000
4608		97.656250
4609		95.703125
4610		99.609375
4611		95.703125
4612		99.609375
4613		95.703125
4614		101.562500
4615		95.703125
4616		101.562500
4617		97.656250
4618		101.562500
4619		99.609375
4620		101.562500
4621		99.609375
4622		101.562500
4623		99.609375
4624		103.515625
4625		99.609375
4626		103.515625
4627		101.562500
4628		103.515625
4629		99.609375
4630		103.515625
4631		101.562500
4632		103.515625
4633		101.562500
4634		103.515625
4635		99.609375
4636		105.468750
4637		101.562500
4638		103.515625
4639		99.609375
4640		105.468750
4641		99.609375
4642		105.468750
4643		101.562500
4644		103.515625
4645		99.609375
4646		103.515625
4647		99.609375
4648		103.515625
4649		99.609375
4650		103.515625
4651		97.656250
4652		101.562500
4653		99.609375
4654		101.562500
4655		97.656250
4656		101.562500
4657		97.656250
4658		101.562500
4659		95.703125
4660		99.609375
4661		95.703125
4662		99.609375
4663		95.703125
4664		97.656250
4665		93.750000
4666		97.656250
4667		91.796875
4668		95.703125
4669		91.796875
4670		95.703125
4671		91.796875
4672		93.750000
4673		89.843750
4674		93.750000
4675		87.890625
4676		91.796875
4677		85.937500
4678		91.796875
4679		85.937500
4680		89.843750
4681		83.984375
4682		87.890625
4683		83.984375
4684		85.937500
4685		82.031250
4686		85.937500
4687		80.078125
4688		83.984375
4689		78.125000
4690		82.031250
4691		76.171875
4692		80.078125
4693		74.218750
4694		78.125000
4695		74.218750
4696		76.171875
4697		70.312500
4698		76.171875
4699		68.359375
4700		74.218750
4701		66.406250
4702		72.265625
4703		66.406250
4704		68.359375
4705		64.453125
4706		66.406250
4707		60.546875
4708		66.406250
4709		58.593750
4710		62.500000
4711		56.640625
4712		60.546875
4713		54.687500
4714		58.593750
4715		50.781250
4716		56.640625
4717		48.828125
4718		54.687500
4719		46.875000
4720		52.734375
4721		44.921875
4722		48.828125
4723		41.015625
4724		46.875000
4725		39.062500
4726		44.921875
4727		37.109375
4728		42.968750
4729		33.203125
4730		39.062500
4731		31.250000
4732		37.109375
4733		29.296875
4734		35.156250
4735		25.390625
4736		31.250000
4737		23.437500
4738		27.343750
4739		19.531250
4740		25.390625
4741		17.578125
4742		23.437500
4743		15.625000
4744		19.531250
4745		11.718750
4746		17.578125
4747		9.765625
4748		13.671875
4749		5.859375
4750		11.718750
4751		1.953125
4752		7.812500
4753		0.000000
4754		5.859375
4755		-1.953125
4756		1.953125
4757		-5.859375
4758		0.000000
4759		-7.812500
4760		-3.906250
4761		-11.718750
4762		-5.859375
4763		-13.671875
4764		-9.765625
4765		-17.578125
4766		-11.718750
4767		-19.531250
4768		-15.625000
4769		-23.437500
4770		-17.578125
4771		-25.390625
4772		-21.484375
4773		-29.296875
4774		-23.437500
4775		-31.250000
4776		-27.343750
4777		-35.156250
4778		-29.296875
4779		-37.109375
4780		-31.250000
4781		-41.015625
4782		-35.156250
4783		-42.968750
4784		-39.062500
4785		-46.875000
4786		-41.015625
4787		-48.828125
4788		-44.921875
4789		-50.781250
4790		-46.875000
4791		-56.640625
4792		-48.828125
4793		-56.640625
4794		-52.734375
4795		-60.546875
4796		-54.687500
4797		-62.500000
4798		-58.593750
4799		-64.453125
4800		-60.546875
4801		-68.359375
4802		-62.500000
4803		-70.312500
4804		-64.453125
4805		-72.265625
4806		-68.359375
4807		-76.171875
4808		-70.312500
4809		-78.125000
4810		-72.265625
4811		-80.078125
4812		-74.218750
4813		-82.031250
4814		-78.125000
4815		-83.984375
4816		-80.078125
4817		-85.937500
4818		-82.031250
4819		-87.890625
4820		-83.984375
4821		-89.843750
4822		-85.937500
4823		-91.796875
4824		-87.890625
4825		-93.750000
4826		-89.843750
4827		-95.703125
4828		-91.796875
4829		-97.656250
4830		-93.750000
4831		-99.609375
4832		-95.703125
4833		-101.562500
4834		-97.656250
4835		-103.515625
4836		-99.609375
4837		-103.515625
4838		-99.609375
4839		-105.468750
4840		-101.562500
4841		-107.421875
4842		-103.515625
4843		-109.375000
4844		-103.515625
4845		-109.375000
4846		-105.468750
4847		-111.328125
4848		-107.421875
4849		-111.328125
4850		-107.421875
4851		-113.281250
4852		-109.375000
4853		-115.234375
4854		-109.375000
4855		-115.234375
4856		-111.328125
4857		-117.187500
4858		-111.328125
4859		-117.187500
4860		-113.281250
4861		-117.187500
4862		-113.281250
4863		-117.187500
4864		-113.281250
4865		-117.187500
4866		-115.234375
4867		-117.187500
4868		-115.234375
4869		-119.140625
4870		-115.234375
4871		-117.187500
4872		-115.234375
4873		-119.140625
4874		-115.234375
4875		-119.140625
4876		-113.281250
4877		-119.140625
4878		-115.234375
4879		-119.140625
4880		-115.234375
4881		-117.187500
4882		-115.234375
4883		-117.187500
4884		-113.281250
4885		-117.187500
4886		-113.281250
4887		-117.187500
4888		-113.281250
4889		-115.234375
4890		-113.281250
4891		-115.234375
4892		-111.328125
4893		-115.234375
4894		-111.328125
4895		-113.281250
4896		-109.375000
4897		-113.281250
4898		-109.375000
4899		-111.328125
4900		-107.421875
4901		-111.328125
4902		-107.421875
4903		-111.328125
4904		-105.468750
4905		-107.421875
4906		-105.468750
4907		-107.421875
4908		-103.515625
4909		-107.421875
4910		-101.562500
4911		-105.468750
4912		-101.562500
4913		-103.515625
4914		-97.656250
4915		-101.562500
4916		-97.656250
4917		-99.609375
4918		-95.703125
4919		-97.656250
4920		-93.750000
4921		-97.656250
4922		-91.796875
4923		-93.750000
4924		-89.843750
4925		-93.750000
4926		-87.890625
4927		-89.843750
4928		-85.937500
4929		-87.890625
4930		-83.984375
4931		-85.937500
4932		-82.031250
4933		-83.984375
4934		-80.078125
4935		-82.031250
4936		-78.125000
4937		-80.078125
4938		-74.218750
4939		-76.171875
4940		-72.265625
4941		-74.218750
4942		-68.359375
4943		-72.265625
4944		-68.359375
4945		-68.359375
4946		-64.453125
4947		-66.406250
4948		-62.500000
4949		-64.453125
4950		-58.593750
4951		-62.500000
4952		-56.640625
4953		-58.593750
4954		-54.687500
4955		-56.640625
4956		-52.734375
4957		-54.687500
4958		-48.828125
4959		-50.781250
4960		-44.921875
4961		-48.828125
4962		-42.968750
4963		-46.875000
4964		-41.015625
4965		-42.968750
4966		-37.109375
4967		-39.062500
4968		-35.156250
4969		-37.109375
4970		-31.250000
4971		-35.156250
4972		-29.296875
4973		-31.250000
4974		-25.390625
4975		-27.343750
4976		-23.437500
4977		-25.390625
4978		-19.531250
4979		-21.484375
4980		-17.578125
4981		-19.531250
4982		-13.671875
4983		-15.625000
4984		-11.718750
4985		-13.671875
4986		-7.812500
4987		-9.765625
4988		-3.906250
4989		-7.812500
4990		-1.953125
4991		-3.906250
4992		0.000000
4993		-1.953125
4994		3.906250
4995		1.953125
4996		5.859375
4997		3.906250
4998		9.765625
4999		7.812500
5000		11.718750
5001		9.765625
5002		13.671875
5003		11.718750
5004		17.578125
5005		13.671875
5006		19.531250
5007		17.578125
5008		23.437500
5009		21.484375
5010		25.390625
5011		23.437500
5012		29.296875
5013		27.343750
5014		31.250000
5015		29.296875
5016		33.203125
5017		31.250000
5018		37.109375
5019		33.203125
5020		39.062500
5021		37.109375
5022		41.015625
5023		39.062500
5024		42.968750
5025		42.968750
5026		48.828125
5027		44.921875
5028		48.828125
5029		46.875000
5030		50.781250
5031		48.828125
5032		52.734375
5033		50.781250
5034		54.687500
5035		54.687500
5036		58.593750
5037		56.640625
5038		60.546875
5039		58.593750
5040		62.500000
5041		60.546875
5042		64.453125
5043		62.500000
5044		66.406250
5045		64.453125
5046		68.359375
5047		66.406250
5048		70.312500
5049		68.359375
5050		72.265625
5051		70.312500
5052		74.218750
5053		72.265625
5054		76.171875
5055		72.265625
5056		78.125000
5057		76.171875
5058		80.078125
5059		76.171875
5060		82.031250
5061		80.078125
5062		83.984375
5063		80.078125
5064		83.984375
5065		82.031250
5066		85.937500
5067		83.984375
5068		87.890625
5069		83.984375
5070		89.843750
5071		85.937500
5072		89.843750
5073		87.890625
5074		91.796875
5075		89.843750
5076		91.796875
5077		87.890625
5078		93.750000
5079		91.796875
5080		93.750000
5081		91.796875
5082		95.703125
5083		93.750000
5084		95.703125
5085		93.750000
5086		97.656250
5087		93.750000
5088		97.656250
5089		93.750000
5090		99.609375
5091		95.703125
5092		99.609375
5093		95.703125
5094		101.562500
5095		97.656250
5096		101.562500
5097		97.656250
5098		101.562500
5099		97.656250
5100		103.515625
5101		99.609375
5102		101.562500
5103		99.609375
5104		103.515625
5105		99.609375
5106		103.515625
5107		99.609375
5108		103.515625
5109		99.609375
5110		103.515625
5111		99.609375
5112		103.515625
5113		99.609375
5114		103.515625
5115		99.609375
5116		103.515625
5117		99.609375
5118		103.515625
5119		99.609375
5120		103.515625
5121		99.609375
5122		103.515625
5123		99.609375
5124		101.562500
5125		99.609375
5126		101.562500
5127		97.656250
5128		101.562500
5129		97.656250
5130		101.562500
5131		97.656250
5132		101.562500
5133		97.656250
5134		101.562500
5135		95.703125
5136		99.609375
5137		95.703125
5138		99.609375
5139		95.703125
5140		99.609375
5141		93.750000
5142		97.656250
5143		91.796875
5144		97.656250
5145		91.796875
5146		95.703125
5147		91.796875
5148		95.703125
5149		89.843750
5150		93.750000
5151		87.890625
5152		91.796875
5153		87.890625
5154		89.843750
5155		85.937500
5156		89.843750
5157		85.937500
5158		87.890625
5159		83.984375
5160		85.937500
5161		82.031250
5162		87.890625
5163		80.078125
5164		83.984375
5165		78.125000
5166		82.031250
5167		76.171875
5168		80.078125
5169		74.218750
5170		80.078125
5171		74.218750
5172		78.125000
5173		70.312500
5174		76.171875
5175		70.312500
5176		74.218750
5177		68.359375
5178		72.265625
5179		66.406250
5180		70.312500
5181		62.500000
5182		68.359375
5183		60.546875
5184		66.406250
5185		58.593750
5186		64.453125
5187		56.640625
5188		62.500000
5189		54.687500
5190		60.546875
5191		52.734375
5192		56.640625
5193		48.828125
5194		54.687500
5195		46.875000
5196		52.734375
5197		44.921875
5198		48.828125
5199		42.968750
5200		46.875000
5201		41.015625
5202		44.921875
5203		37.109375
5204		42.968750
5205		35.156250
5206		41.015625
5207		33.203125
5208		37.109375
5209		29.296875
5210		35.156250
5211		27.343750
5212		31.250000
5213		25.390625
5214		29.296875
5215		21.484375
5216		27.343750
5217		19.531250
5218		23.437500
5219		15.625000
5220		21.484375
5221		13.671875
5222		17.578125
5223		9.765625
5224		15.625000
5225		7.812500
5226		11.718750
5227		3.906250
5228		9.765625
5229		1.953125
5230		5.859375
5231		-1.953125
5232		3.906250
5233		-3.906250
5234		0.000000
5235		-7.812500
5236		-1.953125
5237		-9.765625
5238		-5.859375
5239		-13.671875
5240		-7.812500
5241		-15.625000
5242		-11.718750
5243		-19.531250
5244		-13.671875
5245		-21.484375
5246		-15.625000
5247		-25.390625
5248		-19.531250
5249		-27.343750
5250		-23.437500
5251		-31.250000
5252		-25.390625
5253		-33.203125
5254		-29.296875
5255		-37.109375
5256		-31.250000
5257		-39.062500
5258		-33.203125
5259		-42.968750
5260		-37.109375
5261		-44.921875
5262		-41.015625
5263		-48.828125
5264		-42.968750
5265		-50.781250
5266		-46.875000
5267		-54.687500
5268		-48.828125
5269		-56.640625
5270		-50.781250
5271		-58.593750
5272		-54.687500
5273		-62.500000
5274		-56.640625
5275		-64.453125
5276		-60.546875
5277		-68.359375
5278		-62.500000
5279		-70.312500
5280		-64.453125
5281		-72.265625
5282		-68.359375
5283		-74.218750
5284		-70.312500
5285		-76.171875
5286		-72.265625
5287		-80.078125
5288		-74.218750
5289		-82.031250
5290		-78.125000
5291		-83.984375
5292		-80.078125
5293		-85.937500
5294		-82.031250
5295		-87.890625
5296		-83.984375
5297		-91.796875
5298		-85.937500
5299		-93.750000
5300		-87.890625
5301		-95.703125
5302		-91.796875
5303		-97.656250
5304		-91.796875
5305		-97.656250
5306		-93.750000
5307		-101.562500
5308		-95.703125
5309		-101.562500
5310		-99.609375
5311		-103.515625
5312		-99.609375
5313		-105.468750
5314		-101.562500
5315		-107.421875
5316		-103.515625
5317		-107.421875
5318		-105.468750
5319		-109.375000
5320		-105.468750
5321		-111.328125
5322		-107.421875
5323		-113.281250
5324		-107.421875
5325		-113.281250
5326		-109.375000
5327		-113.281250
5328		-111.328125
5329		-115.234375
5330		-111.328125
5331		-115.234375
5332		-113.281250
5333		-117.187500
5334		-113.281250
5335		-117.187500
5336		-115.234375
5337		-117.187500
5338		-115.234375
5339		-119.140625
5340		-115.234375
5341		-119.140625
5342		-115.234375
5343		-119.140625
5344		-117.187500
5345		-121.093750
5346		-115.234375
5347		-119.140625
5348		-115.234375
5349		-121.093750
5350		-115.234375
5351		-121.093750
5352		-117.187500
5353		-121.093750
5354		-117.187500
5355		-121.093750
5356		-117.187500
5357		-121.093750
5358		-117.187500
5359		-119.140625
5360		-117.187500
5361		-119.140625
5362		-115.234375
5363		-121.093750
5364		-115.234375
5365		-117.187500
5366		-115.234375
5367		-117.187500
5368		-115.234375
5369		-117.187500
5370		-113.281250
5371		-117.187500
5372		-113.281250
5373		-115.234375
5374		-111.328125
5375		-115.234375
5376		-111.328125
5377		-113.281250
5378		-109.375000
5379		-111.328125
5380		-107.421875
5381		-111.328125
5382		-107.421875
5383		-109.375000
5384		-105.468750
5385		-107.421875
5386		-105.468750
5387		-107.421875
5388		-101.562500
5389		-105.468750
5390		-101.562500
5391		-105.468750
5392		-99.609375
5393		-101.562500
5394		-99.609375
5395		-99.609375
5396		-95.703125
5397		-99.609375
5398		-93.750000
5399		-97.656250
5400		-93.750000
5401		-95.703125
5402		-91.796875
5403		-93.750000
5404		-87.890625
5405		-91.796875
5406		-85.937500
5407		-89.843750
5408		-83.984375
5409		-87.890625
5410		-83.984375
5411		-83.984375
5412		-80.078125
5413		-83.984375
5414		-78.125000
5415		-80.078125
5416		-76.171875
5417		-78.125000
5418		-74.218750
5419		-76.171875
5420		-70.312500
5421		-72.265625
5422		-68.359375
5423		-70.312500
5424		-66.406250
5425		-68.359375
5426		-62.500000
5427		-64.453125
5428		-60.546875
5429		-62.500000
5430		-58.593750
5431		-60.546875
5432		-56.640625
5433		-58.593750
5434		-52.734375
5435		-54.687500
5436		-48.828125
5437		-52.734375
5438		-46.875000
5439		-48.828125
5440		-42.968750
5441		-46.875000
5442		-41.015625
5443		-42.968750
5444		-39.062500
5445		-41.015625
5446		-35.156250
5447		-39.062500
5448		-33.203125
5449		-35.156250
5450		-29.296875
5451		-31.250000
5452		-27.343750
5453		-27.343750
5454		-23.437500
5455		-25.390625
5456		-19.531250
5457		-23.437500
5458		-15.625000
5459		-19.531250
5460		-15.625000
5461		-17.578125
5462		-11.718750
5463		-13.671875
5464		-9.765625
5465		-11.718750
5466		-5.859375
5467		-7.812500
5468		-3.906250
5469		-5.859375
5470		0.000000
5471		-1.953125
5472		3.906250
5473		0.000000
5474		5.859375
5475		1.953125
5476		7.812500
5477		5.859375
5478		11.718750
5479		9.765625
5480		13.671875
5481		11.718750
5482		17.578125
5483		13.671875
5484		19.531250
5485		15.625000
5486		23.437500
5487		19.531250
5488		25.390625
5489		23.437500
5490		27.343750
5491		23.437500
5492		31.250000
5493		27.343750
5494		33.203125
5495		31.250000
5496		35.156250
5497		31.250000
5498		39.062500
5499		35.156250
5500		41.015625
5501		37.109375
5502		44.921875
5503		41.015625
5504		44.921875
5505		42.968750
5506		48.828125
5507		44.921875
5508		52.734375
5509		46.875000
5510		52.734375
5511		50.781250
5512		54.687500
5513		52.734375
5514		58.593750
5515		54.687500
5516		58.593750
5517		56.640625
5518		62.500000
5519		58.593750
5520		64.453125
5521		60.546875
5522		66.406250
5523		62.500000
5524		70.312500
5525		64.453125
5526		70.312500
5527		68.359375
5528		70.312500
5529		70.312500
5530		72.265625
5531		70.312500
5532		76.171875
5533		70.312500
5534		78.125000
5535		74.218750
5536		80.078125
5537		76.171875
5538		82.031250
5539		78.125000
5540		83.984375
5541		78.125000
5542		85.937500
5543		80.078125
5544		83.984375
5545		82.031250
5546		85.937500
5547		82.031250
5548		87.890625
5549		83.984375
5550		89.843750
5551		85.937500
5552		91.796875
5553		85.937500
5554		93.750000
5555		87.890625
5556		93.750000
5557		89.843750
5558		95.703125
5559		89.843750
5560		95.703125
5561		91.796875
5562		95.703125
5563		91.796875
5564		97.656250
5565		91.796875
5566		97.656250
5567		93.750000
5568		99.609375
5569		93.750000
5570		99.609375
5571		93.750000
5572		101.562500
5573		95.703125
5574		101.562500
5575		95.703125
5576		101.562500
5577		97.656250
5578		99.609375
5579		97.656250
5580		101.562500
5581		97.656250
5582		103.515625
5583		97.656250
5584		103.515625
5585		97.656250
5586		103.515625
5587		97.656250
5588		103.515625
5589		97.656250
5590		103.515625
5591		97.656250
5592		103.515625
5593		97.656250
5594		103.515625
5595		99.609375
5596		103.515625
5597		97.656250
5598		103.515625
5599		99.609375
5600		101.562500
5601		99.609375
5602		101.562500
5603		99.609375
5604		101.562500
5605		97.656250
5606		101.562500
5607		97.656250
5608		99.609375
5609		95.703125
5610		99.609375
5611		95.703125
5612		99.609375
5613		95.703125
5614		97.656250
5615		95.703125
5616		97.656250
5617		93.750000
5618		97.656250
5619		93.750000
5620		95.703125
5621		91.796875
5622		95.703125
5623		91.796875
5624		93.750000
5625		89.843750
5626		93.750000
5627		89.843750
5628		93.750000
5629		87.890625
5630		91.796875
5631		87.890625
5632		89.843750
5633		85.937500
5634		87.890625
5635		83.984375
5636		87.890625
5637		82.031250
5638		85.937500
5639		82.031250
5640		83.984375
5641		80.078125
5642		82.031250
5643		78.125000
5644		82.031250
5645		76.171875
5646		80.078125
5647		74.218750
5648		78.125000
5649		72.265625
5650		76.171875
5651		70.312500
5652		74.218750
5653		68.359375
5654		72.265625
5655		66.406250
5656		70.312500
5657		64.453125
5658		68.359375
5659		62.500000
5660		66.406250
5661		60.546875
5662		64.453125
5663		58.593750
5664		62.500000
5665		56.640625
5666		60.546875
5667		54.687500
5668		58.593750
5669		52.734375
5670		54.687500
5671		48.828125
5672		52.734375
5673		46.875000
5674		50.781250
5675		44.921875
5676		48.828125
5677		41.015625
5678		46.875000
5679		39.062500
5680		42.968750
5681		37.109375
5682		41.015625
5683		33.203125
5684		39.062500
5685		31.250000
5686		35.156250
5687		29.296875
5688		33.203125
5689		25.390625
5690		29.296875
5691		23.437500
5692		27.343750
5693		21.484375
5694		25.390625
5695		17.578125
5696		21.484375
5697		15.625000
5698		19.531250
5699		9.765625
5700		19.531250
5701		5.859375
5702		17.578125
5703		3.906250
5704		13.671875
5705		3.906250
5706		7.812500
5707		0.000000
5708		5.859375
5709		-1.953125
5710		1.953125
5711		-5.859375
5712		0.000000
5713		-7.812500
5714		-3.906250
5715		-13.671875
5716		-3.906250
5717		-17.578125
5718		-7.812500
5719		-19.531250
5720		-9.765625
5721		-19.531250
5722		-15.625000
5723		-23.437500
5724		-17.578125
5725		-25.390625
5726		-21.484375
5727		-29.296875
5728		-25.390625
5729		-31.250000
5730		-27.343750
5731		-39.062500
5732		-29.296875
5733		-41.015625
5734		-29.296875
5735		-42.968750
5736		-33.203125
5737		-44.921875
5738		-35.156250
5739		-46.875000
5740		-42.968750
5741		-48.828125
5742		-44.921875
5743		-52.734375
5744		-46.875000
5745		-54.687500
5746		-50.781250
5747		-58.593750
5748		-52.734375
5749		-64.453125
5750		-52.734375
5751		-66.406250
5752		-54.687500
5753		-68.359375
5754		-58.593750
5755		-68.359375
5756		-64.453125
5757		-70.312500
5758		-66.406250
5759		-72.265625
5760		-68.359375
5761		-76.171875
5762		-72.265625
5763		-78.125000
5764		-74.218750
5765		-83.984375
5766		-74.218750
5767		-85.937500
5768		-74.218750
5769		-87.890625
5770		-78.125000
5771		-87.890625
5772		-80.078125
5773		-89.843750
5774		-85.937500
5775		-91.796875
5776		-87.890625
5777		-93.750000
5778		-89.843750
5779		-95.703125
5780		-91.796875
5781		-97.656250
5782		-93.750000
5783		-101.562500
5784		-91.796875
5785		-103.515625
5786		-93.750000
5787		-105.468750
5788		-95.703125
5789		-105.468750
5790		-101.562500
5791		-105.468750
5792		-101.562500
5793		-107.421875
5794		-103.515625
5795		-107.421875
5796		-105.468750
5797		-109.375000
5798		-107.421875
5799		-113.281250
5800		-103.515625
5801		-115.234375
5802		-105.468750
5803		-117.187500
5804		-107.421875
5805		-113.281250
5806		-111.328125
5807		-115.234375
5808		-113.281250
5809		-115.234375
5810		-113.281250
5811		-117.187500
5812		-115.234375
5813		-117.187500
5814		-115.234375
5815		-121.093750
5816		-113.281250
5817		-123.046875
5818		-111.328125
5819		-123.046875
5820		-113.281250
5821		-123.046875
5822		-113.281250
5823		-121.093750
5824		-117.187500
5825		-119.140625
5826		-117.187500
5827		-119.140625
5828		-117.187500
5829		-119.140625
5830		-117.187500
5831		-119.140625
5832		-117.187500
5833		-123.046875
5834		-113.281250
5835		-123.046875
5836		-113.281250
5837		-123.046875
5838		-113.281250
5839		-119.140625
5840		-117.187500
5841		-119.140625
5842		-115.234375
5843		-117.187500
5844		-115.234375
5845		-117.187500
5846		-113.281250
5847		-117.187500
5848		-113.281250
5849		-119.140625
5850		-109.375000
5851		-119.140625
5852		-107.421875
5853		-117.187500
5854		-107.421875
5855		-115.234375
5856		-107.421875
5857		-111.328125
5858		-109.375000
5859		-111.328125
5860		-107.421875
5861		-109.375000
5862		-105.468750
5863		-107.421875
5864		-105.468750
5865		-105.468750
5866		-103.515625
5867		-107.421875
5868		-97.656250
5869		-105.468750
5870		-95.703125
5871		-105.468750
5872		-95.703125
5873		-99.609375
5874		-95.703125
5875		-97.656250
5876		-93.750000
5877		-95.703125
5878		-91.796875
5879		-93.750000
5880		-89.843750
5881		-91.796875
5882		-87.890625
5883		-89.843750
5884		-85.937500
5885		-89.843750
5886		-82.031250
5887		-87.890625
5888		-80.078125
5889		-83.984375
5890		-80.078125
5891		-82.031250
5892		-78.125000
5893		-78.125000
5894		-74.218750
5895		-76.171875
5896		-72.265625
5897		-74.218750
5898		-70.312500
5899		-72.265625
5900		-68.359375
5901		-70.312500
5902		-60.546875
5903		-66.406250
5904		-62.500000
5905		-66.406250
5906		-58.593750
5907		-60.546875
5908		-56.640625
5909		-58.593750
5910		-54.687500
5911		-54.687500
5912		-50.781250
5913		-52.734375
5914		-48.828125
5915		-50.781250
5916		-44.921875
5917		-48.828125
5918		-42.968750
5919		-44.921875
5920		-39.062500
5921		-41.015625
5922		-37.109375
5923		-39.062500
5924		-35.156250
5925		-35.156250
5926		-31.250000
5927		-33.203125
5928		-29.296875
5929		-29.296875
5930		-25.390625
5931		-27.343750
5932		-23.437500
5933		-23.437500
5934		-19.531250
5935		-21.484375
5936		-17.578125
5937		-17.578125
5938		-13.671875
5939		-15.625000
5940		-11.718750
5941		-11.718750
5942		-7.812500
5943		-9.765625
5944		-5.859375
5945		-5.859375
5946		-1.953125
5947		-3.906250
5948		0.000000
5949		0.000000
5950		3.906250
5951		1.953125
5952		5.859375
5953		3.906250
5954		9.765625
5955		7.812500
5956		11.718750
5957		9.765625
5958		15.625000
5959		13.671875
5960		17.578125
5961		15.625000
5962		21.484375
5963		19.531250
5964		23.437500
5965		21.484375
5966		25.390625
5967		25.390625
5968		29.296875
5969		27.343750
5970		31.250000
5971		29.296875
5972		33.203125
5973		33.203125
5974		37.109375
5975		35.156250
5976		39.062500
5977		37.109375
5978		41.015625
5979		39.062500
5980		44.921875
5981		42.968750
5982		46.875000
5983		44.921875
5984		48.828125
5985		46.875000
5986		52.734375
5987		48.828125
5988		52.734375
5989		52.734375
5990		56.640625
5991		52.734375
5992		58.593750
5993		54.687500
5994		60.546875
5995		58.593750
5996		62.500000
5997		60.546875
5998		64.453125
5999		62.500000
6000		66.406250
6001		62.500000
6002		70.312500
6003		66.406250
6004		70.312500
6005		68.359375
6006		72.265625
6007		70.312500
6008		74.218750
6009		70.312500
6010		76.171875
6011		74.218750
6012		78.125000
6013		76.171875
6014		80.078125
6015		78.125000
6016		80.078125
6017		78.125000
6018		83.984375
6019		80.078125
6020		83.984375
6021		82.031250
6022		85.937500
6023		83.984375
6024		87.890625
6025		83.984375
6026		87.890625
6027		83.984375
6028		89.843750
6029		87.890625
6030		89.843750
6031		89.843750
6032		91.796875
6033		89.843750
6034		91.796875
6035		89.843750
6036		93.750000
6037		89.843750
6038		95.703125
6039		93.750000
6040		95.703125
6041		93.750000
6042		97.656250
6043		93.750000
6044		97.656250
6045		95.703125
6046		97.656250
6047		95.703125
6048		97.656250
6049		97.656250
6050		99.609375
6051		95.703125
6052		101.562500
6053		97.656250
6054		101.562500
6055		97.656250
6056		101.562500
6057		97.656250
6058		101.562500
6059		97.656250
6060		103.515625
6061		99.609375
6062		101.562500
6063		99.609375
6064		101.562500
6065		99.609375
6066		101.562500
6067		97.656250
6068		103.515625
6069		99.609375
6070		103.515625
6071		99.609375
6072		103.515625
6073		99.609375
6074		101.562500
6075		97.656250
6076		103.515625
6077		97.656250
6078		101.562500
6079		97.656250
6080		101.562500
6081		99.609375
6082		101.562500
6083		97.656250
6084		99.609375
6085		95.703125
6086		101.562500
6087		95.703125
6088		99.609375
6089		95.703125
6090		99.609375
6091		95.703125
6092		97.656250
6093		93.750000
6094		99.609375
6095		93.750000
6096		97.656250
6097		93.750000
6098		95.703125
6099		91.796875
6100		95.703125
6101		89.843750
6102		93.750000
6103		89.843750
6104		93.750000
6105		89.843750
6106		91.796875
6107		87.890625
6108		91.796875
6109		85.937500
6110		89.843750
6111		85.937500
6112		87.890625
6113		83.984375
6114		87.890625
6115		82.031250
6116		85.937500
6117		80.078125
6118		83.984375
6119		78.125000
6120		85.937500
6121		78.125000
6122		82.031250
6123		76.171875
6124		80.078125
6125		72.265625
6126		78.125000
6127		72.265625
6128		76.171875
6129		70.312500
6130		74.218750
6131		68.359375
6132		72.265625
6133		66.406250
6134		70.312500
6135		62.500000
6136		70.312500
6137		60.546875
6138		66.406250
6139		60.546875
6140		64.453125
6141		56.640625
6142		62.500000
6143		54.687500
6144		60.546875
6145		52.734375
6146		58.593750
6147		50.781250
6148		54.687500
6149		48.828125
6150		52.734375
6151		44.921875
6152		50.781250
6153		42.968750
6154		48.828125
6155		41.015625
6156		46.875000
6157		39.062500
6158		42.968750
6159		35.156250
6160		41.015625
6161		33.203125
6162		39.062500
6163		31.250000
6164		35.156250
6165		29.296875
6166		33.203125
6167		25.390625
6168		29.296875
6169		23.437500
6170		27.343750
6171		19.531250
6172		25.390625
6173		17.578125
6174		21.484375
6175		13.671875
6176		17.578125
6177		11.718750
6178		15.625000
6179		7.812500
6180		13.671875
6181		5.859375
6182		9.765625
6183		1.953125
6184		7.812500
6185		0.000000
6186		3.906250
6187		-3.906250
6188		1.953125
6189		-5.859375
6190		-1.953125
6191		-9.765625
6192		-3.906250
6193		-11.718750
6194		-7.812500
6195		-15.625000
6196		-11.718750
6197		-17.578125
6198		-13.671875
6199		-21.484375
6200		-15.625000
6201		-23.437500
6202		-19.531250
6203		-27.343750
6204		-21.484375
6205		-29.296875
6206		-25.390625
6207		-33.203125
6208		-27.343750
6209		-35.156250
6210		-31.250000
6211		-39.062500
6212		-33.203125
6213		-41.015625
6214		-37.109375
6215		-44.921875
6216		-39.062500
6217		-46.875000
6218		-42.968750
6219		-48.828125
6220		-44.921875
6221		-52.734375
6222		-48.828125
6223		-54.687500
6224		-50.781250
6225		-58.593750
6226		-54.687500
6227		-60.546875
6228		-56.640625
6229		-62.500000
6230		-58.593750
6231		-66.406250
6232		-62.500000
6233		-68.359375
6234		-64.453125
6235		-70.312500
6236		-66.406250
6237		-74.218750
6238		-70.312500
6239		-76.171875
6240		-72.265625
6241		-78.125000
6242		-74.218750
6243		-80.078125
6244		-76.171875
6245		-83.984375
6246		-78.125000
6247		-85.937500
6248		-82.031250
6249		-87.890625
6250		-83.984375
6251		-89.843750
6252		-85.937500
6253		-91.796875
6254		-87.890625
6255		-93.750000
6256		-89.843750
6257		-95.703125
6258		-91.796875
6259		-97.656250
6260		-93.750000
6261		-99.609375
6262		-95.703125
6263		-101.562500
6264		-97.656250
6265		-103.515625
6266		-99.609375
6267		-103.515625
6268		-101.562500
6269		-105.468750
6270		-103.515625
6271		-107.421875
6272		-103.515625
6273		-109.375000
6274		-105.468750
6275		-109.375000
6276		-107.421875
6277		-111.328125
6278		-107.421875
6279		-113.281250
6280		-109.375000
6281		-113.281250
6282		-111.328125
6283		-115.234375
6284		-111.328125
6285		-115.234375
6286		-113.281250
6287		-117.187500
6288		-113.281250
6289		-117.187500
6290		-115.234375
6291		-117.187500
6292		-115.234375
6293		-119.140625
6294		-115.234375
6295		-119.140625
6296		-117.187500
6297		-119.140625
6298		-117.187500
6299		-121.093750
6300		-117.187500
6301		-119.140625
6302		-117.187500
6303		-121.093750
6304		-117.187500
6305		-121.093750
6306		-119.140625
6307		-121.093750
6308		-119.140625
6309		-121.093750
6310		-117.187500
6311		-121.093750
6312		-117.187500
6313		-119.140625
6314		-117.187500
6315		-119.140625
6316		-117.187500
6317		-119.140625
6318		-117.187500
6319		-119.140625
6320		-115.234375
6321		-121.093750
6322		-113.281250
6323		-119.140625
6324		-113.281250
6325		-117.187500
6326		-115.234375
6327		-115.234375
6328		-113.281250
6329		-115.234375
6330		-113.281250
6331		-115.234375
6332		-111.328125
6333		-113.281250
6334		-111.328125
6335		-113.281250
6336		-109.375000
6337		-113.281250
6338		-105.468750
6339		-111.328125
6340		-105.468750
6341		-109.375000
6342		-105.468750
6343		-107.421875
6344		-103.515625
6345		-105.468750
6346		-101.562500
6347		-103.515625
6348		-101.562500
6349		-103.515625
6350		-99.609375
6351		-101.562500
6352		-97.656250
6353		-99.609375
6354		-93.750000
6355		-97.656250
6356		-91.796875
6357		-95.703125
6358		-91.796875
6359		-93.750000
6360		-89.843750
6361		-91.796875
6362		-87.890625
6363		-89.843750
6364		-83.984375
6365		-87.890625
6366		-83.984375
6367		-83.984375
6368		-80.078125
6369		-82.031250
6370		-78.125000
6371		-82.031250
6372		-74.218750
6373		-80.078125
6374		-72.265625
6375		-76.171875
6376		-72.265625
6377		-72.265625
6378		-68.359375
6379		-70.312500
6380		-66.406250
6381		-68.359375
6382		-64.453125
6383		-64.453125
6384		-60.546875
6385		-62.500000
6386		-58.593750
6387		-62.500000
6388		-52.734375
6389		-58.593750
6390		-50.781250
6391		-54.687500
6392		-50.781250
6393		-50.781250
6394		-46.875000
6395		-48.828125
6396		-44.921875
6397		-46.875000
6398		-41.015625
6399		-42.968750
6400		-39.062500
6401		-41.015625
6402		-35.156250
6403		-37.109375
6404		-31.250000
6405		-37.109375
6406		-27.343750
6407		-33.203125
6408		-27.343750
6409		-27.343750
6410		-23.437500
6411		-25.390625
6412		-21.484375
6413		-21.484375
6414		-17.578125
6415		-19.531250
6416		-15.625000
6417		-15.625000
6418		-11.718750
6419		-13.671875
6420		-9.765625
6421		-11.718750
6422		-3.906250
6423		-7.812500
6424		-1.953125
6425		-5.859375
6426		0.000000
6427		-1.953125
6428		1.953125
6429		0.000000
6430		5.859375
6431		3.906250
6432		7.812500
6433		5.859375
6434		11.718750
6435		9.765625
6436		13.671875
6437		11.718750
6438		17.578125
6439		13.671875
6440		21.484375
6441		15.625000
6442		21.484375
6443		21.484375
6444		25.390625
6445		23.437500
6446		27.343750
6447		25.390625
6448		29.296875
6449		29.296875
6450		33.203125
6451		31.250000
6452		35.156250
6453		33.203125
6454		37.109375
6455		35.156250
6456		41.015625
6457		37.109375
6458		42.968750
6459		41.015625
6460		44.921875
6461		42.968750
6462		46.875000
6463		46.875000
6464		50.781250
6465		48.828125
6466		52.734375
6467		50.781250
6468		54.687500
6469		52.734375
6470		56.640625
6471		54.687500
6472		62.500000
6473		56.640625
6474		62.500000
6475		60.546875
6476		64.453125
6477		62.500000
6478		64.453125
6479		64.453125
6480		66.406250
6481		66.406250
6482		70.312500
6483		66.406250
6484		70.312500
6485		70.312500
6486		72.265625
6487		72.265625
6488		74.218750
6489		70.312500
6490		78.125000
6491		72.265625
6492		78.125000
6493		76.171875
6494		80.078125
6495		78.125000
6496		82.031250
6497		80.078125
6498		82.031250
6499		80.078125
6500		83.984375
6501		82.031250
6502		85.937500
6503		83.984375
6504		87.890625
6505		83.984375
6506		89.843750
6507		85.937500
6508		89.843750
6509		87.890625
6510		89.843750
6511		87.890625
6512		91.796875
6513		89.843750
6514		91.796875
6515		89.843750
6516		93.750000
6517		91.796875
6518		93.750000
6519		91.796875
6520		95.703125
6521		93.750000
6522		99.609375
6523		93.750000
6524		97.656250
6525		95.703125
6526		97.656250
6527		95.703125
6528		97.656250
6529		95.703125
6530		97.656250
6531		97.656250
6532		99.609375
6533		97.656250
6534		99.609375
6535		97.656250
6536		99.609375
6537		97.656250
6538		99.609375
6539		97.656250
6540		101.562500
6541		97.656250
6542		101.562500
6543		97.656250
6544		101.562500
6545		99.609375
6546		101.562500
6547		97.656250
6548		101.562500
6549		99.609375
6550		101.562500
6551		97.656250
6552		101.562500
6553		97.656250
6554		101.562500
6555		97.656250
6556		99.609375
6557		95.703125
6558		101.562500
6559		97.656250
6560		99.609375
6561		97.656250
6562		99.609375
6563		95.703125
6564		97.656250
6565		95.703125
6566		97.656250
6567		95.703125
6568		97.656250
6569		93.750000
6570		97.656250
6571		93.750000
6572		95.703125
6573		91.796875
6574		95.703125
6575		91.796875
6576		93.750000
6577		89.843750
6578		93.750000
6579		89.843750
6580		91.796875
6581		87.890625
6582		91.796875
6583		87.890625
6584		89.843750
6585		85.937500
6586		87.890625
6587		83.984375
6588		87.890625
6589		83.984375
6590		87.890625
6591		82.031250
6592		85.937500
6593		80.078125
6594		83.984375
6595		80.078125
6596		82.031250
6597		78.125000
6598		80.078125
6599		76.171875
6600		80.078125
6601		74.218750
6602		78.125000
6603		72.265625
6604		76.171875
6605		70.312500
6606		74.218750
6607		68.359375
6608		72.265625
6609		66.406250
6610		70.312500
6611		64.453125
6612		68.359375
6613		62.500000
6614		66.406250
6615		60.546875
6616		64.453125
6617		58.593750
6618		62.500000
6619		56.640625
6620		60.546875
6621		54.687500
6622		58.593750
6623		50.781250
6624		54.687500
6625		48.828125
6626		52.734375
6627		46.875000
6628		50.781250
6629		44.921875
6630		48.828125
6631		41.015625
6632		44.921875
6633		39.062500
6634		44.921875
6635		37.109375
6636		41.015625
6637		33.203125
6638		39.062500
6639		31.250000
6640		35.156250
6641		29.296875
6642		33.203125
6643		25.390625
6644		29.296875
6645		23.437500
6646		27.343750
6647		21.484375
6648		25.390625
6649		17.578125
6650		21.484375
6651		15.625000
6652		19.531250
6653		11.718750
6654		15.625000
6655		9.765625
6656		13.671875
6657		5.859375
6658		9.765625
6659		3.906250
6660		7.812500
6661		0.000000
6662		3.906250
6663		-1.953125
6664		1.953125
6665		-5.859375
6666		0.000000
6667		-7.812500
6668		-3.906250
6669		-11.718750
6670		-7.812500
6671		-13.671875
6672		-9.765625
6673		-17.578125
6674		-13.671875
6675		-21.484375
6676		-15.625000
6677		-23.437500
6678		-19.531250
6679		-27.343750
6680		-21.484375
6681		-29.296875
6682		-25.390625
6683		-33.203125
6684		-27.343750
6685		-35.156250
6686		-31.250000
6687		-37.109375
6688		-33.203125
6689		-41.015625
6690		-37.109375
6691		-42.968750
6692		-39.062500
6693		-46.875000
6694		-42.968750
6695		-48.828125
6696		-44.921875
6697		-52.734375
6698		-48.828125
6699		-54.687500
6700		-50.781250
6701		-58.593750
6702		-52.734375
6703		-60.546875
6704		-56.640625
6705		-62.500000
6706		-58.593750
6707		-66.406250
6708		-62.500000
6709		-68.359375
6710		-64.453125
6711		-70.312500
6712		-66.406250
6713		-74.218750
6714		-70.312500
6715		-76.171875
6716		-72.265625
6717		-78.125000
6718		-74.218750
6719		-80.078125
6720		-76.171875
6721		-83.984375
6722		-80.078125
6723		-85.937500
6724		-82.031250
6725		-87.890625
6726		-83.984375
6727		-89.843750
6728		-85.937500
6729		-91.796875
6730		-87.890625
6731		-93.750000
6732		-89.843750
6733		-95.703125
6734		-91.796875
6735		-97.656250
6736		-93.750000
6737		-99.609375
6738		-95.703125
6739		-101.562500
6740		-97.656250
6741		-103.515625
6742		-99.609375
6743		-105.468750
6744		-101.562500
6745		-107.421875
6746		-103.515625
6747		-109.375000
6748		-105.468750
6749		-111.328125
6750		-105.468750
6751		-111.328125
6752		-107.421875
6753		-113.281250
6754		-109.375000
6755		-113.281250
6756		-111.328125
6757		-115.234375
6758		-111.328125
6759		-115.234375
6760		-113.281250
6761		-117.187500
6762		-113.281250
6763		-117.187500
6764		-115.234375
6765		-119.140625
6766		-115.234375
6767		-119.140625
6768		-117.187500
6769		-121.093750
6770		-117.187500
6771		-121.093750
6772		-117.187500
6773		-121.093750
6774		-119.140625
6775		-121.093750
6776		-119.140625
6777		-123.046875
6778		-119.140625
6779		-121.093750
6780		-119.140625
6781		-123.046875
6782		-119.140625
6783		-123.046875
6784		-119.140625
6785		-123.046875
6786		-119.140625
6787		-123.046875
6788		-119.140625
6789		-121.093750
6790		-119.140625
6791		-123.046875
6792		-119.140625
6793		-121.093750
6794		-119.140625
6795		-121.093750
6796		-119.140625
6797		-121.093750
6798		-119.140625
6799		-119.140625
6800		-117.187500
6801		-119.140625
6802		-117.187500
6803		-119.140625
6804		-115.234375
6805		-117.187500
6806		-115.234375
6807		-117.187500
6808		-113.281250
6809		-115.234375
6810		-113.281250
6811		-115.234375
6812		-111.328125
6813		-113.281250
6814		-109.375000
6815		-113.281250
6816		-109.375000
6817		-111.328125
6818		-107.421875
6819		-109.375000
6820		-107.421875
6821		-107.421875
6822		-105.468750
6823		-105.468750
6824		-103.515625
6825		-105.468750
6826		-101.562500
6827		-103.515625
6828		-99.609375
6829		-101.562500
6830		-97.656250
6831		-99.609375
6832		-95.703125
6833		-97.656250
6834		-93.750000
6835		-95.703125
6836		-91.796875
6837		-93.750000
6838		-89.843750
6839		-91.796875
6840		-87.890625
6841		-89.843750
6842		-85.937500
6843		-87.890625
6844		-83.984375
6845		-85.937500
6846		-82.031250
6847		-82.031250
6848		-80.078125
6849		-80.078125
6850		-76.171875
6851		-78.125000
6852		-74.218750
6853		-76.171875
6854		-72.265625
6855		-74.218750
6856		-70.312500
6857		-72.265625
6858		-66.406250
6859		-68.359375
6860		-64.453125
6861		-64.453125
6862		-60.546875
6863		-62.500000
6864		-58.593750
6865		-60.546875
6866		-56.640625
6867		-56.640625
6868		-52.734375
6869		-54.687500
6870		-50.781250
6871		-52.734375
6872		-46.875000
6873		-48.828125
6874		-44.921875
6875		-46.875000
6876		-41.015625
6877		-42.968750
6878		-37.109375
6879		-41.015625
6880		-35.156250
6881		-37.109375
6882		-33.203125
6883		-35.156250
6884		-31.250000
6885		-31.250000
6886		-27.343750
6887		-29.296875
6888		-23.437500
6889		-25.390625
6890		-21.484375
6891		-23.437500
6892		-17.578125
6893		-19.531250
6894		-15.625000
6895		-17.578125
6896		-11.718750
6897		-13.671875
6898		-9.765625
6899		-11.718750
6900		-5.859375
6901		-7.812500
6902		-3.906250
6903		-5.859375
6904		-1.953125
6905		-1.953125
6906		1.953125
6907		0.000000
6908		3.906250
6909		3.906250
6910		7.812500
6911		5.859375
6912		9.765625
6913		9.765625
6914		13.671875
6915		11.718750
6916		15.625000
6917		15.625000
6918		19.531250
6919		17.578125
6920		21.484375
6921		19.531250
6922		25.390625
6923		23.437500
6924		27.343750
6925		25.390625
6926		29.296875
6927		27.343750
6928		33.203125
6929		31.250000
6930		35.156250
6931		33.203125
6932		39.062500
6933		35.156250
6934		41.015625
6935		39.062500
6936		42.968750
6937		41.015625
6938		44.921875
6939		42.968750
6940		46.875000
6941		44.921875
6942		48.828125
6943		48.828125
6944		52.734375
6945		50.781250
6946		54.687500
6947		52.734375
6948		56.640625
6949		54.687500
6950		58.593750
6951		56.640625
6952		60.546875
6953		58.593750
6954		62.500000
6955		60.546875
6956		64.453125
6957		62.500000
6958		66.406250
6959		64.453125
6960		68.359375
6961		66.406250
6962		70.312500
6963		68.359375
6964		72.265625
6965		70.312500
6966		74.218750
6967		72.265625
6968		76.171875
6969		74.218750
6970		78.125000
6971		76.171875
6972		80.078125
6973		78.125000
6974		80.078125
6975		78.125000
6976		82.031250
6977		80.078125
6978		83.984375
6979		82.031250
6980		83.984375
6981		83.984375
6982		85.937500
6983		83.984375
6984		87.890625
6985		85.937500
6986		89.843750
6987		87.890625
6988		89.843750
6989		87.890625
6990		91.796875
6991		89.843750
6992		91.796875
6993		89.843750
6994		93.750000
6995		91.796875
6996		93.750000
6997		91.796875
6998		95.703125
6999		93.750000
7000		95.703125
7001		93.750000
7002		95.703125
7003		93.750000
7004		97.656250
7005		95.703125
7006		97.656250
7007		95.703125
7008		99.609375
7009		95.703125
7010		97.656250
7011		95.703125
7012		99.609375
7013		97.656250
7014		99.609375
7015		97.656250
7016		99.609375
7017		97.656250
7018		99.609375
7019		97.656250
7020		99.609375
7021		97.656250
7022		99.609375
7023		97.656250
7024		99.609375
7025		97.656250
7026		99.609375
7027		97.656250
7028		99.609375
7029		97.656250
7030		99.609375
7031		97.656250
7032		99.609375
7033		97.656250
7034		99.609375
7035		97.656250
7036		99.609375
7037		95.703125
7038		97.656250
7039		95.703125
7040		97.656250
7041		95.703125
7042		99.609375
7043		95.703125
7044		97.656250
7045		93.750000
7046		97.656250
7047		93.750000
7048		95.703125
7049		91.796875
7050		95.703125
7051		91.796875
7052		95.703125
7053		89.843750
7054		93.750000
7055		89.843750
7056		91.796875
7057		87.890625
7058		91.796875
7059		87.890625
7060		89.843750
7061		85.937500
7062		89.843750
7063		85.937500
7064		87.890625
7065		83.984375
7066		85.937500
7067		82.031250
7068		85.937500
7069		82.031250
7070		83.984375
7071		80.078125
7072		83.984375
7073		78.125000
7074		82.031250
7075		76.171875
7076		80.078125
7077		74.218750
7078		78.125000
7079		72.265625
7080		76.171875
7081		72.265625
7082		74.218750
7083		68.359375
7084		72.265625
7085		68.359375
7086		70.312500
7087		64.453125
7088		68.359375
7089		64.453125
7090		68.359375
7091		62.500000
7092		64.453125
7093		58.593750
7094		62.500000
7095		56.640625
7096		60.546875
7097		54.687500
7098		58.593750
7099		52.734375
7100		56.640625
7101		50.781250
7102		54.687500
7103		48.828125
7104		52.734375
7105		44.921875
7106		48.828125
7107		42.968750
7108		46.875000
7109		41.015625
7110		44.921875
7111		39.062500
7112		42.968750
7113		35.156250
7114		39.062500
7115		33.203125
7116		37.109375
7117		29.296875
7118		35.156250
7119		27.343750
7120		31.250000
7121		25.390625
7122		29.296875
7123		21.484375
7124		25.390625
7125		19.531250
7126		23.437500
7127		15.625000
7128		21.484375
7129		13.671875
7130		17.578125
7131		9.765625
7132		15.625000
7133		7.812500
7134		11.718750
7135		3.906250
7136		9.765625
7137		1.953125
7138		5.859375
7139		-1.953125
7140		3.906250
7141		-3.906250
7142		0.000000
7143		-7.812500
7144		-1.953125
7145		-9.765625
7146		-5.859375
7147		-13.671875
7148		-7.812500
7149		-15.625000
7150		-11.718750
7151		-19.531250
7152		-13.671875
7153		-21.484375
7154		-17.578125
7155		-25.390625
7156		-19.531250
7157		-27.343750
7158		-23.437500
7159		-31.250000
7160		-25.390625
7161		-33.203125
7162		-29.296875
7163		-37.109375
7164		-31.250000
7165		-39.062500
7166		-35.156250
7167		-42.968750
7168		-37.109375
7169		-44.921875
7170		-41.015625
7171		-46.875000
7172		-42.968750
7173		-50.781250
7174		-46.875000
7175		-52.734375
7176		-48.828125
7177		-56.640625
7178		-52.734375
7179		-58.593750
7180		-54.687500
7181		-62.500000
7182		-56.640625
7183		-64.453125
7184		-60.546875
7185		-66.406250
7186		-62.500000
7187		-70.312500
7188		-64.453125
7189		-72.265625
7190		-68.359375
7191		-74.218750
7192		-70.312500
7193		-78.125000
7194		-74.218750
7195		-80.078125
7196		-76.171875
7197		-82.031250
7198		-78.125000
7199		-83.984375
7200		-80.078125
7201		-85.937500
7202		-82.031250
7203		-89.843750
7204		-85.937500
7205		-91.796875
7206		-85.937500
7207		-93.750000
7208		-89.843750
7209		-95.703125
7210		-91.796875
7211		-97.656250
7212		-93.750000
7213		-99.609375
7214		-95.703125
7215		-101.562500
7216		-97.656250
7217		-101.562500
7218		-99.609375
7219		-103.515625
7220		-101.562500
7221		-105.468750
7222		-103.515625
7223		-107.421875
7224		-105.468750
7225		-109.375000
7226		-105.468750
7227		-111.328125
7228		-105.468750
7229		-111.328125
7230		-109.375000
7231		-113.281250
7232		-109.375000
7233		-113.281250
7234		-111.328125
7235		-115.234375
7236		-113.281250
7237		-117.187500
7238		-113.281250
7239		-117.187500
7240		-115.234375
7241		-119.140625
7242		-115.234375
7243		-119.140625
7244		-117.187500
7245		-121.093750
7246		-117.187500
7247		-121.093750
7248		-117.187500
7249		-121.093750
7250		-117.187500
7251		-121.093750
7252		-119.140625
7253		-121.093750
7254		-119.140625
7255		-121.093750
7256		-119.140625
7257		-123.046875
7258		-119.140625
7259		-123.046875
7260		-119.140625
7261		-123.046875
7262		-121.093750
7263		-123.046875
7264		-121.093750
7265		-123.046875
7266		-121.093750
7267		-121.093750
7268		-119.140625
7269		-123.046875
7270		-119.140625
7271		-123.046875
7272		-119.140625
7273		-121.093750
7274		-119.140625
7275		-121.093750
7276		-119.140625
7277		-119.140625
7278		-117.187500
7279		-119.140625
7280		-117.187500
7281		-119.140625
7282		-115.234375
7283		-117.187500
7284		-115.234375
7285		-117.187500
7286		-113.281250
7287		-115.234375
7288		-113.281250
7289		-115.234375
7290		-111.328125
7291		-113.281250
7292		-111.328125
7293		-113.281250
7294		-109.375000
7295		-111.328125
7296		-107.421875
7297		-109.375000
7298		-107.421875
7299		-107.421875
7300		-105.468750
7301		-105.468750
7302		-103.515625
7303		-105.468750
7304		-101.562500
7305		-103.515625
7306		-99.609375
7307		-101.562500
7308		-97.656250
7309		-99.609375
7310		-95.703125
7311		-97.656250
7312		-93.750000
7313		-95.703125
7314		-91.796875
7315		-93.750000
7316		-89.843750
7317		-91.796875
7318		-87.890625
7319		-89.843750
7320		-85.937500
7321		-87.890625
7322		-83.984375
7323		-83.984375
7324		-80.078125
7325		-82.031250
7326		-78.125000
7327		-80.078125
7328		-76.171875
7329		-78.125000
7330		-74.218750
7331		-76.171875
7332		-70.312500
7333		-72.265625
7334		-68.359375
7335		-70.312500
7336		-66.406250
7337		-68.359375
7338		-64.453125
7339		-64.453125
7340		-60.546875
7341		-62.500000
7342		-58.593750
7343		-58.593750
7344		-54.687500
7345		-56.640625
7346		-52.734375
7347		-54.687500
7348		-48.828125
7349		-52.734375
7350		-44.921875
7351		-48.828125
7352		-42.968750
7353		-44.921875
7354		-37.109375
7355		-42.968750
7356		-39.062500
7357		-39.062500
7358		-35.156250
7359		-37.109375
7360		-33.203125
7361		-33.203125
7362		-29.296875
7363		-31.250000
7364		-27.343750
7365		-27.343750
7366		-23.437500
7367		-27.343750
7368		-19.531250
7369		-21.484375
7370		-17.578125
7371		-21.484375
7372		-13.671875
7373		-15.625000
7374		-11.718750
7375		-15.625000
7376		-7.812500
7377		-9.765625
7378		-5.859375
7379		-7.812500
7380		-1.953125
7381		-3.906250
7382		0.000000
7383		-1.953125
7384		3.906250
7385		0.000000
7386		5.859375
7387		3.906250
7388		9.765625
7389		7.812500
7390		11.718750
7391		7.812500
7392		15.625000
7393		11.718750
7394		17.578125
7395		15.625000
7396		19.531250
7397		17.578125
7398		23.437500
7399		19.531250
7400		27.343750
7401		23.437500
7402		27.343750
7403		25.390625
7404		31.250000
7405		27.343750
7406		33.203125
7407		31.250000
7408		39.062500
7409		35.156250
7410		39.062500
7411		37.109375
7412		41.015625
7413		39.062500
7414		44.921875
7415		39.062500
7416		46.875000
7417		42.968750
7418		48.828125
7419		44.921875
7420		50.781250
7421		46.875000
7422		54.687500
7423		50.781250
7424		54.687500
7425		50.781250
7426		58.593750
7427		54.687500
7428		58.593750
7429		56.640625
7430		62.500000
7431		58.593750
7432		66.406250
7433		60.546875
7434		68.359375
7435		62.500000
7436		70.312500
7437		66.406250
7438		70.312500
7439		62.500000
7440		74.218750
7441		68.359375
7442		76.171875
7443		72.265625
7444		74.218750
7445		72.265625
7446		76.171875
7447		74.218750
7448		80.078125
7449		74.218750
7450		82.031250
7451		78.125000
7452		82.031250
7453		80.078125
7454		82.031250
7455		78.125000
7456		87.890625
7457		82.031250
7458		85.937500
7459		80.078125
7460		87.890625
7461		85.937500
7462		87.890625
7463		83.984375
7464		91.796875
7465		83.984375
7466		93.750000
7467		85.937500
7468		91.796875
7469		89.843750
7470		91.796875
7471		87.890625
7472		97.656250
7473		87.890625
7474		97.656250
7475		89.843750
7476		97.656250
7477		93.750000
7478		95.703125
7479		93.750000
7480		97.656250
7481		91.796875
7482		97.656250
7483		91.796875
7484		101.562500
7485		93.750000
7486		99.609375
7487		95.703125
7488		99.609375
7489		93.750000
7490		103.515625
7491		93.750000
7492		103.515625
7493		97.656250
7494		99.609375
7495		97.656250
7496		99.609375
7497		95.703125
7498		101.562500
7499		95.703125
7500		103.515625
7501		95.703125
7502		103.515625
7503		97.656250
7504		99.609375
7505		95.703125
7506		103.515625
7507		93.750000
7508		103.515625
7509		95.703125
7510		103.515625
7511		97.656250
7512		99.609375
7513		95.703125
7514		99.609375
7515		93.750000
7516		101.562500
7517		93.750000
7518		101.562500
7519		95.703125
7520		97.656250
7521		93.750000
7522		97.656250
7523		89.843750
7524		99.609375
7525		89.843750
7526		97.656250
7527		91.796875
7528		95.703125
7529		91.796875
7530		93.750000
7531		89.843750
7532		93.750000
7533		85.937500
7534		95.703125
7535		85.937500
7536		91.796875
7537		87.890625
7538		89.843750
7539		83.984375
7540		91.796875
7541		83.984375
7542		87.890625
7543		82.031250
7544		89.843750
7545		82.031250
7546		83.984375
7547		78.125000
7548		83.984375
7549		76.171875
7550		85.937500
7551		76.171875
7552		82.031250
7553		76.171875
7554		78.125000
7555		72.265625
7556		80.078125
7557		70.312500
7558		80.078125
7559		68.359375
7560		76.171875
7561		68.359375
7562		72.265625
7563		66.406250
7564		70.312500
7565		62.500000
7566		70.312500
7567		60.546875
7568		70.312500
7569		60.546875
7570		66.406250
7571		56.640625
7572		62.500000
7573		52.734375
7574		62.500000
7575		52.734375
7576		60.546875
7577		52.734375
7578		56.640625
7579		48.828125
7580		52.734375
7581		44.921875
7582		50.781250
7583		41.015625
7584		52.734375
7585		41.015625
7586		46.875000
7587		39.062500
7588		42.968750
7589		33.203125
7590		42.968750
7591		33.203125
7592		42.968750
7593		31.250000
7594		37.109375
7595		29.296875
7596		33.203125
7597		25.390625
7598		31.250000
7599		23.437500
7600		29.296875
7601		19.531250
7602		29.296875
7603		17.578125
7604		23.437500
7605		15.625000
7606		19.531250
7607		9.765625
7608		21.484375
7609		5.859375
7610		15.625000
7611		7.812500
7612		11.718750
7613		3.906250
7614		7.812500
7615		0.000000
7616		5.859375
7617		-3.906250
7618		5.859375
7619		-5.859375
7620		1.953125
7621		-7.812500
7622		-3.906250
7623		-13.671875
7624		-5.859375
7625		-13.671875
7626		-9.765625
7627		-19.531250
7628		-7.812500
7629		-19.531250
7630		-15.625000
7631		-23.437500
7632		-17.578125
7633		-27.343750
7634		-19.531250
7635		-29.296875
7636		-23.437500
7637		-31.250000
7638		-27.343750
7639		-37.109375
7640		-29.296875
7641		-37.109375
7642		-33.203125
7643		-41.015625
7644		-35.156250
7645		-42.968750
7646		-39.062500
7647		-44.921875
7648		-41.015625
7649		-48.828125
7650		-44.921875
7651		-54.687500
7652		-46.875000
7653		-54.687500
7654		-48.828125
7655		-58.593750
7656		-52.734375
7657		-60.546875
7658		-52.734375
7659		-62.500000
7660		-58.593750
7661		-64.453125
7662		-60.546875
7663		-68.359375
7664		-64.453125
7665		-70.312500
7666		-66.406250
7667		-72.265625
7668		-68.359375
7669		-74.218750
7670		-72.265625
7671		-78.125000
7672		-74.218750
7673		-80.078125
7674		-76.171875
7675		-82.031250
7676		-78.125000
7677		-85.937500
7678		-80.078125
7679		-87.890625
7680		-83.984375
7681		-89.843750
7682		-85.937500
7683		-91.796875
7684		-87.890625
7685		-93.750000
7686		-89.843750
7687		-95.703125
7688		-91.796875
7689		-97.656250
7690		-93.750000
7691		-99.609375
7692		-95.703125
7693		-103.515625
7694		-97.656250
7695		-103.515625
7696		-99.609375
7697		-105.468750
7698		-101.562500
7699		-107.421875
7700		-101.562500
7701		-109.375000
7702		-103.515625
7703		-109.375000
7704		-103.515625
7705		-111.328125
7706		-105.468750
7707		-113.281250
7708		-107.421875
7709		-115.234375
7710		-107.421875
7711		-115.234375
7712		-109.375000
7713		-115.234375
7714		-113.281250
7715		-117.187500
7716		-113.281250
7717		-119.140625
7718		-113.281250
7719		-119.140625
7720		-113.281250
7721		-121.093750
7722		-115.234375
7723		-121.093750
7724		-115.234375
7725		-121.093750
7726		-115.234375
7727		-121.093750
7728		-117.187500
7729		-121.093750
7730		-117.187500
7731		-121.093750
7732		-119.140625
7733		-123.046875
7734		-117.187500
7735		-123.046875
7736		-117.187500
7737		-123.046875
7738		-117.187500
7739		-125.000000
7740		-117.187500
7741		-123.046875
7742		-117.187500
7743		-123.046875
7744		-117.187500
7745		-123.046875
7746		-119.140625
7747		-121.093750
7748		-119.140625
7749		-123.046875
7750		-117.187500
7751		-121.093750
7752		-117.187500
7753		-121.093750
7754		-115.234375
7755		-121.093750
7756		-115.234375
7757		-119.140625
7758		-113.281250
7759		-119.140625
7760		-113.281250
7761		-119.140625
7762		-113.281250
7763		-117.187500
7764		-113.281250
7765		-115.234375
7766		-111.328125
7767		-115.234375
7768		-109.375000
7769		-113.281250
7770		-109.375000
7771		-113.281250
7772		-105.468750
7773		-111.328125
7774		-107.421875
7775		-109.375000
7776		-105.468750
7777		-107.421875
7778		-101.562500
7779		-105.468750
7780		-103.515625
7781		-103.515625
7782		-101.562500
7783		-103.515625
7784		-99.609375
7785		-101.562500
7786		-95.703125
7787		-101.562500
7788		-93.750000
7789		-99.609375
7790		-91.796875
7791		-95.703125
7792		-89.843750
7793		-93.750000
7794		-87.890625
7795		-91.796875
7796		-85.937500
7797		-89.843750
7798		-83.984375
7799		-87.890625
7800		-82.031250
7801		-85.937500
7802		-80.078125
7803		-83.984375
7804		-76.171875
7805		-80.078125
7806		-74.218750
7807		-78.125000
7808		-70.312500
7809		-74.218750
7810		-68.359375
7811		-74.218750
7812		-68.359375
7813		-70.312500
7814		-66.406250
7815		-68.359375
7816		-62.500000
7817		-66.406250
7818		-60.546875
7819		-62.500000
7820		-56.640625
7821		-60.546875
7822		-54.687500
7823		-58.593750
7824		-50.781250
7825		-54.687500
7826		-48.828125
7827		-50.781250
7828		-46.875000
7829		-48.828125
7830		-42.968750
7831		-44.921875
7832		-41.015625
7833		-42.968750
7834		-37.109375
7835		-39.062500
7836		-35.156250
7837		-37.109375
7838		-31.250000
7839		-35.156250
7840		-27.343750
7841		-31.250000
7842		-25.390625
7843		-27.343750
7844		-21.484375
7845		-25.390625
7846		-19.531250
7847		-21.484375
7848		-17.578125
7849		-19.531250
7850		-13.671875
7851		-17.578125
7852		-11.718750
7853		-13.671875
7854		-7.812500
7855		-9.765625
7856		-1.953125
7857		-9.765625
7858		-1.953125
7859		-3.906250
7860		1.953125
7861		-1.953125
7862		3.906250
7863		1.953125
7864		5.859375
7865		3.906250
7866		9.765625
7867		5.859375
7868		11.718750
7869		9.765625
7870		15.625000
7871		13.671875
7872		17.578125
7873		13.671875
7874		21.484375
7875		17.578125
7876		23.437500
7877		21.484375
7878		25.390625
7879		23.437500
7880		27.343750
7881		27.343750
7882		31.250000
7883		29.296875
7884		35.156250
7885		31.250000
7886		37.109375
7887		33.203125
7888		39.062500
7889		37.109375
7890		42.968750
7891		39.062500
7892		44.921875
7893		42.968750
7894		46.875000
7895		44.921875
7896		48.828125
7897		46.875000
7898		50.781250
7899		48.828125
7900		52.734375
7901		50.781250
7902		56.640625
7903		52.734375
7904		58.593750
7905		54.687500
7906		60.546875
7907		54.687500
7908		62.500000
7909		60.546875
7910		64.453125
7911		60.546875
7912		66.406250
7913		62.500000
7914		68.359375
7915		66.406250
7916		70.312500
7917		68.359375
7918		72.265625
7919		70.312500
7920		74.218750
7921		70.312500
7922		76.171875
7923		72.265625
7924		76.171875
7925		74.218750
7926		78.125000
7927		76.171875
7928		80.078125
7929		78.125000
7930		82.031250
7931		80.078125
7932		82.031250
7933		82.031250
7934		83.984375
7935		82.031250
7936		85.937500
7937		82.031250
7938		87.890625
7939		85.937500
7940		87.890625
7941		85.937500
7942		89.843750
7943		87.890625
7944		91.796875
7945		87.890625
7946		93.750000
7947		89.843750
7948		93.750000
7949		91.796875
7950		93.750000
7951		89.843750
7952		95.703125
7953		91.796875
7954		95.703125
7955		91.796875
7956		95.703125
7957		93.750000
7958		97.656250
7959		93.750000
7960		97.656250
7961		95.703125
7962		99.609375
7963		95.703125
7964		97.656250
7965		95.703125
7966		97.656250
7967		95.703125
7968		101.562500
7969		95.703125
7970		99.609375
7971		97.656250
7972		99.609375
7973		95.703125
7974		101.562500
7975		97.656250
7976		99.609375
7977		97.656250
7978		101.562500
7979		95.703125
7980		101.562500
7981		97.656250
7982		99.609375
7983		95.703125
7984		99.609375
7985		97.656250
7986		101.562500
7987		97.656250
7988		99.609375
7989		95.703125
7990		99.609375
7991		95.703125
7992		99.609375
7993		95.703125
7994		99.609375
7995		95.703125
7996		99.609375
7997		93.750000
7998		99.609375
7999		93.750000
8000		97.656250
8001		91.796875
8002		95.703125
8003		91.796875
8004		95.703125
8005		91.796875
8006		95.703125
8007		91.796875
8008		93.750000
8009		89.843750
8010		93.750000
8011		87.890625
8012		91.796875
8013		87.890625
8014		91.796875
8015		87.890625
8016		89.843750
8017		85.937500
8018		87.890625
8019		83.984375
8020		87.890625
8021		82.031250
8022		87.890625
8023		80.078125
8024		85.937500
8025		80.078125
8026		83.984375
8027		78.125000
8028		82.031250
8029		76.171875
8030		82.031250
8031		76.171875
8032		80.078125
8033		74.218750
8034		78.125000
8035		72.265625
8036		76.171875
8037		70.312500
8038		74.218750
8039		68.359375
8040		72.265625
8041		66.406250
8042		70.312500
8043		64.453125
8044		68.359375
8045		62.500000
8046		66.406250
8047		58.593750
8048		64.453125
8049		58.593750
8050		62.500000
8051		54.687500
8052		60.546875
8053		52.734375
8054		58.593750
8055		50.781250
8056		54.687500
8057		48.828125
8058		52.734375
8059		46.875000
8060		50.781250
8061		44.921875
8062		48.828125
8063		41.015625
8064		46.875000
8065		39.062500
8066		42.968750
8067		37.109375
8068		41.015625
8069		35.156250
8070		39.062500
8071		31.250000
8072		35.156250
8073		29.296875
8074		35.156250
8075		25.390625
8076		31.250000
8077		23.437500
8078		27.343750
8079		19.531250
8080		25.390625
8081		17.578125
8082		23.437500
8083		15.625000
8084		19.531250
8085		11.718750
8086		15.625000
8087		9.765625
8088		13.671875
8089		5.859375
8090		11.718750
8091		3.906250
8092		7.812500
8093		0.000000
8094		5.859375
8095		-1.953125
8096		1.953125
8097		-5.859375
8098		0.000000
8099		-7.812500
8100		-3.906250
8101		-11.718750
8102		-5.859375
8103		-13.671875
8104		-7.812500
8105		-17.578125
8106		-11.718750
8107		-19.531250
8108		-15.625000
8109		-23.437500
8110		-17.578125
8111		-25.390625
8112		-21.484375
8113		-29.296875
8114		-23.437500
8115		-31.250000
8116		-27.343750
8117		-35.156250
8118		-31.250000
8119		-37.109375
8120		-33.203125
8121		-41.015625
8122		-35.156250
8123		-42.968750
8124		-39.062500
8125		-46.875000
8126		-41.015625
8127		-48.828125
8128		-44.921875
8129		-52.734375
8130		-46.875000
8131		-54.687500
8132		-48.828125
8133		-56.640625
8134		-52.734375
8135		-60.546875
8136		-56.640625
8137		-64.453125
8138		-58.593750
8139		-66.406250
8140		-60.546875
8141		-68.359375
8142		-64.453125
8143		-70.312500
8144		-66.406250
8145		-74.218750
8146		-68.359375
8147		-76.171875
8148		-72.265625
8149		-78.125000
8150		-74.218750
8151		-80.078125
8152		-76.171875
8153		-83.984375
8154		-78.125000
8155		-85.937500
8156		-82.031250
8157		-87.890625
8158		-83.984375
8159		-89.843750
8160		-85.937500
8161		-91.796875
8162		-87.890625
8163		-93.750000
8164		-89.843750
8165		-95.703125
8166		-91.796875
8167		-97.656250
8168		-93.750000
8169		-101.562500
8170		-95.703125
8171		-101.562500
8172		-97.656250
8173		-103.515625
8174		-99.609375
8175		-105.468750
8176		-101.562500
8177		-107.421875
8178		-103.515625
8179		-107.421875
8180		-105.468750
8181		-111.328125
8182		-105.468750
8183		-111.328125
8184		-107.421875
8185		-113.281250
8186		-109.375000
8187		-113.281250
8188		-109.375000
8189		-115.234375
8190		-111.328125
8191		-117.187500
8192		-113.281250
8193		-117.187500
8194		-113.281250
8195		-119.140625
8196		-115.234375
8197		-119.140625
8198		-115.234375
8199		-121.093750
8200		-115.234375
8201		-121.093750
8202		-117.187500
8203		-123.046875
8204		-117.187500
8205		-123.046875
8206		-119.140625
8207		-123.046875
8208		-119.140625
8209		-123.046875
8210		-119.140625
8211		-123.046875
8212		-121.093750
8213		-123.046875
8214		-119.140625
8215		-125.000000
8216		-119.140625
8217		-123.046875
8218		-121.093750
8219		-125.000000
8220		-119.140625
8221		-123.046875
8222		-119.140625
8223		-123.046875
8224		-119.140625
8225		-123.046875
8226		-119.140625
8227		-121.093750
8228		-119.140625
8229		-121.093750
8230		-117.187500
8231		-121.093750
8232		-117.187500
8233		-119.140625
8234		-117.187500
8235		-119.140625
8236		-117.187500
8237		-119.140625
8238		-115.234375
8239		-117.187500
8240		-113.281250
8241		-117.187500
8242		-113.281250
8243		-115.234375
8244		-111.328125
8245		-115.234375
8246		-111.328125
8247		-113.281250
8248		-109.375000
8249		-113.281250
8250		-109.375000
8251		-111.328125
8252		-107.421875
8253		-109.375000
8254		-103.515625
8255		-107.421875
8256		-103.515625
8257		-105.468750
8258		-103.515625
8259		-105.468750
8260		-101.562500
8261		-103.515625
8262		-99.609375
8263		-101.562500
8264		-97.656250
8265		-99.609375
8266		-95.703125
8267		-97.656250
8268		-93.750000
8269		-95.703125
8270		-91.796875
8271		-93.750000
8272		-89.843750
8273		-91.796875
8274		-87.890625
8275		-89.843750
8276		-83.984375
8277		-85.937500
8278		-82.031250
8279		-83.984375
8280		-80.078125
8281		-82.031250
8282		-76.171875
8283		-80.078125
8284		-76.171875
8285		-78.125000
8286		-72.265625
8287		-74.218750
8288		-70.312500
8289		-72.265625
8290		-68.359375
8291		-70.312500
8292		-64.453125
8293		-66.406250
8294		-62.500000
8295		-64.453125
8296		-60.546875
8297		-62.500000
8298		-56.640625
8299		-58.593750
8300		-54.687500
8301		-56.640625
8302		-50.781250
8303		-52.734375
8304		-46.875000
8305		-50.781250
8306		-44.921875
8307		-48.828125
8308		-42.968750
8309		-44.921875
8310		-41.015625
8311		-41.015625
8312		-37.109375
8313		-39.062500
8314		-33.203125
8315		-35.156250
8316		-31.250000
8317		-33.203125
8318		-29.296875
8319		-29.296875
8320		-25.390625
8321		-27.343750
8322		-21.484375
8323		-25.390625
8324		-19.531250
8325		-21.484375
8326		-15.625000
8327		-17.578125
8328		-13.671875
8329		-15.625000
8330		-9.765625
8331		-11.718750
8332		-7.812500
8333		-11.718750
8334		-5.859375
8335		-5.859375
8336		-1.953125
8337		-3.906250
8338		1.953125
8339		-1.953125
8340		3.906250
8341		1.953125
8342		7.812500
8343		5.859375
8344		9.765625
8345		7.812500
8346		13.671875
8347		9.765625
8348		15.625000
8349		13.671875
8350		17.578125
8351		15.625000
8352		19.531250
8353		19.531250
8354		23.437500
8355		19.531250
8356		25.390625
8357		23.437500
8358		29.296875
8359		27.343750
8360		31.250000
8361		29.296875
8362		35.156250
8363		33.203125
8364		37.109375
8365		33.203125
8366		39.062500
8367		37.109375
8368		41.015625
8369		39.062500
8370		42.968750
8371		42.968750
8372		46.875000
8373		44.921875
8374		48.828125
8375		46.875000
8376		50.781250
8377		48.828125
8378		52.734375
8379		52.734375
8380		56.640625
8381		52.734375
8382		58.593750
8383		54.687500
8384		60.546875
8385		58.593750
8386		62.500000
8387		60.546875
8388		64.453125
8389		60.546875
8390		66.406250
8391		64.453125
8392		68.359375
8393		66.406250
8394		70.312500
8395		68.359375
8396		72.265625
8397		70.312500
8398		74.218750
8399		72.265625
8400		76.171875
8401		74.218750
8402		76.171875
8403		76.171875
8404		78.125000
8405		76.171875
8406		80.078125
8407		78.125000
8408		82.031250
8409		80.078125
8410		83.984375
8411		82.031250
8412		83.984375
8413		82.031250
8414		85.937500
8415		83.984375
8416		87.890625
8417		83.984375
8418		89.843750
8419		85.937500
8420		89.843750
8421		87.890625
8422		91.796875
8423		87.890625
8424		91.796875
8425		89.843750
8426		93.750000
8427		89.843750
8428		93.750000
8429		91.796875
8430		95.703125
8431		91.796875
8432		95.703125
8433		91.796875
8434		97.656250
8435		93.750000
8436		97.656250
8437		95.703125
8438		97.656250
8439		93.750000
8440		99.609375
8441		95.703125
8442		99.609375
8443		95.703125
8444		99.609375
8445		97.656250
8446		99.609375
8447		95.703125
8448		99.609375
8449		95.703125
8450		99.609375
8451		97.656250
8452		99.609375
8453		97.656250
8454		99.609375
8455		95.703125
8456		101.562500
8457		95.703125
8458		101.562500
8459		97.656250
8460		101.562500
8461		97.656250
8462		101.562500
8463		97.656250
8464		99.609375
8465		95.703125
8466		99.609375
8467		95.703125
8468		99.609375
8469		95.703125
8470		99.609375
8471		95.703125
8472		99.609375
8473		95.703125
8474		99.609375
8475		93.750000
8476		97.656250
8477		93.750000
8478		97.656250
8479		93.750000
8480		97.656250
8481		91.796875
8482		95.703125
8483		89.843750
8484		95.703125
8485		91.796875
8486		93.750000
8487		89.843750
8488		93.750000
8489		87.890625
8490		91.796875
8491		87.890625
8492		91.796875
8493		85.937500
8494		89.843750
8495		85.937500
8496		89.843750
8497		83.984375
8498		87.890625
8499		82.031250
8500		85.937500
8501		82.031250
8502		85.937500
8503		80.078125
8504		83.984375
8505		78.125000
8506		82.031250
8507		76.171875
8508		80.078125
8509		76.171875
8510		80.078125
8511		74.218750
8512		78.125000
8513		72.265625
8514		76.171875
8515		70.312500
8516		74.218750
8517		68.359375
8518		72.265625
8519		66.406250
8520		70.312500
8521		64.453125
8522		68.359375
8523		62.500000
8524		68.359375
8525		60.546875
8526		64.453125
8527		58.593750
8528		62.500000
8529		56.640625
8530		60.546875
8531		52.734375
8532		58.593750
8533		50.781250
8534		54.687500
8535		48.828125
8536		54.687500
8537		46.875000
8538		50.781250
8539		44.921875
8540		48.828125
8541		41.015625
8542		46.875000
8543		39.062500
8544		42.968750
8545		37.109375
8546		41.015625
8547		33.203125
8548		37.109375
8549		31.250000
8550		35.156250
8551		27.343750
8552		33.203125
8553		25.390625
8554		31.250000
8555		23.437500
8556		27.343750
8557		19.531250
8558		25.390625
8559		17.578125
8560		23.437500
8561		15.625000
8562		19.531250
8563		11.718750
8564		15.625000
8565		7.812500
8566		13.671875
8567		3.906250
8568		9.765625
8569		3.906250
8570		7.812500
8571		0.000000
8572		3.906250
8573		-3.906250
8574		1.953125
8575		-5.859375
8576		0.000000
8577		-7.812500
8578		-3.906250
8579		-11.718750
8580		-5.859375
8581		-15.625000
8582		-9.765625
8583		-17.578125
8584		-11.718750
8585		-19.531250
8586		-15.625000
8587		-23.437500
8588		-19.531250
8589		-27.343750
8590		-21.484375
8591		-29.296875
8592		-23.437500
8593		-31.250000
8594		-27.343750
8595		-35.156250
8596		-31.250000
8597		-37.109375
8598		-33.203125
8599		-41.015625
8600		-35.156250
8601		-44.921875
8602		-39.062500
8603		-46.875000
8604		-42.968750
8605		-48.828125
8606		-44.921875
8607		-52.734375
8608		-46.875000
8609		-54.687500
8610		-50.781250
8611		-56.640625
8612		-52.734375
8613		-60.546875
8614		-56.640625
8615		-62.500000
8616		-58.593750
8617		-66.406250
8618		-60.546875
8619		-68.359375
8620		-62.500000
8621		-70.312500
8622		-66.406250
8623		-74.218750
8624		-68.359375
8625		-76.171875
8626		-72.265625
8627		-80.078125
8628		-74.218750
8629		-80.078125
8630		-76.171875
8631		-82.031250
8632		-78.125000
8633		-85.937500
8634		-80.078125
8635		-87.890625
8636		-83.984375
8637		-89.843750
8638		-85.937500
8639		-91.796875
8640		-87.890625
8641		-93.750000
8642		-89.843750
8643		-95.703125
8644		-91.796875
8645		-97.656250
8646		-93.750000
8647		-99.609375
8648		-95.703125
8649		-101.562500
8650		-97.656250
8651		-103.515625
8652		-99.609375
8653		-103.515625
8654		-99.609375
8655		-105.468750
8656		-103.515625
8657		-109.375000
8658		-103.515625
8659		-109.375000
8660		-105.468750
8661		-111.328125
8662		-107.421875
8663		-111.328125
8664		-107.421875
8665		-113.281250
8666		-109.375000
8667		-115.234375
8668		-111.328125
8669		-115.234375
8670		-111.328125
8671		-117.187500
8672		-113.281250
8673		-119.140625
8674		-113.281250
8675		-119.140625
8676		-115.234375
8677		-119.140625
8678		-115.234375
8679		-119.140625
8680		-117.187500
8681		-121.093750
8682		-117.187500
8683		-121.093750
8684		-117.187500
8685		-123.046875
8686		-117.187500
8687		-121.093750
8688		-119.140625
8689		-121.093750
8690		-119.140625
8691		-123.046875
8692		-119.140625
8693		-123.046875
8694		-119.140625
8695		-123.046875
8696		-119.140625
8697		-123.046875
8698		-119.140625
8699		-123.046875
8700		-119.140625
8701		-121.093750
8702		-119.140625
8703		-123.046875
8704		-117.187500
8705		-121.093750
8706		-117.187500
8707		-121.093750
8708		-117.187500
8709		-119.140625
8710		-117.187500
8711		-119.140625
8712		-115.234375
8713		-119.140625
8714		-113.281250
8715		-117.187500
8716		-113.281250
8717		-117.187500
8718		-113.281250
8719		-115.234375
8720		-111.328125
8721		-113.281250
8722		-111.328125
8723		-113.281250
8724		-109.375000
8725		-113.281250
8726		-107.421875
8727		-111.328125
8728		-107.421875
8729		-109.375000
8730		-105.468750
8731		-107.421875
8732		-103.515625
8733		-107.421875
8734		-103.515625
8735		-105.468750
8736		-101.562500
8737		-103.515625
8738		-99.609375
8739		-101.562500
8740		-97.656250
8741		-101.562500
8742		-95.703125
8743		-99.609375
8744		-93.750000
8745		-95.703125
8746		-91.796875
8747		-93.750000
8748		-89.843750
8749		-91.796875
8750		-87.890625
8751		-89.843750
8752		-85.937500
8753		-87.890625
8754		-83.984375
8755		-85.937500
8756		-80.078125
8757		-82.031250
8758		-78.125000
8759		-80.078125
8760		-76.171875
8761		-78.125000
8762		-74.218750
8763		-76.171875
8764		-72.265625
8765		-72.265625
8766		-68.359375
8767		-70.312500
8768		-66.406250
8769		-68.359375
8770		-62.500000
8771		-64.453125
8772		-60.546875
8773		-62.500000
8774		-58.593750
8775		-60.546875
8776		-54.687500
8777		-58.593750
8778		-52.734375
8779		-54.687500
8780		-48.828125
8781		-50.781250
8782		-46.875000
8783		-50.781250
8784		-42.968750
8785		-44.921875
8786		-41.015625
8787		-42.968750
8788		-39.062500
8789		-41.015625
8790		-35.156250
8791		-37.109375
8792		-31.250000
8793		-35.156250
8794		-29.296875
8795		-31.250000
8796		-25.390625
8797		-29.296875
8798		-23.437500
8799		-25.390625
8800		-19.531250
8801		-23.437500
8802		-17.578125
8803		-21.484375
8804		-15.625000
8805		-15.625000
8806		-11.718750
8807		-13.671875
8808		-9.765625
8809		-11.718750
8810		-5.859375
8811		-7.812500
8812		-1.953125
8813		-3.906250
8814		0.000000
8815		-1.953125
8816		1.953125
8817		1.953125
8818		5.859375
8819		3.906250
8820		9.765625
8821		5.859375
8822		11.718750
8823		9.765625
8824		13.671875
8825		11.718750
8826		17.578125
8827		13.671875
8828		19.531250
8829		17.578125
8830		23.437500
8831		19.531250
8832		25.390625
8833		23.437500
8834		27.343750
8835		25.390625
8836		29.296875
8837		27.343750
8838		33.203125
8839		31.250000
8840		35.156250
8841		33.203125
8842		39.062500
8843		35.156250
8844		41.015625
8845		39.062500
8846		42.968750
8847		41.015625
8848		44.921875
8849		42.968750
8850		48.828125
8851		44.921875
8852		50.781250
8853		48.828125
8854		52.734375
8855		50.781250
8856		54.687500
8857		52.734375
8858		56.640625
8859		54.687500
8860		58.593750
8861		56.640625
8862		62.500000
8863		58.593750
8864		64.453125
8865		60.546875
8866		66.406250
8867		62.500000
8868		66.406250
8869		64.453125
8870		70.312500
8871		66.406250
8872		70.312500
8873		70.312500
8874		72.265625
8875		70.312500
8876		76.171875
8877		72.265625
8878		76.171875
8879		74.218750
8880		78.125000
8881		76.171875
8882		80.078125
8883		76.171875
8884		82.031250
8885		78.125000
8886		82.031250
8887		78.125000
8888		85.937500
8889		82.031250
8890		85.937500
8891		83.984375
8892		85.937500
8893		83.984375
8894		87.890625
8895		85.937500
8896		89.843750
8897		87.890625
8898		89.843750
8899		87.890625
8900		91.796875
8901		89.843750
8902		91.796875
8903		89.843750
8904		93.750000
8905		89.843750
8906		95.703125
8907		91.796875
8908		95.703125
8909		91.796875
8910		95.703125
8911		93.750000
8912		97.656250
8913		93.750000
8914		97.656250
8915		93.750000
8916		97.656250
8917		93.750000
8918		99.609375
8919		95.703125
8920		99.609375
8921		95.703125
8922		99.609375
8923		97.656250
8924		99.609375
8925		95.703125
8926		101.562500
8927		97.656250
8928		101.562500
8929		97.656250
8930		101.562500
8931		97.656250
8932		101.562500
8933		97.656250
8934		101.562500
8935		97.656250
8936		101.562500
8937		97.656250
8938		101.562500
8939		97.656250
8940		99.609375
8941		97.656250
8942		99.609375
8943		95.703125
8944		101.562500
8945		95.703125
8946		99.609375
8947		95.703125
8948		99.609375
8949		95.703125
8950		97.656250
8951		95.703125
8952		97.656250
8953		95.703125
8954		97.656250
8955		91.796875
8956		97.656250
8957		93.750000
8958		95.703125
8959		91.796875
8960		97.656250
8961		91.796875
8962		95.703125
8963		89.843750
8964		93.750000
8965		89.843750
8966		93.750000
8967		87.890625
8968		93.750000
8969		87.890625
8970		91.796875
8971		85.937500
8972		89.843750
8973		85.937500
8974		87.890625
8975		83.984375
8976		87.890625
8977		82.031250
8978		85.937500
8979		80.078125
8980		85.937500
8981		78.125000
8982		83.984375
8983		76.171875
8984		82.031250
8985		76.171875
8986		80.078125
8987		74.218750
8988		80.078125
8989		74.218750
8990		78.125000
8991		72.265625
8992		74.218750
8993		68.359375
8994		74.218750
8995		68.359375
8996		72.265625
8997		66.406250
8998		70.312500
8999		64.453125
9000		68.359375
9001		60.546875
9002		66.406250
9003		58.593750
9004		64.453125
9005		58.593750
9006		60.546875
9007		54.687500
9008		58.593750
9009		50.781250
9010		56.640625
9011		50.781250
9012		54.687500
9013		46.875000
9014		52.734375
9015		44.921875
9016		50.781250
9017		42.968750
9018		46.875000
9019		41.015625
9020		44.921875
9021		37.109375
9022		42.968750
9023		37.109375
9024		39.062500
9025		33.203125
9026		37.109375
9027		31.250000
9028		35.156250
9029		27.343750
9030		33.203125
9031		25.390625
9032		29.296875
9033		21.484375
9034		27.343750
9035		19.531250
9036		23.437500
9037		17.578125
9038		21.484375
9039		13.671875
9040		19.531250
9041		11.718750
9042		15.625000
9043		7.812500
9044		13.671875
9045		3.906250
9046		11.718750
9047		1.953125
9048		7.812500
9049		0.000000
9050		5.859375
9051		-3.906250
9052		1.953125
9053		-7.812500
9054		-1.953125
9055		-11.718750
9056		-3.906250
9057		-11.718750
9058		-7.812500
9059		-15.625000
9060		-9.765625
9061		-17.578125
9062		-13.671875
9063		-21.484375
9064		-15.625000
9065		-25.390625
9066		-19.531250
9067		-27.343750
9068		-21.484375
9069		-29.296875
9070		-25.390625
9071		-33.203125
9072		-27.343750
9073		-35.156250
9074		-31.250000
9075		-39.062500
9076		-35.156250
9077		-42.968750
9078		-37.109375
9079		-44.921875
9080		-41.015625
9081		-46.875000
9082		-41.015625
9083		-50.781250
9084		-44.921875
9085		-52.734375
9086		-48.828125
9087		-56.640625
9088		-50.781250
9089		-58.593750
9090		-54.687500
9091		-60.546875
9092		-56.640625
9093		-64.453125
9094		-58.593750
9095		-66.406250
9096		-60.546875
9097		-68.359375
9098		-64.453125
9099		-70.312500
9100		-66.406250
9101		-74.218750
9102		-70.312500
9103		-76.171875
9104		-72.265625
9105		-80.078125
9106		-74.218750
9107		-80.078125
9108		-76.171875
9109		-83.984375
9110		-78.125000
9111		-85.937500
9112		-80.078125
9113		-87.890625
9114		-82.031250
9115		-89.843750
9116		-85.937500
9117		-91.796875
9118		-87.890625
9119		-93.750000
9120		-89.843750
9121		-95.703125
9122		-91.796875
9123		-97.656250
9124		-91.796875
9125		-99.609375
9126		-95.703125
9127		-103.515625
9128		-97.656250
9129		-103.515625
9130		-99.609375
9131		-105.468750
9132		-101.562500
9133		-107.421875
9134		-101.562500
9135		-107.421875
9136		-103.515625
9137		-109.375000
9138		-105.468750
9139		-111.328125
9140		-107.421875
9141		-111.328125
9142		-109.375000
9143		-113.281250
9144		-109.375000
9145		-115.234375
9146		-109.375000
9147		-115.234375
9148		-111.328125
9149		-115.234375
9150		-113.281250
9151		-117.187500
9152		-113.281250
9153		-117.187500
9154		-113.281250
9155		-119.140625
9156		-115.234375
9157		-119.140625
9158		-115.234375
9159		-119.140625
9160		-117.187500
9161		-121.093750
9162		-115.234375
9163		-121.093750
9164		-117.187500
9165		-121.093750
9166		-117.187500
9167		-121.093750
9168		-117.187500
9169		-121.093750
9170		-117.187500
9171		-121.093750
9172		-117.187500
9173		-123.046875
9174		-117.187500
9175		-121.093750
9176		-117.187500
9177		-121.093750
9178		-117.187500
9179		-121.093750
9180		-117.187500
9181		-121.093750
9182		-117.187500
9183		-121.093750
9184		-117.187500
9185		-119.140625
9186		-115.234375
9187		-119.140625
9188		-115.234375
9189		-117.187500
9190		-113.281250
9191		-119.140625
9192		-115.234375
9193		-115.234375
9194		-113.281250
9195		-115.234375
9196		-111.328125
9197		-115.234375
9198		-111.328125
9199		-113.281250
9200		-109.375000
9201		-113.281250
9202		-107.421875
9203		-111.328125
9204		-107.421875
9205		-109.375000
9206		-105.468750
9207		-107.421875
9208		-105.468750
9209		-107.421875
9210		-103.515625
9211		-105.468750
9212		-99.609375
9213		-103.515625
9214		-99.609375
9215		-101.562500
9216		-97.656250
9217		-99.609375
9218		-95.703125
9219		-97.656250
9220		-93.750000
9221		-97.656250
9222		-91.796875
9223		-95.703125
9224		-89.843750
9225		-91.796875
9226		-87.890625
9227		-89.843750
9228		-85.937500
9229		-89.843750
9230		-83.984375
9231		-87.890625
9232		-82.031250
9233		-83.984375
9234		-80.078125
9235		-82.031250
9236		-78.125000
9237		-80.078125
9238		-74.218750
9239		-78.125000
9240		-72.265625
9241		-76.171875
9242		-70.312500
9243		-72.265625
9244		-68.359375
9245		-70.312500
9246		-64.453125
9247		-66.406250
9248		-62.500000
9249		-64.453125
9250		-58.593750
9251		-62.500000
9252		-56.640625
9253		-60.546875
9254		-54.687500
9255		-56.640625
9256		-50.781250
9257		-52.734375
9258		-46.875000
9259		-50.781250
9260		-46.875000
9261		-46.875000
9262		-42.968750
9263		-44.921875
9264		-41.015625
9265		-42.968750
9266		-37.109375
9267		-39.062500
9268		-35.156250
9269		-35.156250
9270		-31.250000
9271		-33.203125
9272		-29.296875
9273		-31.250000
9274		-25.390625
9275		-29.296875
9276		-23.437500
9277		-23.437500
9278		-19.531250
9279		-21.484375
9280		-17.578125
9281		-17.578125
9282		-13.671875
9283		-15.625000
9284		-11.718750
9285		-13.671875
9286		-7.812500
9287		-9.765625
9288		-5.859375
9289		-7.812500
9290		-1.953125
9291		-3.906250
9292		0.000000
9293		-1.953125
9294		3.906250
9295		1.953125
9296		7.812500
9297		3.906250
9298		9.765625
9299		7.812500
9300		11.718750
9301		9.765625
9302		13.671875
9303		13.671875
9304		17.578125
9305		15.625000
9306		19.531250
9307		17.578125
9308		23.437500
9309		21.484375
9310		25.390625
9311		23.437500
9312		27.343750
9313		25.390625
9314		31.250000
9315		29.296875
9316		33.203125
9317		31.250000
9318		37.109375
9319		35.156250
9320		39.062500
9321		37.109375
9322		41.015625
9323		39.062500
9324		42.968750
9325		41.015625
9326		46.875000
9327		44.921875
9328		48.828125
9329		46.875000
9330		52.734375
9331		46.875000
9332		52.734375
9333		48.828125
9334		56.640625
9335		52.734375
9336		56.640625
9337		54.687500
9338		60.546875
9339		58.593750
9340		62.500000
9341		58.593750
9342		64.453125
9343		62.500000
9344		66.406250
9345		64.453125
9346		68.359375
9347		64.453125
9348		72.265625
9349		66.406250
9350		74.218750
9351		68.359375
9352		76.171875
9353		72.265625
9354		76.171875
9355		72.265625
9356		76.171875
9357		74.218750
9358		78.125000
9359		76.171875
9360		80.078125
9361		78.125000
9362		82.031250
9363		78.125000
9364		85.937500
9365		80.078125
9366		87.890625
9367		80.078125
9368		87.890625
9369		82.031250
9370		87.890625
9371		83.984375
9372		89.843750
9373		85.937500
9374		89.843750
9375		85.937500
9376		89.843750
9377		87.890625
9378		91.796875
9379		89.843750
9380		93.750000
9381		89.843750
9382		95.703125
9383		89.843750
9384		95.703125
9385		89.843750
9386		97.656250
9387		91.796875
9388		97.656250
9389		93.750000
9390		97.656250
9391		93.750000
9392		99.609375
9393		95.703125
9394		97.656250
9395		95.703125
9396		99.609375
9397		93.750000
9398		101.562500
9399		95.703125
9400		103.515625
9401		95.703125
9402		103.515625
9403		95.703125
9404		101.562500
9405		95.703125
9406		103.515625
9407		95.703125
9408		103.515625
9409		95.703125
9410		103.515625
9411		97.656250
9412		101.562500
9413		95.703125
9414		103.515625
9415		95.703125
9416		103.515625
9417		95.703125
9418		103.515625
9419		95.703125
9420		103.515625
9421		95.703125
9422		103.515625
9423		93.750000
9424		101.562500
9425		93.750000
9426		101.562500
9427		95.703125
9428		99.609375
9429		95.703125
9430		97.656250
9431		91.796875
9432		99.609375
9433		91.796875
9434		99.609375
9435		91.796875
9436		99.609375
9437		89.843750
9438		97.656250
9439		89.843750
9440		97.656250
9441		87.890625
9442		95.703125
9443		89.843750
9444		93.750000
9445		89.843750
9446		91.796875
9447		85.937500
9448		93.750000
9449		83.984375
9450		93.750000
9451		83.984375
9452		91.796875
9453		82.031250
9454		89.843750
9455		80.078125
9456		87.890625
9457		78.125000
9458		87.890625
9459		78.125000
9460		87.890625
9461		78.125000
9462		82.031250
9463		74.218750
9464		82.031250
9465		72.265625
9466		82.031250
9467		70.312500
9468		80.078125
9469		70.312500
9470		78.125000
9471		68.359375
9472		74.218750
9473		64.453125
9474		74.218750
9475		62.500000
9476		72.265625
9477		64.453125
9478		68.359375
9479		62.500000
9480		66.406250
9481		58.593750
9482		66.406250
9483		54.687500
9484		64.453125
9485		52.734375
9486		60.546875
9487		50.781250
9488		58.593750
9489		48.828125
9490		56.640625
9491		46.875000
9492		54.687500
9493		44.921875
9494		50.781250
9495		42.968750
9496		46.875000
9497		39.062500
9498		44.921875
9499		37.109375
9500		44.921875
9501		33.203125
9502		42.968750
9503		31.250000
9504		39.062500
9505		27.343750
9506		37.109375
9507		25.390625
9508		33.203125
9509		23.437500
9510		31.250000
9511		23.437500
9512		27.343750
9513		19.531250
9514		23.437500
9515		13.671875
9516		23.437500
9517		11.718750
9518		19.531250
9519		7.812500
9520		17.578125
9521		5.859375
9522		15.625000
9523		3.906250
9524		11.718750
9525		0.000000
9526		9.765625
9527		0.000000
9528		5.859375
9529		-3.906250
9530		1.953125
9531		-7.812500
9532		0.000000
9533		-11.718750
9534		-1.953125
9535		-13.671875
9536		-3.906250
9537		-17.578125
9538		-7.812500
9539		-19.531250
9540		-11.718750
9541		-23.437500
9542		-13.671875
9543		-25.390625
9544		-17.578125
9545		-27.343750
9546		-21.484375
9547		-31.250000
9548		-25.390625
9549		-35.156250
9550		-25.390625
9551		-37.109375
9552		-29.296875
9553		-41.015625
9554		-31.250000
9555		-44.921875
9556		-33.203125
9557		-46.875000
9558		-37.109375
9559		-48.828125
9560		-41.015625
9561		-50.781250
9562		-44.921875
9563		-52.734375
9564		-48.828125
9565		-58.593750
9566		-48.828125
9567		-60.546875
9568		-50.781250
9569		-62.500000
9570		-54.687500
9571		-66.406250
9572		-56.640625
9573		-68.359375
9574		-60.546875
9575		-70.312500
9576		-62.500000
9577		-72.265625
9578		-64.453125
9579		-74.218750
9580		-70.312500
9581		-78.125000
9582		-72.265625
9583		-82.031250
9584		-72.265625
9585		-83.984375
9586		-76.171875
9587		-85.937500
9588		-76.171875
9589		-87.890625
9590		-80.078125
9591		-89.843750
9592		-82.031250
9593		-91.796875
9594		-83.984375
9595		-91.796875
9596		-87.890625
9597		-93.750000
9598		-89.843750
9599		-99.609375
9600		-89.843750
9601		-99.609375
9602		-91.796875
9603		-103.515625
9604		-93.750000
9605		-105.468750
9606		-95.703125
9607		-105.468750
9608		-97.656250
9609		-107.421875
9610		-99.609375
9611		-107.421875
9612		-101.562500
9613		-107.421875
9614		-105.468750
9615		-111.328125
9616		-105.468750
9617		-113.281250
9618		-105.468750
9619		-115.234375
9620		-105.468750
9621		-115.234375
9622		-107.421875
9623		-117.187500
9624		-109.375000
9625		-117.187500
9626		-109.375000
9627		-117.187500
9628		-111.328125
9629		-117.187500
9630		-115.234375
9631		-119.140625
9632		-115.234375
9633		-121.093750
9634		-113.281250
9635		-121.093750
9636		-113.281250
9637		-123.046875
9638		-113.281250
9639		-123.046875
9640		-115.234375
9641		-123.046875
9642		-115.234375
9643		-123.046875
9644		-115.234375
9645		-121.093750
9646		-119.140625
9647		-121.093750
9648		-117.187500
9649		-123.046875
9650		-115.234375
9651		-123.046875
9652		-115.234375
9653		-123.046875
9654		-115.234375
9655		-123.046875
9656		-115.234375
9657		-123.046875
9658		-115.234375
9659		-123.046875
9660		-115.234375
9661		-121.093750
9662		-115.234375
9663		-119.140625
9664		-117.187500
9665		-121.093750
9666		-113.281250
9667		-121.093750
9668		-111.328125
9669		-119.140625
9670		-111.328125
9671		-119.140625
9672		-111.328125
9673		-117.187500
9674		-109.375000
9675		-117.187500
9676		-107.421875
9677		-115.234375
9678		-107.421875
9679		-111.328125
9680		-109.375000
9681		-111.328125
9682		-107.421875
9683		-111.328125
9684		-103.515625
9685		-111.328125
9686		-101.562500
9687		-109.375000
9688		-99.609375
9689		-107.421875
9690		-99.609375
9691		-105.468750
9692		-97.656250
9693		-103.515625
9694		-95.703125
9695		-99.609375
9696		-95.703125
9697		-97.656250
9698		-93.750000
9699		-95.703125
9700		-89.843750
9701		-97.656250
9702		-87.890625
9703		-93.750000
9704		-85.937500
9705		-91.796875
9706		-83.984375
9707		-89.843750
9708		-82.031250
9709		-87.890625
9710		-78.125000
9711		-85.937500
9712		-78.125000
9713		-80.078125
9714		-76.171875
9715		-78.125000
9716		-74.218750
9717		-78.125000
9718		-68.359375
9719		-76.171875
9720		-66.406250
9721		-72.265625
9722		-64.453125
9723		-70.312500
9724		-60.546875
9725		-68.359375
9726		-58.593750
9727		-64.453125
9728		-56.640625
9729		-60.546875
9730		-56.640625
9731		-58.593750
9732		-52.734375
9733		-56.640625
9734		-46.875000
9735		-54.687500
9736		-44.921875
9737		-50.781250
9738		-42.968750
9739		-48.828125
9740		-39.062500
9741		-44.921875
9742		-37.109375
9743		-42.968750
9744		-33.203125
9745		-41.015625
9746		-33.203125
9747		-35.156250
9748		-31.250000
9749		-33.203125
9750		-23.437500
9751		-31.250000
9752		-21.484375
9753		-29.296875
9754		-19.531250
9755		-25.390625
9756		-15.625000
9757		-21.484375
9758		-13.671875
9759		-19.531250
9760		-9.765625
9761		-17.578125
9762		-7.812500
9763		-11.718750
9764		-7.812500
9765		-7.812500
9766		-3.906250
9767		-7.812500
9768		0.000000
9769		-5.859375
9770		3.906250
9771		-1.953125
9772		5.859375
9773		0.000000
9774		9.765625
9775		3.906250
9776		13.671875
9777		7.812500
9778		15.625000
9779		11.718750
9780		15.625000
9781		13.671875
9782		19.531250
9783		15.625000
9784		23.437500
9785		17.578125
9786		27.343750
9787		19.531250
9788		29.296875
9789		21.484375
9790		31.250000
9791		25.390625
9792		33.203125
9793		27.343750
9794		37.109375
9795		31.250000
9796		37.109375
9797		35.156250
9798		39.062500
9799		39.062500
9800		42.968750
9801		39.062500
9802		46.875000
9803		41.015625
9804		50.781250
9805		42.968750
9806		50.781250
9807		46.875000
9808		54.687500
9809		46.875000
9810		56.640625
9811		48.828125
9812		58.593750
9813		52.734375
9814		58.593750
9815		56.640625
9816		60.546875
9817		56.640625
9818		66.406250
9819		58.593750
9820		66.406250
9821		60.546875
9822		70.312500
9823		62.500000
9824		72.265625
9825		64.453125
9826		72.265625
9827		66.406250
9828		74.218750
9829		70.312500
9830		76.171875
9831		72.265625
9832		76.171875
9833		72.265625
9834		80.078125
9835		74.218750
9836		82.031250
9837		76.171875
9838		83.984375
9839		76.171875
9840		85.937500
9841		80.078125
9842		85.937500
9843		80.078125
9844		87.890625
9845		80.078125
9846		87.890625
9847		85.937500
9848		87.890625
9849		85.937500
9850		89.843750
9851		85.937500
9852		91.796875
9853		85.937500
9854		95.703125
9855		87.890625
9856		95.703125
9857		87.890625
9858		95.703125
9859		89.843750
9860		97.656250
9861		89.843750
9862		97.656250
9863		91.796875
9864		95.703125
9865		93.750000
9866		97.656250
9867		93.750000
9868		99.609375
9869		93.750000
9870		101.562500
9871		93.750000
9872		101.562500
9873		93.750000
9874		101.562500
9875		93.750000
9876		103.515625
9877		95.703125
9878		103.515625
9879		95.703125
9880		103.515625
9881		99.609375
9882		101.562500
9883		99.609375
9884		101.562500
9885		95.703125
9886		103.515625
9887		95.703125
9888		103.515625
9889		95.703125
9890		105.468750
9891		95.703125
9892		103.515625
9893		95.703125
9894		105.468750
9895		95.703125
9896		103.515625
9897		97.656250
9898		101.562500
9899		97.656250
9900		101.562500
9901		95.703125
9902		103.515625
9903		95.703125
9904		103.515625
9905		93.750000
9906		101.562500
9907		93.750000
9908		101.562500
9909		91.796875
9910		101.562500
9911		91.796875
9912		99.609375
9913		93.750000
9914		99.609375
9915		93.750000
9916		97.656250
9917		89.843750
9918		97.656250
9919		89.843750
9920		97.656250
9921		87.890625
9922		95.703125
9923		87.890625
9924		95.703125
9925		85.937500
9926		93.750000
9927		85.937500
9928		93.750000
9929		83.984375
9930		91.796875
9931		85.937500
9932		87.890625
9933		83.984375
9934		85.937500
9935		80.078125
9936		87.890625
9937		78.125000
9938		85.937500
9939		76.171875
9940		85.937500
9941		74.218750
9942		83.984375
9943		74.218750
9944		82.031250
9945		72.265625
9946		80.078125
9947		72.265625
9948		78.125000
9949		70.312500
9950		74.218750
9951		66.406250
9952		74.218750
9953		64.453125
9954		74.218750
9955		62.500000
9956		70.312500
9957		60.546875
9958		68.359375
9959		58.593750
9960		66.406250
9961		56.640625
9962		64.453125
9963		54.687500
9964		62.500000
9965		54.687500
9966		58.593750
9967		52.734375
9968		56.640625
9969		46.875000
9970		54.687500
9971		44.921875
9972		54.687500
9973		42.968750
9974		50.781250
9975		39.062500
9976		48.828125
9977		37.109375
9978		44.921875
9979		35.156250
9980		42.968750
9981		35.156250
9982		39.062500
9983		31.250000
9984		35.156250
9985		27.343750
9986		35.156250
9987		23.437500
9988		33.203125
9989		21.484375
9990		31.250000
9991		17.578125
9992		27.343750
9993		15.625000
9994		25.390625
9995		13.671875
9996		23.437500
9997		11.718750
9998		17.578125
9999		9.765625
10000		13.671875
