Channel              :		CH1
Frequency            :		1.060kHz
Period               :		0.944ms
PK-PK                :		187.5mV
Probe attenuation    :		1X
Voltage per ADC value:		0.122070mV
Time interval        :		2.00000us

index		CH1_Voltage(mV)
1		42.968750
2		42.968750
3		46.875000
4		41.015625
5		44.921875
6		37.109375
7		42.968750
8		35.156250
9		41.015625
10		33.203125
11		39.062500
12		29.296875
13		37.109375
14		27.343750
15		35.156250
16		25.390625
17		33.203125
18		25.390625
19		31.250000
20		23.437500
21		27.343750
22		19.531250
23		25.390625
24		17.578125
25		23.437500
26		15.625000
27		23.437500
28		11.718750
29		19.531250
30		9.765625
31		19.531250
32		9.765625
33		15.625000
34		7.812500
35		13.671875
36		5.859375
37		9.765625
38		1.953125
39		7.812500
40		0.000000
41		5.859375
42		-3.906250
43		3.906250
44		-5.859375
45		1.953125
46		-7.812500
47		0.000000
48		-9.765625
49		-1.953125
50		-11.718750
51		-3.906250
52		-13.671875
53		-9.765625
54		-15.625000
55		-11.718750
56		-19.531250
57		-13.671875
58		-21.484375
59		-13.671875
60		-23.437500
61		-15.625000
62		-27.343750
63		-19.531250
64		-29.296875
65		-21.484375
66		-31.250000
67		-23.437500
68		-31.250000
69		-25.390625
70		-33.203125
71		-29.296875
72		-39.062500
73		-31.250000
74		-41.015625
75		-33.203125
76		-42.968750
77		-35.156250
78		-44.921875
79		-37.109375
80		-46.875000
81		-39.062500
82		-48.828125
83		-41.015625
84		-50.781250
85		-44.921875
86		-50.781250
87		-46.875000
88		-52.734375
89		-48.828125
90		-58.593750
91		-50.781250
92		-60.546875
93		-52.734375
94		-62.500000
95		-52.734375
96		-64.453125
97		-54.687500
98		-64.453125
99		-58.593750
100		-66.406250
101		-58.593750
102		-66.406250
103		-60.546875
104		-68.359375
105		-64.453125
106		-72.265625
107		-64.453125
108		-74.218750
109		-66.406250
110		-76.171875
111		-68.359375
112		-76.171875
113		-68.359375
114		-78.125000
115		-70.312500
116		-80.078125
117		-72.265625
118		-80.078125
119		-74.218750
120		-80.078125
121		-76.171875
122		-83.984375
123		-76.171875
124		-83.984375
125		-78.125000
126		-85.937500
127		-80.078125
128		-87.890625
129		-80.078125
130		-87.890625
131		-80.078125
132		-87.890625
133		-80.078125
134		-89.843750
135		-82.031250
136		-87.890625
137		-85.937500
138		-89.843750
139		-85.937500
140		-91.796875
141		-85.937500
142		-91.796875
143		-85.937500
144		-93.750000
145		-85.937500
146		-93.750000
147		-87.890625
148		-93.750000
149		-85.937500
150		-93.750000
151		-87.890625
152		-93.750000
153		-89.843750
154		-91.796875
155		-89.843750
156		-95.703125
157		-87.890625
158		-95.703125
159		-87.890625
160		-95.703125
161		-89.843750
162		-93.750000
163		-87.890625
164		-93.750000
165		-87.890625
166		-93.750000
167		-87.890625
168		-93.750000
169		-87.890625
170		-91.796875
171		-89.843750
172		-91.796875
173		-87.890625
174		-93.750000
175		-85.937500
176		-93.750000
177		-85.937500
178		-91.796875
179		-83.984375
180		-91.796875
181		-83.984375
182		-89.843750
183		-83.984375
184		-89.843750
185		-82.031250
186		-87.890625
187		-83.984375
188		-85.937500
189		-82.031250
190		-87.890625
191		-80.078125
192		-85.937500
193		-78.125000
194		-85.937500
195		-78.125000
196		-83.984375
197		-76.171875
198		-82.031250
199		-74.218750
200		-82.031250
201		-74.218750
202		-80.078125
203		-74.218750
204		-76.171875
205		-72.265625
206		-76.171875
207		-70.312500
208		-76.171875
209		-68.359375
210		-74.218750
211		-66.406250
212		-72.265625
213		-66.406250
214		-70.312500
215		-64.453125
216		-68.359375
217		-60.546875
218		-68.359375
219		-60.546875
220		-64.453125
221		-58.593750
222		-62.500000
223		-58.593750
224		-60.546875
225		-54.687500
226		-60.546875
227		-52.734375
228		-58.593750
229		-50.781250
230		-56.640625
231		-48.828125
232		-54.687500
233		-46.875000
234		-52.734375
235		-44.921875
236		-48.828125
237		-42.968750
238		-46.875000
239		-41.015625
240		-42.968750
241		-37.109375
242		-44.921875
243		-35.156250
244		-41.015625
245		-33.203125
246		-39.062500
247		-31.250000
248		-37.109375
249		-27.343750
250		-35.156250
251		-25.390625
252		-33.203125
253		-25.390625
254		-27.343750
255		-23.437500
256		-25.390625
257		-21.484375
258		-25.390625
259		-17.578125
260		-23.437500
261		-13.671875
262		-19.531250
263		-13.671875
264		-17.578125
265		-9.765625
266		-15.625000
267		-7.812500
268		-13.671875
269		-3.906250
270		-11.718750
271		-3.906250
272		-5.859375
273		-1.953125
274		-5.859375
275		1.953125
276		-3.906250
277		3.906250
278		-1.953125
279		5.859375
280		0.000000
281		7.812500
282		3.906250
283		11.718750
284		5.859375
285		11.718750
286		7.812500
287		15.625000
288		11.718750
289		17.578125
290		13.671875
291		19.531250
292		15.625000
293		21.484375
294		17.578125
295		25.390625
296		19.531250
297		25.390625
298		21.484375
299		29.296875
300		23.437500
301		31.250000
302		27.343750
303		33.203125
304		29.296875
305		33.203125
306		31.250000
307		35.156250
308		31.250000
309		39.062500
310		33.203125
311		41.015625
312		35.156250
313		44.921875
314		37.109375
315		44.921875
316		39.062500
317		46.875000
318		42.968750
319		48.828125
320		42.968750
321		48.828125
322		46.875000
323		50.781250
324		48.828125
325		54.687500
326		48.828125
327		56.640625
328		50.781250
329		58.593750
330		52.734375
331		60.546875
332		54.687500
333		60.546875
334		54.687500
335		62.500000
336		56.640625
337		64.453125
338		60.546875
339		64.453125
340		62.500000
341		66.406250
342		60.546875
343		68.359375
344		62.500000
345		70.312500
346		62.500000
347		72.265625
348		64.453125
349		72.265625
350		66.406250
351		74.218750
352		68.359375
353		74.218750
354		68.359375
355		74.218750
356		72.265625
357		74.218750
358		72.265625
359		78.125000
360		72.265625
361		78.125000
362		72.265625
363		78.125000
364		74.218750
365		80.078125
366		74.218750
367		82.031250
368		76.171875
369		82.031250
370		76.171875
371		82.031250
372		78.125000
373		82.031250
374		78.125000
375		82.031250
376		78.125000
377		83.984375
378		78.125000
379		85.937500
380		80.078125
381		85.937500
382		78.125000
383		85.937500
384		80.078125
385		85.937500
386		80.078125
387		85.937500
388		80.078125
389		85.937500
390		82.031250
391		85.937500
392		80.078125
393		87.890625
394		80.078125
395		87.890625
396		80.078125
397		87.890625
398		80.078125
399		87.890625
400		80.078125
401		87.890625
402		80.078125
403		87.890625
404		80.078125
405		85.937500
406		82.031250
407		83.984375
408		80.078125
409		85.937500
410		80.078125
411		85.937500
412		78.125000
413		85.937500
414		78.125000
415		83.984375
416		78.125000
417		83.984375
418		78.125000
419		83.984375
420		76.171875
421		83.984375
422		78.125000
423		82.031250
424		76.171875
425		80.078125
426		74.218750
427		82.031250
428		72.265625
429		80.078125
430		72.265625
431		80.078125
432		72.265625
433		78.125000
434		70.312500
435		78.125000
436		68.359375
437		76.171875
438		68.359375
439		76.171875
440		68.359375
441		72.265625
442		66.406250
443		72.265625
444		64.453125
445		72.265625
446		62.500000
447		70.312500
448		62.500000
449		68.359375
450		60.546875
451		68.359375
452		58.593750
453		66.406250
454		58.593750
455		64.453125
456		58.593750
457		62.500000
458		56.640625
459		60.546875
460		52.734375
461		60.546875
462		50.781250
463		58.593750
464		48.828125
465		56.640625
466		48.828125
467		56.640625
468		46.875000
469		54.687500
470		44.921875
471		52.734375
472		44.921875
473		48.828125
474		42.968750
475		46.875000
476		37.109375
477		44.921875
478		37.109375
479		44.921875
480		35.156250
481		42.968750
482		33.203125
483		41.015625
484		31.250000
485		39.062500
486		27.343750
487		37.109375
488		27.343750
489		33.203125
490		25.390625
491		31.250000
492		21.484375
493		29.296875
494		19.531250
495		27.343750
496		19.531250
497		25.390625
498		15.625000
499		23.437500
500		13.671875
501		21.484375
502		9.765625
503		17.578125
504		7.812500
505		15.625000
506		7.812500
507		11.718750
508		5.859375
509		9.765625
510		1.953125
511		9.765625
512		0.000000
513		7.812500
514		-1.953125
515		5.859375
516		-5.859375
517		3.906250
518		-5.859375
519		0.000000
520		-9.765625
521		-1.953125
522		-9.765625
523		-5.859375
524		-13.671875
525		-7.812500
526		-15.625000
527		-9.765625
528		-19.531250
529		-11.718750
530		-21.484375
531		-13.671875
532		-23.437500
533		-15.625000
534		-25.390625
535		-17.578125
536		-29.296875
537		-21.484375
538		-31.250000
539		-23.437500
540		-31.250000
541		-27.343750
542		-33.203125
543		-29.296875
544		-37.109375
545		-29.296875
546		-41.015625
547		-31.250000
548		-42.968750
549		-35.156250
550		-44.921875
551		-37.109375
552		-46.875000
553		-39.062500
554		-48.828125
555		-41.015625
556		-48.828125
557		-44.921875
558		-50.781250
559		-46.875000
560		-54.687500
561		-46.875000
562		-56.640625
563		-50.781250
564		-58.593750
565		-50.781250
566		-60.546875
567		-52.734375
568		-62.500000
569		-54.687500
570		-64.453125
571		-56.640625
572		-64.453125
573		-58.593750
574		-66.406250
575		-62.500000
576		-68.359375
577		-64.453125
578		-70.312500
579		-62.500000
580		-72.265625
581		-66.406250
582		-74.218750
583		-68.359375
584		-76.171875
585		-68.359375
586		-78.125000
587		-70.312500
588		-80.078125
589		-72.265625
590		-78.125000
591		-74.218750
592		-80.078125
593		-76.171875
594		-82.031250
595		-76.171875
596		-83.984375
597		-76.171875
598		-83.984375
599		-78.125000
600		-85.937500
601		-80.078125
602		-85.937500
603		-80.078125
604		-87.890625
605		-80.078125
606		-85.937500
607		-82.031250
608		-87.890625
609		-83.984375
610		-89.843750
611		-83.984375
612		-91.796875
613		-83.984375
614		-91.796875
615		-85.937500
616		-91.796875
617		-85.937500
618		-91.796875
619		-85.937500
620		-93.750000
621		-85.937500
622		-91.796875
623		-87.890625
624		-91.796875
625		-87.890625
626		-91.796875
627		-87.890625
628		-93.750000
629		-85.937500
630		-93.750000
631		-87.890625
632		-93.750000
633		-87.890625
634		-93.750000
635		-87.890625
636		-93.750000
637		-85.937500
638		-93.750000
639		-87.890625
640		-91.796875
641		-87.890625
642		-91.796875
643		-87.890625
644		-91.796875
645		-85.937500
646		-91.796875
647		-85.937500
648		-91.796875
649		-83.984375
650		-91.796875
651		-83.984375
652		-91.796875
653		-83.984375
654		-89.843750
655		-82.031250
656		-87.890625
657		-82.031250
658		-85.937500
659		-82.031250
660		-83.984375
661		-80.078125
662		-85.937500
663		-80.078125
664		-83.984375
665		-78.125000
666		-83.984375
667		-76.171875
668		-82.031250
669		-74.218750
670		-80.078125
671		-74.218750
672		-80.078125
673		-72.265625
674		-76.171875
675		-74.218750
676		-76.171875
677		-72.265625
678		-76.171875
679		-68.359375
680		-74.218750
681		-66.406250
682		-72.265625
683		-64.453125
684		-72.265625
685		-64.453125
686		-70.312500
687		-62.500000
688		-66.406250
689		-60.546875
690		-64.453125
691		-58.593750
692		-62.500000
693		-58.593750
694		-60.546875
695		-54.687500
696		-60.546875
697		-52.734375
698		-58.593750
699		-50.781250
700		-56.640625
701		-50.781250
702		-54.687500
703		-46.875000
704		-52.734375
705		-44.921875
706		-50.781250
707		-42.968750
708		-46.875000
709		-42.968750
710		-44.921875
711		-39.062500
712		-44.921875
713		-35.156250
714		-42.968750
715		-33.203125
716		-39.062500
717		-31.250000
718		-37.109375
719		-29.296875
720		-35.156250
721		-27.343750
722		-33.203125
723		-25.390625
724		-29.296875
725		-25.390625
726		-27.343750
727		-21.484375
728		-25.390625
729		-17.578125
730		-23.437500
731		-15.625000
732		-21.484375
733		-13.671875
734		-19.531250
735		-9.765625
736		-15.625000
737		-9.765625
738		-13.671875
739		-7.812500
740		-11.718750
741		-5.859375
742		-7.812500
743		-3.906250
744		-5.859375
745		0.000000
746		-5.859375
747		1.953125
748		-3.906250
749		5.859375
750		0.000000
751		7.812500
752		1.953125
753		9.765625
754		3.906250
755		11.718750
756		5.859375
757		13.671875
758		11.718750
759		15.625000
760		13.671875
761		17.578125
762		13.671875
763		21.484375
764		15.625000
765		23.437500
766		17.578125
767		25.390625
768		21.484375
769		29.296875
770		23.437500
771		29.296875
772		25.390625
773		31.250000
774		27.343750
775		33.203125
776		31.250000
777		35.156250
778		31.250000
779		39.062500
780		33.203125
781		41.015625
782		33.203125
783		42.968750
784		37.109375
785		42.968750
786		39.062500
787		46.875000
788		41.015625
789		48.828125
790		42.968750
791		48.828125
792		46.875000
793		50.781250
794		46.875000
795		52.734375
796		48.828125
797		54.687500
798		50.781250
799		58.593750
800		50.781250
801		58.593750
802		52.734375
803		60.546875
804		54.687500
805		62.500000
806		56.640625
807		62.500000
808		58.593750
809		64.453125
810		60.546875
811		64.453125
812		60.546875
813		68.359375
814		62.500000
815		70.312500
816		64.453125
817		70.312500
818		64.453125
819		72.265625
820		64.453125
821		74.218750
822		66.406250
823		76.171875
824		68.359375
825		74.218750
826		70.312500
827		74.218750
828		72.265625
829		78.125000
830		72.265625
831		78.125000
832		72.265625
833		80.078125
834		74.218750
835		80.078125
836		74.218750
837		82.031250
838		76.171875
839		82.031250
840		76.171875
841		82.031250
842		78.125000
843		82.031250
844		80.078125
845		82.031250
846		78.125000
847		85.937500
848		78.125000
849		83.984375
850		78.125000
851		85.937500
852		80.078125
853		85.937500
854		80.078125
855		87.890625
856		80.078125
857		87.890625
858		80.078125
859		85.937500
860		82.031250
861		85.937500
862		82.031250
863		87.890625
864		80.078125
865		87.890625
866		82.031250
867		87.890625
868		80.078125
869		87.890625
870		80.078125
871		87.890625
872		80.078125
873		87.890625
874		82.031250
875		85.937500
876		82.031250
877		85.937500
878		82.031250
879		85.937500
880		80.078125
881		87.890625
882		80.078125
883		85.937500
884		78.125000
885		85.937500
886		78.125000
887		85.937500
888		78.125000
889		85.937500
890		78.125000
891		83.984375
892		78.125000
893		83.984375
894		78.125000
895		82.031250
896		74.218750
897		82.031250
898		74.218750
899		82.031250
900		74.218750
901		80.078125
902		72.265625
903		80.078125
904		72.265625
905		80.078125
906		70.312500
907		78.125000
908		70.312500
909		76.171875
910		70.312500
911		74.218750
912		68.359375
913		72.265625
914		66.406250
915		72.265625
916		64.453125
917		72.265625
918		64.453125
919		72.265625
920		62.500000
921		70.312500
922		60.546875
923		68.359375
924		60.546875
925		66.406250
926		60.546875
927		64.453125
928		58.593750
929		62.500000
930		54.687500
931		62.500000
932		52.734375
933		60.546875
934		52.734375
935		60.546875
936		50.781250
937		58.593750
938		48.828125
939		56.640625
940		46.875000
941		52.734375
942		44.921875
943		52.734375
944		44.921875
945		48.828125
946		41.015625
947		46.875000
948		39.062500
949		46.875000
950		37.109375
951		44.921875
952		35.156250
953		42.968750
954		33.203125
955		41.015625
956		31.250000
957		37.109375
958		29.296875
959		37.109375
960		29.296875
961		33.203125
962		27.343750
963		31.250000
964		23.437500
965		29.296875
966		19.531250
967		27.343750
968		17.578125
969		25.390625
970		15.625000
971		23.437500
972		13.671875
973		21.484375
974		11.718750
975		19.531250
976		9.765625
977		17.578125
978		7.812500
979		13.671875
980		3.906250
981		11.718750
982		1.953125
983		9.765625
984		-1.953125
985		7.812500
986		-1.953125
987		5.859375
988		-5.859375
989		1.953125
990		-5.859375
991		0.000000
992		-9.765625
993		-1.953125
994		-9.765625
995		-5.859375
996		-13.671875
997		-7.812500
998		-17.578125
999		-9.765625
1000		-19.531250
1001		-11.718750
1002		-21.484375
1003		-13.671875
1004		-23.437500
1005		-15.625000
1006		-27.343750
1007		-17.578125
1008		-29.296875
1009		-21.484375
1010		-29.296875
1011		-23.437500
1012		-31.250000
1013		-27.343750
1014		-35.156250
1015		-29.296875
1016		-37.109375
1017		-29.296875
1018		-39.062500
1019		-33.203125
1020		-41.015625
1021		-35.156250
1022		-44.921875
1023		-37.109375
1024		-46.875000
1025		-39.062500
1026		-46.875000
1027		-41.015625
1028		-48.828125
1029		-44.921875
1030		-52.734375
1031		-46.875000
1032		-54.687500
1033		-46.875000
1034		-56.640625
1035		-48.828125
1036		-58.593750
1037		-50.781250
1038		-60.546875
1039		-52.734375
1040		-60.546875
1041		-54.687500
1042		-64.453125
1043		-56.640625
1044		-64.453125
1045		-60.546875
1046		-66.406250
1047		-62.500000
1048		-68.359375
1049		-62.500000
1050		-72.265625
1051		-64.453125
1052		-72.265625
1053		-64.453125
1054		-74.218750
1055		-66.406250
1056		-76.171875
1057		-68.359375
1058		-76.171875
1059		-70.312500
1060		-76.171875
1061		-70.312500
1062		-78.125000
1063		-74.218750
1064		-80.078125
1065		-74.218750
1066		-82.031250
1067		-74.218750
1068		-83.984375
1069		-76.171875
1070		-83.984375
1071		-76.171875
1072		-85.937500
1073		-78.125000
1074		-85.937500
1075		-80.078125
1076		-87.890625
1077		-80.078125
1078		-85.937500
1079		-82.031250
1080		-87.890625
1081		-83.984375
1082		-89.843750
1083		-83.984375
1084		-91.796875
1085		-82.031250
1086		-91.796875
1087		-83.984375
1088		-91.796875
1089		-83.984375
1090		-91.796875
1091		-85.937500
1092		-91.796875
1093		-85.937500
1094		-89.843750
1095		-87.890625
1096		-89.843750
1097		-87.890625
1098		-93.750000
1099		-87.890625
1100		-93.750000
1101		-85.937500
1102		-93.750000
1103		-85.937500
1104		-93.750000
1105		-87.890625
1106		-93.750000
1107		-85.937500
1108		-93.750000
1109		-85.937500
1110		-91.796875
1111		-85.937500
1112		-89.843750
1113		-87.890625
1114		-89.843750
1115		-85.937500
1116		-91.796875
1117		-83.984375
1118		-91.796875
1119		-83.984375
1120		-89.843750
1121		-83.984375
1122		-89.843750
1123		-82.031250
1124		-89.843750
1125		-82.031250
1126		-89.843750
1127		-82.031250
1128		-85.937500
1129		-82.031250
1130		-85.937500
1131		-82.031250
1132		-85.937500
1133		-80.078125
1134		-83.984375
1135		-78.125000
1136		-83.984375
1137		-78.125000
1138		-82.031250
1139		-76.171875
1140		-82.031250
1141		-74.218750
1142		-80.078125
1143		-74.218750
1144		-80.078125
1145		-72.265625
1146		-76.171875
1147		-72.265625
1148		-74.218750
1149		-70.312500
1150		-74.218750
1151		-66.406250
1152		-72.265625
1153		-66.406250
1154		-70.312500
1155		-64.453125
1156		-70.312500
1157		-62.500000
1158		-68.359375
1159		-60.546875
1160		-66.406250
1161		-60.546875
1162		-62.500000
1163		-58.593750
1164		-60.546875
1165		-56.640625
1166		-60.546875
1167		-54.687500
1168		-58.593750
1169		-50.781250
1170		-58.593750
1171		-50.781250
1172		-54.687500
1173		-46.875000
1174		-52.734375
1175		-44.921875
1176		-50.781250
1177		-44.921875
1178		-46.875000
1179		-42.968750
1180		-44.921875
1181		-41.015625
1182		-44.921875
1183		-37.109375
1184		-42.968750
1185		-35.156250
1186		-41.015625
1187		-33.203125
1188		-39.062500
1189		-29.296875
1190		-37.109375
1191		-29.296875
1192		-33.203125
1193		-25.390625
1194		-33.203125
1195		-25.390625
1196		-27.343750
1197		-23.437500
1198		-25.390625
1199		-21.484375
1200		-23.437500
1201		-17.578125
1202		-23.437500
1203		-15.625000
1204		-19.531250
1205		-11.718750
1206		-17.578125
1207		-9.765625
1208		-15.625000
1209		-5.859375
1210		-11.718750
1211		-5.859375
1212		-7.812500
1213		-3.906250
1214		-5.859375
1215		-1.953125
1216		-3.906250
1217		1.953125
1218		-3.906250
1219		3.906250
1220		0.000000
1221		5.859375
1222		0.000000
1223		9.765625
1224		3.906250
1225		11.718750
1226		5.859375
1227		13.671875
1228		7.812500
1229		13.671875
1230		11.718750
1231		15.625000
1232		13.671875
1233		19.531250
1234		15.625000
1235		23.437500
1236		17.578125
1237		25.390625
1238		19.531250
1239		27.343750
1240		21.484375
1241		29.296875
1242		23.437500
1243		31.250000
1244		25.390625
1245		33.203125
1246		29.296875
1247		33.203125
1248		31.250000
1249		37.109375
1250		33.203125
1251		41.015625
1252		33.203125
1253		41.015625
1254		37.109375
1255		42.968750
1256		37.109375
1257		44.921875
1258		39.062500
1259		46.875000
1260		42.968750
1261		48.828125
1262		44.921875
1263		50.781250
1264		46.875000
1265		50.781250
1266		48.828125
1267		54.687500
1268		48.828125
1269		56.640625
1270		50.781250
1271		58.593750
1272		52.734375
1273		60.546875
1274		54.687500
1275		60.546875
1276		56.640625
1277		62.500000
1278		56.640625
1279		64.453125
1280		60.546875
1281		64.453125
1282		62.500000
1283		66.406250
1284		62.500000
1285		68.359375
1286		62.500000
1287		70.312500
1288		64.453125
1289		72.265625
1290		64.453125
1291		72.265625
1292		68.359375
1293		74.218750
1294		68.359375
1295		76.171875
1296		72.265625
1297		74.218750
1298		72.265625
1299		76.171875
1300		72.265625
1301		78.125000
1302		72.265625
1303		80.078125
1304		74.218750
1305		80.078125
1306		74.218750
1307		80.078125
1308		74.218750
1309		82.031250
1310		76.171875
1311		82.031250
1312		78.125000
1313		83.984375
1314		80.078125
1315		82.031250
1316		78.125000
1317		83.984375
1318		78.125000
1319		85.937500
1320		80.078125
1321		85.937500
1322		80.078125
1323		85.937500
1324		80.078125
1325		87.890625
1326		80.078125
1327		85.937500
1328		80.078125
1329		87.890625
1330		83.984375
1331		85.937500
1332		82.031250
1333		87.890625
1334		82.031250
1335		87.890625
1336		80.078125
1337		87.890625
1338		82.031250
1339		87.890625
1340		82.031250
1341		87.890625
1342		82.031250
1343		87.890625
1344		82.031250
1345		87.890625
1346		82.031250
1347		85.937500
1348		82.031250
1349		85.937500
1350		82.031250
1351		87.890625
1352		80.078125
1353		87.890625
1354		80.078125
1355		85.937500
1356		78.125000
1357		85.937500
1358		78.125000
1359		85.937500
1360		78.125000
1361		85.937500
1362		78.125000
1363		83.984375
1364		78.125000
1365		82.031250
1366		76.171875
1367		82.031250
1368		74.218750
1369		82.031250
1370		74.218750
1371		82.031250
1372		74.218750
1373		82.031250
1374		72.265625
1375		80.078125
1376		72.265625
1377		78.125000
1378		70.312500
1379		78.125000
1380		72.265625
1381		76.171875
1382		70.312500
1383		74.218750
1384		66.406250
1385		74.218750
1386		66.406250
1387		74.218750
1388		64.453125
1389		72.265625
1390		64.453125
1391		70.312500
1392		62.500000
1393		68.359375
1394		60.546875
1395		68.359375
1396		60.546875
1397		66.406250
1398		60.546875
1399		64.453125
1400		58.593750
1401		62.500000
1402		54.687500
1403		62.500000
1404		52.734375
1405		60.546875
1406		52.734375
1407		58.593750
1408		50.781250
1409		56.640625
1410		46.875000
1411		54.687500
1412		46.875000
1413		52.734375
1414		46.875000
1415		50.781250
1416		44.921875
1417		48.828125
1418		41.015625
1419		48.828125
1420		39.062500
1421		46.875000
1422		37.109375
1423		42.968750
1424		35.156250
1425		42.968750
1426		31.250000
1427		41.015625
1428		31.250000
1429		39.062500
1430		29.296875
1431		35.156250
1432		27.343750
1433		33.203125
1434		23.437500
1435		31.250000
1436		21.484375
1437		29.296875
1438		19.531250
1439		27.343750
1440		17.578125
1441		25.390625
1442		15.625000
1443		21.484375
1444		13.671875
1445		21.484375
1446		11.718750
1447		19.531250
1448		9.765625
1449		13.671875
1450		5.859375
1451		11.718750
1452		3.906250
1453		11.718750
1454		1.953125
1455		7.812500
1456		0.000000
1457		5.859375
1458		-3.906250
1459		3.906250
1460		-5.859375
1461		1.953125
1462		-7.812500
1463		0.000000
1464		-9.765625
1465		-3.906250
1466		-11.718750
1467		-5.859375
1468		-15.625000
1469		-7.812500
1470		-17.578125
1471		-9.765625
1472		-19.531250
1473		-11.718750
1474		-23.437500
1475		-15.625000
1476		-25.390625
1477		-15.625000
1478		-27.343750
1479		-19.531250
1480		-27.343750
1481		-21.484375
1482		-29.296875
1483		-25.390625
1484		-33.203125
1485		-27.343750
1486		-37.109375
1487		-29.296875
1488		-37.109375
1489		-29.296875
1490		-41.015625
1491		-33.203125
1492		-42.968750
1493		-35.156250
1494		-44.921875
1495		-37.109375
1496		-46.875000
1497		-39.062500
1498		-46.875000
1499		-42.968750
1500		-50.781250
1501		-44.921875
1502		-54.687500
1503		-44.921875
1504		-54.687500
1505		-46.875000
1506		-56.640625
1507		-50.781250
1508		-58.593750
1509		-50.781250
1510		-60.546875
1511		-52.734375
1512		-62.500000
1513		-54.687500
1514		-64.453125
1515		-56.640625
1516		-64.453125
1517		-60.546875
1518		-68.359375
1519		-60.546875
1520		-70.312500
1521		-62.500000
1522		-72.265625
1523		-62.500000
1524		-72.265625
1525		-66.406250
1526		-74.218750
1527		-66.406250
1528		-76.171875
1529		-68.359375
1530		-78.125000
1531		-70.312500
1532		-76.171875
1533		-74.218750
1534		-78.125000
1535		-74.218750
1536		-82.031250
1537		-74.218750
1538		-82.031250
1539		-74.218750
1540		-83.984375
1541		-76.171875
1542		-85.937500
1543		-78.125000
1544		-87.890625
1545		-78.125000
1546		-85.937500
1547		-80.078125
1548		-85.937500
1549		-82.031250
1550		-85.937500
1551		-83.984375
1552		-89.843750
1553		-82.031250
1554		-89.843750
1555		-83.984375
1556		-91.796875
1557		-83.984375
1558		-91.796875
1559		-83.984375
1560		-91.796875
1561		-85.937500
1562		-91.796875
1563		-85.937500
1564		-91.796875
1565		-85.937500
1566		-89.843750
1567		-87.890625
1568		-91.796875
1569		-87.890625
1570		-93.750000
1571		-85.937500
1572		-93.750000
1573		-85.937500
1574		-93.750000
1575		-87.890625
1576		-93.750000
1577		-85.937500
1578		-93.750000
1579		-85.937500
1580		-93.750000
1581		-85.937500
1582		-89.843750
1583		-87.890625
1584		-89.843750
1585		-87.890625
1586		-91.796875
1587		-85.937500
1588		-91.796875
1589		-83.984375
1590		-89.843750
1591		-83.984375
1592		-89.843750
1593		-83.984375
1594		-89.843750
1595		-82.031250
1596		-89.843750
1597		-82.031250
1598		-89.843750
1599		-82.031250
1600		-85.937500
1601		-82.031250
1602		-85.937500
1603		-78.125000
1604		-85.937500
1605		-80.078125
1606		-85.937500
1607		-78.125000
1608		-83.984375
1609		-76.171875
1610		-82.031250
1611		-76.171875
1612		-80.078125
1613		-74.218750
1614		-80.078125
1615		-72.265625
1616		-76.171875
1617		-72.265625
1618		-76.171875
1619		-72.265625
1620		-76.171875
1621		-68.359375
1622		-74.218750
1623		-68.359375
1624		-74.218750
1625		-64.453125
1626		-70.312500
1627		-64.453125
1628		-70.312500
1629		-62.500000
1630		-68.359375
1631		-60.546875
1632		-64.453125
1633		-60.546875
1634		-62.500000
1635		-58.593750
1636		-62.500000
1637		-54.687500
1638		-60.546875
1639		-52.734375
1640		-58.593750
1641		-50.781250
1642		-56.640625
1643		-50.781250
1644		-54.687500
1645		-46.875000
1646		-52.734375
1647		-44.921875
1648		-50.781250
1649		-44.921875
1650		-46.875000
1651		-41.015625
1652		-44.921875
1653		-39.062500
1654		-42.968750
1655		-37.109375
1656		-41.015625
1657		-35.156250
1658		-39.062500
1659		-33.203125
1660		-37.109375
1661		-31.250000
1662		-35.156250
1663		-27.343750
1664		-31.250000
1665		-27.343750
1666		-29.296875
1667		-25.390625
1668		-27.343750
1669		-21.484375
1670		-25.390625
1671		-17.578125
1672		-23.437500
1673		-15.625000
1674		-21.484375
1675		-13.671875
1676		-19.531250
1677		-11.718750
1678		-15.625000
1679		-9.765625
1680		-15.625000
1681		-5.859375
1682		-11.718750
1683		-5.859375
1684		-7.812500
1685		-3.906250
1686		-5.859375
1687		1.953125
1688		-5.859375
1689		1.953125
1690		-1.953125
1691		3.906250
1692		0.000000
1693		7.812500
1694		1.953125
1695		9.765625
1696		3.906250
1697		11.718750
1698		7.812500
1699		13.671875
1700		11.718750
1701		15.625000
1702		13.671875
1703		17.578125
1704		13.671875
1705		21.484375
1706		15.625000
1707		23.437500
1708		17.578125
1709		25.390625
1710		19.531250
1711		27.343750
1712		23.437500
1713		29.296875
1714		25.390625
1715		31.250000
1716		27.343750
1717		33.203125
1718		31.250000
1719		35.156250
1720		33.203125
1721		39.062500
1722		33.203125
1723		41.015625
1724		35.156250
1725		42.968750
1726		37.109375
1727		44.921875
1728		39.062500
1729		46.875000
1730		41.015625
1731		48.828125
1732		42.968750
1733		48.828125
1734		46.875000
1735		50.781250
1736		48.828125
1737		52.734375
1738		48.828125
1739		54.687500
1740		50.781250
1741		56.640625
1742		50.781250
1743		58.593750
1744		52.734375
1745		60.546875
1746		54.687500
1747		62.500000
1748		56.640625
1749		62.500000
1750		60.546875
1751		64.453125
1752		62.500000
1753		64.453125
1754		62.500000
1755		68.359375
1756		62.500000
1757		70.312500
1758		64.453125
1759		70.312500
1760		64.453125
1761		72.265625
1762		66.406250
1763		74.218750
1764		68.359375
1765		74.218750
1766		70.312500
1767		76.171875
1768		72.265625
1769		76.171875
1770		72.265625
1771		78.125000
1772		72.265625
1773		78.125000
1774		74.218750
1775		80.078125
1776		74.218750
1777		82.031250
1778		76.171875
1779		82.031250
1780		74.218750
1781		82.031250
1782		76.171875
1783		83.984375
1784		80.078125
1785		82.031250
1786		80.078125
1787		82.031250
1788		80.078125
1789		85.937500
1790		80.078125
1791		85.937500
1792		80.078125
1793		85.937500
1794		80.078125
1795		85.937500
1796		80.078125
1797		87.890625
1798		80.078125
1799		87.890625
1800		83.984375
1801		85.937500
1802		82.031250
1803		85.937500
1804		82.031250
1805		89.843750
1806		82.031250
1807		87.890625
1808		82.031250
1809		87.890625
1810		82.031250
1811		87.890625
1812		82.031250
1813		87.890625
1814		82.031250
1815		87.890625
1816		82.031250
1817		89.843750
1818		83.984375
1819		85.937500
1820		82.031250
1821		85.937500
1822		80.078125
1823		87.890625
1824		80.078125
1825		87.890625
1826		80.078125
1827		85.937500
1828		80.078125
1829		85.937500
1830		80.078125
1831		85.937500
1832		78.125000
1833		83.984375
1834		80.078125
1835		83.984375
1836		80.078125
1837		82.031250
1838		76.171875
1839		83.984375
1840		76.171875
1841		82.031250
1842		74.218750
1843		82.031250
1844		74.218750
1845		82.031250
1846		72.265625
1847		80.078125
1848		72.265625
1849		78.125000
1850		72.265625
1851		78.125000
1852		72.265625
1853		76.171875
1854		68.359375
1855		76.171875
1856		68.359375
1857		74.218750
1858		66.406250
1859		74.218750
1860		64.453125
1861		72.265625
1862		64.453125
1863		70.312500
1864		62.500000
1865		70.312500
1866		62.500000
1867		68.359375
1868		62.500000
1869		64.453125
1870		60.546875
1871		62.500000
1872		56.640625
1873		62.500000
1874		54.687500
1875		62.500000
1876		54.687500
1877		60.546875
1878		50.781250
1879		58.593750
1880		50.781250
1881		56.640625
1882		48.828125
1883		56.640625
1884		48.828125
1885		52.734375
1886		46.875000
1887		50.781250
1888		42.968750
1889		48.828125
1890		41.015625
1891		48.828125
1892		39.062500
1893		44.921875
1894		37.109375
1895		44.921875
1896		35.156250
1897		41.015625
1898		31.250000
1899		39.062500
1900		33.203125
1901		39.062500
1902		29.296875
1903		35.156250
1904		27.343750
1905		33.203125
1906		23.437500
1907		31.250000
1908		21.484375
1909		29.296875
1910		19.531250
1911		27.343750
1912		17.578125
1913		25.390625
1914		15.625000
1915		21.484375
1916		13.671875
1917		21.484375
1918		11.718750
1919		17.578125
1920		9.765625
1921		13.671875
1922		5.859375
1923		13.671875
1924		3.906250
1925		11.718750
1926		1.953125
1927		9.765625
1928		-1.953125
1929		5.859375
1930		-3.906250
1931		3.906250
1932		-5.859375
1933		1.953125
1934		-5.859375
1935		0.000000
1936		-9.765625
1937		-3.906250
1938		-11.718750
1939		-5.859375
1940		-13.671875
1941		-7.812500
1942		-17.578125
1943		-9.765625
1944		-21.484375
1945		-11.718750
1946		-21.484375
1947		-15.625000
1948		-23.437500
1949		-17.578125
1950		-25.390625
1951		-17.578125
1952		-27.343750
1953		-23.437500
1954		-29.296875
1955		-25.390625
1956		-33.203125
1957		-27.343750
1958		-35.156250
1959		-27.343750
1960		-37.109375
1961		-31.250000
1962		-39.062500
1963		-31.250000
1964		-42.968750
1965		-35.156250
1966		-44.921875
1967		-37.109375
1968		-44.921875
1969		-39.062500
1970		-46.875000
1971		-42.968750
1972		-50.781250
1973		-44.921875
1974		-54.687500
1975		-44.921875
1976		-54.687500
1977		-48.828125
1978		-56.640625
1979		-48.828125
1980		-58.593750
1981		-50.781250
1982		-60.546875
1983		-52.734375
1984		-60.546875
1985		-54.687500
1986		-62.500000
1987		-58.593750
1988		-64.453125
1989		-60.546875
1990		-68.359375
1991		-60.546875
1992		-70.312500
1993		-62.500000
1994		-70.312500
1995		-62.500000
1996		-72.265625
1997		-64.453125
1998		-74.218750
1999		-66.406250
2000		-76.171875
2001		-68.359375
2002		-74.218750
2003		-72.265625
2004		-76.171875
2005		-72.265625
2006		-80.078125
2007		-72.265625
2008		-80.078125
2009		-74.218750
2010		-82.031250
2011		-74.218750
2012		-83.984375
2013		-76.171875
2014		-83.984375
2015		-78.125000
2016		-83.984375
2017		-78.125000
2018		-83.984375
2019		-80.078125
2020		-83.984375
2021		-82.031250
2022		-87.890625
2023		-80.078125
2024		-87.890625
2025		-82.031250
2026		-89.843750
2027		-82.031250
2028		-89.843750
2029		-82.031250
2030		-89.843750
2031		-83.984375
2032		-89.843750
2033		-83.984375
2034		-91.796875
2035		-83.984375
2036		-89.843750
2037		-85.937500
2038		-89.843750
2039		-85.937500
2040		-91.796875
2041		-85.937500
2042		-91.796875
2043		-85.937500
2044		-91.796875
2045		-85.937500
2046		-91.796875
2047		-85.937500
2048		-91.796875
2049		-85.937500
2050		-91.796875
2051		-83.984375
2052		-89.843750
2053		-85.937500
2054		-89.843750
2055		-85.937500
2056		-91.796875
2057		-85.937500
2058		-91.796875
2059		-83.984375
2060		-89.843750
2061		-83.984375
2062		-89.843750
2063		-82.031250
2064		-89.843750
2065		-82.031250
2066		-87.890625
2067		-82.031250
2068		-87.890625
2069		-80.078125
2070		-85.937500
2071		-82.031250
2072		-85.937500
2073		-80.078125
2074		-85.937500
2075		-78.125000
2076		-83.984375
2077		-78.125000
2078		-83.984375
2079		-76.171875
2080		-82.031250
2081		-76.171875
2082		-80.078125
2083		-74.218750
2084		-80.078125
2085		-72.265625
2086		-76.171875
2087		-72.265625
2088		-74.218750
2089		-72.265625
2090		-74.218750
2091		-68.359375
2092		-74.218750
2093		-68.359375
2094		-72.265625
2095		-66.406250
2096		-70.312500
2097		-64.453125
2098		-70.312500
2099		-62.500000
2100		-68.359375
2101		-62.500000
2102		-66.406250
2103		-60.546875
2104		-62.500000
2105		-58.593750
2106		-60.546875
2107		-56.640625
2108		-60.546875
2109		-52.734375
2110		-58.593750
2111		-52.734375
2112		-56.640625
2113		-48.828125
2114		-56.640625
2115		-46.875000
2116		-52.734375
2117		-46.875000
2118		-50.781250
2119		-44.921875
2120		-46.875000
2121		-42.968750
2122		-44.921875
2123		-41.015625
2124		-44.921875
2125		-37.109375
2126		-42.968750
2127		-33.203125
2128		-41.015625
2129		-33.203125
2130		-39.062500
2131		-31.250000
2132		-35.156250
2133		-27.343750
2134		-33.203125
2135		-25.390625
2136		-31.250000
2137		-25.390625
2138		-27.343750
2139		-23.437500
2140		-25.390625
2141		-19.531250
2142		-25.390625
2143		-15.625000
2144		-21.484375
2145		-15.625000
2146		-19.531250
2147		-11.718750
2148		-17.578125
2149		-9.765625
2150		-13.671875
2151		-7.812500
2152		-11.718750
2153		-5.859375
2154		-7.812500
2155		-3.906250
2156		-5.859375
2157		-1.953125
2158		-5.859375
2159		1.953125
2160		-3.906250
2161		3.906250
2162		-1.953125
2163		5.859375
2164		0.000000
2165		9.765625
2166		3.906250
2167		11.718750
2168		5.859375
2169		13.671875
2170		9.765625
2171		13.671875
2172		11.718750
2173		17.578125
2174		13.671875
2175		21.484375
2176		13.671875
2177		23.437500
2178		17.578125
2179		25.390625
2180		19.531250
2181		27.343750
2182		21.484375
2183		29.296875
2184		23.437500
2185		31.250000
2186		25.390625
2187		33.203125
2188		27.343750
2189		35.156250
2190		31.250000
2191		37.109375
2192		31.250000
2193		39.062500
2194		35.156250
2195		42.968750
2196		37.109375
2197		44.921875
2198		39.062500
2199		44.921875
2200		39.062500
2201		48.828125
2202		41.015625
2203		48.828125
2204		44.921875
2205		48.828125
2206		46.875000
2207		52.734375
2208		48.828125
2209		54.687500
2210		50.781250
2211		56.640625
2212		50.781250
2213		58.593750
2214		52.734375
2215		60.546875
2216		54.687500
2217		62.500000
2218		56.640625
2219		64.453125
2220		58.593750
2221		62.500000
2222		60.546875
2223		64.453125
2224		60.546875
2225		66.406250
2226		62.500000
2227		68.359375
2228		64.453125
2229		70.312500
2230		64.453125
2231		72.265625
2232		66.406250
2233		74.218750
2234		66.406250
2235		74.218750
2236		68.359375
2237		74.218750
2238		72.265625
2239		74.218750
2240		72.265625
2241		76.171875
2242		72.265625
2243		80.078125
2244		74.218750
2245		80.078125
2246		74.218750
2247		80.078125
2248		74.218750
2249		82.031250
2250		76.171875
2251		82.031250
2252		76.171875
2253		83.984375
2254		80.078125
2255		82.031250
2256		80.078125
2257		83.984375
2258		80.078125
2259		85.937500
2260		78.125000
2261		85.937500
2262		80.078125
2263		85.937500
2264		80.078125
2265		87.890625
2266		80.078125
2267		87.890625
2268		80.078125
2269		87.890625
2270		82.031250
2271		87.890625
2272		83.984375
2273		85.937500
2274		82.031250
2275		87.890625
2276		82.031250
2277		87.890625
2278		82.031250
2279		89.843750
2280		82.031250
2281		89.843750
2282		82.031250
2283		87.890625
2284		83.984375
2285		89.843750
2286		82.031250
2287		87.890625
2288		83.984375
2289		87.890625
2290		83.984375
2291		85.937500
2292		82.031250
2293		87.890625
2294		80.078125
2295		87.890625
2296		82.031250
2297		87.890625
2298		80.078125
2299		87.890625
2300		80.078125
2301		85.937500
2302		80.078125
2303		85.937500
2304		80.078125
2305		85.937500
2306		80.078125
2307		83.984375
2308		78.125000
2309		83.984375
2310		76.171875
2311		83.984375
2312		76.171875
2313		82.031250
2314		76.171875
2315		82.031250
2316		74.218750
2317		80.078125
2318		74.218750
2319		80.078125
2320		72.265625
2321		80.078125
2322		72.265625
2323		76.171875
2324		70.312500
2325		76.171875
2326		68.359375
2327		76.171875
2328		68.359375
2329		76.171875
2330		66.406250
2331		74.218750
2332		64.453125
2333		72.265625
2334		64.453125
2335		70.312500
2336		62.500000
2337		70.312500
2338		62.500000
2339		66.406250
2340		60.546875
2341		64.453125
2342		58.593750
2343		64.453125
2344		56.640625
2345		64.453125
2346		54.687500
2347		62.500000
2348		54.687500
2349		60.546875
2350		52.734375
2351		58.593750
2352		50.781250
2353		56.640625
2354		50.781250
2355		54.687500
2356		48.828125
2357		52.734375
2358		46.875000
2359		50.781250
2360		42.968750
2361		48.828125
2362		39.062500
2363		46.875000
2364		39.062500
2365		46.875000
2366		37.109375
2367		42.968750
2368		35.156250
2369		41.015625
2370		33.203125
2371		39.062500
2372		31.250000
2373		37.109375
2374		29.296875
2375		35.156250
2376		27.343750
2377		31.250000
2378		23.437500
2379		29.296875
2380		21.484375
2381		29.296875
2382		19.531250
2383		27.343750
2384		17.578125
2385		25.390625
2386		15.625000
2387		21.484375
2388		13.671875
2389		19.531250
2390		11.718750
2391		17.578125
2392		9.765625
2393		13.671875
2394		7.812500
2395		11.718750
2396		5.859375
2397		9.765625
2398		0.000000
2399		7.812500
2400		0.000000
2401		5.859375
2402		-1.953125
2403		1.953125
2404		-3.906250
2405		0.000000
2406		-5.859375
2407		0.000000
2408		-9.765625
2409		-3.906250
2410		-11.718750
2411		-5.859375
2412		-13.671875
2413		-9.765625
2414		-15.625000
2415		-11.718750
2416		-19.531250
2417		-13.671875
2418		-19.531250
2419		-15.625000
2420		-23.437500
2421		-17.578125
2422		-25.390625
2423		-21.484375
2424		-27.343750
2425		-23.437500
2426		-29.296875
2427		-25.390625
2428		-31.250000
2429		-27.343750
2430		-35.156250
2431		-29.296875
2432		-37.109375
2433		-31.250000
2434		-39.062500
2435		-35.156250
2436		-41.015625
2437		-37.109375
2438		-42.968750
2439		-39.062500
2440		-44.921875
2441		-41.015625
2442		-46.875000
2443		-42.968750
2444		-48.828125
2445		-44.921875
2446		-50.781250
2447		-46.875000
2448		-52.734375
2449		-48.828125
2450		-54.687500
2451		-50.781250
2452		-56.640625
2453		-52.734375
2454		-58.593750
2455		-54.687500
2456		-60.546875
2457		-56.640625
2458		-62.500000
2459		-58.593750
2460		-64.453125
2461		-58.593750
2462		-66.406250
2463		-62.500000
2464		-68.359375
2465		-64.453125
2466		-68.359375
2467		-64.453125
2468		-70.312500
2469		-66.406250
2470		-74.218750
2471		-68.359375
2472		-74.218750
2473		-70.312500
2474		-74.218750
2475		-70.312500
2476		-76.171875
2477		-72.265625
2478		-78.125000
2479		-74.218750
2480		-78.125000
2481		-74.218750
2482		-80.078125
2483		-76.171875
2484		-80.078125
2485		-76.171875
2486		-82.031250
2487		-78.125000
2488		-83.984375
2489		-80.078125
2490		-83.984375
2491		-80.078125
2492		-85.937500
2493		-82.031250
2494		-85.937500
2495		-82.031250
2496		-85.937500
2497		-83.984375
2498		-85.937500
2499		-83.984375
2500		-87.890625
2501		-83.984375
2502		-87.890625
2503		-83.984375
2504		-89.843750
2505		-83.984375
2506		-89.843750
2507		-85.937500
2508		-87.890625
2509		-85.937500
2510		-89.843750
2511		-85.937500
2512		-89.843750
2513		-85.937500
2514		-89.843750
2515		-85.937500
2516		-89.843750
2517		-85.937500
2518		-89.843750
2519		-85.937500
2520		-89.843750
2521		-85.937500
2522		-89.843750
2523		-85.937500
2524		-89.843750
2525		-85.937500
2526		-89.843750
2527		-85.937500
2528		-89.843750
2529		-85.937500
2530		-87.890625
2531		-85.937500
2532		-87.890625
2533		-83.984375
2534		-85.937500
2535		-83.984375
2536		-85.937500
2537		-82.031250
2538		-85.937500
2539		-82.031250
2540		-85.937500
2541		-82.031250
2542		-83.984375
2543		-80.078125
2544		-83.984375
2545		-80.078125
2546		-82.031250
2547		-80.078125
2548		-82.031250
2549		-78.125000
2550		-80.078125
2551		-76.171875
2552		-80.078125
2553		-76.171875
2554		-78.125000
2555		-74.218750
2556		-78.125000
2557		-74.218750
2558		-76.171875
2559		-72.265625
2560		-74.218750
2561		-70.312500
2562		-72.265625
2563		-68.359375
2564		-72.265625
2565		-66.406250
2566		-70.312500
2567		-66.406250
2568		-68.359375
2569		-64.453125
2570		-66.406250
2571		-62.500000
2572		-66.406250
2573		-60.546875
2574		-64.453125
2575		-58.593750
2576		-62.500000
2577		-58.593750
2578		-60.546875
2579		-56.640625
2580		-58.593750
2581		-52.734375
2582		-56.640625
2583		-52.734375
2584		-54.687500
2585		-50.781250
2586		-52.734375
2587		-46.875000
2588		-50.781250
2589		-44.921875
2590		-48.828125
2591		-42.968750
2592		-44.921875
2593		-41.015625
2594		-44.921875
2595		-39.062500
2596		-42.968750
2597		-37.109375
2598		-39.062500
2599		-35.156250
2600		-39.062500
2601		-33.203125
2602		-35.156250
2603		-31.250000
2604		-33.203125
2605		-27.343750
2606		-31.250000
2607		-27.343750
2608		-27.343750
2609		-23.437500
2610		-25.390625
2611		-21.484375
2612		-23.437500
2613		-19.531250
2614		-21.484375
2615		-17.578125
2616		-19.531250
2617		-15.625000
2618		-17.578125
2619		-11.718750
2620		-15.625000
2621		-9.765625
2622		-11.718750
2623		-7.812500
2624		-9.765625
2625		-5.859375
2626		-7.812500
2627		-1.953125
2628		-3.906250
2629		0.000000
2630		-1.953125
2631		1.953125
2632		0.000000
2633		3.906250
2634		1.953125
2635		5.859375
2636		3.906250
2637		7.812500
2638		5.859375
2639		11.718750
2640		7.812500
2641		13.671875
2642		11.718750
2643		15.625000
2644		13.671875
2645		17.578125
2646		15.625000
2647		19.531250
2648		17.578125
2649		23.437500
2650		19.531250
2651		23.437500
2652		21.484375
2653		27.343750
2654		25.390625
2655		29.296875
2656		27.343750
2657		31.250000
2658		29.296875
2659		33.203125
2660		31.250000
2661		35.156250
2662		33.203125
2663		37.109375
2664		35.156250
2665		39.062500
2666		37.109375
2667		41.015625
2668		39.062500
2669		42.968750
2670		41.015625
2671		44.921875
2672		42.968750
2673		46.875000
2674		44.921875
2675		48.828125
2676		46.875000
2677		50.781250
2678		48.828125
2679		52.734375
2680		50.781250
2681		54.687500
2682		52.734375
2683		56.640625
2684		54.687500
2685		58.593750
2686		56.640625
2687		60.546875
2688		56.640625
2689		62.500000
2690		58.593750
2691		62.500000
2692		60.546875
2693		64.453125
2694		62.500000
2695		66.406250
2696		64.453125
2697		68.359375
2698		64.453125
2699		68.359375
2700		66.406250
2701		70.312500
2702		68.359375
2703		72.265625
2704		68.359375
2705		72.265625
2706		70.312500
2707		74.218750
2708		72.265625
2709		74.218750
2710		72.265625
2711		76.171875
2712		74.218750
2713		78.125000
2714		76.171875
2715		78.125000
2716		76.171875
2717		80.078125
2718		76.171875
2719		80.078125
2720		78.125000
2721		82.031250
2722		78.125000
2723		82.031250
2724		78.125000
2725		82.031250
2726		80.078125
2727		83.984375
2728		80.078125
2729		83.984375
2730		82.031250
2731		85.937500
2732		82.031250
2733		85.937500
2734		82.031250
2735		85.937500
2736		83.984375
2737		85.937500
2738		83.984375
2739		85.937500
2740		83.984375
2741		87.890625
2742		83.984375
2743		87.890625
2744		83.984375
2745		87.890625
2746		83.984375
2747		87.890625
2748		83.984375
2749		87.890625
2750		85.937500
2751		87.890625
2752		85.937500
2753		87.890625
2754		85.937500
2755		87.890625
2756		85.937500
2757		87.890625
2758		83.984375
2759		87.890625
2760		85.937500
2761		87.890625
2762		83.984375
2763		87.890625
2764		83.984375
2765		87.890625
2766		83.984375
2767		87.890625
2768		83.984375
2769		87.890625
2770		83.984375
2771		85.937500
2772		82.031250
2773		85.937500
2774		82.031250
2775		85.937500
2776		82.031250
2777		83.984375
2778		80.078125
2779		83.984375
2780		80.078125
2781		83.984375
2782		78.125000
2783		83.984375
2784		78.125000
2785		82.031250
2786		78.125000
2787		82.031250
2788		76.171875
2789		80.078125
2790		76.171875
2791		80.078125
2792		74.218750
2793		78.125000
2794		74.218750
2795		78.125000
2796		72.265625
2797		76.171875
2798		70.312500
2799		76.171875
2800		70.312500
2801		74.218750
2802		70.312500
2803		72.265625
2804		68.359375
2805		72.265625
2806		66.406250
2807		70.312500
2808		64.453125
2809		68.359375
2810		64.453125
2811		66.406250
2812		60.546875
2813		66.406250
2814		60.546875
2815		64.453125
2816		58.593750
2817		62.500000
2818		56.640625
2819		60.546875
2820		54.687500
2821		60.546875
2822		52.734375
2823		58.593750
2824		52.734375
2825		56.640625
2826		50.781250
2827		54.687500
2828		48.828125
2829		52.734375
2830		46.875000
2831		50.781250
2832		42.968750
2833		48.828125
2834		42.968750
2835		46.875000
2836		41.015625
2837		44.921875
2838		39.062500
2839		42.968750
2840		37.109375
2841		41.015625
2842		35.156250
2843		39.062500
2844		33.203125
2845		37.109375
2846		31.250000
2847		35.156250
2848		27.343750
2849		33.203125
2850		25.390625
2851		31.250000
2852		23.437500
2853		29.296875
2854		21.484375
2855		25.390625
2856		19.531250
2857		23.437500
2858		17.578125
2859		21.484375
2860		15.625000
2861		19.531250
2862		11.718750
2863		17.578125
2864		9.765625
2865		15.625000
2866		7.812500
2867		11.718750
2868		5.859375
2869		9.765625
2870		3.906250
2871		7.812500
2872		0.000000
2873		5.859375
2874		-1.953125
2875		1.953125
2876		-3.906250
2877		0.000000
2878		-7.812500
2879		-1.953125
2880		-7.812500
2881		-3.906250
2882		-11.718750
2883		-5.859375
2884		-13.671875
2885		-9.765625
2886		-15.625000
2887		-11.718750
2888		-17.578125
2889		-13.671875
2890		-21.484375
2891		-15.625000
2892		-21.484375
2893		-17.578125
2894		-25.390625
2895		-21.484375
2896		-27.343750
2897		-23.437500
2898		-29.296875
2899		-25.390625
2900		-31.250000
2901		-27.343750
2902		-33.203125
2903		-29.296875
2904		-35.156250
2905		-31.250000
2906		-39.062500
2907		-33.203125
2908		-41.015625
2909		-37.109375
2910		-42.968750
2911		-39.062500
2912		-44.921875
2913		-39.062500
2914		-46.875000
2915		-42.968750
2916		-48.828125
2917		-44.921875
2918		-50.781250
2919		-46.875000
2920		-52.734375
2921		-48.828125
2922		-54.687500
2923		-50.781250
2924		-56.640625
2925		-52.734375
2926		-58.593750
2927		-54.687500
2928		-60.546875
2929		-56.640625
2930		-62.500000
2931		-58.593750
2932		-62.500000
2933		-60.546875
2934		-66.406250
2935		-60.546875
2936		-66.406250
2937		-62.500000
2938		-68.359375
2939		-64.453125
2940		-70.312500
2941		-66.406250
2942		-72.265625
2943		-66.406250
2944		-72.265625
2945		-70.312500
2946		-74.218750
2947		-70.312500
2948		-76.171875
2949		-72.265625
2950		-76.171875
2951		-72.265625
2952		-78.125000
2953		-74.218750
2954		-80.078125
2955		-74.218750
2956		-80.078125
2957		-76.171875
2958		-82.031250
2959		-78.125000
2960		-82.031250
2961		-78.125000
2962		-83.984375
2963		-80.078125
2964		-83.984375
2965		-80.078125
2966		-85.937500
2967		-82.031250
2968		-85.937500
2969		-82.031250
2970		-87.890625
2971		-82.031250
2972		-85.937500
2973		-83.984375
2974		-87.890625
2975		-83.984375
2976		-87.890625
2977		-83.984375
2978		-87.890625
2979		-85.937500
2980		-89.843750
2981		-83.984375
2982		-89.843750
2983		-85.937500
2984		-89.843750
2985		-83.984375
2986		-89.843750
2987		-85.937500
2988		-89.843750
2989		-85.937500
2990		-87.890625
2991		-85.937500
2992		-89.843750
2993		-85.937500
2994		-87.890625
2995		-85.937500
2996		-87.890625
2997		-85.937500
2998		-87.890625
2999		-83.984375
3000		-87.890625
3001		-83.984375
3002		-85.937500
3003		-83.984375
3004		-87.890625
3005		-83.984375
3006		-85.937500
3007		-82.031250
3008		-85.937500
3009		-82.031250
3010		-85.937500
3011		-82.031250
3012		-83.984375
3013		-80.078125
3014		-83.984375
3015		-80.078125
3016		-82.031250
3017		-78.125000
3018		-82.031250
3019		-78.125000
3020		-80.078125
3021		-76.171875
3022		-80.078125
3023		-76.171875
3024		-78.125000
3025		-74.218750
3026		-76.171875
3027		-74.218750
3028		-76.171875
3029		-72.265625
3030		-74.218750
3031		-70.312500
3032		-74.218750
3033		-70.312500
3034		-72.265625
3035		-68.359375
3036		-70.312500
3037		-66.406250
3038		-68.359375
3039		-64.453125
3040		-66.406250
3041		-62.500000
3042		-66.406250
3043		-60.546875
3044		-64.453125
3045		-60.546875
3046		-62.500000
3047		-58.593750
3048		-60.546875
3049		-56.640625
3050		-58.593750
3051		-54.687500
3052		-56.640625
3053		-52.734375
3054		-54.687500
3055		-50.781250
3056		-52.734375
3057		-48.828125
3058		-50.781250
3059		-46.875000
3060		-48.828125
3061		-44.921875
3062		-46.875000
3063		-42.968750
3064		-44.921875
3065		-41.015625
3066		-42.968750
3067		-39.062500
3068		-41.015625
3069		-37.109375
3070		-39.062500
3071		-35.156250
3072		-37.109375
3073		-31.250000
3074		-33.203125
3075		-29.296875
3076		-31.250000
3077		-27.343750
3078		-29.296875
3079		-25.390625
3080		-27.343750
3081		-23.437500
3082		-25.390625
3083		-19.531250
3084		-21.484375
3085		-17.578125
3086		-19.531250
3087		-15.625000
3088		-17.578125
3089		-13.671875
3090		-15.625000
3091		-11.718750
3092		-13.671875
3093		-7.812500
3094		-11.718750
3095		-5.859375
3096		-7.812500
3097		-3.906250
3098		-5.859375
3099		-1.953125
3100		-3.906250
3101		0.000000
3102		-1.953125
3103		3.906250
3104		0.000000
3105		5.859375
3106		1.953125
3107		7.812500
3108		5.859375
3109		9.765625
3110		7.812500
3111		11.718750
3112		9.765625
3113		13.671875
3114		11.718750
3115		15.625000
3116		13.671875
3117		19.531250
3118		17.578125
3119		21.484375
3120		19.531250
3121		23.437500
3122		21.484375
3123		25.390625
3124		23.437500
3125		29.296875
3126		25.390625
3127		29.296875
3128		27.343750
3129		31.250000
3130		29.296875
3131		35.156250
3132		31.250000
3133		37.109375
3134		33.203125
3135		39.062500
3136		35.156250
3137		41.015625
3138		37.109375
3139		42.968750
3140		41.015625
3141		44.921875
3142		41.015625
3143		46.875000
3144		42.968750
3145		48.828125
3146		44.921875
3147		50.781250
3148		48.828125
3149		52.734375
3150		48.828125
3151		54.687500
3152		50.781250
3153		54.687500
3154		52.734375
3155		56.640625
3156		54.687500
3157		58.593750
3158		56.640625
3159		60.546875
3160		58.593750
3161		62.500000
3162		60.546875
3163		64.453125
3164		60.546875
3165		64.453125
3166		62.500000
3167		66.406250
3168		64.453125
3169		68.359375
3170		64.453125
3171		70.312500
3172		66.406250
3173		70.312500
3174		68.359375
3175		72.265625
3176		70.312500
3177		74.218750
3178		70.312500
3179		74.218750
3180		72.265625
3181		76.171875
3182		74.218750
3183		78.125000
3184		74.218750
3185		78.125000
3186		74.218750
3187		78.125000
3188		76.171875
3189		80.078125
3190		76.171875
3191		82.031250
3192		78.125000
3193		82.031250
3194		78.125000
3195		82.031250
3196		80.078125
3197		83.984375
3198		80.078125
3199		83.984375
3200		80.078125
3201		83.984375
3202		82.031250
3203		83.984375
3204		82.031250
3205		85.937500
3206		82.031250
3207		85.937500
3208		83.984375
3209		85.937500
3210		83.984375
3211		85.937500
3212		83.984375
3213		87.890625
3214		83.984375
3215		87.890625
3216		83.984375
3217		87.890625
3218		85.937500
3219		87.890625
3220		83.984375
3221		87.890625
3222		85.937500
3223		87.890625
3224		83.984375
3225		87.890625
3226		83.984375
3227		87.890625
3228		85.937500
3229		89.843750
3230		83.984375
3231		87.890625
3232		83.984375
3233		87.890625
3234		83.984375
3235		87.890625
3236		83.984375
3237		87.890625
3238		83.984375
3239		87.890625
3240		82.031250
3241		85.937500
3242		82.031250
3243		85.937500
3244		82.031250
3245		85.937500
3246		82.031250
3247		85.937500
3248		82.031250
3249		83.984375
3250		80.078125
3251		83.984375
3252		80.078125
3253		83.984375
3254		78.125000
3255		82.031250
3256		78.125000
3257		82.031250
3258		78.125000
3259		80.078125
3260		76.171875
3261		80.078125
3262		76.171875
3263		80.078125
3264		74.218750
3265		78.125000
3266		74.218750
3267		78.125000
3268		72.265625
3269		76.171875
3270		70.312500
3271		74.218750
3272		70.312500
3273		74.218750
3274		68.359375
3275		72.265625
3276		66.406250
3277		70.312500
3278		64.453125
3279		70.312500
3280		64.453125
3281		68.359375
3282		62.500000
3283		66.406250
3284		60.546875
3285		64.453125
3286		60.546875
3287		64.453125
3288		58.593750
3289		62.500000
3290		56.640625
3291		60.546875
3292		54.687500
3293		58.593750
3294		52.734375
3295		56.640625
3296		50.781250
3297		54.687500
3298		48.828125
3299		54.687500
3300		46.875000
3301		50.781250
3302		44.921875
3303		48.828125
3304		42.968750
3305		48.828125
3306		41.015625
3307		46.875000
3308		39.062500
3309		44.921875
3310		37.109375
3311		42.968750
3312		37.109375
3313		39.062500
3314		33.203125
3315		39.062500
3316		31.250000
3317		35.156250
3318		29.296875
3319		33.203125
3320		27.343750
3321		31.250000
3322		25.390625
3323		29.296875
3324		23.437500
3325		27.343750
3326		21.484375
3327		25.390625
3328		17.578125
3329		23.437500
3330		15.625000
3331		21.484375
3332		13.671875
3333		19.531250
3334		11.718750
3335		15.625000
3336		9.765625
3337		13.671875
3338		7.812500
3339		11.718750
3340		5.859375
3341		9.765625
3342		1.953125
3343		5.859375
3344		0.000000
3345		5.859375
3346		-1.953125
3347		1.953125
3348		-3.906250
3349		0.000000
3350		-7.812500
3351		-1.953125
3352		-9.765625
3353		-3.906250
3354		-11.718750
3355		-7.812500
3356		-13.671875
3357		-9.765625
3358		-15.625000
3359		-11.718750
3360		-19.531250
3361		-13.671875
3362		-21.484375
3363		-17.578125
3364		-23.437500
3365		-19.531250
3366		-25.390625
3367		-21.484375
3368		-27.343750
3369		-23.437500
3370		-29.296875
3371		-25.390625
3372		-33.203125
3373		-27.343750
3374		-35.156250
3375		-29.296875
3376		-37.109375
3377		-33.203125
3378		-39.062500
3379		-33.203125
3380		-41.015625
3381		-35.156250
3382		-42.968750
3383		-39.062500
3384		-44.921875
3385		-41.015625
3386		-48.828125
3387		-42.968750
3388		-48.828125
3389		-44.921875
3390		-50.781250
3391		-46.875000
3392		-52.734375
3393		-48.828125
3394		-56.640625
3395		-50.781250
3396		-56.640625
3397		-52.734375
3398		-58.593750
3399		-54.687500
3400		-62.500000
3401		-56.640625
3402		-62.500000
3403		-58.593750
3404		-64.453125
3405		-60.546875
3406		-66.406250
3407		-60.546875
3408		-68.359375
3409		-64.453125
3410		-70.312500
3411		-64.453125
3412		-72.265625
3413		-66.406250
3414		-72.265625
3415		-68.359375
3416		-74.218750
3417		-70.312500
3418		-76.171875
3419		-70.312500
3420		-76.171875
3421		-72.265625
3422		-78.125000
3423		-74.218750
3424		-78.125000
3425		-74.218750
3426		-80.078125
3427		-76.171875
3428		-80.078125
3429		-78.125000
3430		-82.031250
3431		-78.125000
3432		-82.031250
3433		-80.078125
3434		-83.984375
3435		-80.078125
3436		-83.984375
3437		-82.031250
3438		-85.937500
3439		-82.031250
3440		-85.937500
3441		-82.031250
3442		-87.890625
3443		-82.031250
3444		-87.890625
3445		-83.984375
3446		-87.890625
3447		-83.984375
3448		-87.890625
3449		-85.937500
3450		-87.890625
3451		-85.937500
3452		-89.843750
3453		-83.984375
3454		-89.843750
3455		-85.937500
3456		-89.843750
3457		-85.937500
3458		-89.843750
3459		-85.937500
3460		-89.843750
3461		-85.937500
3462		-89.843750
3463		-85.937500
3464		-89.843750
3465		-85.937500
3466		-87.890625
3467		-85.937500
3468		-89.843750
3469		-83.984375
3470		-87.890625
3471		-85.937500
3472		-87.890625
3473		-83.984375
3474		-87.890625
3475		-83.984375
3476		-85.937500
3477		-83.984375
3478		-85.937500
3479		-83.984375
3480		-85.937500
3481		-82.031250
3482		-83.984375
3483		-82.031250
3484		-83.984375
3485		-80.078125
3486		-83.984375
3487		-80.078125
3488		-82.031250
3489		-80.078125
3490		-82.031250
3491		-78.125000
3492		-80.078125
3493		-76.171875
3494		-80.078125
3495		-76.171875
3496		-78.125000
3497		-74.218750
3498		-76.171875
3499		-74.218750
3500		-76.171875
3501		-72.265625
3502		-74.218750
3503		-70.312500
3504		-72.265625
3505		-70.312500
3506		-72.265625
3507		-68.359375
3508		-70.312500
3509		-66.406250
3510		-70.312500
3511		-64.453125
3512		-66.406250
3513		-62.500000
3514		-66.406250
3515		-60.546875
3516		-64.453125
3517		-60.546875
3518		-62.500000
3519		-58.593750
3520		-60.546875
3521		-56.640625
3522		-58.593750
3523		-54.687500
3524		-56.640625
3525		-52.734375
3526		-54.687500
3527		-50.781250
3528		-52.734375
3529		-48.828125
3530		-50.781250
3531		-46.875000
3532		-48.828125
3533		-44.921875
3534		-46.875000
3535		-42.968750
3536		-44.921875
3537		-41.015625
3538		-42.968750
3539		-39.062500
3540		-41.015625
3541		-35.156250
3542		-39.062500
3543		-33.203125
3544		-35.156250
3545		-31.250000
3546		-33.203125
3547		-29.296875
3548		-31.250000
3549		-27.343750
3550		-29.296875
3551		-23.437500
3552		-27.343750
3553		-23.437500
3554		-25.390625
3555		-19.531250
3556		-23.437500
3557		-17.578125
3558		-19.531250
3559		-15.625000
3560		-17.578125
3561		-13.671875
3562		-15.625000
3563		-11.718750
3564		-13.671875
3565		-7.812500
3566		-9.765625
3567		-5.859375
3568		-7.812500
3569		-3.906250
3570		-7.812500
3571		-1.953125
3572		-3.906250
3573		0.000000
3574		-1.953125
3575		3.906250
3576		1.953125
3577		5.859375
3578		3.906250
3579		7.812500
3580		5.859375
3581		9.765625
3582		7.812500
3583		11.718750
3584		9.765625
3585		15.625000
3586		11.718750
3587		17.578125
3588		13.671875
3589		19.531250
3590		17.578125
3591		21.484375
3592		19.531250
3593		23.437500
3594		21.484375
3595		25.390625
3596		23.437500
3597		27.343750
3598		25.390625
3599		29.296875
3600		27.343750
3601		33.203125
3602		29.296875
3603		35.156250
3604		31.250000
3605		37.109375
3606		33.203125
3607		39.062500
3608		37.109375
3609		41.015625
3610		39.062500
3611		42.968750
3612		41.015625
3613		44.921875
3614		42.968750
3615		46.875000
3616		44.921875
3617		48.828125
3618		46.875000
3619		50.781250
3620		48.828125
3621		52.734375
3622		48.828125
3623		52.734375
3624		50.781250
3625		56.640625
3626		52.734375
3627		56.640625
3628		54.687500
3629		58.593750
3630		56.640625
3631		60.546875
3632		58.593750
3633		62.500000
3634		60.546875
3635		64.453125
3636		60.546875
3637		64.453125
3638		62.500000
3639		66.406250
3640		64.453125
3641		68.359375
3642		66.406250
3643		70.312500
3644		66.406250
3645		70.312500
3646		68.359375
3647		72.265625
3648		70.312500
3649		74.218750
3650		70.312500
3651		74.218750
3652		72.265625
3653		74.218750
3654		72.265625
3655		76.171875
3656		74.218750
3657		78.125000
3658		76.171875
3659		78.125000
3660		76.171875
3661		80.078125
3662		76.171875
3663		82.031250
3664		78.125000
3665		82.031250
3666		78.125000
3667		82.031250
3668		80.078125
3669		82.031250
3670		80.078125
3671		83.984375
3672		80.078125
3673		83.984375
3674		80.078125
3675		83.984375
3676		82.031250
3677		85.937500
3678		82.031250
3679		85.937500
3680		82.031250
3681		85.937500
3682		83.984375
3683		87.890625
3684		83.984375
3685		85.937500
3686		83.984375
3687		87.890625
3688		83.984375
3689		87.890625
3690		83.984375
3691		87.890625
3692		83.984375
3693		87.890625
3694		83.984375
3695		87.890625
3696		83.984375
3697		87.890625
3698		83.984375
3699		87.890625
3700		83.984375
3701		87.890625
3702		85.937500
3703		87.890625
3704		83.984375
3705		87.890625
3706		83.984375
3707		87.890625
3708		83.984375
3709		87.890625
3710		83.984375
3711		85.937500
3712		83.984375
3713		85.937500
3714		82.031250
3715		85.937500
3716		82.031250
3717		85.937500
3718		82.031250
3719		85.937500
3720		80.078125
3721		83.984375
3722		80.078125
3723		83.984375
3724		80.078125
3725		83.984375
3726		78.125000
3727		82.031250
3728		78.125000
3729		82.031250
3730		76.171875
3731		80.078125
3732		76.171875
3733		80.078125
3734		76.171875
3735		78.125000
3736		74.218750
3737		78.125000
3738		72.265625
3739		78.125000
3740		72.265625
3741		76.171875
3742		70.312500
3743		74.218750
3744		70.312500
3745		72.265625
3746		68.359375
3747		72.265625
3748		66.406250
3749		70.312500
3750		66.406250
3751		70.312500
3752		64.453125
3753		68.359375
3754		62.500000
3755		66.406250
3756		60.546875
3757		64.453125
3758		58.593750
3759		64.453125
3760		56.640625
3761		62.500000
3762		56.640625
3763		60.546875
3764		54.687500
3765		58.593750
3766		52.734375
3767		56.640625
3768		50.781250
3769		54.687500
3770		48.828125
3771		52.734375
3772		46.875000
3773		50.781250
3774		44.921875
3775		48.828125
3776		42.968750
3777		48.828125
3778		41.015625
3779		46.875000
3780		39.062500
3781		42.968750
3782		37.109375
3783		41.015625
3784		35.156250
3785		39.062500
3786		33.203125
3787		37.109375
3788		31.250000
3789		35.156250
3790		29.296875
3791		33.203125
3792		27.343750
3793		31.250000
3794		25.390625
3795		29.296875
3796		21.484375
3797		27.343750
3798		19.531250
3799		25.390625
3800		17.578125
3801		23.437500
3802		15.625000
3803		19.531250
3804		13.671875
3805		17.578125
3806		11.718750
3807		15.625000
3808		7.812500
3809		13.671875
3810		5.859375
3811		11.718750
3812		3.906250
3813		9.765625
3814		1.953125
3815		5.859375
3816		0.000000
3817		3.906250
3818		-1.953125
3819		1.953125
3820		-5.859375
3821		0.000000
3822		-7.812500
3823		-1.953125
3824		-9.765625
3825		-5.859375
3826		-11.718750
3827		-7.812500
3828		-13.671875
3829		-9.765625
3830		-17.578125
3831		-11.718750
3832		-19.531250
3833		-13.671875
3834		-21.484375
3835		-15.625000
3836		-23.437500
3837		-19.531250
3838		-25.390625
3839		-21.484375
3840		-29.296875
3841		-23.437500
3842		-31.250000
3843		-25.390625
3844		-33.203125
3845		-27.343750
3846		-35.156250
3847		-31.250000
3848		-39.062500
3849		-33.203125
3850		-39.062500
3851		-35.156250
3852		-41.015625
3853		-37.109375
3854		-44.921875
3855		-39.062500
3856		-44.921875
3857		-41.015625
3858		-46.875000
3859		-42.968750
3860		-50.781250
3861		-44.921875
3862		-50.781250
3863		-46.875000
3864		-54.687500
3865		-48.828125
3866		-56.640625
3867		-50.781250
3868		-56.640625
3869		-52.734375
3870		-58.593750
3871		-54.687500
3872		-60.546875
3873		-56.640625
3874		-62.500000
3875		-58.593750
3876		-64.453125
3877		-60.546875
3878		-66.406250
3879		-62.500000
3880		-68.359375
3881		-64.453125
3882		-68.359375
3883		-66.406250
3884		-70.312500
3885		-66.406250
3886		-72.265625
3887		-68.359375
3888		-74.218750
3889		-70.312500
3890		-74.218750
3891		-72.265625
3892		-76.171875
3893		-72.265625
3894		-78.125000
3895		-74.218750
3896		-78.125000
3897		-74.218750
3898		-80.078125
3899		-76.171875
3900		-82.031250
3901		-78.125000
3902		-82.031250
3903		-78.125000
3904		-82.031250
3905		-80.078125
3906		-83.984375
3907		-80.078125
3908		-83.984375
3909		-80.078125
3910		-85.937500
3911		-82.031250
3912		-85.937500
3913		-82.031250
3914		-85.937500
3915		-83.984375
3916		-87.890625
3917		-83.984375
3918		-87.890625
3919		-83.984375
3920		-87.890625
3921		-83.984375
3922		-87.890625
3923		-83.984375
3924		-87.890625
3925		-85.937500
3926		-87.890625
3927		-85.937500
3928		-87.890625
3929		-85.937500
3930		-89.843750
3931		-85.937500
3932		-89.843750
3933		-85.937500
3934		-87.890625
3935		-85.937500
3936		-87.890625
3937		-85.937500
3938		-89.843750
3939		-83.984375
3940		-87.890625
3941		-83.984375
3942		-87.890625
3943		-83.984375
3944		-87.890625
3945		-83.984375
3946		-87.890625
3947		-83.984375
3948		-85.937500
3949		-83.984375
3950		-85.937500
3951		-82.031250
3952		-85.937500
3953		-82.031250
3954		-83.984375
3955		-82.031250
3956		-83.984375
3957		-80.078125
3958		-82.031250
3959		-80.078125
3960		-82.031250
3961		-78.125000
3962		-82.031250
3963		-78.125000
3964		-80.078125
3965		-76.171875
3966		-78.125000
3967		-76.171875
3968		-78.125000
3969		-74.218750
3970		-76.171875
3971		-72.265625
3972		-74.218750
3973		-70.312500
3974		-74.218750
3975		-70.312500
3976		-72.265625
3977		-68.359375
3978		-70.312500
3979		-66.406250
3980		-70.312500
3981		-66.406250
3982		-68.359375
3983		-64.453125
3984		-66.406250
3985		-62.500000
3986		-64.453125
3987		-60.546875
3988		-62.500000
3989		-58.593750
3990		-62.500000
3991		-56.640625
3992		-60.546875
3993		-56.640625
3994		-58.593750
3995		-54.687500
3996		-56.640625
3997		-50.781250
3998		-54.687500
3999		-48.828125
4000		-52.734375
4001		-46.875000
4002		-50.781250
4003		-44.921875
4004		-46.875000
4005		-44.921875
4006		-46.875000
4007		-41.015625
4008		-42.968750
4009		-39.062500
4010		-42.968750
4011		-37.109375
4012		-41.015625
4013		-35.156250
4014		-37.109375
4015		-33.203125
4016		-35.156250
4017		-31.250000
4018		-33.203125
4019		-29.296875
4020		-31.250000
4021		-25.390625
4022		-29.296875
4023		-23.437500
4024		-27.343750
4025		-21.484375
4026		-23.437500
4027		-19.531250
4028		-21.484375
4029		-17.578125
4030		-19.531250
4031		-15.625000
4032		-17.578125
4033		-11.718750
4034		-13.671875
4035		-9.765625
4036		-11.718750
4037		-7.812500
4038		-9.765625
4039		-5.859375
4040		-7.812500
4041		-1.953125
4042		-5.859375
4043		0.000000
4044		-3.906250
4045		1.953125
4046		0.000000
4047		3.906250
4048		0.000000
4049		5.859375
4050		3.906250
4051		7.812500
4052		5.859375
4053		9.765625
4054		9.765625
4055		13.671875
4056		9.765625
4057		15.625000
4058		13.671875
4059		17.578125
4060		15.625000
4061		19.531250
4062		17.578125
4063		21.484375
4064		19.531250
4065		25.390625
4066		21.484375
4067		27.343750
4068		23.437500
4069		29.296875
4070		27.343750
4071		31.250000
4072		29.296875
4073		33.203125
4074		29.296875
4075		35.156250
4076		33.203125
4077		37.109375
4078		35.156250
4079		39.062500
4080		37.109375
4081		42.968750
4082		39.062500
4083		42.968750
4084		41.015625
4085		44.921875
4086		42.968750
4087		46.875000
4088		44.921875
4089		48.828125
4090		46.875000
4091		50.781250
4092		48.828125
4093		54.687500
4094		50.781250
4095		54.687500
4096		52.734375
4097		56.640625
4098		54.687500
4099		58.593750
4100		54.687500
4101		60.546875
4102		56.640625
4103		60.546875
4104		58.593750
4105		62.500000
4106		60.546875
4107		64.453125
4108		62.500000
4109		66.406250
4110		62.500000
4111		68.359375
4112		64.453125
4113		70.312500
4114		64.453125
4115		70.312500
4116		66.406250
4117		72.265625
4118		68.359375
4119		74.218750
4120		70.312500
4121		74.218750
4122		72.265625
4123		74.218750
4124		72.265625
4125		78.125000
4126		72.265625
4127		78.125000
4128		74.218750
4129		80.078125
4130		74.218750
4131		80.078125
4132		76.171875
4133		82.031250
4134		76.171875
4135		82.031250
4136		78.125000
4137		82.031250
4138		80.078125
4139		82.031250
4140		80.078125
4141		83.984375
4142		80.078125
4143		85.937500
4144		80.078125
4145		85.937500
4146		82.031250
4147		85.937500
4148		82.031250
4149		85.937500
4150		82.031250
4151		85.937500
4152		82.031250
4153		87.890625
4154		82.031250
4155		85.937500
4156		83.984375
4157		87.890625
4158		83.984375
4159		87.890625
4160		83.984375
4161		87.890625
4162		83.984375
4163		87.890625
4164		83.984375
4165		87.890625
4166		83.984375
4167		89.843750
4168		83.984375
4169		89.843750
4170		83.984375
4171		87.890625
4172		85.937500
4173		87.890625
4174		83.984375
4175		87.890625
4176		83.984375
4177		87.890625
4178		83.984375
4179		87.890625
4180		83.984375
4181		85.937500
4182		83.984375
4183		85.937500
4184		83.984375
4185		85.937500
4186		82.031250
4187		85.937500
4188		82.031250
4189		85.937500
4190		82.031250
4191		83.984375
4192		82.031250
4193		83.984375
4194		80.078125
4195		83.984375
4196		80.078125
4197		82.031250
4198		78.125000
4199		82.031250
4200		78.125000
4201		82.031250
4202		76.171875
4203		80.078125
4204		76.171875
4205		80.078125
4206		76.171875
4207		78.125000
4208		74.218750
4209		78.125000
4210		72.265625
4211		76.171875
4212		72.265625
4213		74.218750
4214		70.312500
4215		74.218750
4216		70.312500
4217		72.265625
4218		68.359375
4219		70.312500
4220		66.406250
4221		70.312500
4222		64.453125
4223		68.359375
4224		64.453125
4225		68.359375
4226		62.500000
4227		66.406250
4228		60.546875
4229		64.453125
4230		58.593750
4231		62.500000
4232		56.640625
4233		62.500000
4234		56.640625
4235		60.546875
4236		54.687500
4237		58.593750
4238		52.734375
4239		56.640625
4240		50.781250
4241		54.687500
4242		48.828125
4243		52.734375
4244		46.875000
4245		50.781250
4246		44.921875
4247		48.828125
4248		42.968750
4249		46.875000
4250		41.015625
4251		44.921875
4252		39.062500
4253		42.968750
4254		37.109375
4255		41.015625
4256		35.156250
4257		39.062500
4258		33.203125
4259		37.109375
4260		31.250000
4261		35.156250
4262		29.296875
4263		33.203125
4264		25.390625
4265		31.250000
4266		25.390625
4267		29.296875
4268		21.484375
4269		25.390625
4270		19.531250
4271		23.437500
4272		17.578125
4273		21.484375
4274		15.625000
4275		19.531250
4276		11.718750
4277		21.484375
4278		7.812500
4279		17.578125
4280		7.812500
4281		15.625000
4282		5.859375
4283		11.718750
4284		3.906250
4285		7.812500
4286		1.953125
4287		5.859375
4288		0.000000
4289		3.906250
4290		-3.906250
4291		1.953125
4292		-7.812500
4293		0.000000
4294		-11.718750
4295		-1.953125
4296		-11.718750
4297		-3.906250
4298		-11.718750
4299		-7.812500
4300		-15.625000
4301		-9.765625
4302		-17.578125
4303		-11.718750
4304		-19.531250
4305		-15.625000
4306		-21.484375
4307		-17.578125
4308		-27.343750
4309		-19.531250
4310		-29.296875
4311		-17.578125
4312		-31.250000
4313		-21.484375
4314		-33.203125
4315		-23.437500
4316		-33.203125
4317		-29.296875
4318		-35.156250
4319		-31.250000
4320		-37.109375
4321		-33.203125
4322		-41.015625
4323		-35.156250
4324		-41.015625
4325		-37.109375
4326		-46.875000
4327		-37.109375
4328		-48.828125
4329		-39.062500
4330		-50.781250
4331		-41.015625
4332		-50.781250
4333		-46.875000
4334		-52.734375
4335		-48.828125
4336		-54.687500
4337		-50.781250
4338		-56.640625
4339		-52.734375
4340		-58.593750
4341		-54.687500
4342		-62.500000
4343		-54.687500
4344		-64.453125
4345		-54.687500
4346		-66.406250
4347		-56.640625
4348		-64.453125
4349		-58.593750
4350		-66.406250
4351		-62.500000
4352		-68.359375
4353		-64.453125
4354		-70.312500
4355		-66.406250
4356		-70.312500
4357		-66.406250
4358		-72.265625
4359		-68.359375
4360		-76.171875
4361		-66.406250
4362		-78.125000
4363		-68.359375
4364		-78.125000
4365		-70.312500
4366		-78.125000
4367		-74.218750
4368		-78.125000
4369		-76.171875
4370		-80.078125
4371		-76.171875
4372		-82.031250
4373		-78.125000
4374		-82.031250
4375		-78.125000
4376		-85.937500
4377		-76.171875
4378		-85.937500
4379		-78.125000
4380		-87.890625
4381		-78.125000
4382		-85.937500
4383		-82.031250
4384		-85.937500
4385		-82.031250
4386		-85.937500
4387		-83.984375
4388		-87.890625
4389		-83.984375
4390		-87.890625
4391		-83.984375
4392		-89.843750
4393		-82.031250
4394		-91.796875
4395		-82.031250
4396		-91.796875
4397		-82.031250
4398		-91.796875
4399		-82.031250
4400		-89.843750
4401		-85.937500
4402		-87.890625
4403		-85.937500
4404		-89.843750
4405		-85.937500
4406		-87.890625
4407		-85.937500
4408		-89.843750
4409		-85.937500
4410		-91.796875
4411		-83.984375
4412		-91.796875
4413		-82.031250
4414		-89.843750
4415		-82.031250
4416		-87.890625
4417		-83.984375
4418		-85.937500
4419		-83.984375
4420		-85.937500
4421		-83.984375
4422		-85.937500
4423		-82.031250
4424		-85.937500
4425		-82.031250
4426		-87.890625
4427		-78.125000
4428		-85.937500
4429		-76.171875
4430		-85.937500
4431		-76.171875
4432		-85.937500
4433		-76.171875
4434		-80.078125
4435		-78.125000
4436		-80.078125
4437		-76.171875
4438		-78.125000
4439		-76.171875
4440		-78.125000
4441		-74.218750
4442		-76.171875
4443		-72.265625
4444		-78.125000
4445		-68.359375
4446		-76.171875
4447		-66.406250
4448		-74.218750
4449		-66.406250
4450		-70.312500
4451		-66.406250
4452		-68.359375
4453		-64.453125
4454		-68.359375
4455		-64.453125
4456		-66.406250
4457		-62.500000
4458		-64.453125
4459		-60.546875
4460		-62.500000
4461		-58.593750
4462		-62.500000
4463		-54.687500
4464		-60.546875
4465		-52.734375
4466		-56.640625
4467		-52.734375
4468		-54.687500
4469		-50.781250
4470		-52.734375
4471		-48.828125
4472		-50.781250
4473		-46.875000
4474		-48.828125
4475		-44.921875
4476		-46.875000
4477		-42.968750
4478		-46.875000
4479		-39.062500
4480		-42.968750
4481		-37.109375
4482		-41.015625
4483		-37.109375
4484		-39.062500
4485		-35.156250
4486		-37.109375
4487		-33.203125
4488		-35.156250
4489		-29.296875
4490		-33.203125
4491		-29.296875
4492		-29.296875
4493		-25.390625
4494		-29.296875
4495		-23.437500
4496		-25.390625
4497		-21.484375
4498		-23.437500
4499		-19.531250
4500		-21.484375
4501		-17.578125
4502		-19.531250
4503		-13.671875
4504		-15.625000
4505		-11.718750
4506		-13.671875
4507		-9.765625
4508		-11.718750
4509		-7.812500
4510		-9.765625
4511		-5.859375
4512		-7.812500
4513		-1.953125
4514		-3.906250
4515		0.000000
4516		-1.953125
4517		1.953125
4518		0.000000
4519		3.906250
4520		1.953125
4521		5.859375
4522		3.906250
4523		7.812500
4524		7.812500
4525		11.718750
4526		9.765625
4527		13.671875
4528		11.718750
4529		15.625000
4530		13.671875
4531		17.578125
4532		15.625000
4533		19.531250
4534		17.578125
4535		21.484375
4536		21.484375
4537		25.390625
4538		23.437500
4539		27.343750
4540		25.390625
4541		29.296875
4542		27.343750
4543		31.250000
4544		29.296875
4545		33.203125
4546		31.250000
4547		35.156250
4548		33.203125
4549		37.109375
4550		35.156250
4551		39.062500
4552		37.109375
4553		41.015625
4554		39.062500
4555		44.921875
4556		41.015625
4557		44.921875
4558		42.968750
4559		46.875000
4560		44.921875
4561		50.781250
4562		46.875000
4563		50.781250
4564		48.828125
4565		52.734375
4566		50.781250
4567		54.687500
4568		52.734375
4569		56.640625
4570		54.687500
4571		58.593750
4572		56.640625
4573		60.546875
4574		58.593750
4575		60.546875
4576		58.593750
4577		62.500000
4578		58.593750
4579		64.453125
4580		62.500000
4581		66.406250
4582		64.453125
4583		66.406250
4584		64.453125
4585		68.359375
4586		66.406250
4587		70.312500
4588		68.359375
4589		72.265625
4590		68.359375
4591		72.265625
4592		70.312500
4593		74.218750
4594		72.265625
4595		76.171875
4596		72.265625
4597		76.171875
4598		74.218750
4599		78.125000
4600		74.218750
4601		78.125000
4602		74.218750
4603		80.078125
4604		76.171875
4605		80.078125
4606		78.125000
4607		82.031250
4608		78.125000
4609		82.031250
4610		80.078125
4611		82.031250
4612		80.078125
4613		83.984375
4614		80.078125
4615		83.984375
4616		82.031250
4617		83.984375
4618		82.031250
4619		85.937500
4620		82.031250
4621		85.937500
4622		83.984375
4623		85.937500
4624		83.984375
4625		85.937500
4626		83.984375
4627		85.937500
4628		83.984375
4629		87.890625
4630		83.984375
4631		87.890625
4632		83.984375
4633		87.890625
4634		85.937500
4635		87.890625
4636		83.984375
4637		87.890625
4638		85.937500
4639		87.890625
4640		83.984375
4641		87.890625
4642		85.937500
4643		87.890625
4644		83.984375
4645		89.843750
4646		83.984375
4647		87.890625
4648		83.984375
4649		87.890625
4650		83.984375
4651		87.890625
4652		83.984375
4653		87.890625
4654		83.984375
4655		85.937500
4656		82.031250
4657		85.937500
4658		82.031250
4659		85.937500
4660		82.031250
4661		83.984375
4662		80.078125
4663		85.937500
4664		80.078125
4665		83.984375
4666		80.078125
4667		82.031250
4668		78.125000
4669		82.031250
4670		78.125000
4671		82.031250
4672		78.125000
4673		80.078125
4674		76.171875
4675		80.078125
4676		76.171875
4677		78.125000
4678		74.218750
4679		78.125000
4680		74.218750
4681		78.125000
4682		72.265625
4683		76.171875
4684		70.312500
4685		74.218750
4686		70.312500
4687		74.218750
4688		68.359375
4689		72.265625
4690		66.406250
4691		70.312500
4692		66.406250
4693		70.312500
4694		64.453125
4695		68.359375
4696		64.453125
4697		68.359375
4698		62.500000
4699		66.406250
4700		60.546875
4701		64.453125
4702		58.593750
4703		62.500000
4704		56.640625
4705		60.546875
4706		54.687500
4707		58.593750
4708		52.734375
4709		56.640625
4710		52.734375
4711		54.687500
4712		48.828125
4713		54.687500
4714		46.875000
4715		52.734375
4716		46.875000
4717		50.781250
4718		42.968750
4719		48.828125
4720		42.968750
4721		46.875000
4722		41.015625
4723		44.921875
4724		39.062500
4725		42.968750
4726		37.109375
4727		41.015625
4728		33.203125
4729		39.062500
4730		31.250000
4731		37.109375
4732		29.296875
4733		35.156250
4734		27.343750
4735		31.250000
4736		25.390625
4737		29.296875
4738		23.437500
4739		27.343750
4740		21.484375
4741		25.390625
4742		19.531250
4743		23.437500
4744		17.578125
4745		21.484375
4746		15.625000
4747		19.531250
4748		11.718750
4749		15.625000
4750		9.765625
4751		13.671875
4752		7.812500
4753		11.718750
4754		5.859375
4755		9.765625
4756		3.906250
4757		7.812500
4758		0.000000
4759		5.859375
4760		-1.953125
4761		1.953125
4762		-3.906250
4763		0.000000
4764		-5.859375
4765		-1.953125
4766		-9.765625
4767		-3.906250
4768		-11.718750
4769		-5.859375
4770		-13.671875
4771		-9.765625
4772		-15.625000
4773		-11.718750
4774		-17.578125
4775		-13.671875
4776		-21.484375
4777		-15.625000
4778		-23.437500
4779		-19.531250
4780		-25.390625
4781		-19.531250
4782		-27.343750
4783		-23.437500
4784		-29.296875
4785		-25.390625
4786		-31.250000
4787		-27.343750
4788		-33.203125
4789		-29.296875
4790		-37.109375
4791		-33.203125
4792		-39.062500
4793		-35.156250
4794		-41.015625
4795		-37.109375
4796		-42.968750
4797		-39.062500
4798		-44.921875
4799		-41.015625
4800		-46.875000
4801		-42.968750
4802		-48.828125
4803		-44.921875
4804		-50.781250
4805		-46.875000
4806		-52.734375
4807		-48.828125
4808		-54.687500
4809		-50.781250
4810		-56.640625
4811		-52.734375
4812		-58.593750
4813		-54.687500
4814		-60.546875
4815		-56.640625
4816		-62.500000
4817		-58.593750
4818		-64.453125
4819		-60.546875
4820		-66.406250
4821		-62.500000
4822		-66.406250
4823		-64.453125
4824		-68.359375
4825		-64.453125
4826		-70.312500
4827		-66.406250
4828		-72.265625
4829		-68.359375
4830		-74.218750
4831		-70.312500
4832		-74.218750
4833		-70.312500
4834		-76.171875
4835		-72.265625
4836		-78.125000
4837		-74.218750
4838		-78.125000
4839		-74.218750
4840		-80.078125
4841		-76.171875
4842		-80.078125
4843		-78.125000
4844		-82.031250
4845		-78.125000
4846		-82.031250
4847		-80.078125
4848		-83.984375
4849		-80.078125
4850		-83.984375
4851		-80.078125
4852		-85.937500
4853		-82.031250
4854		-85.937500
4855		-82.031250
4856		-87.890625
4857		-82.031250
4858		-87.890625
4859		-83.984375
4860		-87.890625
4861		-83.984375
4862		-87.890625
4863		-85.937500
4864		-89.843750
4865		-85.937500
4866		-89.843750
4867		-85.937500
4868		-89.843750
4869		-85.937500
4870		-89.843750
4871		-85.937500
4872		-89.843750
4873		-85.937500
4874		-89.843750
4875		-85.937500
4876		-89.843750
4877		-85.937500
4878		-89.843750
4879		-85.937500
4880		-89.843750
4881		-85.937500
4882		-89.843750
4883		-85.937500
4884		-89.843750
4885		-85.937500
4886		-87.890625
4887		-85.937500
4888		-87.890625
4889		-85.937500
4890		-87.890625
4891		-83.984375
4892		-85.937500
4893		-83.984375
4894		-85.937500
4895		-83.984375
4896		-85.937500
4897		-82.031250
4898		-85.937500
4899		-80.078125
4900		-85.937500
4901		-80.078125
4902		-82.031250
4903		-80.078125
4904		-82.031250
4905		-78.125000
4906		-80.078125
4907		-78.125000
4908		-80.078125
4909		-76.171875
4910		-78.125000
4911		-76.171875
4912		-78.125000
4913		-74.218750
4914		-76.171875
4915		-72.265625
4916		-76.171875
4917		-70.312500
4918		-74.218750
4919		-70.312500
4920		-72.265625
4921		-68.359375
4922		-70.312500
4923		-66.406250
4924		-68.359375
4925		-64.453125
4926		-68.359375
4927		-64.453125
4928		-66.406250
4929		-62.500000
4930		-66.406250
4931		-58.593750
4932		-62.500000
4933		-58.593750
4934		-60.546875
4935		-56.640625
4936		-58.593750
4937		-54.687500
4938		-56.640625
4939		-52.734375
4940		-54.687500
4941		-50.781250
4942		-52.734375
4943		-48.828125
4944		-50.781250
4945		-46.875000
4946		-48.828125
4947		-44.921875
4948		-48.828125
4949		-42.968750
4950		-46.875000
4951		-41.015625
4952		-42.968750
4953		-39.062500
4954		-41.015625
4955		-37.109375
4956		-39.062500
4957		-35.156250
4958		-37.109375
4959		-33.203125
4960		-35.156250
4961		-29.296875
4962		-33.203125
4963		-27.343750
4964		-31.250000
4965		-23.437500
4966		-29.296875
4967		-23.437500
4968		-25.390625
4969		-21.484375
4970		-23.437500
4971		-19.531250
4972		-21.484375
4973		-15.625000
4974		-19.531250
4975		-13.671875
4976		-15.625000
4977		-11.718750
4978		-13.671875
4979		-9.765625
4980		-11.718750
4981		-5.859375
4982		-9.765625
4983		-3.906250
4984		-7.812500
4985		-1.953125
4986		-3.906250
4987		0.000000
4988		-1.953125
4989		1.953125
4990		0.000000
4991		3.906250
4992		1.953125
4993		5.859375
4994		3.906250
4995		9.765625
4996		7.812500
4997		11.718750
4998		9.765625
4999		15.625000
5000		11.718750
5001		15.625000
5002		13.671875
5003		17.578125
5004		15.625000
5005		19.531250
5006		19.531250
5007		23.437500
5008		21.484375
5009		25.390625
5010		23.437500
5011		27.343750
5012		25.390625
5013		29.296875
5014		27.343750
5015		33.203125
5016		27.343750
5017		35.156250
5018		31.250000
5019		35.156250
5020		33.203125
5021		37.109375
5022		35.156250
5023		39.062500
5024		37.109375
5025		41.015625
5026		39.062500
5027		42.968750
5028		41.015625
5029		44.921875
5030		42.968750
5031		46.875000
5032		42.968750
5033		50.781250
5034		46.875000
5035		50.781250
5036		48.828125
5037		52.734375
5038		50.781250
5039		54.687500
5040		52.734375
5041		56.640625
5042		52.734375
5043		58.593750
5044		56.640625
5045		60.546875
5046		56.640625
5047		60.546875
5048		58.593750
5049		64.453125
5050		60.546875
5051		66.406250
5052		62.500000
5053		66.406250
5054		64.453125
5055		68.359375
5056		64.453125
5057		68.359375
5058		66.406250
5059		70.312500
5060		68.359375
5061		70.312500
5062		68.359375
5063		72.265625
5064		70.312500
5065		74.218750
5066		70.312500
5067		76.171875
5068		72.265625
5069		76.171875
5070		74.218750
5071		78.125000
5072		74.218750
5073		78.125000
5074		76.171875
5075		80.078125
5076		76.171875
5077		80.078125
5078		78.125000
5079		80.078125
5080		78.125000
5081		82.031250
5082		78.125000
5083		82.031250
5084		80.078125
5085		82.031250
5086		80.078125
5087		83.984375
5088		82.031250
5089		83.984375
5090		82.031250
5091		83.984375
5092		82.031250
5093		85.937500
5094		82.031250
5095		85.937500
5096		82.031250
5097		85.937500
5098		83.984375
5099		87.890625
5100		83.984375
5101		85.937500
5102		83.984375
5103		87.890625
5104		83.984375
5105		85.937500
5106		83.984375
5107		87.890625
5108		83.984375
5109		87.890625
5110		83.984375
5111		87.890625
5112		83.984375
5113		87.890625
5114		83.984375
5115		87.890625
5116		83.984375
5117		87.890625
5118		83.984375
5119		87.890625
5120		83.984375
5121		85.937500
5122		83.984375
5123		85.937500
5124		83.984375
5125		85.937500
5126		82.031250
5127		85.937500
5128		82.031250
5129		85.937500
5130		82.031250
5131		85.937500
5132		80.078125
5133		83.984375
5134		80.078125
5135		83.984375
5136		80.078125
5137		83.984375
5138		80.078125
5139		82.031250
5140		78.125000
5141		82.031250
5142		78.125000
5143		82.031250
5144		76.171875
5145		80.078125
5146		76.171875
5147		80.078125
5148		74.218750
5149		78.125000
5150		74.218750
5151		78.125000
5152		72.265625
5153		76.171875
5154		72.265625
5155		74.218750
5156		70.312500
5157		74.218750
5158		70.312500
5159		72.265625
5160		68.359375
5161		72.265625
5162		66.406250
5163		70.312500
5164		64.453125
5165		68.359375
5166		64.453125
5167		68.359375
5168		62.500000
5169		66.406250
5170		60.546875
5171		64.453125
5172		58.593750
5173		62.500000
5174		56.640625
5175		60.546875
5176		56.640625
5177		60.546875
5178		54.687500
5179		58.593750
5180		52.734375
5181		56.640625
5182		50.781250
5183		54.687500
5184		48.828125
5185		52.734375
5186		46.875000
5187		50.781250
5188		44.921875
5189		48.828125
5190		42.968750
5191		46.875000
5192		41.015625
5193		44.921875
5194		39.062500
5195		42.968750
5196		37.109375
5197		41.015625
5198		35.156250
5199		39.062500
5200		33.203125
5201		37.109375
5202		31.250000
5203		35.156250
5204		29.296875
5205		33.203125
5206		25.390625
5207		31.250000
5208		25.390625
5209		29.296875
5210		23.437500
5211		27.343750
5212		19.531250
5213		25.390625
5214		17.578125
5215		21.484375
5216		15.625000
5217		19.531250
5218		13.671875
5219		17.578125
5220		11.718750
5221		15.625000
5222		7.812500
5223		13.671875
5224		5.859375
5225		11.718750
5226		3.906250
5227		7.812500
5228		1.953125
5229		5.859375
5230		0.000000
5231		3.906250
5232		-1.953125
5233		1.953125
5234		-5.859375
5235		-1.953125
5236		-7.812500
5237		-3.906250
5238		-9.765625
5239		-5.859375
5240		-11.718750
5241		-7.812500
5242		-13.671875
5243		-9.765625
5244		-17.578125
5245		-11.718750
5246		-19.531250
5247		-15.625000
5248		-21.484375
5249		-17.578125
5250		-23.437500
5251		-19.531250
5252		-25.390625
5253		-21.484375
5254		-27.343750
5255		-23.437500
5256		-31.250000
5257		-27.343750
5258		-33.203125
5259		-29.296875
5260		-35.156250
5261		-31.250000
5262		-37.109375
5263		-33.203125
5264		-39.062500
5265		-35.156250
5266		-41.015625
5267		-37.109375
5268		-42.968750
5269		-39.062500
5270		-46.875000
5271		-41.015625
5272		-48.828125
5273		-44.921875
5274		-50.781250
5275		-44.921875
5276		-52.734375
5277		-48.828125
5278		-54.687500
5279		-50.781250
5280		-56.640625
5281		-52.734375
5282		-58.593750
5283		-54.687500
5284		-60.546875
5285		-56.640625
5286		-60.546875
5287		-56.640625
5288		-62.500000
5289		-58.593750
5290		-64.453125
5291		-60.546875
5292		-66.406250
5293		-62.500000
5294		-68.359375
5295		-64.453125
5296		-70.312500
5297		-66.406250
5298		-72.265625
5299		-68.359375
5300		-72.265625
5301		-68.359375
5302		-74.218750
5303		-70.312500
5304		-76.171875
5305		-72.265625
5306		-78.125000
5307		-74.218750
5308		-78.125000
5309		-74.218750
5310		-80.078125
5311		-76.171875
5312		-80.078125
5313		-76.171875
5314		-82.031250
5315		-78.125000
5316		-83.984375
5317		-80.078125
5318		-83.984375
5319		-80.078125
5320		-83.984375
5321		-82.031250
5322		-85.937500
5323		-82.031250
5324		-85.937500
5325		-82.031250
5326		-87.890625
5327		-83.984375
5328		-87.890625
5329		-83.984375
5330		-87.890625
5331		-85.937500
5332		-87.890625
5333		-85.937500
5334		-87.890625
5335		-85.937500
5336		-87.890625
5337		-85.937500
5338		-89.843750
5339		-85.937500
5340		-89.843750
5341		-85.937500
5342		-89.843750
5343		-85.937500
5344		-89.843750
5345		-87.890625
5346		-89.843750
5347		-85.937500
5348		-89.843750
5349		-87.890625
5350		-89.843750
5351		-85.937500
5352		-89.843750
5353		-85.937500
5354		-89.843750
5355		-85.937500
5356		-87.890625
5357		-85.937500
5358		-87.890625
5359		-85.937500
5360		-87.890625
5361		-83.984375
5362		-87.890625
5363		-83.984375
5364		-85.937500
5365		-83.984375
5366		-85.937500
5367		-83.984375
5368		-85.937500
5369		-82.031250
5370		-83.984375
5371		-82.031250
5372		-83.984375
5373		-80.078125
5374		-82.031250
5375		-80.078125
5376		-82.031250
5377		-78.125000
5378		-82.031250
5379		-78.125000
5380		-80.078125
5381		-76.171875
5382		-78.125000
5383		-74.218750
5384		-78.125000
5385		-74.218750
5386		-76.171875
5387		-72.265625
5388		-74.218750
5389		-70.312500
5390		-74.218750
5391		-70.312500
5392		-72.265625
5393		-68.359375
5394		-70.312500
5395		-66.406250
5396		-68.359375
5397		-64.453125
5398		-66.406250
5399		-62.500000
5400		-66.406250
5401		-62.500000
5402		-64.453125
5403		-60.546875
5404		-62.500000
5405		-58.593750
5406		-60.546875
5407		-56.640625
5408		-58.593750
5409		-54.687500
5410		-56.640625
5411		-52.734375
5412		-54.687500
5413		-50.781250
5414		-52.734375
5415		-48.828125
5416		-50.781250
5417		-46.875000
5418		-48.828125
5419		-44.921875
5420		-46.875000
5421		-42.968750
5422		-44.921875
5423		-41.015625
5424		-42.968750
5425		-39.062500
5426		-41.015625
5427		-35.156250
5428		-39.062500
5429		-35.156250
5430		-35.156250
5431		-31.250000
5432		-33.203125
5433		-29.296875
5434		-31.250000
5435		-27.343750
5436		-29.296875
5437		-25.390625
5438		-27.343750
5439		-23.437500
5440		-25.390625
5441		-21.484375
5442		-21.484375
5443		-17.578125
5444		-19.531250
5445		-15.625000
5446		-17.578125
5447		-13.671875
5448		-15.625000
5449		-11.718750
5450		-13.671875
5451		-9.765625
5452		-11.718750
5453		-5.859375
5454		-7.812500
5455		-3.906250
5456		-5.859375
5457		-1.953125
5458		-3.906250
5459		0.000000
5460		-1.953125
5461		1.953125
5462		0.000000
5463		5.859375
5464		1.953125
5465		7.812500
5466		5.859375
5467		9.765625
5468		7.812500
5469		11.718750
5470		9.765625
5471		13.671875
5472		11.718750
5473		15.625000
5474		13.671875
5475		19.531250
5476		15.625000
5477		21.484375
5478		19.531250
5479		23.437500
5480		21.484375
5481		25.390625
5482		23.437500
5483		27.343750
5484		25.390625
5485		29.296875
5486		27.343750
5487		31.250000
5488		29.296875
5489		33.203125
5490		31.250000
5491		35.156250
5492		33.203125
5493		39.062500
5494		35.156250
5495		39.062500
5496		37.109375
5497		42.968750
5498		39.062500
5499		44.921875
5500		41.015625
5501		46.875000
5502		42.968750
5503		48.828125
5504		44.921875
5505		48.828125
5506		46.875000
5507		50.781250
5508		48.828125
5509		52.734375
5510		50.781250
5511		54.687500
5512		52.734375
5513		56.640625
5514		54.687500
5515		58.593750
5516		56.640625
5517		60.546875
5518		56.640625
5519		62.500000
5520		58.593750
5521		62.500000
5522		60.546875
5523		64.453125
5524		62.500000
5525		66.406250
5526		64.453125
5527		68.359375
5528		64.453125
5529		68.359375
5530		66.406250
5531		70.312500
5532		68.359375
5533		72.265625
5534		68.359375
5535		72.265625
5536		70.312500
5537		74.218750
5538		72.265625
5539		74.218750
5540		72.265625
5541		76.171875
5542		74.218750
5543		76.171875
5544		74.218750
5545		78.125000
5546		76.171875
5547		78.125000
5548		76.171875
5549		80.078125
5550		78.125000
5551		80.078125
5552		78.125000
5553		82.031250
5554		78.125000
5555		82.031250
5556		80.078125
5557		82.031250
5558		80.078125
5559		83.984375
5560		80.078125
5561		83.984375
5562		82.031250
5563		83.984375
5564		82.031250
5565		85.937500
5566		82.031250
5567		85.937500
5568		82.031250
5569		85.937500
5570		83.984375
5571		85.937500
5572		83.984375
5573		85.937500
5574		83.984375
5575		85.937500
5576		83.984375
5577		85.937500
5578		83.984375
5579		87.890625
5580		83.984375
5581		85.937500
5582		83.984375
5583		87.890625
5584		83.984375
5585		87.890625
5586		83.984375
5587		85.937500
5588		83.984375
5589		85.937500
5590		83.984375
5591		85.937500
5592		83.984375
5593		85.937500
5594		83.984375
5595		85.937500
5596		82.031250
5597		85.937500
5598		82.031250
5599		85.937500
5600		82.031250
5601		83.984375
5602		82.031250
5603		83.984375
5604		80.078125
5605		83.984375
5606		80.078125
5607		83.984375
5608		80.078125
5609		82.031250
5610		78.125000
5611		82.031250
5612		78.125000
5613		82.031250
5614		76.171875
5615		80.078125
5616		76.171875
5617		80.078125
5618		76.171875
5619		78.125000
5620		74.218750
5621		78.125000
5622		72.265625
5623		76.171875
5624		72.265625
5625		76.171875
5626		70.312500
5627		74.218750
5628		70.312500
5629		72.265625
5630		68.359375
5631		72.265625
5632		66.406250
5633		70.312500
5634		66.406250
5635		70.312500
5636		64.453125
5637		68.359375
5638		62.500000
5639		66.406250
5640		60.546875
5641		64.453125
5642		60.546875
5643		64.453125
5644		58.593750
5645		62.500000
5646		56.640625
5647		60.546875
5648		54.687500
5649		58.593750
5650		52.734375
5651		56.640625
5652		50.781250
5653		54.687500
5654		48.828125
5655		52.734375
5656		48.828125
5657		52.734375
5658		46.875000
5659		50.781250
5660		44.921875
5661		48.828125
5662		42.968750
5663		46.875000
5664		41.015625
5665		44.921875
5666		39.062500
5667		42.968750
5668		37.109375
5669		41.015625
5670		35.156250
5671		39.062500
5672		31.250000
5673		37.109375
5674		29.296875
5675		35.156250
5676		27.343750
5677		31.250000
5678		25.390625
5679		29.296875
5680		23.437500
5681		27.343750
5682		21.484375
5683		25.390625
5684		19.531250
5685		23.437500
5686		17.578125
5687		21.484375
5688		13.671875
5689		19.531250
5690		11.718750
5691		17.578125
5692		9.765625
5693		13.671875
5694		7.812500
5695		11.718750
5696		5.859375
5697		9.765625
5698		1.953125
5699		7.812500
5700		0.000000
5701		5.859375
5702		-1.953125
5703		1.953125
5704		-3.906250
5705		0.000000
5706		-5.859375
5707		-1.953125
5708		-9.765625
5709		-3.906250
5710		-11.718750
5711		-7.812500
5712		-13.671875
5713		-9.765625
5714		-15.625000
5715		-11.718750
5716		-17.578125
5717		-13.671875
5718		-21.484375
5719		-15.625000
5720		-23.437500
5721		-19.531250
5722		-25.390625
5723		-19.531250
5724		-27.343750
5725		-23.437500
5726		-29.296875
5727		-25.390625
5728		-33.203125
5729		-27.343750
5730		-35.156250
5731		-29.296875
5732		-37.109375
5733		-31.250000
5734		-39.062500
5735		-35.156250
5736		-41.015625
5737		-37.109375
5738		-42.968750
5739		-39.062500
5740		-44.921875
5741		-41.015625
5742		-46.875000
5743		-42.968750
5744		-48.828125
5745		-44.921875
5746		-50.781250
5747		-46.875000
5748		-52.734375
5749		-48.828125
5750		-54.687500
5751		-50.781250
5752		-56.640625
5753		-52.734375
5754		-58.593750
5755		-54.687500
5756		-60.546875
5757		-56.640625
5758		-62.500000
5759		-58.593750
5760		-64.453125
5761		-60.546875
5762		-66.406250
5763		-62.500000
5764		-68.359375
5765		-64.453125
5766		-70.312500
5767		-66.406250
5768		-72.265625
5769		-68.359375
5770		-72.265625
5771		-68.359375
5772		-74.218750
5773		-70.312500
5774		-76.171875
5775		-72.265625
5776		-76.171875
5777		-72.265625
5778		-78.125000
5779		-74.218750
5780		-80.078125
5781		-76.171875
5782		-80.078125
5783		-76.171875
5784		-82.031250
5785		-78.125000
5786		-82.031250
5787		-80.078125
5788		-83.984375
5789		-80.078125
5790		-85.937500
5791		-80.078125
5792		-85.937500
5793		-82.031250
5794		-85.937500
5795		-83.984375
5796		-87.890625
5797		-83.984375
5798		-87.890625
5799		-83.984375
5800		-87.890625
5801		-83.984375
5802		-89.843750
5803		-85.937500
5804		-89.843750
5805		-85.937500
5806		-89.843750
5807		-85.937500
5808		-89.843750
5809		-87.890625
5810		-89.843750
5811		-87.890625
5812		-89.843750
5813		-87.890625
5814		-89.843750
5815		-87.890625
5816		-89.843750
5817		-87.890625
5818		-89.843750
5819		-87.890625
5820		-89.843750
5821		-87.890625
5822		-89.843750
5823		-87.890625
5824		-89.843750
5825		-87.890625
5826		-89.843750
5827		-87.890625
5828		-89.843750
5829		-85.937500
5830		-89.843750
5831		-85.937500
5832		-87.890625
5833		-85.937500
5834		-87.890625
5835		-85.937500
5836		-87.890625
5837		-83.984375
5838		-85.937500
5839		-83.984375
5840		-85.937500
5841		-82.031250
5842		-85.937500
5843		-82.031250
5844		-83.984375
5845		-82.031250
5846		-83.984375
5847		-80.078125
5848		-82.031250
5849		-80.078125
5850		-82.031250
5851		-78.125000
5852		-80.078125
5853		-76.171875
5854		-80.078125
5855		-76.171875
5856		-78.125000
5857		-74.218750
5858		-76.171875
5859		-72.265625
5860		-74.218750
5861		-72.265625
5862		-74.218750
5863		-70.312500
5864		-72.265625
5865		-68.359375
5866		-70.312500
5867		-66.406250
5868		-70.312500
5869		-66.406250
5870		-68.359375
5871		-64.453125
5872		-66.406250
5873		-62.500000
5874		-64.453125
5875		-60.546875
5876		-62.500000
5877		-58.593750
5878		-60.546875
5879		-56.640625
5880		-58.593750
5881		-54.687500
5882		-56.640625
5883		-52.734375
5884		-54.687500
5885		-50.781250
5886		-52.734375
5887		-48.828125
5888		-50.781250
5889		-46.875000
5890		-48.828125
5891		-44.921875
5892		-46.875000
5893		-42.968750
5894		-44.921875
5895		-41.015625
5896		-42.968750
5897		-39.062500
5898		-41.015625
5899		-37.109375
5900		-39.062500
5901		-35.156250
5902		-37.109375
5903		-31.250000
5904		-33.203125
5905		-29.296875
5906		-31.250000
5907		-27.343750
5908		-29.296875
5909		-25.390625
5910		-27.343750
5911		-23.437500
5912		-25.390625
5913		-21.484375
5914		-23.437500
5915		-19.531250
5916		-19.531250
5917		-15.625000
5918		-17.578125
5919		-13.671875
5920		-15.625000
5921		-11.718750
5922		-13.671875
5923		-9.765625
5924		-11.718750
5925		-5.859375
5926		-9.765625
5927		-3.906250
5928		-5.859375
5929		-1.953125
5930		-3.906250
5931		1.953125
5932		-1.953125
5933		1.953125
5934		0.000000
5935		5.859375
5936		3.906250
5937		7.812500
5938		5.859375
5939		9.765625
5940		7.812500
5941		11.718750
5942		9.765625
5943		15.625000
5944		9.765625
5945		17.578125
5946		13.671875
5947		19.531250
5948		15.625000
5949		21.484375
5950		17.578125
5951		27.343750
5952		19.531250
5953		25.390625
5954		23.437500
5955		27.343750
5956		25.390625
5957		29.296875
5958		27.343750
5959		31.250000
5960		29.296875
5961		35.156250
5962		31.250000
5963		37.109375
5964		33.203125
5965		39.062500
5966		35.156250
5967		41.015625
5968		37.109375
5969		42.968750
5970		39.062500
5971		44.921875
5972		41.015625
5973		44.921875
5974		42.968750
5975		46.875000
5976		44.921875
5977		50.781250
5978		46.875000
5979		52.734375
5980		48.828125
5981		52.734375
5982		48.828125
5983		54.687500
5984		50.781250
5985		58.593750
5986		54.687500
5987		58.593750
5988		56.640625
5989		60.546875
5990		56.640625
5991		62.500000
5992		56.640625
5993		64.453125
5994		58.593750
5995		64.453125
5996		62.500000
5997		66.406250
5998		62.500000
5999		68.359375
6000		64.453125
6001		68.359375
6002		64.453125
6003		72.265625
6004		68.359375
6005		72.265625
6006		68.359375
6007		74.218750
6008		68.359375
6009		76.171875
6010		72.265625
6011		76.171875
6012		72.265625
6013		76.171875
6014		72.265625
6015		78.125000
6016		70.312500
6017		80.078125
6018		74.218750
6019		80.078125
6020		76.171875
6021		80.078125
6022		78.125000
6023		80.078125
6024		76.171875
6025		82.031250
6026		76.171875
6027		83.984375
6028		78.125000
6029		83.984375
6030		78.125000
6031		83.984375
6032		78.125000
6033		87.890625
6034		82.031250
6035		83.984375
6036		80.078125
6037		85.937500
6038		82.031250
6039		85.937500
6040		82.031250
6041		87.890625
6042		80.078125
6043		87.890625
6044		82.031250
6045		87.890625
6046		83.984375
6047		85.937500
6048		80.078125
6049		89.843750
6050		80.078125
6051		89.843750
6052		82.031250
6053		89.843750
6054		83.984375
6055		87.890625
6056		83.984375
6057		85.937500
6058		82.031250
6059		87.890625
6060		82.031250
6061		89.843750
6062		82.031250
6063		87.890625
6064		83.984375
6065		85.937500
6066		80.078125
6067		87.890625
6068		80.078125
6069		87.890625
6070		82.031250
6071		83.984375
6072		82.031250
6073		83.984375
6074		80.078125
6075		83.984375
6076		78.125000
6077		85.937500
6078		78.125000
6079		85.937500
6080		78.125000
6081		82.031250
6082		76.171875
6083		83.984375
6084		76.171875
6085		83.984375
6086		74.218750
6087		82.031250
6088		76.171875
6089		78.125000
6090		72.265625
6091		78.125000
6092		70.312500
6093		80.078125
6094		72.265625
6095		78.125000
6096		70.312500
6097		76.171875
6098		68.359375
6099		74.218750
6100		66.406250
6101		76.171875
6102		66.406250
6103		74.218750
6104		66.406250
6105		70.312500
6106		64.453125
6107		68.359375
6108		62.500000
6109		68.359375
6110		60.546875
6111		68.359375
6112		60.546875
6113		64.453125
6114		58.593750
6115		62.500000
6116		54.687500
6117		62.500000
6118		54.687500
6119		60.546875
6120		52.734375
6121		62.500000
6122		52.734375
6123		56.640625
6124		48.828125
6125		54.687500
6126		46.875000
6127		54.687500
6128		44.921875
6129		52.734375
6130		44.921875
6131		48.828125
6132		41.015625
6133		48.828125
6134		39.062500
6135		46.875000
6136		37.109375
6137		44.921875
6138		37.109375
6139		41.015625
6140		35.156250
6141		39.062500
6142		31.250000
6143		39.062500
6144		29.296875
6145		39.062500
6146		29.296875
6147		33.203125
6148		27.343750
6149		31.250000
6150		23.437500
6151		31.250000
6152		21.484375
6153		29.296875
6154		19.531250
6155		25.390625
6156		17.578125
6157		21.484375
6158		13.671875
6159		19.531250
6160		11.718750
6161		19.531250
6162		11.718750
6163		15.625000
6164		7.812500
6165		13.671875
6166		3.906250
6167		13.671875
6168		1.953125
6169		11.718750
6170		1.953125
6171		7.812500
6172		0.000000
6173		3.906250
6174		-3.906250
6175		1.953125
6176		-5.859375
6177		0.000000
6178		-9.765625
6179		0.000000
6180		-9.765625
6181		-5.859375
6182		-13.671875
6183		-7.812500
6184		-17.578125
6185		-7.812500
6186		-19.531250
6187		-11.718750
6188		-19.531250
6189		-15.625000
6190		-21.484375
6191		-17.578125
6192		-25.390625
6193		-19.531250
6194		-27.343750
6195		-19.531250
6196		-29.296875
6197		-21.484375
6198		-31.250000
6199		-25.390625
6200		-33.203125
6201		-27.343750
6202		-35.156250
6203		-31.250000
6204		-39.062500
6205		-31.250000
6206		-39.062500
6207		-35.156250
6208		-41.015625
6209		-37.109375
6210		-46.875000
6211		-37.109375
6212		-46.875000
6213		-41.015625
6214		-48.828125
6215		-44.921875
6216		-50.781250
6217		-44.921875
6218		-52.734375
6219		-48.828125
6220		-54.687500
6221		-50.781250
6222		-56.640625
6223		-52.734375
6224		-58.593750
6225		-54.687500
6226		-60.546875
6227		-56.640625
6228		-64.453125
6229		-56.640625
6230		-64.453125
6231		-58.593750
6232		-66.406250
6233		-60.546875
6234		-68.359375
6235		-60.546875
6236		-68.359375
6237		-64.453125
6238		-70.312500
6239		-66.406250
6240		-72.265625
6241		-68.359375
6242		-74.218750
6243		-68.359375
6244		-74.218750
6245		-70.312500
6246		-76.171875
6247		-72.265625
6248		-78.125000
6249		-74.218750
6250		-78.125000
6251		-76.171875
6252		-80.078125
6253		-76.171875
6254		-82.031250
6255		-78.125000
6256		-82.031250
6257		-78.125000
6258		-83.984375
6259		-80.078125
6260		-83.984375
6261		-80.078125
6262		-85.937500
6263		-82.031250
6264		-85.937500
6265		-82.031250
6266		-87.890625
6267		-83.984375
6268		-87.890625
6269		-83.984375
6270		-89.843750
6271		-85.937500
6272		-87.890625
6273		-85.937500
6274		-89.843750
6275		-85.937500
6276		-89.843750
6277		-85.937500
6278		-89.843750
6279		-85.937500
6280		-91.796875
6281		-85.937500
6282		-91.796875
6283		-85.937500
6284		-91.796875
6285		-85.937500
6286		-91.796875
6287		-87.890625
6288		-91.796875
6289		-87.890625
6290		-91.796875
6291		-87.890625
6292		-91.796875
6293		-87.890625
6294		-91.796875
6295		-87.890625
6296		-91.796875
6297		-85.937500
6298		-91.796875
6299		-85.937500
6300		-91.796875
6301		-85.937500
6302		-89.843750
6303		-85.937500
6304		-89.843750
6305		-83.984375
6306		-87.890625
6307		-85.937500
6308		-87.890625
6309		-83.984375
6310		-87.890625
6311		-83.984375
6312		-87.890625
6313		-82.031250
6314		-85.937500
6315		-82.031250
6316		-85.937500
6317		-80.078125
6318		-85.937500
6319		-80.078125
6320		-83.984375
6321		-78.125000
6322		-82.031250
6323		-78.125000
6324		-82.031250
6325		-78.125000
6326		-80.078125
6327		-74.218750
6328		-80.078125
6329		-74.218750
6330		-78.125000
6331		-72.265625
6332		-78.125000
6333		-70.312500
6334		-76.171875
6335		-70.312500
6336		-74.218750
6337		-68.359375
6338		-72.265625
6339		-66.406250
6340		-70.312500
6341		-66.406250
6342		-68.359375
6343		-64.453125
6344		-66.406250
6345		-62.500000
6346		-64.453125
6347		-60.546875
6348		-64.453125
6349		-58.593750
6350		-62.500000
6351		-56.640625
6352		-60.546875
6353		-54.687500
6354		-56.640625
6355		-52.734375
6356		-56.640625
6357		-50.781250
6358		-52.734375
6359		-48.828125
6360		-52.734375
6361		-46.875000
6362		-50.781250
6363		-44.921875
6364		-46.875000
6365		-42.968750
6366		-46.875000
6367		-41.015625
6368		-44.921875
6369		-39.062500
6370		-41.015625
6371		-37.109375
6372		-39.062500
6373		-35.156250
6374		-37.109375
6375		-31.250000
6376		-33.203125
6377		-29.296875
6378		-31.250000
6379		-27.343750
6380		-29.296875
6381		-23.437500
6382		-27.343750
6383		-21.484375
6384		-25.390625
6385		-19.531250
6386		-23.437500
6387		-17.578125
6388		-21.484375
6389		-15.625000
6390		-17.578125
6391		-13.671875
6392		-15.625000
6393		-11.718750
6394		-13.671875
6395		-9.765625
6396		-11.718750
6397		-5.859375
6398		-7.812500
6399		-3.906250
6400		-7.812500
6401		-1.953125
6402		-3.906250
6403		0.000000
6404		-1.953125
6405		1.953125
6406		0.000000
6407		5.859375
6408		3.906250
6409		7.812500
6410		5.859375
6411		9.765625
6412		7.812500
6413		11.718750
6414		9.765625
6415		15.625000
6416		11.718750
6417		17.578125
6418		13.671875
6419		19.531250
6420		15.625000
6421		21.484375
6422		17.578125
6423		23.437500
6424		21.484375
6425		25.390625
6426		23.437500
6427		27.343750
6428		25.390625
6429		29.296875
6430		27.343750
6431		33.203125
6432		29.296875
6433		35.156250
6434		31.250000
6435		35.156250
6436		33.203125
6437		39.062500
6438		35.156250
6439		41.015625
6440		37.109375
6441		41.015625
6442		39.062500
6443		42.968750
6444		41.015625
6445		44.921875
6446		42.968750
6447		46.875000
6448		44.921875
6449		48.828125
6450		44.921875
6451		52.734375
6452		48.828125
6453		52.734375
6454		50.781250
6455		54.687500
6456		50.781250
6457		56.640625
6458		54.687500
6459		58.593750
6460		56.640625
6461		60.546875
6462		56.640625
6463		60.546875
6464		58.593750
6465		62.500000
6466		60.546875
6467		64.453125
6468		62.500000
6469		66.406250
6470		62.500000
6471		66.406250
6472		64.453125
6473		68.359375
6474		66.406250
6475		70.312500
6476		66.406250
6477		70.312500
6478		66.406250
6479		72.265625
6480		70.312500
6481		74.218750
6482		70.312500
6483		74.218750
6484		70.312500
6485		76.171875
6486		74.218750
6487		76.171875
6488		72.265625
6489		78.125000
6490		74.218750
6491		78.125000
6492		76.171875
6493		78.125000
6494		76.171875
6495		80.078125
6496		78.125000
6497		80.078125
6498		78.125000
6499		82.031250
6500		78.125000
6501		82.031250
6502		80.078125
6503		83.984375
6504		80.078125
6505		83.984375
6506		80.078125
6507		83.984375
6508		82.031250
6509		83.984375
6510		80.078125
6511		83.984375
6512		82.031250
6513		85.937500
6514		82.031250
6515		85.937500
6516		82.031250
6517		85.937500
6518		82.031250
6519		85.937500
6520		82.031250
6521		85.937500
6522		82.031250
6523		85.937500
6524		82.031250
6525		85.937500
6526		83.984375
6527		85.937500
6528		82.031250
6529		85.937500
6530		82.031250
6531		85.937500
6532		82.031250
6533		85.937500
6534		82.031250
6535		85.937500
6536		82.031250
6537		85.937500
6538		82.031250
6539		85.937500
6540		80.078125
6541		83.984375
6542		80.078125
6543		83.984375
6544		80.078125
6545		83.984375
6546		80.078125
6547		83.984375
6548		80.078125
6549		82.031250
6550		78.125000
6551		82.031250
6552		78.125000
6553		80.078125
6554		78.125000
6555		80.078125
6556		76.171875
6557		80.078125
6558		76.171875
6559		78.125000
6560		74.218750
6561		78.125000
6562		74.218750
6563		78.125000
6564		72.265625
6565		76.171875
6566		72.265625
6567		74.218750
6568		70.312500
6569		74.218750
6570		68.359375
6571		72.265625
6572		68.359375
6573		70.312500
6574		66.406250
6575		70.312500
6576		66.406250
6577		68.359375
6578		64.453125
6579		68.359375
6580		62.500000
6581		66.406250
6582		60.546875
6583		64.453125
6584		58.593750
6585		62.500000
6586		58.593750
6587		62.500000
6588		56.640625
6589		60.546875
6590		54.687500
6591		58.593750
6592		52.734375
6593		56.640625
6594		50.781250
6595		54.687500
6596		48.828125
6597		52.734375
6598		46.875000
6599		52.734375
6600		44.921875
6601		48.828125
6602		42.968750
6603		48.828125
6604		41.015625
6605		46.875000
6606		39.062500
6607		44.921875
6608		37.109375
6609		41.015625
6610		35.156250
6611		41.015625
6612		33.203125
6613		39.062500
6614		31.250000
6615		37.109375
6616		29.296875
6617		33.203125
6618		27.343750
6619		31.250000
6620		25.390625
6621		29.296875
6622		23.437500
6623		27.343750
6624		21.484375
6625		25.390625
6626		19.531250
6627		23.437500
6628		15.625000
6629		21.484375
6630		13.671875
6631		19.531250
6632		11.718750
6633		15.625000
6634		9.765625
6635		15.625000
6636		7.812500
6637		11.718750
6638		5.859375
6639		9.765625
6640		1.953125
6641		7.812500
6642		0.000000
6643		5.859375
6644		-1.953125
6645		1.953125
6646		-3.906250
6647		0.000000
6648		-5.859375
6649		-1.953125
6650		-9.765625
6651		-3.906250
6652		-11.718750
6653		-7.812500
6654		-13.671875
6655		-9.765625
6656		-15.625000
6657		-11.718750
6658		-17.578125
6659		-13.671875
6660		-21.484375
6661		-15.625000
6662		-23.437500
6663		-19.531250
6664		-25.390625
6665		-21.484375
6666		-27.343750
6667		-23.437500
6668		-29.296875
6669		-25.390625
6670		-31.250000
6671		-27.343750
6672		-35.156250
6673		-31.250000
6674		-37.109375
6675		-31.250000
6676		-39.062500
6677		-35.156250
6678		-41.015625
6679		-37.109375
6680		-42.968750
6681		-37.109375
6682		-44.921875
6683		-41.015625
6684		-46.875000
6685		-42.968750
6686		-50.781250
6687		-44.921875
6688		-52.734375
6689		-46.875000
6690		-54.687500
6691		-48.828125
6692		-56.640625
6693		-50.781250
6694		-56.640625
6695		-52.734375
6696		-60.546875
6697		-54.687500
6698		-60.546875
6699		-56.640625
6700		-62.500000
6701		-58.593750
6702		-66.406250
6703		-60.546875
6704		-66.406250
6705		-62.500000
6706		-68.359375
6707		-64.453125
6708		-70.312500
6709		-64.453125
6710		-72.265625
6711		-68.359375
6712		-74.218750
6713		-68.359375
6714		-74.218750
6715		-70.312500
6716		-76.171875
6717		-72.265625
6718		-78.125000
6719		-72.265625
6720		-78.125000
6721		-74.218750
6722		-80.078125
6723		-76.171875
6724		-82.031250
6725		-78.125000
6726		-82.031250
6727		-78.125000
6728		-83.984375
6729		-80.078125
6730		-83.984375
6731		-80.078125
6732		-85.937500
6733		-82.031250
6734		-85.937500
6735		-82.031250
6736		-87.890625
6737		-83.984375
6738		-87.890625
6739		-83.984375
6740		-89.843750
6741		-85.937500
6742		-89.843750
6743		-85.937500
6744		-89.843750
6745		-87.890625
6746		-91.796875
6747		-85.937500
6748		-91.796875
6749		-85.937500
6750		-91.796875
6751		-87.890625
6752		-91.796875
6753		-87.890625
6754		-91.796875
6755		-89.843750
6756		-91.796875
6757		-89.843750
6758		-91.796875
6759		-89.843750
6760		-91.796875
6761		-87.890625
6762		-91.796875
6763		-89.843750
6764		-91.796875
6765		-87.890625
6766		-91.796875
6767		-87.890625
6768		-91.796875
6769		-87.890625
6770		-91.796875
6771		-87.890625
6772		-91.796875
6773		-87.890625
6774		-91.796875
6775		-87.890625
6776		-89.843750
6777		-87.890625
6778		-89.843750
6779		-85.937500
6780		-89.843750
6781		-85.937500
6782		-87.890625
6783		-83.984375
6784		-87.890625
6785		-83.984375
6786		-87.890625
6787		-82.031250
6788		-85.937500
6789		-82.031250
6790		-85.937500
6791		-82.031250
6792		-83.984375
6793		-80.078125
6794		-82.031250
6795		-80.078125
6796		-82.031250
6797		-78.125000
6798		-80.078125
6799		-76.171875
6800		-80.078125
6801		-76.171875
6802		-78.125000
6803		-74.218750
6804		-76.171875
6805		-72.265625
6806		-76.171875
6807		-70.312500
6808		-74.218750
6809		-70.312500
6810		-72.265625
6811		-68.359375
6812		-70.312500
6813		-66.406250
6814		-70.312500
6815		-64.453125
6816		-68.359375
6817		-62.500000
6818		-66.406250
6819		-60.546875
6820		-64.453125
6821		-60.546875
6822		-62.500000
6823		-58.593750
6824		-60.546875
6825		-56.640625
6826		-58.593750
6827		-54.687500
6828		-56.640625
6829		-52.734375
6830		-54.687500
6831		-50.781250
6832		-52.734375
6833		-48.828125
6834		-50.781250
6835		-46.875000
6836		-48.828125
6837		-42.968750
6838		-46.875000
6839		-41.015625
6840		-44.921875
6841		-39.062500
6842		-41.015625
6843		-37.109375
6844		-39.062500
6845		-35.156250
6846		-37.109375
6847		-33.203125
6848		-35.156250
6849		-31.250000
6850		-33.203125
6851		-29.296875
6852		-29.296875
6853		-27.343750
6854		-27.343750
6855		-23.437500
6856		-27.343750
6857		-21.484375
6858		-23.437500
6859		-19.531250
6860		-21.484375
6861		-17.578125
6862		-19.531250
6863		-13.671875
6864		-17.578125
6865		-11.718750
6866		-13.671875
6867		-9.765625
6868		-11.718750
6869		-7.812500
6870		-9.765625
6871		-3.906250
6872		-7.812500
6873		-1.953125
6874		-5.859375
6875		0.000000
6876		-1.953125
6877		1.953125
6878		0.000000
6879		3.906250
6880		1.953125
6881		7.812500
6882		3.906250
6883		9.765625
6884		7.812500
6885		11.718750
6886		9.765625
6887		13.671875
6888		11.718750
6889		15.625000
6890		13.671875
6891		17.578125
6892		15.625000
6893		19.531250
6894		17.578125
6895		23.437500
6896		21.484375
6897		25.390625
6898		21.484375
6899		27.343750
6900		25.390625
6901		29.296875
6902		25.390625
6903		31.250000
6904		29.296875
6905		33.203125
6906		31.250000
6907		35.156250
6908		33.203125
6909		37.109375
6910		35.156250
6911		39.062500
6912		37.109375
6913		41.015625
6914		39.062500
6915		42.968750
6916		41.015625
6917		44.921875
6918		42.968750
6919		46.875000
6920		44.921875
6921		48.828125
6922		46.875000
6923		50.781250
6924		48.828125
6925		52.734375
6926		50.781250
6927		54.687500
6928		50.781250
6929		56.640625
6930		52.734375
6931		56.640625
6932		54.687500
6933		58.593750
6934		56.640625
6935		60.546875
6936		58.593750
6937		62.500000
6938		58.593750
6939		62.500000
6940		60.546875
6941		64.453125
6942		62.500000
6943		66.406250
6944		62.500000
6945		68.359375
6946		64.453125
6947		68.359375
6948		66.406250
6949		70.312500
6950		68.359375
6951		72.265625
6952		68.359375
6953		72.265625
6954		70.312500
6955		74.218750
6956		70.312500
6957		74.218750
6958		72.265625
6959		76.171875
6960		72.265625
6961		76.171875
6962		74.218750
6963		78.125000
6964		74.218750
6965		78.125000
6966		76.171875
6967		80.078125
6968		76.171875
6969		80.078125
6970		76.171875
6971		80.078125
6972		78.125000
6973		82.031250
6974		78.125000
6975		82.031250
6976		78.125000
6977		83.984375
6978		80.078125
6979		82.031250
6980		80.078125
6981		83.984375
6982		80.078125
6983		83.984375
6984		80.078125
6985		83.984375
6986		82.031250
6987		83.984375
6988		82.031250
6989		83.984375
6990		82.031250
6991		83.984375
6992		82.031250
6993		85.937500
6994		82.031250
6995		85.937500
6996		82.031250
6997		85.937500
6998		82.031250
6999		85.937500
7000		82.031250
7001		85.937500
7002		82.031250
7003		85.937500
7004		82.031250
7005		85.937500
7006		82.031250
7007		85.937500
7008		80.078125
7009		83.984375
7010		80.078125
7011		83.984375
7012		80.078125
7013		83.984375
7014		80.078125
7015		83.984375
7016		78.125000
7017		83.984375
7018		78.125000
7019		82.031250
7020		78.125000
7021		82.031250
7022		78.125000
7023		80.078125
7024		76.171875
7025		80.078125
7026		76.171875
7027		80.078125
7028		76.171875
7029		78.125000
7030		74.218750
7031		78.125000
7032		72.265625
7033		78.125000
7034		72.265625
7035		76.171875
7036		72.265625
7037		74.218750
7038		70.312500
7039		74.218750
7040		68.359375
7041		72.265625
7042		68.359375
7043		72.265625
7044		66.406250
7045		72.265625
7046		66.406250
7047		68.359375
7048		64.453125
7049		68.359375
7050		62.500000
7051		66.406250
7052		60.546875
7053		64.453125
7054		58.593750
7055		64.453125
7056		58.593750
7057		62.500000
7058		56.640625
7059		60.546875
7060		54.687500
7061		58.593750
7062		52.734375
7063		56.640625
7064		52.734375
7065		54.687500
7066		50.781250
7067		54.687500
7068		46.875000
7069		52.734375
7070		44.921875
7071		50.781250
7072		44.921875
7073		48.828125
7074		42.968750
7075		46.875000
7076		41.015625
7077		44.921875
7078		39.062500
7079		42.968750
7080		37.109375
7081		41.015625
7082		33.203125
7083		39.062500
7084		31.250000
7085		37.109375
7086		31.250000
7087		35.156250
7088		29.296875
7089		33.203125
7090		25.390625
7091		31.250000
7092		23.437500
7093		29.296875
7094		21.484375
7095		25.390625
7096		19.531250
7097		23.437500
7098		17.578125
7099		21.484375
7100		15.625000
7101		19.531250
7102		11.718750
7103		17.578125
7104		11.718750
7105		15.625000
7106		7.812500
7107		13.671875
7108		5.859375
7109		9.765625
7110		3.906250
7111		7.812500
7112		1.953125
7113		5.859375
7114		-1.953125
7115		3.906250
7116		-3.906250
7117		1.953125
7118		-5.859375
7119		-1.953125
7120		-7.812500
7121		-3.906250
7122		-9.765625
7123		-5.859375
7124		-13.671875
7125		-7.812500
7126		-15.625000
7127		-11.718750
7128		-17.578125
7129		-13.671875
7130		-19.531250
7131		-15.625000
7132		-23.437500
7133		-17.578125
7134		-23.437500
7135		-19.531250
7136		-27.343750
7137		-21.484375
7138		-29.296875
7139		-25.390625
7140		-31.250000
7141		-27.343750
7142		-33.203125
7143		-29.296875
7144		-35.156250
7145		-31.250000
7146		-39.062500
7147		-33.203125
7148		-41.015625
7149		-37.109375
7150		-42.968750
7151		-37.109375
7152		-44.921875
7153		-41.015625
7154		-48.828125
7155		-42.968750
7156		-48.828125
7157		-44.921875
7158		-50.781250
7159		-46.875000
7160		-52.734375
7161		-48.828125
7162		-54.687500
7163		-50.781250
7164		-56.640625
7165		-52.734375
7166		-60.546875
7167		-54.687500
7168		-60.546875
7169		-56.640625
7170		-62.500000
7171		-58.593750
7172		-64.453125
7173		-60.546875
7174		-66.406250
7175		-62.500000
7176		-68.359375
7177		-64.453125
7178		-70.312500
7179		-66.406250
7180		-72.265625
7181		-66.406250
7182		-72.265625
7183		-68.359375
7184		-74.218750
7185		-70.312500
7186		-76.171875
7187		-72.265625
7188		-78.125000
7189		-74.218750
7190		-80.078125
7191		-74.218750
7192		-80.078125
7193		-76.171875
7194		-82.031250
7195		-78.125000
7196		-82.031250
7197		-78.125000
7198		-83.984375
7199		-80.078125
7200		-85.937500
7201		-82.031250
7202		-85.937500
7203		-82.031250
7204		-85.937500
7205		-83.984375
7206		-87.890625
7207		-83.984375
7208		-87.890625
7209		-85.937500
7210		-89.843750
7211		-83.984375
7212		-89.843750
7213		-85.937500
7214		-89.843750
7215		-85.937500
7216		-91.796875
7217		-87.890625
7218		-91.796875
7219		-87.890625
7220		-91.796875
7221		-87.890625
7222		-91.796875
7223		-87.890625
7224		-91.796875
7225		-89.843750
7226		-93.750000
7227		-89.843750
7228		-93.750000
7229		-89.843750
7230		-91.796875
7231		-89.843750
7232		-93.750000
7233		-89.843750
7234		-93.750000
7235		-89.843750
7236		-93.750000
7237		-89.843750
7238		-91.796875
7239		-89.843750
7240		-91.796875
7241		-89.843750
7242		-91.796875
7243		-87.890625
7244		-91.796875
7245		-87.890625
7246		-91.796875
7247		-87.890625
7248		-89.843750
7249		-87.890625
7250		-89.843750
7251		-85.937500
7252		-89.843750
7253		-85.937500
7254		-87.890625
7255		-85.937500
7256		-87.890625
7257		-83.984375
7258		-87.890625
7259		-83.984375
7260		-85.937500
7261		-82.031250
7262		-85.937500
7263		-80.078125
7264		-83.984375
7265		-80.078125
7266		-82.031250
7267		-80.078125
7268		-82.031250
7269		-78.125000
7270		-80.078125
7271		-76.171875
7272		-80.078125
7273		-74.218750
7274		-78.125000
7275		-74.218750
7276		-76.171875
7277		-72.265625
7278		-76.171875
7279		-72.265625
7280		-74.218750
7281		-70.312500
7282		-72.265625
7283		-68.359375
7284		-70.312500
7285		-66.406250
7286		-68.359375
7287		-64.453125
7288		-68.359375
7289		-62.500000
7290		-64.453125
7291		-60.546875
7292		-64.453125
7293		-58.593750
7294		-62.500000
7295		-56.640625
7296		-60.546875
7297		-54.687500
7298		-58.593750
7299		-54.687500
7300		-56.640625
7301		-52.734375
7302		-54.687500
7303		-50.781250
7304		-52.734375
7305		-46.875000
7306		-50.781250
7307		-44.921875
7308		-48.828125
7309		-42.968750
7310		-46.875000
7311		-41.015625
7312		-42.968750
7313		-39.062500
7314		-41.015625
7315		-37.109375
7316		-39.062500
7317		-35.156250
7318		-37.109375
7319		-33.203125
7320		-35.156250
7321		-29.296875
7322		-33.203125
7323		-27.343750
7324		-29.296875
7325		-25.390625
7326		-27.343750
7327		-23.437500
7328		-25.390625
7329		-21.484375
7330		-23.437500
7331		-17.578125
7332		-21.484375
7333		-15.625000
7334		-17.578125
7335		-13.671875
7336		-15.625000
7337		-11.718750
7338		-13.671875
7339		-9.765625
7340		-11.718750
7341		-5.859375
7342		-9.765625
7343		-3.906250
7344		-5.859375
7345		-1.953125
7346		-3.906250
7347		0.000000
7348		-1.953125
7349		1.953125
7350		0.000000
7351		3.906250
7352		1.953125
7353		7.812500
7354		5.859375
7355		9.765625
7356		7.812500
7357		11.718750
7358		9.765625
7359		13.671875
7360		11.718750
7361		15.625000
7362		13.671875
7363		17.578125
7364		15.625000
7365		21.484375
7366		19.531250
7367		23.437500
7368		21.484375
7369		25.390625
7370		23.437500
7371		27.343750
7372		23.437500
7373		29.296875
7374		27.343750
7375		31.250000
7376		29.296875
7377		33.203125
7378		31.250000
7379		35.156250
7380		33.203125
7381		37.109375
7382		35.156250
7383		39.062500
7384		37.109375
7385		41.015625
7386		39.062500
7387		42.968750
7388		41.015625
7389		44.921875
7390		42.968750
7391		46.875000
7392		44.921875
7393		48.828125
7394		46.875000
7395		50.781250
7396		48.828125
7397		52.734375
7398		48.828125
7399		54.687500
7400		52.734375
7401		56.640625
7402		54.687500
7403		56.640625
7404		54.687500
7405		58.593750
7406		56.640625
7407		60.546875
7408		58.593750
7409		62.500000
7410		58.593750
7411		64.453125
7412		60.546875
7413		64.453125
7414		62.500000
7415		66.406250
7416		64.453125
7417		68.359375
7418		64.453125
7419		68.359375
7420		66.406250
7421		70.312500
7422		68.359375
7423		72.265625
7424		68.359375
7425		72.265625
7426		70.312500
7427		74.218750
7428		70.312500
7429		74.218750
7430		72.265625
7431		76.171875
7432		72.265625
7433		76.171875
7434		74.218750
7435		78.125000
7436		74.218750
7437		78.125000
7438		76.171875
7439		80.078125
7440		76.171875
7441		80.078125
7442		78.125000
7443		80.078125
7444		78.125000
7445		82.031250
7446		78.125000
7447		82.031250
7448		78.125000
7449		82.031250
7450		80.078125
7451		82.031250
7452		80.078125
7453		83.984375
7454		80.078125
7455		83.984375
7456		80.078125
7457		83.984375
7458		80.078125
7459		83.984375
7460		82.031250
7461		83.984375
7462		82.031250
7463		83.984375
7464		80.078125
7465		83.984375
7466		80.078125
7467		85.937500
7468		82.031250
7469		83.984375
7470		82.031250
7471		85.937500
7472		82.031250
7473		83.984375
7474		82.031250
7475		83.984375
7476		80.078125
7477		83.984375
7478		80.078125
7479		85.937500
7480		80.078125
7481		83.984375
7482		80.078125
7483		83.984375
7484		80.078125
7485		82.031250
7486		78.125000
7487		82.031250
7488		78.125000
7489		82.031250
7490		78.125000
7491		82.031250
7492		78.125000
7493		82.031250
7494		76.171875
7495		80.078125
7496		76.171875
7497		80.078125
7498		76.171875
7499		78.125000
7500		74.218750
7501		78.125000
7502		72.265625
7503		76.171875
7504		72.265625
7505		76.171875
7506		70.312500
7507		76.171875
7508		70.312500
7509		74.218750
7510		68.359375
7511		72.265625
7512		68.359375
7513		72.265625
7514		66.406250
7515		70.312500
7516		66.406250
7517		70.312500
7518		64.453125
7519		68.359375
7520		62.500000
7521		66.406250
7522		60.546875
7523		66.406250
7524		60.546875
7525		64.453125
7526		58.593750
7527		62.500000
7528		56.640625
7529		60.546875
7530		54.687500
7531		60.546875
7532		54.687500
7533		58.593750
7534		50.781250
7535		56.640625
7536		50.781250
7537		54.687500
7538		48.828125
7539		52.734375
7540		46.875000
7541		50.781250
7542		44.921875
7543		48.828125
7544		42.968750
7545		48.828125
7546		41.015625
7547		44.921875
7548		39.062500
7549		42.968750
7550		37.109375
7551		41.015625
7552		35.156250
7553		39.062500
7554		33.203125
7555		37.109375
7556		31.250000
7557		35.156250
7558		29.296875
7559		33.203125
7560		27.343750
7561		31.250000
7562		25.390625
7563		29.296875
7564		21.484375
7565		27.343750
7566		19.531250
7567		25.390625
7568		17.578125
7569		23.437500
7570		15.625000
7571		19.531250
7572		13.671875
7573		17.578125
7574		11.718750
7575		15.625000
7576		9.765625
7577		13.671875
7578		5.859375
7579		11.718750
7580		3.906250
7581		9.765625
7582		1.953125
7583		5.859375
7584		0.000000
7585		3.906250
7586		-3.906250
7587		1.953125
7588		-3.906250
7589		0.000000
7590		-7.812500
7591		-1.953125
7592		-9.765625
7593		-5.859375
7594		-11.718750
7595		-7.812500
7596		-13.671875
7597		-9.765625
7598		-17.578125
7599		-11.718750
7600		-19.531250
7601		-13.671875
7602		-21.484375
7603		-17.578125
7604		-23.437500
7605		-19.531250
7606		-25.390625
7607		-21.484375
7608		-29.296875
7609		-23.437500
7610		-31.250000
7611		-27.343750
7612		-33.203125
7613		-29.296875
7614		-37.109375
7615		-31.250000
7616		-37.109375
7617		-31.250000
7618		-39.062500
7619		-35.156250
7620		-42.968750
7621		-37.109375
7622		-44.921875
7623		-39.062500
7624		-46.875000
7625		-41.015625
7626		-48.828125
7627		-44.921875
7628		-50.781250
7629		-46.875000
7630		-52.734375
7631		-48.828125
7632		-54.687500
7633		-50.781250
7634		-56.640625
7635		-52.734375
7636		-58.593750
7637		-54.687500
7638		-60.546875
7639		-56.640625
7640		-62.500000
7641		-58.593750
7642		-64.453125
7643		-60.546875
7644		-66.406250
7645		-62.500000
7646		-68.359375
7647		-64.453125
7648		-70.312500
7649		-64.453125
7650		-70.312500
7651		-66.406250
7652		-72.265625
7653		-68.359375
7654		-74.218750
7655		-70.312500
7656		-76.171875
7657		-72.265625
7658		-78.125000
7659		-74.218750
7660		-78.125000
7661		-74.218750
7662		-80.078125
7663		-76.171875
7664		-80.078125
7665		-78.125000
7666		-82.031250
7667		-78.125000
7668		-83.984375
7669		-80.078125
7670		-83.984375
7671		-80.078125
7672		-85.937500
7673		-82.031250
7674		-85.937500
7675		-83.984375
7676		-87.890625
7677		-83.984375
7678		-89.843750
7679		-85.937500
7680		-89.843750
7681		-85.937500
7682		-91.796875
7683		-85.937500
7684		-91.796875
7685		-87.890625
7686		-91.796875
7687		-87.890625
7688		-91.796875
7689		-87.890625
7690		-91.796875
7691		-89.843750
7692		-93.750000
7693		-89.843750
7694		-93.750000
7695		-89.843750
7696		-93.750000
7697		-89.843750
7698		-93.750000
7699		-89.843750
7700		-93.750000
7701		-89.843750
7702		-93.750000
7703		-91.796875
7704		-93.750000
7705		-89.843750
7706		-93.750000
7707		-89.843750
7708		-93.750000
7709		-89.843750
7710		-93.750000
7711		-89.843750
7712		-93.750000
7713		-89.843750
7714		-93.750000
7715		-89.843750
7716		-93.750000
7717		-89.843750
7718		-91.796875
7719		-87.890625
7720		-91.796875
7721		-87.890625
7722		-91.796875
7723		-85.937500
7724		-89.843750
7725		-85.937500
7726		-89.843750
7727		-85.937500
7728		-87.890625
7729		-85.937500
7730		-87.890625
7731		-83.984375
7732		-85.937500
7733		-83.984375
7734		-85.937500
7735		-82.031250
7736		-83.984375
7737		-82.031250
7738		-83.984375
7739		-80.078125
7740		-82.031250
7741		-78.125000
7742		-82.031250
7743		-78.125000
7744		-80.078125
7745		-76.171875
7746		-78.125000
7747		-74.218750
7748		-78.125000
7749		-74.218750
7750		-76.171875
7751		-70.312500
7752		-74.218750
7753		-70.312500
7754		-72.265625
7755		-68.359375
7756		-72.265625
7757		-66.406250
7758		-70.312500
7759		-66.406250
7760		-68.359375
7761		-64.453125
7762		-66.406250
7763		-62.500000
7764		-64.453125
7765		-60.546875
7766		-62.500000
7767		-56.640625
7768		-60.546875
7769		-56.640625
7770		-58.593750
7771		-54.687500
7772		-56.640625
7773		-52.734375
7774		-54.687500
7775		-50.781250
7776		-52.734375
7777		-48.828125
7778		-50.781250
7779		-46.875000
7780		-48.828125
7781		-44.921875
7782		-46.875000
7783		-41.015625
7784		-44.921875
7785		-39.062500
7786		-41.015625
7787		-37.109375
7788		-39.062500
7789		-35.156250
7790		-39.062500
7791		-33.203125
7792		-35.156250
7793		-31.250000
7794		-33.203125
7795		-27.343750
7796		-31.250000
7797		-25.390625
7798		-27.343750
7799		-23.437500
7800		-25.390625
7801		-21.484375
7802		-23.437500
7803		-19.531250
7804		-21.484375
7805		-17.578125
7806		-19.531250
7807		-13.671875
7808		-15.625000
7809		-11.718750
7810		-13.671875
7811		-9.765625
7812		-11.718750
7813		-7.812500
7814		-9.765625
7815		-3.906250
7816		-7.812500
7817		-1.953125
7818		-5.859375
7819		0.000000
7820		-1.953125
7821		1.953125
7822		0.000000
7823		3.906250
7824		1.953125
7825		7.812500
7826		3.906250
7827		9.765625
7828		5.859375
7829		11.718750
7830		7.812500
7831		13.671875
7832		11.718750
7833		15.625000
7834		13.671875
7835		17.578125
7836		15.625000
7837		19.531250
7838		17.578125
7839		23.437500
7840		19.531250
7841		25.390625
7842		23.437500
7843		27.343750
7844		25.390625
7845		29.296875
7846		27.343750
7847		31.250000
7848		29.296875
7849		33.203125
7850		31.250000
7851		35.156250
7852		33.203125
7853		37.109375
7854		35.156250
7855		39.062500
7856		37.109375
7857		41.015625
7858		39.062500
7859		42.968750
7860		41.015625
7861		44.921875
7862		42.968750
7863		46.875000
7864		44.921875
7865		48.828125
7866		46.875000
7867		50.781250
7868		46.875000
7869		52.734375
7870		48.828125
7871		54.687500
7872		50.781250
7873		56.640625
7874		52.734375
7875		56.640625
7876		54.687500
7877		58.593750
7878		56.640625
7879		60.546875
7880		58.593750
7881		62.500000
7882		58.593750
7883		62.500000
7884		60.546875
7885		66.406250
7886		62.500000
7887		66.406250
7888		64.453125
7889		68.359375
7890		64.453125
7891		68.359375
7892		66.406250
7893		70.312500
7894		66.406250
7895		72.265625
7896		68.359375
7897		72.265625
7898		70.312500
7899		72.265625
7900		70.312500
7901		74.218750
7902		72.265625
7903		74.218750
7904		72.265625
7905		76.171875
7906		72.265625
7907		76.171875
7908		74.218750
7909		78.125000
7910		74.218750
7911		78.125000
7912		76.171875
7913		78.125000
7914		76.171875
7915		80.078125
7916		76.171875
7917		80.078125
7918		78.125000
7919		82.031250
7920		78.125000
7921		82.031250
7922		78.125000
7923		82.031250
7924		78.125000
7925		82.031250
7926		80.078125
7927		83.984375
7928		80.078125
7929		83.984375
7930		80.078125
7931		83.984375
7932		80.078125
7933		83.984375
7934		80.078125
7935		83.984375
7936		80.078125
7937		83.984375
7938		80.078125
7939		83.984375
7940		80.078125
7941		83.984375
7942		80.078125
7943		83.984375
7944		80.078125
7945		83.984375
7946		80.078125
7947		83.984375
7948		80.078125
7949		83.984375
7950		80.078125
7951		83.984375
7952		80.078125
7953		83.984375
7954		80.078125
7955		82.031250
7956		78.125000
7957		82.031250
7958		78.125000
7959		82.031250
7960		78.125000
7961		80.078125
7962		76.171875
7963		80.078125
7964		76.171875
7965		80.078125
7966		76.171875
7967		78.125000
7968		74.218750
7969		78.125000
7970		74.218750
7971		78.125000
7972		74.218750
7973		76.171875
7974		72.265625
7975		76.171875
7976		70.312500
7977		74.218750
7978		70.312500
7979		74.218750
7980		68.359375
7981		72.265625
7982		68.359375
7983		72.265625
7984		66.406250
7985		70.312500
7986		66.406250
7987		70.312500
7988		64.453125
7989		68.359375
7990		62.500000
7991		66.406250
7992		62.500000
7993		66.406250
7994		60.546875
7995		64.453125
7996		58.593750
7997		62.500000
7998		56.640625
7999		62.500000
8000		54.687500
8001		58.593750
8002		54.687500
8003		58.593750
8004		52.734375
8005		56.640625
8006		48.828125
8007		54.687500
8008		48.828125
8009		52.734375
8010		46.875000
8011		50.781250
8012		44.921875
8013		48.828125
8014		42.968750
8015		48.828125
8016		41.015625
8017		46.875000
8018		39.062500
8019		44.921875
8020		37.109375
8021		42.968750
8022		35.156250
8023		39.062500
8024		33.203125
8025		39.062500
8026		31.250000
8027		37.109375
8028		29.296875
8029		33.203125
8030		27.343750
8031		31.250000
8032		25.390625
8033		29.296875
8034		23.437500
8035		27.343750
8036		21.484375
8037		25.390625
8038		19.531250
8039		23.437500
8040		15.625000
8041		21.484375
8042		13.671875
8043		19.531250
8044		11.718750
8045		17.578125
8046		9.765625
8047		15.625000
8048		7.812500
8049		11.718750
8050		5.859375
8051		9.765625
8052		1.953125
8053		7.812500
8054		0.000000
8055		3.906250
8056		-1.953125
8057		1.953125
8058		-3.906250
8059		0.000000
8060		-5.859375
8061		-1.953125
8062		-9.765625
8063		-3.906250
8064		-11.718750
8065		-5.859375
8066		-13.671875
8067		-7.812500
8068		-15.625000
8069		-11.718750
8070		-17.578125
8071		-13.671875
8072		-21.484375
8073		-15.625000
8074		-23.437500
8075		-17.578125
8076		-25.390625
8077		-21.484375
8078		-27.343750
8079		-23.437500
8080		-29.296875
8081		-25.390625
8082		-33.203125
8083		-27.343750
8084		-35.156250
8085		-29.296875
8086		-37.109375
8087		-31.250000
8088		-39.062500
8089		-35.156250
8090		-41.015625
8091		-37.109375
8092		-42.968750
8093		-37.109375
8094		-46.875000
8095		-41.015625
8096		-46.875000
8097		-42.968750
8098		-50.781250
8099		-44.921875
8100		-50.781250
8101		-46.875000
8102		-54.687500
8103		-48.828125
8104		-56.640625
8105		-50.781250
8106		-58.593750
8107		-54.687500
8108		-60.546875
8109		-54.687500
8110		-62.500000
8111		-56.640625
8112		-64.453125
8113		-58.593750
8114		-64.453125
8115		-60.546875
8116		-68.359375
8117		-62.500000
8118		-68.359375
8119		-64.453125
8120		-70.312500
8121		-66.406250
8122		-72.265625
8123		-68.359375
8124		-76.171875
8125		-70.312500
8126		-78.125000
8127		-70.312500
8128		-78.125000
8129		-72.265625
8130		-80.078125
8131		-74.218750
8132		-80.078125
8133		-76.171875
8134		-82.031250
8135		-76.171875
8136		-83.984375
8137		-78.125000
8138		-83.984375
8139		-80.078125
8140		-85.937500
8141		-80.078125
8142		-87.890625
8143		-80.078125
8144		-85.937500
8145		-82.031250
8146		-87.890625
8147		-83.984375
8148		-87.890625
8149		-85.937500
8150		-89.843750
8151		-85.937500
8152		-89.843750
8153		-85.937500
8154		-91.796875
8155		-87.890625
8156		-91.796875
8157		-87.890625
8158		-93.750000
8159		-87.890625
8160		-93.750000
8161		-87.890625
8162		-93.750000
8163		-87.890625
8164		-93.750000
8165		-89.843750
8166		-93.750000
8167		-89.843750
8168		-95.703125
8169		-89.843750
8170		-95.703125
8171		-89.843750
8172		-93.750000
8173		-91.796875
8174		-93.750000
8175		-91.796875
8176		-95.703125
8177		-89.843750
8178		-95.703125
8179		-89.843750
8180		-95.703125
8181		-89.843750
8182		-93.750000
8183		-89.843750
8184		-93.750000
8185		-89.843750
8186		-95.703125
8187		-87.890625
8188		-93.750000
8189		-89.843750
8190		-91.796875
8191		-89.843750
8192		-93.750000
8193		-87.890625
8194		-93.750000
8195		-85.937500
8196		-91.796875
8197		-83.984375
8198		-91.796875
8199		-83.984375
8200		-89.843750
8201		-83.984375
8202		-89.843750
8203		-83.984375
8204		-89.843750
8205		-82.031250
8206		-85.937500
8207		-82.031250
8208		-83.984375
8209		-80.078125
8210		-85.937500
8211		-78.125000
8212		-85.937500
8213		-76.171875
8214		-83.984375
8215		-76.171875
8216		-82.031250
8217		-76.171875
8218		-80.078125
8219		-72.265625
8220		-78.125000
8221		-72.265625
8222		-76.171875
8223		-72.265625
8224		-74.218750
8225		-70.312500
8226		-74.218750
8227		-68.359375
8228		-72.265625
8229		-64.453125
8230		-70.312500
8231		-64.453125
8232		-70.312500
8233		-62.500000
8234		-68.359375
8235		-60.546875
8236		-64.453125
8237		-58.593750
8238		-62.500000
8239		-58.593750
8240		-60.546875
8241		-56.640625
8242		-58.593750
8243		-52.734375
8244		-58.593750
8245		-50.781250
8246		-54.687500
8247		-48.828125
8248		-54.687500
8249		-46.875000
8250		-52.734375
8251		-44.921875
8252		-50.781250
8253		-42.968750
8254		-46.875000
8255		-41.015625
8256		-42.968750
8257		-39.062500
8258		-41.015625
8259		-37.109375
8260		-41.015625
8261		-33.203125
8262		-39.062500
8263		-31.250000
8264		-37.109375
8265		-29.296875
8266		-33.203125
8267		-25.390625
8268		-31.250000
8269		-25.390625
8270		-29.296875
8271		-21.484375
8272		-25.390625
8273		-21.484375
8274		-23.437500
8275		-17.578125
8276		-21.484375
8277		-15.625000
8278		-19.531250
8279		-11.718750
8280		-17.578125
8281		-11.718750
8282		-15.625000
8283		-7.812500
8284		-11.718750
8285		-5.859375
8286		-11.718750
8287		-3.906250
8288		-9.765625
8289		-1.953125
8290		-3.906250
8291		0.000000
8292		-1.953125
8293		3.906250
8294		-1.953125
8295		7.812500
8296		0.000000
8297		9.765625
8298		3.906250
8299		9.765625
8300		5.859375
8301		13.671875
8302		7.812500
8303		15.625000
8304		9.765625
8305		17.578125
8306		13.671875
8307		19.531250
8308		15.625000
8309		21.484375
8310		17.578125
8311		25.390625
8312		19.531250
8313		27.343750
8314		21.484375
8315		29.296875
8316		23.437500
8317		31.250000
8318		25.390625
8319		33.203125
8320		27.343750
8321		35.156250
8322		29.296875
8323		35.156250
8324		33.203125
8325		37.109375
8326		35.156250
8327		41.015625
8328		37.109375
8329		42.968750
8330		37.109375
8331		44.921875
8332		39.062500
8333		46.875000
8334		41.015625
8335		48.828125
8336		42.968750
8337		50.781250
8338		44.921875
8339		50.781250
8340		48.828125
8341		52.734375
8342		50.781250
8343		54.687500
8344		50.781250
8345		56.640625
8346		52.734375
8347		58.593750
8348		52.734375
8349		60.546875
8350		54.687500
8351		62.500000
8352		56.640625
8353		62.500000
8354		56.640625
8355		64.453125
8356		60.546875
8357		64.453125
8358		62.500000
8359		66.406250
8360		62.500000
8361		68.359375
8362		62.500000
8363		70.312500
8364		64.453125
8365		72.265625
8366		64.453125
8367		72.265625
8368		66.406250
8369		74.218750
8370		68.359375
8371		74.218750
8372		68.359375
8373		74.218750
8374		72.265625
8375		74.218750
8376		72.265625
8377		76.171875
8378		72.265625
8379		80.078125
8380		72.265625
8381		80.078125
8382		72.265625
8383		80.078125
8384		74.218750
8385		80.078125
8386		74.218750
8387		82.031250
8388		76.171875
8389		82.031250
8390		78.125000
8391		80.078125
8392		78.125000
8393		82.031250
8394		76.171875
8395		83.984375
8396		78.125000
8397		83.984375
8398		78.125000
8399		83.984375
8400		78.125000
8401		85.937500
8402		78.125000
8403		83.984375
8404		78.125000
8405		85.937500
8406		78.125000
8407		85.937500
8408		80.078125
8409		83.984375
8410		80.078125
8411		85.937500
8412		78.125000
8413		85.937500
8414		78.125000
8415		85.937500
8416		78.125000
8417		85.937500
8418		78.125000
8419		83.984375
8420		78.125000
8421		83.984375
8422		78.125000
8423		83.984375
8424		80.078125
8425		82.031250
8426		80.078125
8427		82.031250
8428		76.171875
8429		83.984375
8430		76.171875
8431		83.984375
8432		76.171875
8433		82.031250
8434		76.171875
8435		82.031250
8436		74.218750
8437		82.031250
8438		74.218750
8439		80.078125
8440		74.218750
8441		78.125000
8442		74.218750
8443		78.125000
8444		72.265625
8445		78.125000
8446		70.312500
8447		76.171875
8448		68.359375
8449		76.171875
8450		68.359375
8451		76.171875
8452		66.406250
8453		74.218750
8454		66.406250
8455		72.265625
8456		64.453125
8457		70.312500
8458		64.453125
8459		68.359375
8460		64.453125
8461		68.359375
8462		60.546875
8463		68.359375
8464		58.593750
8465		66.406250
8466		58.593750
8467		64.453125
8468		56.640625
8469		62.500000
8470		54.687500
8471		62.500000
8472		54.687500
8473		60.546875
8474		52.734375
8475		56.640625
8476		52.734375
8477		56.640625
8478		48.828125
8479		56.640625
8480		46.875000
8481		54.687500
8482		44.921875
8483		52.734375
8484		42.968750
8485		50.781250
8486		41.015625
8487		48.828125
8488		39.062500
8489		46.875000
8490		39.062500
8491		44.921875
8492		37.109375
8493		41.015625
8494		33.203125
8495		39.062500
8496		31.250000
8497		39.062500
8498		29.296875
8499		37.109375
8500		27.343750
8501		35.156250
8502		25.390625
8503		33.203125
8504		23.437500
8505		31.250000
8506		21.484375
8507		29.296875
8508		21.484375
8509		25.390625
8510		17.578125
8511		23.437500
8512		13.671875
8513		21.484375
8514		11.718750
8515		19.531250
8516		9.765625
8517		17.578125
8518		7.812500
8519		13.671875
8520		5.859375
8521		11.718750
8522		1.953125
8523		9.765625
8524		1.953125
8525		5.859375
8526		0.000000
8527		3.906250
8528		-1.953125
8529		1.953125
8530		-7.812500
8531		1.953125
8532		-9.765625
8533		-1.953125
8534		-11.718750
8535		-3.906250
8536		-13.671875
8537		-5.859375
8538		-15.625000
8539		-7.812500
8540		-17.578125
8541		-9.765625
8542		-19.531250
8543		-15.625000
8544		-21.484375
8545		-17.578125
8546		-25.390625
8547		-17.578125
8548		-29.296875
8549		-19.531250
8550		-29.296875
8551		-21.484375
8552		-33.203125
8553		-25.390625
8554		-35.156250
8555		-27.343750
8556		-37.109375
8557		-29.296875
8558		-37.109375
8559		-33.203125
8560		-39.062500
8561		-35.156250
8562		-42.968750
8563		-37.109375
8564		-44.921875
8565		-39.062500
8566		-46.875000
8567		-41.015625
8568		-50.781250
8569		-42.968750
8570		-52.734375
8571		-44.921875
8572		-54.687500
8573		-46.875000
8574		-54.687500
8575		-48.828125
8576		-56.640625
8577		-52.734375
8578		-60.546875
8579		-54.687500
8580		-62.500000
8581		-54.687500
8582		-62.500000
8583		-56.640625
8584		-66.406250
8585		-58.593750
8586		-68.359375
8587		-60.546875
8588		-70.312500
8589		-62.500000
8590		-72.265625
8591		-64.453125
8592		-70.312500
8593		-68.359375
8594		-74.218750
8595		-68.359375
8596		-76.171875
8597		-70.312500
8598		-78.125000
8599		-70.312500
8600		-80.078125
8601		-72.265625
8602		-80.078125
8603		-74.218750
8604		-82.031250
8605		-74.218750
8606		-83.984375
8607		-76.171875
8608		-82.031250
8609		-78.125000
8610		-83.984375
8611		-80.078125
8612		-87.890625
8613		-82.031250
8614		-87.890625
8615		-80.078125
8616		-89.843750
8617		-82.031250
8618		-89.843750
8619		-83.984375
8620		-91.796875
8621		-83.984375
8622		-91.796875
8623		-85.937500
8624		-91.796875
8625		-85.937500
8626		-91.796875
8627		-87.890625
8628		-91.796875
8629		-87.890625
8630		-93.750000
8631		-87.890625
8632		-95.703125
8633		-87.890625
8634		-95.703125
8635		-87.890625
8636		-95.703125
8637		-89.843750
8638		-95.703125
8639		-89.843750
8640		-95.703125
8641		-89.843750
8642		-95.703125
8643		-89.843750
8644		-93.750000
8645		-91.796875
8646		-97.656250
8647		-89.843750
8648		-97.656250
8649		-89.843750
8650		-97.656250
8651		-89.843750
8652		-95.703125
8653		-89.843750
8654		-95.703125
8655		-89.843750
8656		-95.703125
8657		-89.843750
8658		-95.703125
8659		-87.890625
8660		-93.750000
8661		-89.843750
8662		-91.796875
8663		-87.890625
8664		-93.750000
8665		-85.937500
8666		-93.750000
8667		-85.937500
8668		-91.796875
8669		-85.937500
8670		-91.796875
8671		-83.984375
8672		-89.843750
8673		-83.984375
8674		-89.843750
8675		-83.984375
8676		-87.890625
8677		-83.984375
8678		-85.937500
8679		-82.031250
8680		-85.937500
8681		-80.078125
8682		-85.937500
8683		-78.125000
8684		-85.937500
8685		-78.125000
8686		-83.984375
8687		-76.171875
8688		-82.031250
8689		-74.218750
8690		-80.078125
8691		-74.218750
8692		-78.125000
8693		-72.265625
8694		-76.171875
8695		-72.265625
8696		-74.218750
8697		-68.359375
8698		-74.218750
8699		-66.406250
8700		-72.265625
8701		-64.453125
8702		-70.312500
8703		-64.453125
8704		-68.359375
8705		-62.500000
8706		-68.359375
8707		-60.546875
8708		-66.406250
8709		-58.593750
8710		-62.500000
8711		-58.593750
8712		-60.546875
8713		-56.640625
8714		-60.546875
8715		-52.734375
8716		-56.640625
8717		-48.828125
8718		-54.687500
8719		-48.828125
8720		-52.734375
8721		-46.875000
8722		-52.734375
8723		-44.921875
8724		-50.781250
8725		-42.968750
8726		-46.875000
8727		-41.015625
8728		-42.968750
8729		-39.062500
8730		-42.968750
8731		-35.156250
8732		-41.015625
8733		-33.203125
8734		-39.062500
8735		-31.250000
8736		-35.156250
8737		-27.343750
8738		-33.203125
8739		-25.390625
8740		-31.250000
8741		-25.390625
8742		-29.296875
8743		-23.437500
8744		-25.390625
8745		-21.484375
8746		-23.437500
8747		-15.625000
8748		-23.437500
8749		-13.671875
8750		-19.531250
8751		-11.718750
8752		-17.578125
8753		-9.765625
8754		-15.625000
8755		-7.812500
8756		-13.671875
8757		-5.859375
8758		-11.718750
8759		-1.953125
8760		-5.859375
8761		-1.953125
8762		-3.906250
8763		0.000000
8764		-3.906250
8765		3.906250
8766		-1.953125
8767		7.812500
8768		1.953125
8769		7.812500
8770		3.906250
8771		11.718750
8772		5.859375
8773		13.671875
8774		9.765625
8775		15.625000
8776		9.765625
8777		17.578125
8778		15.625000
8779		19.531250
8780		15.625000
8781		23.437500
8782		17.578125
8783		25.390625
8784		19.531250
8785		25.390625
8786		21.484375
8787		29.296875
8788		23.437500
8789		31.250000
8790		25.390625
8791		33.203125
8792		27.343750
8793		33.203125
8794		31.250000
8795		35.156250
8796		33.203125
8797		37.109375
8798		35.156250
8799		41.015625
8800		37.109375
8801		42.968750
8802		39.062500
8803		44.921875
8804		41.015625
8805		46.875000
8806		42.968750
8807		48.828125
8808		44.921875
8809		50.781250
8810		46.875000
8811		50.781250
8812		48.828125
8813		52.734375
8814		48.828125
8815		56.640625
8816		50.781250
8817		58.593750
8818		50.781250
8819		58.593750
8820		52.734375
8821		60.546875
8822		54.687500
8823		62.500000
8824		56.640625
8825		64.453125
8826		58.593750
8827		64.453125
8828		62.500000
8829		64.453125
8830		62.500000
8831		68.359375
8832		62.500000
8833		70.312500
8834		64.453125
8835		70.312500
8836		64.453125
8837		72.265625
8838		66.406250
8839		72.265625
8840		66.406250
8841		74.218750
8842		68.359375
8843		74.218750
8844		70.312500
8845		74.218750
8846		72.265625
8847		76.171875
8848		70.312500
8849		78.125000
8850		72.265625
8851		80.078125
8852		72.265625
8853		80.078125
8854		74.218750
8855		80.078125
8856		74.218750
8857		80.078125
8858		74.218750
8859		82.031250
8860		74.218750
8861		82.031250
8862		78.125000
8863		82.031250
8864		76.171875
8865		83.984375
8866		78.125000
8867		83.984375
8868		78.125000
8869		83.984375
8870		78.125000
8871		83.984375
8872		78.125000
8873		85.937500
8874		78.125000
8875		85.937500
8876		78.125000
8877		85.937500
8878		80.078125
8879		83.984375
8880		80.078125
8881		83.984375
8882		78.125000
8883		85.937500
8884		78.125000
8885		85.937500
8886		78.125000
8887		85.937500
8888		78.125000
8889		85.937500
8890		78.125000
8891		83.984375
8892		78.125000
8893		83.984375
8894		80.078125
8895		85.937500
8896		80.078125
8897		82.031250
8898		76.171875
8899		83.984375
8900		76.171875
8901		82.031250
8902		76.171875
8903		82.031250
8904		74.218750
8905		82.031250
8906		74.218750
8907		82.031250
8908		74.218750
8909		82.031250
8910		74.218750
8911		80.078125
8912		74.218750
8913		78.125000
8914		74.218750
8915		76.171875
8916		70.312500
8917		78.125000
8918		70.312500
8919		76.171875
8920		70.312500
8921		76.171875
8922		68.359375
8923		74.218750
8924		66.406250
8925		74.218750
8926		66.406250
8927		72.265625
8928		66.406250
8929		70.312500
8930		64.453125
8931		68.359375
8932		62.500000
8933		68.359375
8934		60.546875
8935		68.359375
8936		58.593750
8937		66.406250
8938		58.593750
8939		64.453125
8940		56.640625
8941		62.500000
8942		54.687500
8943		62.500000
8944		52.734375
8945		60.546875
8946		52.734375
8947		56.640625
8948		50.781250
8949		56.640625
8950		48.828125
8951		54.687500
8952		46.875000
8953		54.687500
8954		44.921875
8955		52.734375
8956		42.968750
8957		50.781250
8958		41.015625
8959		46.875000
8960		39.062500
8961		46.875000
8962		39.062500
8963		42.968750
8964		37.109375
8965		41.015625
8966		33.203125
8967		41.015625
8968		31.250000
8969		39.062500
8970		29.296875
8971		37.109375
8972		27.343750
8973		33.203125
8974		25.390625
8975		31.250000
8976		23.437500
8977		31.250000
8978		21.484375
8979		27.343750
8980		19.531250
8981		25.390625
8982		15.625000
8983		21.484375
8984		13.671875
8985		21.484375
8986		9.765625
8987		19.531250
8988		9.765625
8989		17.578125
8990		7.812500
8991		15.625000
8992		3.906250
8993		11.718750
8994		3.906250
8995		9.765625
8996		1.953125
8997		5.859375
8998		0.000000
8999		3.906250
9000		-3.906250
9001		3.906250
9002		-5.859375
9003		0.000000
9004		-9.765625
9005		-1.953125
9006		-11.718750
9007		-3.906250
9008		-13.671875
9009		-5.859375
9010		-17.578125
9011		-9.765625
9012		-17.578125
9013		-11.718750
9014		-19.531250
9015		-15.625000
9016		-23.437500
9017		-17.578125
9018		-25.390625
9019		-17.578125
9020		-29.296875
9021		-19.531250
9022		-31.250000
9023		-21.484375
9024		-33.203125
9025		-25.390625
9026		-35.156250
9027		-27.343750
9028		-37.109375
9029		-29.296875
9030		-37.109375
9031		-33.203125
9032		-41.015625
9033		-35.156250
9034		-44.921875
9035		-37.109375
9036		-46.875000
9037		-39.062500
9038		-48.828125
9039		-41.015625
9040		-50.781250
9041		-42.968750
9042		-52.734375
9043		-44.921875
9044		-54.687500
9045		-46.875000
9046		-54.687500
9047		-50.781250
9048		-56.640625
9049		-52.734375
9050		-60.546875
9051		-52.734375
9052		-62.500000
9053		-54.687500
9054		-64.453125
9055		-56.640625
9056		-68.359375
9057		-58.593750
9058		-68.359375
9059		-60.546875
9060		-70.312500
9061		-62.500000
9062		-70.312500
9063		-66.406250
9064		-72.265625
9065		-68.359375
9066		-76.171875
9067		-68.359375
9068		-76.171875
9069		-68.359375
9070		-78.125000
9071		-70.312500
9072		-80.078125
9073		-72.265625
9074		-80.078125
9075		-74.218750
9076		-82.031250
9077		-74.218750
9078		-83.984375
9079		-76.171875
9080		-82.031250
9081		-80.078125
9082		-83.984375
9083		-80.078125
9084		-87.890625
9085		-80.078125
9086		-87.890625
9087		-80.078125
9088		-89.843750
9089		-82.031250
9090		-89.843750
9091		-83.984375
9092		-91.796875
9093		-83.984375
9094		-91.796875
9095		-83.984375
9096		-89.843750
9097		-87.890625
9098		-91.796875
9099		-87.890625
9100		-93.750000
9101		-85.937500
9102		-93.750000
9103		-87.890625
9104		-95.703125
9105		-87.890625
9106		-93.750000
9107		-87.890625
9108		-95.703125
9109		-89.843750
9110		-95.703125
9111		-87.890625
9112		-95.703125
9113		-89.843750
9114		-93.750000
9115		-91.796875
9116		-93.750000
9117		-89.843750
9118		-97.656250
9119		-89.843750
9120		-95.703125
9121		-89.843750
9122		-95.703125
9123		-89.843750
9124		-95.703125
9125		-89.843750
9126		-95.703125
9127		-87.890625
9128		-95.703125
9129		-89.843750
9130		-93.750000
9131		-89.843750
9132		-91.796875
9133		-89.843750
9134		-93.750000
9135		-85.937500
9136		-93.750000
9137		-85.937500
9138		-91.796875
9139		-85.937500
9140		-91.796875
9141		-83.984375
9142		-89.843750
9143		-83.984375
9144		-89.843750
9145		-83.984375
9146		-87.890625
9147		-83.984375
9148		-85.937500
9149		-82.031250
9150		-87.890625
9151		-80.078125
9152		-85.937500
9153		-78.125000
9154		-85.937500
9155		-78.125000
9156		-83.984375
9157		-76.171875
9158		-82.031250
9159		-76.171875
9160		-82.031250
9161		-74.218750
9162		-78.125000
9163		-72.265625
9164		-76.171875
9165		-72.265625
9166		-74.218750
9167		-70.312500
9168		-76.171875
9169		-68.359375
9170		-72.265625
9171		-66.406250
9172		-70.312500
9173		-64.453125
9174		-70.312500
9175		-62.500000
9176		-68.359375
9177		-60.546875
9178		-68.359375
9179		-58.593750
9180		-64.453125
9181		-58.593750
9182		-60.546875
9183		-56.640625
9184		-58.593750
9185		-52.734375
9186		-58.593750
9187		-50.781250
9188		-56.640625
9189		-48.828125
9190		-54.687500
9191		-46.875000
9192		-52.734375
9193		-44.921875
9194		-50.781250
9195		-42.968750
9196		-48.828125
9197		-42.968750
9198		-44.921875
9199		-41.015625
9200		-42.968750
9201		-37.109375
9202		-41.015625
9203		-33.203125
9204		-39.062500
9205		-31.250000
9206		-37.109375
9207		-29.296875
9208		-35.156250
9209		-27.343750
9210		-33.203125
9211		-25.390625
9212		-31.250000
9213		-23.437500
9214		-25.390625
9215		-21.484375
9216		-23.437500
9217		-19.531250
9218		-23.437500
9219		-15.625000
9220		-21.484375
9221		-13.671875
9222		-19.531250
9223		-9.765625
9224		-17.578125
9225		-7.812500
9226		-13.671875
9227		-5.859375
9228		-11.718750
9229		-3.906250
9230		-9.765625
9231		-1.953125
9232		-5.859375
9233		-1.953125
9234		-3.906250
9235		1.953125
9236		-1.953125
9237		5.859375
9238		0.000000
9239		7.812500
9240		1.953125
9241		9.765625
9242		3.906250
9243		11.718750
9244		7.812500
9245		15.625000
9246		9.765625
9247		15.625000
9248		13.671875
9249		17.578125
9250		15.625000
9251		19.531250
9252		15.625000
9253		23.437500
9254		17.578125
9255		25.390625
9256		21.484375
9257		27.343750
9258		23.437500
9259		29.296875
9260		25.390625
9261		33.203125
9262		27.343750
9263		35.156250
9264		29.296875
9265		35.156250
9266		33.203125
9267		37.109375
9268		33.203125
9269		41.015625
9270		35.156250
9271		42.968750
9272		37.109375
9273		42.968750
9274		37.109375
9275		44.921875
9276		41.015625
9277		48.828125
9278		42.968750
9279		50.781250
9280		44.921875
9281		50.781250
9282		46.875000
9283		50.781250
9284		48.828125
9285		54.687500
9286		48.828125
9287		56.640625
9288		50.781250
9289		58.593750
9290		52.734375
9291		60.546875
9292		54.687500
9293		60.546875
9294		54.687500
9295		62.500000
9296		56.640625
9297		64.453125
9298		60.546875
9299		64.453125
9300		62.500000
9301		66.406250
9302		62.500000
9303		68.359375
9304		62.500000
9305		70.312500
9306		64.453125
9307		70.312500
9308		66.406250
9309		72.265625
9310		66.406250
9311		74.218750
9312		66.406250
9313		74.218750
9314		68.359375
9315		74.218750
9316		72.265625
9317		76.171875
9318		72.265625
9319		78.125000
9320		72.265625
9321		80.078125
9322		72.265625
9323		78.125000
9324		74.218750
9325		80.078125
9326		74.218750
9327		82.031250
9328		74.218750
9329		80.078125
9330		76.171875
9331		82.031250
9332		78.125000
9333		80.078125
9334		76.171875
9335		82.031250
9336		78.125000
9337		83.984375
9338		78.125000
9339		83.984375
9340		78.125000
9341		83.984375
9342		78.125000
9343		83.984375
9344		78.125000
9345		85.937500
9346		78.125000
9347		85.937500
9348		80.078125
9349		85.937500
9350		80.078125
9351		83.984375
9352		78.125000
9353		83.984375
9354		80.078125
9355		85.937500
9356		78.125000
9357		85.937500
9358		78.125000
9359		85.937500
9360		78.125000
9361		83.984375
9362		78.125000
9363		83.984375
9364		78.125000
9365		83.984375
9366		80.078125
9367		82.031250
9368		78.125000
9369		82.031250
9370		76.171875
9371		83.984375
9372		76.171875
9373		83.984375
9374		76.171875
9375		82.031250
9376		76.171875
9377		82.031250
9378		74.218750
9379		82.031250
9380		74.218750
9381		82.031250
9382		76.171875
9383		78.125000
9384		74.218750
9385		78.125000
9386		70.312500
9387		78.125000
9388		70.312500
9389		78.125000
9390		70.312500
9391		78.125000
9392		68.359375
9393		76.171875
9394		68.359375
9395		74.218750
9396		66.406250
9397		74.218750
9398		66.406250
9399		72.265625
9400		66.406250
9401		70.312500
9402		64.453125
9403		70.312500
9404		60.546875
9405		68.359375
9406		60.546875
9407		68.359375
9408		58.593750
9409		66.406250
9410		58.593750
9411		64.453125
9412		54.687500
9413		62.500000
9414		54.687500
9415		62.500000
9416		54.687500
9417		58.593750
9418		52.734375
9419		56.640625
9420		50.781250
9421		56.640625
9422		46.875000
9423		54.687500
9424		44.921875
9425		52.734375
9426		42.968750
9427		52.734375
9428		42.968750
9429		50.781250
9430		41.015625
9431		48.828125
9432		39.062500
9433		44.921875
9434		39.062500
9435		42.968750
9436		35.156250
9437		41.015625
9438		33.203125
9439		39.062500
9440		31.250000
9441		37.109375
9442		29.296875
9443		35.156250
9444		25.390625
9445		33.203125
9446		25.390625
9447		33.203125
9448		23.437500
9449		29.296875
9450		21.484375
9451		25.390625
9452		17.578125
9453		23.437500
9454		15.625000
9455		23.437500
9456		13.671875
9457		19.531250
9458		9.765625
9459		19.531250
9460		9.765625
9461		15.625000
9462		5.859375
9463		13.671875
9464		3.906250
9465		11.718750
9466		3.906250
9467		7.812500
9468		0.000000
9469		5.859375
9470		-3.906250
9471		3.906250
9472		-3.906250
9473		3.906250
9474		-7.812500
9475		0.000000
9476		-9.765625
9477		-1.953125
9478		-11.718750
9479		-3.906250
9480		-13.671875
9481		-7.812500
9482		-15.625000
9483		-9.765625
9484		-17.578125
9485		-13.671875
9486		-21.484375
9487		-15.625000
9488		-23.437500
9489		-15.625000
9490		-25.390625
9491		-17.578125
9492		-29.296875
9493		-21.484375
9494		-29.296875
9495		-23.437500
9496		-33.203125
9497		-25.390625
9498		-35.156250
9499		-27.343750
9500		-37.109375
9501		-31.250000
9502		-39.062500
9503		-33.203125
9504		-42.968750
9505		-35.156250
9506		-44.921875
9507		-37.109375
9508		-46.875000
9509		-39.062500
9510		-48.828125
9511		-41.015625
9512		-50.781250
9513		-42.968750
9514		-52.734375
9515		-44.921875
9516		-52.734375
9517		-48.828125
9518		-54.687500
9519		-50.781250
9520		-58.593750
9521		-52.734375
9522		-60.546875
9523		-52.734375
9524		-62.500000
9525		-56.640625
9526		-64.453125
9527		-56.640625
9528		-66.406250
9529		-58.593750
9530		-68.359375
9531		-60.546875
9532		-70.312500
9533		-62.500000
9534		-70.312500
9535		-66.406250
9536		-72.265625
9537		-68.359375
9538		-74.218750
9539		-68.359375
9540		-76.171875
9541		-68.359375
9542		-78.125000
9543		-72.265625
9544		-80.078125
9545		-72.265625
9546		-82.031250
9547		-74.218750
9548		-82.031250
9549		-76.171875
9550		-82.031250
9551		-78.125000
9552		-82.031250
9553		-78.125000
9554		-85.937500
9555		-80.078125
9556		-87.890625
9557		-80.078125
9558		-87.890625
9559		-82.031250
9560		-87.890625
9561		-82.031250
9562		-89.843750
9563		-82.031250
9564		-91.796875
9565		-83.984375
9566		-89.843750
9567		-85.937500
9568		-89.843750
9569		-87.890625
9570		-93.750000
9571		-85.937500
9572		-93.750000
9573		-87.890625
9574		-93.750000
9575		-87.890625
9576		-95.703125
9577		-87.890625
9578		-95.703125
9579		-89.843750
9580		-95.703125
9581		-89.843750
9582		-95.703125
9583		-87.890625
9584		-93.750000
9585		-91.796875
9586		-93.750000
9587		-91.796875
9588		-95.703125
9589		-89.843750
9590		-95.703125
9591		-89.843750
9592		-95.703125
9593		-89.843750
9594		-95.703125
9595		-87.890625
9596		-95.703125
9597		-89.843750
9598		-95.703125
9599		-87.890625
9600		-95.703125
9601		-89.843750
9602		-91.796875
9603		-89.843750
9604		-93.750000
9605		-87.890625
9606		-93.750000
9607		-87.890625
9608		-93.750000
9609		-85.937500
9610		-91.796875
9611		-85.937500
9612		-91.796875
9613		-83.984375
9614		-89.843750
9615		-83.984375
9616		-89.843750
9617		-83.984375
9618		-87.890625
9619		-83.984375
9620		-85.937500
9621		-82.031250
9622		-85.937500
9623		-80.078125
9624		-85.937500
9625		-78.125000
9626		-83.984375
9627		-78.125000
9628		-82.031250
9629		-76.171875
9630		-82.031250
9631		-76.171875
9632		-80.078125
9633		-74.218750
9634		-78.125000
9635		-74.218750
9636		-76.171875
9637		-72.265625
9638		-76.171875
9639		-68.359375
9640		-76.171875
9641		-68.359375
9642		-72.265625
9643		-66.406250
9644		-72.265625
9645		-64.453125
9646		-70.312500
9647		-62.500000
9648		-68.359375
9649		-60.546875
9650		-66.406250
9651		-60.546875
9652		-62.500000
9653		-58.593750
9654		-60.546875
9655		-54.687500
9656		-60.546875
9657		-52.734375
9658		-58.593750
9659		-52.734375
9660		-56.640625
9661		-48.828125
9662		-54.687500
9663		-46.875000
9664		-52.734375
9665		-44.921875
9666		-50.781250
9667		-42.968750
9668		-46.875000
9669		-42.968750
9670		-44.921875
9671		-39.062500
9672		-42.968750
9673		-37.109375
9674		-41.015625
9675		-35.156250
9676		-39.062500
9677		-31.250000
9678		-37.109375
9679		-29.296875
9680		-35.156250
9681		-27.343750
9682		-33.203125
9683		-25.390625
9684		-29.296875
9685		-23.437500
9686		-25.390625
9687		-21.484375
9688		-23.437500
9689		-17.578125
9690		-23.437500
9691		-15.625000
9692		-21.484375
9693		-11.718750
9694		-17.578125
9695		-9.765625
9696		-15.625000
9697		-7.812500
9698		-13.671875
9699		-5.859375
9700		-11.718750
9701		-3.906250
9702		-7.812500
9703		-1.953125
9704		-3.906250
9705		0.000000
9706		-3.906250
9707		3.906250
9708		-1.953125
9709		3.906250
9710		0.000000
9711		7.812500
9712		3.906250
9713		9.765625
9714		3.906250
9715		13.671875
9716		5.859375
9717		15.625000
9718		11.718750
9719		15.625000
9720		13.671875
9721		17.578125
9722		15.625000
9723		21.484375
9724		15.625000
9725		23.437500
9726		17.578125
9727		25.390625
9728		19.531250
9729		29.296875
9730		23.437500
9731		29.296875
9732		25.390625
9733		33.203125
9734		27.343750
9735		33.203125
9736		31.250000
9737		35.156250
9738		33.203125
9739		37.109375
9740		33.203125
9741		41.015625
9742		35.156250
9743		42.968750
9744		37.109375
9745		44.921875
9746		39.062500
9747		46.875000
9748		41.015625
9749		48.828125
9750		42.968750
9751		50.781250
9752		46.875000
9753		50.781250
9754		48.828125
9755		52.734375
9756		48.828125
9757		54.687500
9758		48.828125
9759		56.640625
9760		50.781250
9761		58.593750
9762		52.734375
9763		60.546875
9764		54.687500
9765		62.500000
9766		56.640625
9767		62.500000
9768		58.593750
9769		62.500000
9770		60.546875
9771		64.453125
9772		60.546875
9773		66.406250
9774		60.546875
9775		68.359375
9776		62.500000
9777		70.312500
9778		64.453125
9779		72.265625
9780		64.453125
9781		72.265625
9782		66.406250
9783		74.218750
9784		68.359375
9785		74.218750
9786		70.312500
9787		74.218750
9788		72.265625
9789		74.218750
9790		70.312500
9791		78.125000
9792		72.265625
9793		78.125000
9794		74.218750
9795		78.125000
9796		72.265625
9797		80.078125
9798		74.218750
9799		80.078125
9800		74.218750
9801		82.031250
9802		78.125000
9803		80.078125
9804		78.125000
9805		80.078125
9806		78.125000
9807		82.031250
9808		76.171875
9809		83.984375
9810		78.125000
9811		83.984375
9812		78.125000
9813		83.984375
9814		78.125000
9815		85.937500
9816		78.125000
9817		85.937500
9818		78.125000
9819		85.937500
9820		80.078125
9821		83.984375
9822		80.078125
9823		83.984375
9824		78.125000
9825		85.937500
9826		78.125000
9827		85.937500
9828		78.125000
9829		85.937500
9830		78.125000
9831		85.937500
9832		80.078125
9833		85.937500
9834		78.125000
9835		85.937500
9836		80.078125
9837		83.984375
9838		80.078125
9839		82.031250
9840		78.125000
9841		83.984375
9842		76.171875
9843		83.984375
9844		76.171875
9845		83.984375
9846		76.171875
9847		82.031250
9848		76.171875
9849		83.984375
9850		74.218750
9851		82.031250
9852		76.171875
9853		80.078125
9854		76.171875
9855		78.125000
9856		72.265625
9857		78.125000
9858		70.312500
9859		78.125000
9860		70.312500
9861		78.125000
9862		68.359375
9863		76.171875
9864		68.359375
9865		76.171875
9866		68.359375
9867		74.218750
9868		66.406250
9869		74.218750
9870		68.359375
9871		70.312500
9872		66.406250
9873		70.312500
9874		62.500000
9875		70.312500
9876		62.500000
9877		68.359375
9878		60.546875
9879		66.406250
9880		58.593750
9881		64.453125
9882		56.640625
9883		64.453125
9884		54.687500
9885		62.500000
9886		56.640625
9887		60.546875
9888		54.687500
9889		58.593750
9890		50.781250
9891		56.640625
9892		48.828125
9893		56.640625
9894		46.875000
9895		54.687500
9896		44.921875
9897		52.734375
9898		44.921875
9899		50.781250
9900		41.015625
9901		48.828125
9902		41.015625
9903		46.875000
9904		39.062500
9905		44.921875
9906		39.062500
9907		42.968750
9908		35.156250
9909		42.968750
9910		33.203125
9911		39.062500
9912		31.250000
9913		37.109375
9914		27.343750
9915		35.156250
9916		25.390625
9917		33.203125
9918		25.390625
9919		31.250000
9920		23.437500
9921		27.343750
9922		21.484375
9923		25.390625
9924		17.578125
9925		23.437500
9926		15.625000
9927		23.437500
9928		13.671875
9929		19.531250
9930		9.765625
9931		17.578125
9932		7.812500
9933		15.625000
9934		5.859375
9935		13.671875
9936		5.859375
9937		11.718750
9938		3.906250
9939		7.812500
9940		0.000000
9941		5.859375
9942		-3.906250
9943		3.906250
9944		-5.859375
9945		1.953125
9946		-7.812500
9947		0.000000
9948		-9.765625
9949		-1.953125
9950		-13.671875
9951		-5.859375
9952		-13.671875
9953		-7.812500
9954		-15.625000
9955		-11.718750
9956		-17.578125
9957		-13.671875
9958		-21.484375
9959		-15.625000
9960		-23.437500
9961		-17.578125
9962		-27.343750
9963		-19.531250
9964		-29.296875
9965		-21.484375
9966		-31.250000
9967		-23.437500
9968		-33.203125
9969		-25.390625
9970		-35.156250
9971		-29.296875
9972		-37.109375
9973		-31.250000
9974		-41.015625
9975		-35.156250
9976		-42.968750
9977		-35.156250
9978		-44.921875
9979		-37.109375
9980		-46.875000
9981		-39.062500
9982		-50.781250
9983		-41.015625
9984		-50.781250
9985		-42.968750
9986		-52.734375
9987		-46.875000
9988		-54.687500
9989		-48.828125
9990		-56.640625
9991		-52.734375
9992		-58.593750
9993		-52.734375
9994		-62.500000
9995		-54.687500
9996		-62.500000
9997		-56.640625
9998		-64.453125
9999		-58.593750
10000		-66.406250
