Channel              :		CH1
Frequency            :		1.060kHz
Period               :		0.944ms
PK-PK                :		210.9mV
Probe attenuation    :		1X
Voltage per ADC value:		0.122070mV
Time interval        :		2.00000us

index		CH1_Voltage(mV)
1		42.968750
2		42.968750
3		46.875000
4		41.015625
5		44.921875
6		37.109375
7		42.968750
8		35.156250
9		39.062500
10		33.203125
11		37.109375
12		31.250000
13		35.156250
14		29.296875
15		33.203125
16		25.390625
17		31.250000
18		23.437500
19		27.343750
20		19.531250
21		25.390625
22		19.531250
23		23.437500
24		15.625000
25		19.531250
26		13.671875
27		17.578125
28		9.765625
29		15.625000
30		7.812500
31		11.718750
32		5.859375
33		9.765625
34		1.953125
35		5.859375
36		0.000000
37		3.906250
38		-1.953125
39		3.906250
40		-5.859375
41		-1.953125
42		-7.812500
43		-3.906250
44		-9.765625
45		-5.859375
46		-13.671875
47		-9.765625
48		-17.578125
49		-11.718750
50		-17.578125
51		-11.718750
52		-21.484375
53		-17.578125
54		-23.437500
55		-19.531250
56		-25.390625
57		-21.484375
58		-29.296875
59		-25.390625
60		-31.250000
61		-27.343750
62		-33.203125
63		-29.296875
64		-37.109375
65		-31.250000
66		-39.062500
67		-35.156250
68		-41.015625
69		-37.109375
70		-44.921875
71		-39.062500
72		-46.875000
73		-41.015625
74		-48.828125
75		-44.921875
76		-50.781250
77		-46.875000
78		-52.734375
79		-48.828125
80		-56.640625
81		-50.781250
82		-58.593750
83		-52.734375
84		-60.546875
85		-56.640625
86		-62.500000
87		-58.593750
88		-64.453125
89		-58.593750
90		-66.406250
91		-62.500000
92		-68.359375
93		-64.453125
94		-70.312500
95		-64.453125
96		-72.265625
97		-68.359375
98		-74.218750
99		-70.312500
100		-76.171875
101		-72.265625
102		-78.125000
103		-74.218750
104		-80.078125
105		-76.171875
106		-82.031250
107		-78.125000
108		-82.031250
109		-78.125000
110		-83.984375
111		-80.078125
112		-85.937500
113		-82.031250
114		-87.890625
115		-83.984375
116		-89.843750
117		-83.984375
118		-89.843750
119		-85.937500
120		-89.843750
121		-87.890625
122		-91.796875
123		-87.890625
124		-93.750000
125		-89.843750
126		-93.750000
127		-89.843750
128		-95.703125
129		-91.796875
130		-95.703125
131		-91.796875
132		-95.703125
133		-93.750000
134		-97.656250
135		-93.750000
136		-97.656250
137		-95.703125
138		-99.609375
139		-95.703125
140		-99.609375
141		-93.750000
142		-99.609375
143		-95.703125
144		-99.609375
145		-95.703125
146		-99.609375
147		-95.703125
148		-99.609375
149		-95.703125
150		-99.609375
151		-95.703125
152		-99.609375
153		-97.656250
154		-99.609375
155		-95.703125
156		-99.609375
157		-95.703125
158		-99.609375
159		-95.703125
160		-97.656250
161		-95.703125
162		-97.656250
163		-93.750000
164		-97.656250
165		-93.750000
166		-97.656250
167		-93.750000
168		-95.703125
169		-93.750000
170		-95.703125
171		-91.796875
172		-95.703125
173		-91.796875
174		-93.750000
175		-89.843750
176		-93.750000
177		-89.843750
178		-91.796875
179		-89.843750
180		-91.796875
181		-87.890625
182		-89.843750
183		-85.937500
184		-89.843750
185		-85.937500
186		-87.890625
187		-83.984375
188		-85.937500
189		-82.031250
190		-83.984375
191		-80.078125
192		-83.984375
193		-78.125000
194		-82.031250
195		-78.125000
196		-80.078125
197		-76.171875
198		-78.125000
199		-74.218750
200		-76.171875
201		-72.265625
202		-74.218750
203		-72.265625
204		-72.265625
205		-70.312500
206		-72.265625
207		-68.359375
208		-70.312500
209		-64.453125
210		-66.406250
211		-62.500000
212		-64.453125
213		-60.546875
214		-62.500000
215		-58.593750
216		-62.500000
217		-56.640625
218		-58.593750
219		-54.687500
220		-56.640625
221		-52.734375
222		-54.687500
223		-48.828125
224		-50.781250
225		-46.875000
226		-48.828125
227		-44.921875
228		-46.875000
229		-42.968750
230		-44.921875
231		-41.015625
232		-41.015625
233		-37.109375
234		-39.062500
235		-35.156250
236		-37.109375
237		-33.203125
238		-35.156250
239		-29.296875
240		-33.203125
241		-27.343750
242		-29.296875
243		-23.437500
244		-27.343750
245		-23.437500
246		-25.390625
247		-19.531250
248		-21.484375
249		-17.578125
250		-19.531250
251		-13.671875
252		-15.625000
253		-11.718750
254		-13.671875
255		-9.765625
256		-11.718750
257		-5.859375
258		-9.765625
259		-3.906250
260		-5.859375
261		0.000000
262		-3.906250
263		1.953125
264		0.000000
265		3.906250
266		1.953125
267		5.859375
268		3.906250
269		9.765625
270		7.812500
271		11.718750
272		9.765625
273		13.671875
274		11.718750
275		17.578125
276		13.671875
277		21.484375
278		17.578125
279		21.484375
280		19.531250
281		25.390625
282		23.437500
283		27.343750
284		25.390625
285		31.250000
286		27.343750
287		31.250000
288		31.250000
289		35.156250
290		31.250000
291		37.109375
292		35.156250
293		39.062500
294		37.109375
295		41.015625
296		41.015625
297		44.921875
298		41.015625
299		44.921875
300		44.921875
301		48.828125
302		46.875000
303		50.781250
304		48.828125
305		52.734375
306		50.781250
307		54.687500
308		52.734375
309		56.640625
310		54.687500
311		58.593750
312		56.640625
313		60.546875
314		58.593750
315		62.500000
316		60.546875
317		64.453125
318		62.500000
319		66.406250
320		64.453125
321		68.359375
322		66.406250
323		72.265625
324		66.406250
325		72.265625
326		70.312500
327		74.218750
328		72.265625
329		74.218750
330		74.218750
331		76.171875
332		74.218750
333		78.125000
334		76.171875
335		80.078125
336		78.125000
337		80.078125
338		80.078125
339		82.031250
340		80.078125
341		83.984375
342		82.031250
343		85.937500
344		82.031250
345		87.890625
346		83.984375
347		87.890625
348		83.984375
349		89.843750
350		85.937500
351		89.843750
352		85.937500
353		91.796875
354		87.890625
355		91.796875
356		87.890625
357		93.750000
358		89.843750
359		93.750000
360		91.796875
361		93.750000
362		91.796875
363		93.750000
364		93.750000
365		95.703125
366		93.750000
367		95.703125
368		93.750000
369		97.656250
370		93.750000
371		97.656250
372		95.703125
373		97.656250
374		93.750000
375		97.656250
376		95.703125
377		99.609375
378		95.703125
379		99.609375
380		95.703125
381		99.609375
382		95.703125
383		99.609375
384		95.703125
385		99.609375
386		95.703125
387		99.609375
388		95.703125
389		99.609375
390		95.703125
391		99.609375
392		95.703125
393		99.609375
394		95.703125
395		99.609375
396		95.703125
397		99.609375
398		95.703125
399		99.609375
400		95.703125
401		97.656250
402		93.750000
403		97.656250
404		93.750000
405		97.656250
406		93.750000
407		95.703125
408		93.750000
409		95.703125
410		91.796875
411		95.703125
412		91.796875
413		95.703125
414		89.843750
415		93.750000
416		89.843750
417		93.750000
418		87.890625
419		91.796875
420		87.890625
421		91.796875
422		85.937500
423		89.843750
424		85.937500
425		89.843750
426		83.984375
427		89.843750
428		83.984375
429		87.890625
430		82.031250
431		85.937500
432		82.031250
433		85.937500
434		80.078125
435		83.984375
436		78.125000
437		82.031250
438		78.125000
439		80.078125
440		74.218750
441		80.078125
442		74.218750
443		78.125000
444		72.265625
445		76.171875
446		70.312500
447		74.218750
448		68.359375
449		72.265625
450		68.359375
451		70.312500
452		64.453125
453		70.312500
454		64.453125
455		66.406250
456		62.500000
457		64.453125
458		58.593750
459		64.453125
460		58.593750
461		62.500000
462		56.640625
463		60.546875
464		52.734375
465		56.640625
466		50.781250
467		54.687500
468		48.828125
469		52.734375
470		46.875000
471		52.734375
472		44.921875
473		48.828125
474		42.968750
475		46.875000
476		41.015625
477		44.921875
478		37.109375
479		42.968750
480		35.156250
481		39.062500
482		33.203125
483		37.109375
484		29.296875
485		35.156250
486		27.343750
487		33.203125
488		25.390625
489		29.296875
490		23.437500
491		27.343750
492		21.484375
493		25.390625
494		17.578125
495		23.437500
496		15.625000
497		19.531250
498		11.718750
499		17.578125
500		9.765625
501		13.671875
502		7.812500
503		11.718750
504		5.859375
505		9.765625
506		1.953125
507		7.812500
508		0.000000
509		3.906250
510		-3.906250
511		1.953125
512		-5.859375
513		-1.953125
514		-7.812500
515		-3.906250
516		-9.765625
517		-5.859375
518		-13.671875
519		-7.812500
520		-15.625000
521		-11.718750
522		-19.531250
523		-15.625000
524		-23.437500
525		-17.578125
526		-25.390625
527		-19.531250
528		-27.343750
529		-21.484375
530		-29.296875
531		-25.390625
532		-33.203125
533		-27.343750
534		-35.156250
535		-29.296875
536		-37.109375
537		-33.203125
538		-39.062500
539		-35.156250
540		-41.015625
541		-37.109375
542		-44.921875
543		-39.062500
544		-46.875000
545		-42.968750
546		-48.828125
547		-44.921875
548		-50.781250
549		-46.875000
550		-54.687500
551		-48.828125
552		-56.640625
553		-52.734375
554		-58.593750
555		-52.734375
556		-60.546875
557		-56.640625
558		-62.500000
559		-58.593750
560		-66.406250
561		-60.546875
562		-66.406250
563		-62.500000
564		-68.359375
565		-64.453125
566		-72.265625
567		-66.406250
568		-74.218750
569		-68.359375
570		-74.218750
571		-70.312500
572		-76.171875
573		-72.265625
574		-78.125000
575		-74.218750
576		-80.078125
577		-76.171875
578		-82.031250
579		-78.125000
580		-83.984375
581		-80.078125
582		-85.937500
583		-82.031250
584		-85.937500
585		-83.984375
586		-87.890625
587		-83.984375
588		-87.890625
589		-83.984375
590		-89.843750
591		-87.890625
592		-91.796875
593		-87.890625
594		-93.750000
595		-89.843750
596		-93.750000
597		-89.843750
598		-95.703125
599		-89.843750
600		-95.703125
601		-91.796875
602		-95.703125
603		-93.750000
604		-97.656250
605		-93.750000
606		-97.656250
607		-95.703125
608		-97.656250
609		-95.703125
610		-99.609375
611		-95.703125
612		-99.609375
613		-95.703125
614		-99.609375
615		-95.703125
616		-101.562500
617		-97.656250
618		-101.562500
619		-97.656250
620		-101.562500
621		-97.656250
622		-99.609375
623		-97.656250
624		-99.609375
625		-97.656250
626		-101.562500
627		-97.656250
628		-101.562500
629		-97.656250
630		-99.609375
631		-97.656250
632		-99.609375
633		-97.656250
634		-99.609375
635		-95.703125
636		-99.609375
637		-95.703125
638		-97.656250
639		-95.703125
640		-97.656250
641		-95.703125
642		-97.656250
643		-91.796875
644		-95.703125
645		-93.750000
646		-95.703125
647		-91.796875
648		-93.750000
649		-91.796875
650		-93.750000
651		-89.843750
652		-91.796875
653		-89.843750
654		-91.796875
655		-87.890625
656		-89.843750
657		-87.890625
658		-89.843750
659		-85.937500
660		-87.890625
661		-83.984375
662		-85.937500
663		-82.031250
664		-83.984375
665		-80.078125
666		-83.984375
667		-80.078125
668		-82.031250
669		-78.125000
670		-80.078125
671		-76.171875
672		-80.078125
673		-74.218750
674		-76.171875
675		-72.265625
676		-74.218750
677		-70.312500
678		-72.265625
679		-68.359375
680		-70.312500
681		-66.406250
682		-68.359375
683		-64.453125
684		-66.406250
685		-62.500000
686		-66.406250
687		-60.546875
688		-62.500000
689		-58.593750
690		-60.546875
691		-56.640625
692		-58.593750
693		-52.734375
694		-54.687500
695		-50.781250
696		-54.687500
697		-46.875000
698		-52.734375
699		-46.875000
700		-50.781250
701		-42.968750
702		-46.875000
703		-41.015625
704		-42.968750
705		-39.062500
706		-41.015625
707		-37.109375
708		-39.062500
709		-35.156250
710		-37.109375
711		-31.250000
712		-35.156250
713		-29.296875
714		-33.203125
715		-25.390625
716		-29.296875
717		-25.390625
718		-29.296875
719		-19.531250
720		-23.437500
721		-19.531250
722		-21.484375
723		-15.625000
724		-17.578125
725		-13.671875
726		-15.625000
727		-9.765625
728		-13.671875
729		-5.859375
730		-11.718750
731		-3.906250
732		-9.765625
733		-1.953125
734		-5.859375
735		1.953125
736		-1.953125
737		1.953125
738		0.000000
739		5.859375
740		3.906250
741		7.812500
742		5.859375
743		9.765625
744		7.812500
745		15.625000
746		7.812500
747		17.578125
748		11.718750
749		19.531250
750		13.671875
751		23.437500
752		17.578125
753		23.437500
754		21.484375
755		25.390625
756		21.484375
757		27.343750
758		25.390625
759		29.296875
760		27.343750
761		33.203125
762		29.296875
763		35.156250
764		33.203125
765		39.062500
766		35.156250
767		41.015625
768		37.109375
769		42.968750
770		41.015625
771		44.921875
772		41.015625
773		46.875000
774		44.921875
775		48.828125
776		46.875000
777		52.734375
778		46.875000
779		54.687500
780		50.781250
781		56.640625
782		50.781250
783		58.593750
784		52.734375
785		60.546875
786		54.687500
787		62.500000
788		58.593750
789		64.453125
790		62.500000
791		64.453125
792		64.453125
793		66.406250
794		62.500000
795		72.265625
796		64.453125
797		72.265625
798		66.406250
799		74.218750
800		68.359375
801		76.171875
802		70.312500
803		78.125000
804		72.265625
805		80.078125
806		72.265625
807		78.125000
808		76.171875
809		80.078125
810		78.125000
811		83.984375
812		76.171875
813		83.984375
814		78.125000
815		85.937500
816		80.078125
817		87.890625
818		82.031250
819		87.890625
820		82.031250
821		89.843750
822		82.031250
823		89.843750
824		85.937500
825		89.843750
826		87.890625
827		89.843750
828		85.937500
829		93.750000
830		85.937500
831		95.703125
832		87.890625
833		95.703125
834		87.890625
835		95.703125
836		89.843750
837		95.703125
838		89.843750
839		97.656250
840		91.796875
841		95.703125
842		93.750000
843		95.703125
844		91.796875
845		97.656250
846		91.796875
847		99.609375
848		91.796875
849		99.609375
850		91.796875
851		99.609375
852		93.750000
853		101.562500
854		93.750000
855		101.562500
856		93.750000
857		101.562500
858		95.703125
859		97.656250
860		95.703125
861		99.609375
862		93.750000
863		101.562500
864		93.750000
865		101.562500
866		93.750000
867		101.562500
868		93.750000
869		99.609375
870		91.796875
871		99.609375
872		91.796875
873		99.609375
874		95.703125
875		97.656250
876		93.750000
877		95.703125
878		91.796875
879		99.609375
880		89.843750
881		97.656250
882		89.843750
883		97.656250
884		89.843750
885		97.656250
886		87.890625
887		95.703125
888		87.890625
889		95.703125
890		87.890625
891		93.750000
892		87.890625
893		91.796875
894		83.984375
895		91.796875
896		83.984375
897		91.796875
898		82.031250
899		89.843750
900		82.031250
901		89.843750
902		80.078125
903		87.890625
904		78.125000
905		85.937500
906		78.125000
907		85.937500
908		78.125000
909		82.031250
910		78.125000
911		80.078125
912		72.265625
913		82.031250
914		70.312500
915		80.078125
916		70.312500
917		78.125000
918		68.359375
919		76.171875
920		66.406250
921		74.218750
922		66.406250
923		72.265625
924		66.406250
925		70.312500
926		64.453125
927		66.406250
928		60.546875
929		66.406250
930		56.640625
931		66.406250
932		54.687500
933		64.453125
934		52.734375
935		60.546875
936		50.781250
937		60.546875
938		48.828125
939		56.640625
940		46.875000
941		54.687500
942		46.875000
943		50.781250
944		44.921875
945		48.828125
946		39.062500
947		48.828125
948		37.109375
949		46.875000
950		35.156250
951		42.968750
952		33.203125
953		41.015625
954		31.250000
955		39.062500
956		29.296875
957		37.109375
958		29.296875
959		33.203125
960		25.390625
961		29.296875
962		21.484375
963		29.296875
964		19.531250
965		27.343750
966		15.625000
967		25.390625
968		13.671875
969		21.484375
970		9.765625
971		19.531250
972		9.765625
973		15.625000
974		7.812500
975		15.625000
976		5.859375
977		9.765625
978		0.000000
979		7.812500
980		-1.953125
981		5.859375
982		-5.859375
983		3.906250
984		-7.812500
985		1.953125
986		-9.765625
987		-1.953125
988		-11.718750
989		-3.906250
990		-15.625000
991		-5.859375
992		-15.625000
993		-11.718750
994		-19.531250
995		-13.671875
996		-23.437500
997		-13.671875
998		-25.390625
999		-15.625000
1000		-29.296875
1001		-19.531250
1002		-31.250000
1003		-23.437500
1004		-33.203125
1005		-25.390625
1006		-37.109375
1007		-29.296875
1008		-37.109375
1009		-33.203125
1010		-39.062500
1011		-35.156250
1012		-44.921875
1013		-37.109375
1014		-46.875000
1015		-37.109375
1016		-48.828125
1017		-41.015625
1018		-50.781250
1019		-42.968750
1020		-54.687500
1021		-44.921875
1022		-56.640625
1023		-46.875000
1024		-56.640625
1025		-50.781250
1026		-58.593750
1027		-54.687500
1028		-60.546875
1029		-56.640625
1030		-66.406250
1031		-56.640625
1032		-66.406250
1033		-58.593750
1034		-68.359375
1035		-60.546875
1036		-70.312500
1037		-62.500000
1038		-74.218750
1039		-64.453125
1040		-74.218750
1041		-68.359375
1042		-74.218750
1043		-70.312500
1044		-76.171875
1045		-72.265625
1046		-82.031250
1047		-72.265625
1048		-82.031250
1049		-74.218750
1050		-83.984375
1051		-76.171875
1052		-85.937500
1053		-78.125000
1054		-87.890625
1055		-80.078125
1056		-87.890625
1057		-80.078125
1058		-89.843750
1059		-82.031250
1060		-89.843750
1061		-85.937500
1062		-91.796875
1063		-85.937500
1064		-93.750000
1065		-85.937500
1066		-95.703125
1067		-87.890625
1068		-95.703125
1069		-87.890625
1070		-97.656250
1071		-89.843750
1072		-97.656250
1073		-89.843750
1074		-99.609375
1075		-91.796875
1076		-97.656250
1077		-93.750000
1078		-97.656250
1079		-95.703125
1080		-101.562500
1081		-93.750000
1082		-101.562500
1083		-93.750000
1084		-103.515625
1085		-93.750000
1086		-103.515625
1087		-95.703125
1088		-103.515625
1089		-95.703125
1090		-103.515625
1091		-95.703125
1092		-101.562500
1093		-97.656250
1094		-101.562500
1095		-99.609375
1096		-103.515625
1097		-95.703125
1098		-103.515625
1099		-95.703125
1100		-103.515625
1101		-95.703125
1102		-103.515625
1103		-95.703125
1104		-103.515625
1105		-95.703125
1106		-103.515625
1107		-93.750000
1108		-103.515625
1109		-95.703125
1110		-99.609375
1111		-95.703125
1112		-97.656250
1113		-95.703125
1114		-99.609375
1115		-93.750000
1116		-99.609375
1117		-91.796875
1118		-99.609375
1119		-91.796875
1120		-97.656250
1121		-89.843750
1122		-97.656250
1123		-89.843750
1124		-95.703125
1125		-87.890625
1126		-93.750000
1127		-89.843750
1128		-91.796875
1129		-87.890625
1130		-91.796875
1131		-83.984375
1132		-89.843750
1133		-83.984375
1134		-89.843750
1135		-82.031250
1136		-89.843750
1137		-80.078125
1138		-87.890625
1139		-78.125000
1140		-85.937500
1141		-78.125000
1142		-83.984375
1143		-76.171875
1144		-80.078125
1145		-76.171875
1146		-80.078125
1147		-72.265625
1148		-78.125000
1149		-70.312500
1150		-76.171875
1151		-68.359375
1152		-74.218750
1153		-66.406250
1154		-72.265625
1155		-62.500000
1156		-70.312500
1157		-62.500000
1158		-68.359375
1159		-60.546875
1160		-64.453125
1161		-60.546875
1162		-60.546875
1163		-58.593750
1164		-60.546875
1165		-52.734375
1166		-60.546875
1167		-50.781250
1168		-56.640625
1169		-48.828125
1170		-54.687500
1171		-46.875000
1172		-52.734375
1173		-44.921875
1174		-50.781250
1175		-41.015625
1176		-46.875000
1177		-41.015625
1178		-42.968750
1179		-39.062500
1180		-41.015625
1181		-35.156250
1182		-41.015625
1183		-31.250000
1184		-37.109375
1185		-27.343750
1186		-35.156250
1187		-25.390625
1188		-31.250000
1189		-23.437500
1190		-29.296875
1191		-19.531250
1192		-27.343750
1193		-19.531250
1194		-21.484375
1195		-17.578125
1196		-19.531250
1197		-15.625000
1198		-19.531250
1199		-9.765625
1200		-15.625000
1201		-7.812500
1202		-13.671875
1203		-5.859375
1204		-11.718750
1205		-1.953125
1206		-7.812500
1207		0.000000
1208		-5.859375
1209		1.953125
1210		-1.953125
1211		3.906250
1212		1.953125
1213		5.859375
1214		1.953125
1215		11.718750
1216		3.906250
1217		13.671875
1218		7.812500
1219		15.625000
1220		9.765625
1221		17.578125
1222		11.718750
1223		21.484375
1224		13.671875
1225		23.437500
1226		19.531250
1227		23.437500
1228		21.484375
1229		25.390625
1230		25.390625
1231		31.250000
1232		23.437500
1233		33.203125
1234		27.343750
1235		37.109375
1236		29.296875
1237		39.062500
1238		31.250000
1239		39.062500
1240		35.156250
1241		42.968750
1242		37.109375
1243		44.921875
1244		41.015625
1245		44.921875
1246		44.921875
1247		46.875000
1248		44.921875
1249		50.781250
1250		44.921875
1251		54.687500
1252		48.828125
1253		56.640625
1254		50.781250
1255		58.593750
1256		50.781250
1257		60.546875
1258		54.687500
1259		62.500000
1260		56.640625
1261		62.500000
1262		60.546875
1263		64.453125
1264		62.500000
1265		68.359375
1266		60.546875
1267		70.312500
1268		64.453125
1269		72.265625
1270		66.406250
1271		74.218750
1272		66.406250
1273		74.218750
1274		68.359375
1275		76.171875
1276		70.312500
1277		78.125000
1278		74.218750
1279		78.125000
1280		76.171875
1281		80.078125
1282		74.218750
1283		82.031250
1284		76.171875
1285		83.984375
1286		76.171875
1287		85.937500
1288		80.078125
1289		87.890625
1290		80.078125
1291		87.890625
1292		82.031250
1293		89.843750
1294		83.984375
1295		87.890625
1296		85.937500
1297		87.890625
1298		83.984375
1299		91.796875
1300		85.937500
1301		93.750000
1302		85.937500
1303		93.750000
1304		87.890625
1305		93.750000
1306		87.890625
1307		95.703125
1308		87.890625
1309		97.656250
1310		89.843750
1311		97.656250
1312		93.750000
1313		95.703125
1314		91.796875
1315		97.656250
1316		91.796875
1317		99.609375
1318		91.796875
1319		99.609375
1320		91.796875
1321		99.609375
1322		91.796875
1323		99.609375
1324		91.796875
1325		99.609375
1326		91.796875
1327		101.562500
1328		95.703125
1329		97.656250
1330		95.703125
1331		97.656250
1332		93.750000
1333		99.609375
1334		91.796875
1335		99.609375
1336		93.750000
1337		99.609375
1338		91.796875
1339		99.609375
1340		91.796875
1341		99.609375
1342		93.750000
1343		99.609375
1344		93.750000
1345		99.609375
1346		93.750000
1347		95.703125
1348		91.796875
1349		97.656250
1350		89.843750
1351		97.656250
1352		89.843750
1353		97.656250
1354		89.843750
1355		97.656250
1356		87.890625
1357		95.703125
1358		87.890625
1359		95.703125
1360		87.890625
1361		93.750000
1362		87.890625
1363		91.796875
1364		87.890625
1365		89.843750
1366		83.984375
1367		91.796875
1368		83.984375
1369		91.796875
1370		82.031250
1371		89.843750
1372		80.078125
1373		87.890625
1374		80.078125
1375		87.890625
1376		78.125000
1377		85.937500
1378		80.078125
1379		83.984375
1380		78.125000
1381		82.031250
1382		74.218750
1383		82.031250
1384		72.265625
1385		82.031250
1386		70.312500
1387		82.031250
1388		70.312500
1389		78.125000
1390		68.359375
1391		76.171875
1392		66.406250
1393		74.218750
1394		66.406250
1395		74.218750
1396		66.406250
1397		68.359375
1398		62.500000
1399		66.406250
1400		58.593750
1401		68.359375
1402		56.640625
1403		66.406250
1404		54.687500
1405		64.453125
1406		52.734375
1407		62.500000
1408		50.781250
1409		60.546875
1410		50.781250
1411		56.640625
1412		48.828125
1413		52.734375
1414		46.875000
1415		50.781250
1416		42.968750
1417		50.781250
1418		41.015625
1419		48.828125
1420		39.062500
1421		46.875000
1422		35.156250
1423		44.921875
1424		33.203125
1425		42.968750
1426		31.250000
1427		39.062500
1428		31.250000
1429		37.109375
1430		29.296875
1431		33.203125
1432		23.437500
1433		31.250000
1434		21.484375
1435		29.296875
1436		19.531250
1437		27.343750
1438		15.625000
1439		25.390625
1440		13.671875
1441		23.437500
1442		9.765625
1443		19.531250
1444		9.765625
1445		17.578125
1446		7.812500
1447		11.718750
1448		5.859375
1449		9.765625
1450		0.000000
1451		9.765625
1452		-1.953125
1453		5.859375
1454		-5.859375
1455		3.906250
1456		-5.859375
1457		1.953125
1458		-9.765625
1459		-1.953125
1460		-11.718750
1461		-3.906250
1462		-11.718750
1463		-7.812500
1464		-15.625000
1465		-11.718750
1466		-21.484375
1467		-11.718750
1468		-23.437500
1469		-13.671875
1470		-25.390625
1471		-17.578125
1472		-29.296875
1473		-19.531250
1474		-31.250000
1475		-23.437500
1476		-33.203125
1477		-25.390625
1478		-35.156250
1479		-27.343750
1480		-37.109375
1481		-33.203125
1482		-41.015625
1483		-35.156250
1484		-42.968750
1485		-35.156250
1486		-46.875000
1487		-37.109375
1488		-48.828125
1489		-41.015625
1490		-50.781250
1491		-42.968750
1492		-52.734375
1493		-44.921875
1494		-54.687500
1495		-48.828125
1496		-56.640625
1497		-52.734375
1498		-58.593750
1499		-54.687500
1500		-62.500000
1501		-54.687500
1502		-64.453125
1503		-56.640625
1504		-66.406250
1505		-58.593750
1506		-70.312500
1507		-60.546875
1508		-72.265625
1509		-62.500000
1510		-74.218750
1511		-64.453125
1512		-74.218750
1513		-68.359375
1514		-74.218750
1515		-72.265625
1516		-80.078125
1517		-72.265625
1518		-80.078125
1519		-72.265625
1520		-82.031250
1521		-74.218750
1522		-83.984375
1523		-76.171875
1524		-85.937500
1525		-78.125000
1526		-87.890625
1527		-78.125000
1528		-87.890625
1529		-80.078125
1530		-87.890625
1531		-83.984375
1532		-89.843750
1533		-85.937500
1534		-93.750000
1535		-85.937500
1536		-93.750000
1537		-85.937500
1538		-95.703125
1539		-87.890625
1540		-95.703125
1541		-87.890625
1542		-97.656250
1543		-89.843750
1544		-99.609375
1545		-89.843750
1546		-97.656250
1547		-93.750000
1548		-97.656250
1549		-95.703125
1550		-101.562500
1551		-93.750000
1552		-101.562500
1553		-93.750000
1554		-103.515625
1555		-93.750000
1556		-101.562500
1557		-95.703125
1558		-103.515625
1559		-95.703125
1560		-103.515625
1561		-95.703125
1562		-103.515625
1563		-95.703125
1564		-101.562500
1565		-99.609375
1566		-101.562500
1567		-99.609375
1568		-105.468750
1569		-97.656250
1570		-103.515625
1571		-95.703125
1572		-103.515625
1573		-95.703125
1574		-103.515625
1575		-95.703125
1576		-103.515625
1577		-95.703125
1578		-103.515625
1579		-95.703125
1580		-99.609375
1581		-97.656250
1582		-99.609375
1583		-97.656250
1584		-101.562500
1585		-93.750000
1586		-101.562500
1587		-93.750000
1588		-99.609375
1589		-91.796875
1590		-99.609375
1591		-91.796875
1592		-99.609375
1593		-91.796875
1594		-97.656250
1595		-89.843750
1596		-95.703125
1597		-89.843750
1598		-93.750000
1599		-89.843750
1600		-91.796875
1601		-87.890625
1602		-91.796875
1603		-85.937500
1604		-91.796875
1605		-85.937500
1606		-89.843750
1607		-83.984375
1608		-87.890625
1609		-82.031250
1610		-85.937500
1611		-80.078125
1612		-85.937500
1613		-78.125000
1614		-82.031250
1615		-78.125000
1616		-80.078125
1617		-76.171875
1618		-80.078125
1619		-72.265625
1620		-80.078125
1621		-70.312500
1622		-78.125000
1623		-68.359375
1624		-76.171875
1625		-68.359375
1626		-74.218750
1627		-64.453125
1628		-72.265625
1629		-62.500000
1630		-66.406250
1631		-62.500000
1632		-64.453125
1633		-60.546875
1634		-64.453125
1635		-56.640625
1636		-62.500000
1637		-54.687500
1638		-60.546875
1639		-52.734375
1640		-58.593750
1641		-50.781250
1642		-56.640625
1643		-46.875000
1644		-52.734375
1645		-44.921875
1646		-50.781250
1647		-44.921875
1648		-46.875000
1649		-42.968750
1650		-42.968750
1651		-39.062500
1652		-44.921875
1653		-35.156250
1654		-41.015625
1655		-33.203125
1656		-39.062500
1657		-31.250000
1658		-37.109375
1659		-27.343750
1660		-33.203125
1661		-23.437500
1662		-31.250000
1663		-21.484375
1664		-27.343750
1665		-21.484375
1666		-23.437500
1667		-19.531250
1668		-21.484375
1669		-13.671875
1670		-19.531250
1671		-11.718750
1672		-17.578125
1673		-7.812500
1674		-15.625000
1675		-5.859375
1676		-11.718750
1677		-3.906250
1678		-9.765625
1679		-1.953125
1680		-7.812500
1681		0.000000
1682		-1.953125
1683		1.953125
1684		0.000000
1685		7.812500
1686		0.000000
1687		9.765625
1688		3.906250
1689		11.718750
1690		5.859375
1691		15.625000
1692		9.765625
1693		17.578125
1694		11.718750
1695		19.531250
1696		13.671875
1697		21.484375
1698		19.531250
1699		23.437500
1700		21.484375
1701		25.390625
1702		21.484375
1703		29.296875
1704		23.437500
1705		33.203125
1706		27.343750
1707		35.156250
1708		29.296875
1709		37.109375
1710		31.250000
1711		39.062500
1712		33.203125
1713		42.968750
1714		37.109375
1715		42.968750
1716		41.015625
1717		44.921875
1718		41.015625
1719		48.828125
1720		42.968750
1721		50.781250
1722		44.921875
1723		54.687500
1724		46.875000
1725		54.687500
1726		48.828125
1727		58.593750
1728		50.781250
1729		60.546875
1730		52.734375
1731		60.546875
1732		58.593750
1733		60.546875
1734		60.546875
1735		62.500000
1736		58.593750
1737		66.406250
1738		60.546875
1739		70.312500
1740		62.500000
1741		70.312500
1742		64.453125
1743		72.265625
1744		66.406250
1745		74.218750
1746		68.359375
1747		76.171875
1748		70.312500
1749		76.171875
1750		74.218750
1751		76.171875
1752		74.218750
1753		82.031250
1754		74.218750
1755		82.031250
1756		76.171875
1757		82.031250
1758		78.125000
1759		85.937500
1760		78.125000
1761		85.937500
1762		80.078125
1763		87.890625
1764		80.078125
1765		87.890625
1766		83.984375
1767		87.890625
1768		85.937500
1769		89.843750
1770		83.984375
1771		91.796875
1772		85.937500
1773		93.750000
1774		85.937500
1775		93.750000
1776		85.937500
1777		93.750000
1778		87.890625
1779		95.703125
1780		87.890625
1781		95.703125
1782		91.796875
1783		93.750000
1784		91.796875
1785		95.703125
1786		89.843750
1787		97.656250
1788		91.796875
1789		97.656250
1790		91.796875
1791		99.609375
1792		91.796875
1793		99.609375
1794		91.796875
1795		99.609375
1796		91.796875
1797		99.609375
1798		93.750000
1799		99.609375
1800		95.703125
1801		97.656250
1802		93.750000
1803		99.609375
1804		93.750000
1805		101.562500
1806		93.750000
1807		99.609375
1808		93.750000
1809		101.562500
1810		91.796875
1811		99.609375
1812		91.796875
1813		99.609375
1814		93.750000
1815		99.609375
1816		95.703125
1817		97.656250
1818		93.750000
1819		97.656250
1820		91.796875
1821		99.609375
1822		91.796875
1823		97.656250
1824		89.843750
1825		97.656250
1826		89.843750
1827		97.656250
1828		87.890625
1829		95.703125
1830		87.890625
1831		95.703125
1832		89.843750
1833		93.750000
1834		89.843750
1835		91.796875
1836		85.937500
1837		93.750000
1838		85.937500
1839		93.750000
1840		83.984375
1841		91.796875
1842		82.031250
1843		91.796875
1844		82.031250
1845		89.843750
1846		80.078125
1847		87.890625
1848		80.078125
1849		87.890625
1850		80.078125
1851		83.984375
1852		78.125000
1853		83.984375
1854		76.171875
1855		83.984375
1856		74.218750
1857		82.031250
1858		72.265625
1859		80.078125
1860		70.312500
1861		78.125000
1862		70.312500
1863		78.125000
1864		68.359375
1865		74.218750
1866		68.359375
1867		72.265625
1868		66.406250
1869		70.312500
1870		62.500000
1871		70.312500
1872		60.546875
1873		68.359375
1874		58.593750
1875		68.359375
1876		56.640625
1877		64.453125
1878		54.687500
1879		62.500000
1880		52.734375
1881		60.546875
1882		50.781250
1883		58.593750
1884		50.781250
1885		54.687500
1886		44.921875
1887		52.734375
1888		42.968750
1889		52.734375
1890		41.015625
1891		50.781250
1892		41.015625
1893		46.875000
1894		37.109375
1895		46.875000
1896		35.156250
1897		42.968750
1898		33.203125
1899		41.015625
1900		31.250000
1901		35.156250
1902		29.296875
1903		33.203125
1904		25.390625
1905		33.203125
1906		21.484375
1907		31.250000
1908		19.531250
1909		29.296875
1910		17.578125
1911		25.390625
1912		13.671875
1913		23.437500
1914		11.718750
1915		21.484375
1916		11.718750
1917		17.578125
1918		9.765625
1919		13.671875
1920		3.906250
1921		11.718750
1922		1.953125
1923		9.765625
1924		-1.953125
1925		7.812500
1926		-3.906250
1927		3.906250
1928		-7.812500
1929		1.953125
1930		-7.812500
1931		0.000000
1932		-9.765625
1933		-1.953125
1934		-11.718750
1935		-7.812500
1936		-17.578125
1937		-9.765625
1938		-19.531250
1939		-11.718750
1940		-21.484375
1941		-13.671875
1942		-25.390625
1943		-15.625000
1944		-27.343750
1945		-17.578125
1946		-29.296875
1947		-21.484375
1948		-31.250000
1949		-23.437500
1950		-33.203125
1951		-29.296875
1952		-35.156250
1953		-31.250000
1954		-41.015625
1955		-33.203125
1956		-42.968750
1957		-35.156250
1958		-44.921875
1959		-37.109375
1960		-48.828125
1961		-39.062500
1962		-50.781250
1963		-41.015625
1964		-52.734375
1965		-44.921875
1966		-54.687500
1967		-46.875000
1968		-54.687500
1969		-50.781250
1970		-60.546875
1971		-52.734375
1972		-62.500000
1973		-52.734375
1974		-64.453125
1975		-54.687500
1976		-66.406250
1977		-58.593750
1978		-70.312500
1979		-60.546875
1980		-70.312500
1981		-62.500000
1982		-72.265625
1983		-64.453125
1984		-72.265625
1985		-68.359375
1986		-74.218750
1987		-70.312500
1988		-78.125000
1989		-70.312500
1990		-80.078125
1991		-72.265625
1992		-82.031250
1993		-72.265625
1994		-83.984375
1995		-76.171875
1996		-85.937500
1997		-78.125000
1998		-87.890625
1999		-80.078125
2000		-87.890625
2001		-82.031250
2002		-87.890625
2003		-83.984375
2004		-91.796875
2005		-83.984375
2006		-93.750000
2007		-83.984375
2008		-93.750000
2009		-85.937500
2010		-95.703125
2011		-87.890625
2012		-95.703125
2013		-89.843750
2014		-97.656250
2015		-89.843750
2016		-97.656250
2017		-89.843750
2018		-97.656250
2019		-93.750000
2020		-99.609375
2021		-93.750000
2022		-101.562500
2023		-93.750000
2024		-101.562500
2025		-93.750000
2026		-101.562500
2027		-95.703125
2028		-103.515625
2029		-95.703125
2030		-103.515625
2031		-95.703125
2032		-103.515625
2033		-95.703125
2034		-101.562500
2035		-95.703125
2036		-101.562500
2037		-99.609375
2038		-105.468750
2039		-97.656250
2040		-105.468750
2041		-97.656250
2042		-105.468750
2043		-97.656250
2044		-105.468750
2045		-97.656250
2046		-103.515625
2047		-97.656250
2048		-105.468750
2049		-97.656250
2050		-103.515625
2051		-97.656250
2052		-99.609375
2053		-99.609375
2054		-101.562500
2055		-95.703125
2056		-103.515625
2057		-93.750000
2058		-101.562500
2059		-93.750000
2060		-101.562500
2061		-93.750000
2062		-99.609375
2063		-93.750000
2064		-99.609375
2065		-91.796875
2066		-99.609375
2067		-91.796875
2068		-95.703125
2069		-91.796875
2070		-93.750000
2071		-91.796875
2072		-95.703125
2073		-87.890625
2074		-93.750000
2075		-85.937500
2076		-93.750000
2077		-85.937500
2078		-91.796875
2079		-83.984375
2080		-91.796875
2081		-82.031250
2082		-87.890625
2083		-82.031250
2084		-87.890625
2085		-82.031250
2086		-83.984375
2087		-80.078125
2088		-82.031250
2089		-76.171875
2090		-82.031250
2091		-74.218750
2092		-80.078125
2093		-72.265625
2094		-78.125000
2095		-70.312500
2096		-78.125000
2097		-68.359375
2098		-74.218750
2099		-66.406250
2100		-72.265625
2101		-66.406250
2102		-68.359375
2103		-64.453125
2104		-66.406250
2105		-62.500000
2106		-66.406250
2107		-58.593750
2108		-64.453125
2109		-56.640625
2110		-62.500000
2111		-52.734375
2112		-60.546875
2113		-50.781250
2114		-58.593750
2115		-48.828125
2116		-54.687500
2117		-46.875000
2118		-50.781250
2119		-46.875000
2120		-46.875000
2121		-44.921875
2122		-46.875000
2123		-39.062500
2124		-46.875000
2125		-37.109375
2126		-42.968750
2127		-35.156250
2128		-41.015625
2129		-31.250000
2130		-37.109375
2131		-29.296875
2132		-35.156250
2133		-25.390625
2134		-33.203125
2135		-25.390625
2136		-27.343750
2137		-23.437500
2138		-27.343750
2139		-19.531250
2140		-25.390625
2141		-15.625000
2142		-21.484375
2143		-13.671875
2144		-19.531250
2145		-9.765625
2146		-15.625000
2147		-7.812500
2148		-13.671875
2149		-5.859375
2150		-11.718750
2151		-3.906250
2152		-5.859375
2153		-1.953125
2154		-3.906250
2155		0.000000
2156		-3.906250
2157		5.859375
2158		-1.953125
2159		7.812500
2160		1.953125
2161		11.718750
2162		3.906250
2163		13.671875
2164		7.812500
2165		15.625000
2166		9.765625
2167		17.578125
2168		11.718750
2169		19.531250
2170		17.578125
2171		21.484375
2172		17.578125
2173		25.390625
2174		19.531250
2175		29.296875
2176		21.484375
2177		31.250000
2178		25.390625
2179		33.203125
2180		27.343750
2181		35.156250
2182		29.296875
2183		39.062500
2184		33.203125
2185		41.015625
2186		37.109375
2187		41.015625
2188		39.062500
2189		42.968750
2190		39.062500
2191		46.875000
2192		41.015625
2193		48.828125
2194		42.968750
2195		50.781250
2196		44.921875
2197		52.734375
2198		46.875000
2199		56.640625
2200		48.828125
2201		58.593750
2202		54.687500
2203		58.593750
2204		56.640625
2205		60.546875
2206		56.640625
2207		64.453125
2208		58.593750
2209		66.406250
2210		60.546875
2211		68.359375
2212		62.500000
2213		70.312500
2214		62.500000
2215		72.265625
2216		64.453125
2217		74.218750
2218		66.406250
2219		72.265625
2220		70.312500
2221		74.218750
2222		72.265625
2223		78.125000
2224		72.265625
2225		80.078125
2226		72.265625
2227		80.078125
2228		74.218750
2229		83.984375
2230		76.171875
2231		83.984375
2232		76.171875
2233		83.984375
2234		78.125000
2235		85.937500
2236		82.031250
2237		83.984375
2238		83.984375
2239		85.937500
2240		82.031250
2241		89.843750
2242		83.984375
2243		91.796875
2244		83.984375
2245		91.796875
2246		83.984375
2247		91.796875
2248		85.937500
2249		93.750000
2250		85.937500
2251		93.750000
2252		87.890625
2253		93.750000
2254		89.843750
2255		93.750000
2256		89.843750
2257		95.703125
2258		89.843750
2259		95.703125
2260		89.843750
2261		97.656250
2262		89.843750
2263		97.656250
2264		91.796875
2265		99.609375
2266		91.796875
2267		99.609375
2268		91.796875
2269		99.609375
2270		95.703125
2271		97.656250
2272		93.750000
2273		97.656250
2274		91.796875
2275		99.609375
2276		91.796875
2277		99.609375
2278		91.796875
2279		99.609375
2280		91.796875
2281		99.609375
2282		91.796875
2283		99.609375
2284		91.796875
2285		99.609375
2286		93.750000
2287		97.656250
2288		93.750000
2289		95.703125
2290		91.796875
2291		97.656250
2292		89.843750
2293		99.609375
2294		89.843750
2295		97.656250
2296		89.843750
2297		97.656250
2298		89.843750
2299		97.656250
2300		87.890625
2301		95.703125
2302		87.890625
2303		95.703125
2304		89.843750
2305		91.796875
2306		85.937500
2307		91.796875
2308		85.937500
2309		93.750000
2310		83.984375
2311		91.796875
2312		83.984375
2313		89.843750
2314		82.031250
2315		89.843750
2316		80.078125
2317		87.890625
2318		80.078125
2319		87.890625
2320		82.031250
2321		83.984375
2322		80.078125
2323		83.984375
2324		76.171875
2325		83.984375
2326		74.218750
2327		82.031250
2328		74.218750
2329		82.031250
2330		72.265625
2331		80.078125
2332		70.312500
2333		78.125000
2334		68.359375
2335		76.171875
2336		68.359375
2337		74.218750
2338		68.359375
2339		70.312500
2340		64.453125
2341		70.312500
2342		62.500000
2343		70.312500
2344		60.546875
2345		68.359375
2346		56.640625
2347		66.406250
2348		56.640625
2349		62.500000
2350		54.687500
2351		60.546875
2352		52.734375
2353		60.546875
2354		52.734375
2355		56.640625
2356		50.781250
2357		54.687500
2358		44.921875
2359		52.734375
2360		42.968750
2361		52.734375
2362		41.015625
2363		48.828125
2364		39.062500
2365		46.875000
2366		37.109375
2367		44.921875
2368		33.203125
2369		42.968750
2370		33.203125
2371		39.062500
2372		31.250000
2373		35.156250
2374		27.343750
2375		35.156250
2376		25.390625
2377		33.203125
2378		23.437500
2379		31.250000
2380		17.578125
2381		27.343750
2382		15.625000
2383		25.390625
2384		13.671875
2385		23.437500
2386		11.718750
2387		19.531250
2388		11.718750
2389		15.625000
2390		7.812500
2391		13.671875
2392		3.906250
2393		13.671875
2394		1.953125
2395		9.765625
2396		0.000000
2397		5.859375
2398		-3.906250
2399		3.906250
2400		-5.859375
2401		1.953125
2402		-9.765625
2403		0.000000
2404		-9.765625
2405		-5.859375
2406		-11.718750
2407		-7.812500
2408		-17.578125
2409		-9.765625
2410		-21.484375
2411		-11.718750
2412		-21.484375
2413		-13.671875
2414		-25.390625
2415		-17.578125
2416		-29.296875
2417		-19.531250
2418		-31.250000
2419		-21.484375
2420		-31.250000
2421		-23.437500
2422		-33.203125
2423		-29.296875
2424		-39.062500
2425		-31.250000
2426		-41.015625
2427		-33.203125
2428		-42.968750
2429		-35.156250
2430		-44.921875
2431		-37.109375
2432		-48.828125
2433		-39.062500
2434		-50.781250
2435		-42.968750
2436		-52.734375
2437		-44.921875
2438		-52.734375
2439		-48.828125
2440		-56.640625
2441		-52.734375
2442		-60.546875
2443		-52.734375
2444		-64.453125
2445		-54.687500
2446		-64.453125
2447		-56.640625
2448		-66.406250
2449		-58.593750
2450		-68.359375
2451		-60.546875
2452		-70.312500
2453		-64.453125
2454		-70.312500
2455		-66.406250
2456		-72.265625
2457		-70.312500
2458		-76.171875
2459		-70.312500
2460		-80.078125
2461		-70.312500
2462		-82.031250
2463		-74.218750
2464		-83.984375
2465		-74.218750
2466		-83.984375
2467		-76.171875
2468		-85.937500
2469		-78.125000
2470		-87.890625
2471		-80.078125
2472		-87.890625
2473		-83.984375
2474		-91.796875
2475		-85.937500
2476		-91.796875
2477		-83.984375
2478		-93.750000
2479		-85.937500
2480		-93.750000
2481		-87.890625
2482		-95.703125
2483		-87.890625
2484		-97.656250
2485		-89.843750
2486		-97.656250
2487		-89.843750
2488		-95.703125
2489		-93.750000
2490		-97.656250
2491		-95.703125
2492		-101.562500
2493		-93.750000
2494		-101.562500
2495		-93.750000
2496		-103.515625
2497		-95.703125
2498		-103.515625
2499		-95.703125
2500		-103.515625
2501		-95.703125
2502		-103.515625
2503		-97.656250
2504		-103.515625
2505		-97.656250
2506		-101.562500
2507		-99.609375
2508		-105.468750
2509		-97.656250
2510		-105.468750
2511		-97.656250
2512		-105.468750
2513		-97.656250
2514		-105.468750
2515		-97.656250
2516		-105.468750
2517		-97.656250
2518		-105.468750
2519		-97.656250
2520		-105.468750
2521		-97.656250
2522		-101.562500
2523		-99.609375
2524		-101.562500
2525		-99.609375
2526		-105.468750
2527		-97.656250
2528		-103.515625
2529		-95.703125
2530		-103.515625
2531		-95.703125
2532		-103.515625
2533		-95.703125
2534		-103.515625
2535		-93.750000
2536		-101.562500
2537		-93.750000
2538		-99.609375
2539		-93.750000
2540		-97.656250
2541		-93.750000
2542		-97.656250
2543		-91.796875
2544		-97.656250
2545		-89.843750
2546		-95.703125
2547		-87.890625
2548		-95.703125
2549		-87.890625
2550		-93.750000
2551		-85.937500
2552		-91.796875
2553		-83.984375
2554		-91.796875
2555		-83.984375
2556		-87.890625
2557		-83.984375
2558		-85.937500
2559		-80.078125
2560		-85.937500
2561		-78.125000
2562		-83.984375
2563		-76.171875
2564		-82.031250
2565		-74.218750
2566		-80.078125
2567		-72.265625
2568		-78.125000
2569		-70.312500
2570		-76.171875
2571		-68.359375
2572		-72.265625
2573		-68.359375
2574		-70.312500
2575		-66.406250
2576		-70.312500
2577		-62.500000
2578		-68.359375
2579		-60.546875
2580		-66.406250
2581		-58.593750
2582		-64.453125
2583		-54.687500
2584		-62.500000
2585		-52.734375
2586		-58.593750
2587		-50.781250
2588		-56.640625
2589		-50.781250
2590		-52.734375
2591		-48.828125
2592		-50.781250
2593		-42.968750
2594		-48.828125
2595		-41.015625
2596		-46.875000
2597		-39.062500
2598		-44.921875
2599		-35.156250
2600		-42.968750
2601		-35.156250
2602		-41.015625
2603		-31.250000
2604		-37.109375
2605		-29.296875
2606		-31.250000
2607		-29.296875
2608		-29.296875
2609		-25.390625
2610		-29.296875
2611		-19.531250
2612		-25.390625
2613		-17.578125
2614		-25.390625
2615		-15.625000
2616		-21.484375
2617		-13.671875
2618		-19.531250
2619		-9.765625
2620		-15.625000
2621		-7.812500
2622		-13.671875
2623		-5.859375
2624		-7.812500
2625		-3.906250
2626		-5.859375
2627		0.000000
2628		-5.859375
2629		3.906250
2630		-1.953125
2631		5.859375
2632		0.000000
2633		7.812500
2634		1.953125
2635		11.718750
2636		3.906250
2637		13.671875
2638		7.812500
2639		15.625000
2640		11.718750
2641		17.578125
2642		15.625000
2643		19.531250
2644		15.625000
2645		23.437500
2646		17.578125
2647		27.343750
2648		19.531250
2649		29.296875
2650		23.437500
2651		31.250000
2652		25.390625
2653		33.203125
2654		27.343750
2655		35.156250
2656		31.250000
2657		37.109375
2658		35.156250
2659		39.062500
2660		35.156250
2661		42.968750
2662		37.109375
2663		44.921875
2664		39.062500
2665		46.875000
2666		42.968750
2667		50.781250
2668		42.968750
2669		52.734375
2670		46.875000
2671		54.687500
2672		46.875000
2673		54.687500
2674		52.734375
2675		56.640625
2676		54.687500
2677		60.546875
2678		54.687500
2679		62.500000
2680		56.640625
2681		64.453125
2682		58.593750
2683		66.406250
2684		58.593750
2685		68.359375
2686		62.500000
2687		70.312500
2688		64.453125
2689		70.312500
2690		68.359375
2691		70.312500
2692		68.359375
2693		72.265625
2694		68.359375
2695		76.171875
2696		70.312500
2697		78.125000
2698		70.312500
2699		80.078125
2700		72.265625
2701		80.078125
2702		74.218750
2703		82.031250
2704		76.171875
2705		83.984375
2706		78.125000
2707		83.984375
2708		80.078125
2709		83.984375
2710		80.078125
2711		87.890625
2712		82.031250
2713		87.890625
2714		82.031250
2715		89.843750
2716		82.031250
2717		89.843750
2718		83.984375
2719		91.796875
2720		83.984375
2721		91.796875
2722		85.937500
2723		93.750000
2724		87.890625
2725		91.796875
2726		89.843750
2727		93.750000
2728		87.890625
2729		95.703125
2730		87.890625
2731		95.703125
2732		89.843750
2733		97.656250
2734		89.843750
2735		97.656250
2736		89.843750
2737		97.656250
2738		89.843750
2739		97.656250
2740		93.750000
2741		95.703125
2742		93.750000
2743		95.703125
2744		91.796875
2745		99.609375
2746		91.796875
2747		99.609375
2748		91.796875
2749		99.609375
2750		91.796875
2751		97.656250
2752		91.796875
2753		99.609375
2754		91.796875
2755		99.609375
2756		91.796875
2757		99.609375
2758		93.750000
2759		97.656250
2760		91.796875
2761		97.656250
2762		89.843750
2763		97.656250
2764		89.843750
2765		97.656250
2766		89.843750
2767		97.656250
2768		89.843750
2769		97.656250
2770		87.890625
2771		95.703125
2772		87.890625
2773		95.703125
2774		89.843750
2775		91.796875
2776		89.843750
2777		91.796875
2778		85.937500
2779		93.750000
2780		83.984375
2781		91.796875
2782		83.984375
2783		91.796875
2784		82.031250
2785		89.843750
2786		82.031250
2787		89.843750
2788		82.031250
2789		87.890625
2790		82.031250
2791		87.890625
2792		82.031250
2793		83.984375
2794		78.125000
2795		83.984375
2796		76.171875
2797		83.984375
2798		74.218750
2799		82.031250
2800		74.218750
2801		80.078125
2802		70.312500
2803		80.078125
2804		70.312500
2805		78.125000
2806		68.359375
2807		76.171875
2808		70.312500
2809		72.265625
2810		68.359375
2811		70.312500
2812		64.453125
2813		72.265625
2814		60.546875
2815		70.312500
2816		60.546875
2817		68.359375
2818		58.593750
2819		66.406250
2820		56.640625
2821		64.453125
2822		52.734375
2823		62.500000
2824		54.687500
2825		58.593750
2826		52.734375
2827		56.640625
2828		48.828125
2829		54.687500
2830		44.921875
2831		54.687500
2832		42.968750
2833		52.734375
2834		41.015625
2835		48.828125
2836		39.062500
2837		46.875000
2838		37.109375
2839		44.921875
2840		35.156250
2841		42.968750
2842		35.156250
2843		39.062500
2844		31.250000
2845		35.156250
2846		27.343750
2847		37.109375
2848		23.437500
2849		33.203125
2850		21.484375
2851		31.250000
2852		19.531250
2853		29.296875
2854		17.578125
2855		25.390625
2856		15.625000
2857		23.437500
2858		13.671875
2859		17.578125
2860		11.718750
2861		15.625000
2862		7.812500
2863		15.625000
2864		3.906250
2865		13.671875
2866		1.953125
2867		11.718750
2868		-1.953125
2869		7.812500
2870		-3.906250
2871		3.906250
2872		-7.812500
2873		3.906250
2874		-7.812500
2875		0.000000
2876		-9.765625
2877		-5.859375
2878		-13.671875
2879		-7.812500
2880		-17.578125
2881		-7.812500
2882		-19.531250
2883		-11.718750
2884		-21.484375
2885		-13.671875
2886		-25.390625
2887		-15.625000
2888		-27.343750
2889		-17.578125
2890		-29.296875
2891		-21.484375
2892		-31.250000
2893		-25.390625
2894		-33.203125
2895		-29.296875
2896		-37.109375
2897		-29.296875
2898		-41.015625
2899		-31.250000
2900		-42.968750
2901		-35.156250
2902		-46.875000
2903		-37.109375
2904		-46.875000
2905		-39.062500
2906		-50.781250
2907		-41.015625
2908		-50.781250
2909		-46.875000
2910		-52.734375
2911		-48.828125
2912		-56.640625
2913		-50.781250
2914		-60.546875
2915		-50.781250
2916		-62.500000
2917		-52.734375
2918		-64.453125
2919		-56.640625
2920		-66.406250
2921		-58.593750
2922		-68.359375
2923		-60.546875
2924		-68.359375
2925		-62.500000
2926		-70.312500
2927		-66.406250
2928		-72.265625
2929		-68.359375
2930		-78.125000
2931		-68.359375
2932		-78.125000
2933		-70.312500
2934		-80.078125
2935		-72.265625
2936		-82.031250
2937		-74.218750
2938		-83.984375
2939		-74.218750
2940		-85.937500
2941		-78.125000
2942		-83.984375
2943		-82.031250
2944		-85.937500
2945		-82.031250
2946		-89.843750
2947		-83.984375
2948		-91.796875
2949		-83.984375
2950		-93.750000
2951		-83.984375
2952		-93.750000
2953		-87.890625
2954		-95.703125
2955		-87.890625
2956		-97.656250
2957		-89.843750
2958		-97.656250
2959		-89.843750
2960		-95.703125
2961		-93.750000
2962		-99.609375
2963		-91.796875
2964		-101.562500
2965		-93.750000
2966		-101.562500
2967		-93.750000
2968		-103.515625
2969		-95.703125
2970		-103.515625
2971		-95.703125
2972		-103.515625
2973		-95.703125
2974		-105.468750
2975		-95.703125
2976		-101.562500
2977		-99.609375
2978		-103.515625
2979		-97.656250
2980		-105.468750
2981		-97.656250
2982		-105.468750
2983		-97.656250
2984		-105.468750
2985		-97.656250
2986		-105.468750
2987		-97.656250
2988		-105.468750
2989		-97.656250
2990		-105.468750
2991		-97.656250
2992		-103.515625
2993		-99.609375
2994		-101.562500
2995		-99.609375
2996		-105.468750
2997		-97.656250
2998		-105.468750
2999		-97.656250
3000		-103.515625
3001		-97.656250
3002		-103.515625
3003		-95.703125
3004		-103.515625
3005		-95.703125
3006		-101.562500
3007		-93.750000
3008		-101.562500
3009		-93.750000
3010		-97.656250
3011		-95.703125
3012		-97.656250
3013		-91.796875
3014		-99.609375
3015		-89.843750
3016		-97.656250
3017		-89.843750
3018		-95.703125
3019		-87.890625
3020		-95.703125
3021		-85.937500
3022		-93.750000
3023		-85.937500
3024		-91.796875
3025		-83.984375
3026		-87.890625
3027		-83.984375
3028		-85.937500
3029		-83.984375
3030		-87.890625
3031		-80.078125
3032		-85.937500
3033		-78.125000
3034		-83.984375
3035		-76.171875
3036		-82.031250
3037		-74.218750
3038		-82.031250
3039		-72.265625
3040		-78.125000
3041		-70.312500
3042		-76.171875
3043		-70.312500
3044		-72.265625
3045		-68.359375
3046		-72.265625
3047		-64.453125
3048		-70.312500
3049		-62.500000
3050		-70.312500
3051		-60.546875
3052		-66.406250
3053		-58.593750
3054		-64.453125
3055		-56.640625
3056		-60.546875
3057		-54.687500
3058		-60.546875
3059		-52.734375
3060		-54.687500
3061		-50.781250
3062		-52.734375
3063		-46.875000
3064		-52.734375
3065		-44.921875
3066		-50.781250
3067		-41.015625
3068		-46.875000
3069		-39.062500
3070		-44.921875
3071		-37.109375
3072		-42.968750
3073		-33.203125
3074		-41.015625
3075		-31.250000
3076		-37.109375
3077		-31.250000
3078		-33.203125
3079		-29.296875
3080		-31.250000
3081		-23.437500
3082		-29.296875
3083		-21.484375
3084		-27.343750
3085		-17.578125
3086		-25.390625
3087		-15.625000
3088		-21.484375
3089		-11.718750
3090		-19.531250
3091		-9.765625
3092		-17.578125
3093		-9.765625
3094		-11.718750
3095		-7.812500
3096		-9.765625
3097		-1.953125
3098		-7.812500
3099		0.000000
3100		-5.859375
3101		3.906250
3102		-1.953125
3103		5.859375
3104		0.000000
3105		7.812500
3106		1.953125
3107		11.718750
3108		3.906250
3109		13.671875
3110		9.765625
3111		13.671875
3112		11.718750
3113		15.625000
3114		13.671875
3115		21.484375
3116		13.671875
3117		23.437500
3118		17.578125
3119		25.390625
3120		19.531250
3121		29.296875
3122		23.437500
3123		33.203125
3124		25.390625
3125		33.203125
3126		27.343750
3127		35.156250
3128		33.203125
3129		37.109375
3130		33.203125
3131		41.015625
3132		35.156250
3133		42.968750
3134		37.109375
3135		44.921875
3136		39.062500
3137		46.875000
3138		41.015625
3139		48.828125
3140		42.968750
3141		50.781250
3142		44.921875
3143		54.687500
3144		50.781250
3145		54.687500
3146		52.734375
3147		56.640625
3148		52.734375
3149		60.546875
3150		52.734375
3151		62.500000
3152		56.640625
3153		64.453125
3154		58.593750
3155		66.406250
3156		58.593750
3157		68.359375
3158		62.500000
3159		70.312500
3160		64.453125
3161		68.359375
3162		68.359375
3163		70.312500
3164		68.359375
3165		76.171875
3166		68.359375
3167		76.171875
3168		70.312500
3169		78.125000
3170		70.312500
3171		80.078125
3172		72.265625
3173		82.031250
3174		74.218750
3175		82.031250
3176		76.171875
3177		82.031250
3178		80.078125
3179		82.031250
3180		80.078125
3181		85.937500
3182		78.125000
3183		87.890625
3184		80.078125
3185		87.890625
3186		82.031250
3187		89.843750
3188		82.031250
3189		91.796875
3190		83.984375
3191		91.796875
3192		83.984375
3193		91.796875
3194		87.890625
3195		89.843750
3196		89.843750
3197		91.796875
3198		87.890625
3199		93.750000
3200		87.890625
3201		95.703125
3202		87.890625
3203		95.703125
3204		87.890625
3205		95.703125
3206		89.843750
3207		97.656250
3208		89.843750
3209		97.656250
3210		89.843750
3211		97.656250
3212		93.750000
3213		95.703125
3214		93.750000
3215		97.656250
3216		91.796875
3217		99.609375
3218		91.796875
3219		99.609375
3220		91.796875
3221		99.609375
3222		91.796875
3223		99.609375
3224		91.796875
3225		99.609375
3226		91.796875
3227		99.609375
3228		93.750000
3229		95.703125
3230		93.750000
3231		95.703125
3232		89.843750
3233		97.656250
3234		89.843750
3235		97.656250
3236		89.843750
3237		97.656250
3238		89.843750
3239		97.656250
3240		89.843750
3241		97.656250
3242		89.843750
3243		95.703125
3244		87.890625
3245		95.703125
3246		89.843750
3247		91.796875
3248		85.937500
3249		93.750000
3250		85.937500
3251		93.750000
3252		85.937500
3253		93.750000
3254		83.984375
3255		91.796875
3256		83.984375
3257		91.796875
3258		82.031250
3259		89.843750
3260		80.078125
3261		89.843750
3262		82.031250
3263		85.937500
3264		80.078125
3265		83.984375
3266		78.125000
3267		85.937500
3268		76.171875
3269		83.984375
3270		74.218750
3271		82.031250
3272		74.218750
3273		82.031250
3274		72.265625
3275		80.078125
3276		70.312500
3277		80.078125
3278		72.265625
3279		74.218750
3280		70.312500
3281		72.265625
3282		66.406250
3283		72.265625
3284		64.453125
3285		70.312500
3286		62.500000
3287		70.312500
3288		60.546875
3289		66.406250
3290		58.593750
3291		64.453125
3292		56.640625
3293		64.453125
3294		56.640625
3295		62.500000
3296		54.687500
3297		58.593750
3298		50.781250
3299		56.640625
3300		48.828125
3301		56.640625
3302		44.921875
3303		54.687500
3304		42.968750
3305		52.734375
3306		42.968750
3307		50.781250
3308		39.062500
3309		48.828125
3310		37.109375
3311		44.921875
3312		37.109375
3313		41.015625
3314		35.156250
3315		39.062500
3316		31.250000
3317		39.062500
3318		27.343750
3319		37.109375
3320		25.390625
3321		35.156250
3322		23.437500
3323		31.250000
3324		21.484375
3325		29.296875
3326		19.531250
3327		25.390625
3328		17.578125
3329		25.390625
3330		15.625000
3331		19.531250
3332		9.765625
3333		17.578125
3334		7.812500
3335		17.578125
3336		5.859375
3337		13.671875
3338		1.953125
3339		11.718750
3340		0.000000
3341		7.812500
3342		-1.953125
3343		5.859375
3344		-3.906250
3345		3.906250
3346		-5.859375
3347		-1.953125
3348		-9.765625
3349		-3.906250
3350		-13.671875
3351		-5.859375
3352		-15.625000
3353		-7.812500
3354		-19.531250
3355		-9.765625
3356		-21.484375
3357		-13.671875
3358		-23.437500
3359		-15.625000
3360		-27.343750
3361		-17.578125
3362		-27.343750
3363		-23.437500
3364		-29.296875
3365		-25.390625
3366		-35.156250
3367		-27.343750
3368		-37.109375
3369		-29.296875
3370		-39.062500
3371		-31.250000
3372		-41.015625
3373		-35.156250
3374		-44.921875
3375		-35.156250
3376		-48.828125
3377		-39.062500
3378		-48.828125
3379		-41.015625
3380		-50.781250
3381		-44.921875
3382		-52.734375
3383		-48.828125
3384		-56.640625
3385		-48.828125
3386		-60.546875
3387		-50.781250
3388		-62.500000
3389		-54.687500
3390		-62.500000
3391		-54.687500
3392		-66.406250
3393		-58.593750
3394		-68.359375
3395		-60.546875
3396		-68.359375
3397		-64.453125
3398		-70.312500
3399		-66.406250
3400		-74.218750
3401		-66.406250
3402		-78.125000
3403		-68.359375
3404		-78.125000
3405		-70.312500
3406		-80.078125
3407		-72.265625
3408		-82.031250
3409		-74.218750
3410		-83.984375
3411		-76.171875
3412		-83.984375
3413		-78.125000
3414		-83.984375
3415		-82.031250
3416		-89.843750
3417		-82.031250
3418		-89.843750
3419		-82.031250
3420		-91.796875
3421		-83.984375
3422		-93.750000
3423		-85.937500
3424		-93.750000
3425		-87.890625
3426		-97.656250
3427		-87.890625
3428		-95.703125
3429		-89.843750
3430		-95.703125
3431		-91.796875
3432		-95.703125
3433		-93.750000
3434		-99.609375
3435		-93.750000
3436		-101.562500
3437		-93.750000
3438		-101.562500
3439		-93.750000
3440		-103.515625
3441		-95.703125
3442		-103.515625
3443		-95.703125
3444		-103.515625
3445		-95.703125
3446		-101.562500
3447		-99.609375
3448		-103.515625
3449		-99.609375
3450		-105.468750
3451		-99.609375
3452		-105.468750
3453		-97.656250
3454		-107.421875
3455		-97.656250
3456		-105.468750
3457		-97.656250
3458		-107.421875
3459		-99.609375
3460		-105.468750
3461		-99.609375
3462		-105.468750
3463		-99.609375
3464		-103.515625
3465		-101.562500
3466		-105.468750
3467		-99.609375
3468		-105.468750
3469		-97.656250
3470		-105.468750
3471		-97.656250
3472		-105.468750
3473		-97.656250
3474		-103.515625
3475		-95.703125
3476		-103.515625
3477		-95.703125
3478		-103.515625
3479		-95.703125
3480		-99.609375
3481		-97.656250
3482		-97.656250
3483		-95.703125
3484		-99.609375
3485		-91.796875
3486		-99.609375
3487		-91.796875
3488		-97.656250
3489		-89.843750
3490		-97.656250
3491		-89.843750
3492		-95.703125
3493		-87.890625
3494		-93.750000
3495		-87.890625
3496		-93.750000
3497		-85.937500
3498		-89.843750
3499		-85.937500
3500		-87.890625
3501		-83.984375
3502		-89.843750
3503		-82.031250
3504		-87.890625
3505		-80.078125
3506		-85.937500
3507		-76.171875
3508		-83.984375
3509		-76.171875
3510		-82.031250
3511		-74.218750
3512		-80.078125
3513		-72.265625
3514		-76.171875
3515		-72.265625
3516		-74.218750
3517		-70.312500
3518		-74.218750
3519		-66.406250
3520		-72.265625
3521		-64.453125
3522		-70.312500
3523		-62.500000
3524		-68.359375
3525		-58.593750
3526		-66.406250
3527		-58.593750
3528		-64.453125
3529		-54.687500
3530		-58.593750
3531		-54.687500
3532		-56.640625
3533		-52.734375
3534		-54.687500
3535		-48.828125
3536		-54.687500
3537		-46.875000
3538		-50.781250
3539		-42.968750
3540		-50.781250
3541		-41.015625
3542		-46.875000
3543		-39.062500
3544		-42.968750
3545		-35.156250
3546		-41.015625
3547		-35.156250
3548		-37.109375
3549		-33.203125
3550		-33.203125
3551		-29.296875
3552		-33.203125
3553		-25.390625
3554		-31.250000
3555		-23.437500
3556		-29.296875
3557		-21.484375
3558		-27.343750
3559		-17.578125
3560		-23.437500
3561		-13.671875
3562		-19.531250
3563		-11.718750
3564		-15.625000
3565		-11.718750
3566		-13.671875
3567		-9.765625
3568		-11.718750
3569		-3.906250
3570		-9.765625
3571		0.000000
3572		-7.812500
3573		1.953125
3574		-3.906250
3575		3.906250
3576		-1.953125
3577		5.859375
3578		0.000000
3579		9.765625
3580		3.906250
3581		11.718750
3582		7.812500
3583		11.718750
3584		9.765625
3585		17.578125
3586		9.765625
3587		19.531250
3588		13.671875
3589		23.437500
3590		15.625000
3591		25.390625
3592		17.578125
3593		27.343750
3594		21.484375
3595		31.250000
3596		23.437500
3597		31.250000
3598		29.296875
3599		33.203125
3600		31.250000
3601		35.156250
3602		31.250000
3603		39.062500
3604		33.203125
3605		41.015625
3606		37.109375
3607		44.921875
3608		39.062500
3609		44.921875
3610		39.062500
3611		48.828125
3612		41.015625
3613		50.781250
3614		44.921875
3615		50.781250
3616		48.828125
3617		52.734375
3618		50.781250
3619		56.640625
3620		50.781250
3621		58.593750
3622		52.734375
3623		60.546875
3624		54.687500
3625		62.500000
3626		56.640625
3627		64.453125
3628		58.593750
3629		66.406250
3630		60.546875
3631		68.359375
3632		64.453125
3633		68.359375
3634		66.406250
3635		70.312500
3636		66.406250
3637		74.218750
3638		68.359375
3639		76.171875
3640		68.359375
3641		76.171875
3642		70.312500
3643		80.078125
3644		72.265625
3645		80.078125
3646		72.265625
3647		82.031250
3648		78.125000
3649		80.078125
3650		78.125000
3651		82.031250
3652		78.125000
3653		85.937500
3654		80.078125
3655		85.937500
3656		80.078125
3657		87.890625
3658		80.078125
3659		89.843750
3660		82.031250
3661		91.796875
3662		83.984375
3663		91.796875
3664		85.937500
3665		91.796875
3666		87.890625
3667		89.843750
3668		85.937500
3669		93.750000
3670		85.937500
3671		93.750000
3672		87.890625
3673		95.703125
3674		87.890625
3675		95.703125
3676		87.890625
3677		95.703125
3678		87.890625
3679		97.656250
3680		89.843750
3681		97.656250
3682		93.750000
3683		95.703125
3684		93.750000
3685		95.703125
3686		91.796875
3687		97.656250
3688		91.796875
3689		97.656250
3690		91.796875
3691		99.609375
3692		91.796875
3693		99.609375
3694		91.796875
3695		99.609375
3696		91.796875
3697		99.609375
3698		93.750000
3699		99.609375
3700		93.750000
3701		97.656250
3702		93.750000
3703		97.656250
3704		91.796875
3705		99.609375
3706		91.796875
3707		99.609375
3708		89.843750
3709		99.609375
3710		89.843750
3711		97.656250
3712		89.843750
3713		97.656250
3714		89.843750
3715		97.656250
3716		91.796875
3717		93.750000
3718		89.843750
3719		93.750000
3720		87.890625
3721		95.703125
3722		85.937500
3723		93.750000
3724		85.937500
3725		93.750000
3726		85.937500
3727		91.796875
3728		83.984375
3729		91.796875
3730		83.984375
3731		91.796875
3732		83.984375
3733		87.890625
3734		83.984375
3735		85.937500
3736		80.078125
3737		87.890625
3738		78.125000
3739		85.937500
3740		76.171875
3741		85.937500
3742		76.171875
3743		83.984375
3744		74.218750
3745		82.031250
3746		74.218750
3747		82.031250
3748		72.265625
3749		80.078125
3750		72.265625
3751		76.171875
3752		68.359375
3753		74.218750
3754		66.406250
3755		74.218750
3756		64.453125
3757		74.218750
3758		62.500000
3759		70.312500
3760		62.500000
3761		70.312500
3762		58.593750
3763		68.359375
3764		56.640625
3765		64.453125
3766		58.593750
3767		62.500000
3768		56.640625
3769		58.593750
3770		50.781250
3771		60.546875
3772		48.828125
3773		58.593750
3774		46.875000
3775		56.640625
3776		44.921875
3777		52.734375
3778		42.968750
3779		50.781250
3780		41.015625
3781		48.828125
3782		41.015625
3783		46.875000
3784		39.062500
3785		42.968750
3786		35.156250
3787		41.015625
3788		31.250000
3789		39.062500
3790		29.296875
3791		37.109375
3792		25.390625
3793		35.156250
3794		23.437500
3795		33.203125
3796		21.484375
3797		29.296875
3798		21.484375
3799		29.296875
3800		19.531250
3801		23.437500
3802		15.625000
3803		19.531250
3804		9.765625
3805		19.531250
3806		7.812500
3807		17.578125
3808		5.859375
3809		15.625000
3810		1.953125
3811		11.718750
3812		0.000000
3813		9.765625
3814		-1.953125
3815		7.812500
3816		-1.953125
3817		1.953125
3818		-3.906250
3819		0.000000
3820		-9.765625
3821		-1.953125
3822		-11.718750
3823		-3.906250
3824		-15.625000
3825		-5.859375
3826		-17.578125
3827		-9.765625
3828		-19.531250
3829		-11.718750
3830		-21.484375
3831		-13.671875
3832		-23.437500
3833		-15.625000
3834		-25.390625
3835		-21.484375
3836		-29.296875
3837		-25.390625
3838		-33.203125
3839		-25.390625
3840		-35.156250
3841		-27.343750
3842		-39.062500
3843		-29.296875
3844		-41.015625
3845		-33.203125
3846		-42.968750
3847		-35.156250
3848		-44.921875
3849		-37.109375
3850		-46.875000
3851		-42.968750
3852		-48.828125
3853		-44.921875
3854		-54.687500
3855		-44.921875
3856		-56.640625
3857		-46.875000
3858		-58.593750
3859		-50.781250
3860		-60.546875
3861		-52.734375
3862		-64.453125
3863		-54.687500
3864		-64.453125
3865		-56.640625
3866		-64.453125
3867		-58.593750
3868		-66.406250
3869		-62.500000
3870		-72.265625
3871		-64.453125
3872		-74.218750
3873		-66.406250
3874		-76.171875
3875		-66.406250
3876		-78.125000
3877		-70.312500
3878		-80.078125
3879		-72.265625
3880		-82.031250
3881		-74.218750
3882		-82.031250
3883		-74.218750
3884		-82.031250
3885		-78.125000
3886		-85.937500
3887		-80.078125
3888		-87.890625
3889		-80.078125
3890		-89.843750
3891		-80.078125
3892		-91.796875
3893		-83.984375
3894		-91.796875
3895		-83.984375
3896		-93.750000
3897		-85.937500
3898		-95.703125
3899		-85.937500
3900		-93.750000
3901		-89.843750
3902		-93.750000
3903		-91.796875
3904		-97.656250
3905		-91.796875
3906		-99.609375
3907		-91.796875
3908		-99.609375
3909		-91.796875
3910		-101.562500
3911		-93.750000
3912		-101.562500
3913		-93.750000
3914		-103.515625
3915		-95.703125
3916		-103.515625
3917		-95.703125
3918		-101.562500
3919		-99.609375
3920		-101.562500
3921		-99.609375
3922		-105.468750
3923		-97.656250
3924		-105.468750
3925		-97.656250
3926		-105.468750
3927		-97.656250
3928		-105.468750
3929		-97.656250
3930		-105.468750
3931		-97.656250
3932		-105.468750
3933		-97.656250
3934		-103.515625
3935		-99.609375
3936		-103.515625
3937		-99.609375
3938		-105.468750
3939		-97.656250
3940		-105.468750
3941		-97.656250
3942		-105.468750
3943		-97.656250
3944		-103.515625
3945		-95.703125
3946		-103.515625
3947		-95.703125
3948		-103.515625
3949		-95.703125
3950		-101.562500
3951		-95.703125
3952		-99.609375
3953		-95.703125
3954		-99.609375
3955		-93.750000
3956		-99.609375
3957		-91.796875
3958		-99.609375
3959		-91.796875
3960		-97.656250
3961		-89.843750
3962		-95.703125
3963		-89.843750
3964		-95.703125
3965		-87.890625
3966		-93.750000
3967		-85.937500
3968		-89.843750
3969		-87.890625
3970		-89.843750
3971		-83.984375
3972		-89.843750
3973		-82.031250
3974		-89.843750
3975		-80.078125
3976		-87.890625
3977		-78.125000
3978		-83.984375
3979		-76.171875
3980		-83.984375
3981		-76.171875
3982		-82.031250
3983		-74.218750
3984		-78.125000
3985		-74.218750
3986		-76.171875
3987		-72.265625
3988		-74.218750
3989		-68.359375
3990		-74.218750
3991		-64.453125
3992		-72.265625
3993		-62.500000
3994		-70.312500
3995		-60.546875
3996		-68.359375
3997		-60.546875
3998		-66.406250
3999		-56.640625
4000		-62.500000
4001		-56.640625
4002		-58.593750
4003		-54.687500
4004		-56.640625
4005		-52.734375
4006		-56.640625
4007		-46.875000
4008		-54.687500
4009		-44.921875
4010		-50.781250
4011		-42.968750
4012		-50.781250
4013		-41.015625
4014		-46.875000
4015		-39.062500
4016		-44.921875
4017		-37.109375
4018		-39.062500
4019		-35.156250
4020		-37.109375
4021		-33.203125
4022		-35.156250
4023		-27.343750
4024		-33.203125
4025		-25.390625
4026		-31.250000
4027		-23.437500
4028		-29.296875
4029		-21.484375
4030		-25.390625
4031		-17.578125
4032		-23.437500
4033		-15.625000
4034		-21.484375
4035		-13.671875
4036		-15.625000
4037		-11.718750
4038		-13.671875
4039		-7.812500
4040		-11.718750
4041		-3.906250
4042		-9.765625
4043		-1.953125
4044		-7.812500
4045		1.953125
4046		-3.906250
4047		3.906250
4048		-1.953125
4049		5.859375
4050		0.000000
4051		7.812500
4052		5.859375
4053		9.765625
4054		7.812500
4055		11.718750
4056		9.765625
4057		15.625000
4058		9.765625
4059		19.531250
4060		13.671875
4061		21.484375
4062		15.625000
4063		25.390625
4064		17.578125
4065		27.343750
4066		21.484375
4067		29.296875
4068		25.390625
4069		29.296875
4070		29.296875
4071		33.203125
4072		29.296875
4073		37.109375
4074		31.250000
4075		39.062500
4076		33.203125
4077		42.968750
4078		35.156250
4079		42.968750
4080		39.062500
4081		46.875000
4082		39.062500
4083		48.828125
4084		42.968750
4085		48.828125
4086		46.875000
4087		50.781250
4088		48.828125
4089		54.687500
4090		48.828125
4091		56.640625
4092		50.781250
4093		60.546875
4094		52.734375
4095		60.546875
4096		54.687500
4097		62.500000
4098		58.593750
4099		64.453125
4100		58.593750
4101		66.406250
4102		62.500000
4103		66.406250
4104		64.453125
4105		68.359375
4106		64.453125
4107		72.265625
4108		66.406250
4109		74.218750
4110		68.359375
4111		76.171875
4112		68.359375
4113		76.171875
4114		70.312500
4115		78.125000
4116		72.265625
4117		80.078125
4118		74.218750
4119		80.078125
4120		78.125000
4121		80.078125
4122		78.125000
4123		82.031250
4124		80.078125
4125		83.984375
4126		80.078125
4127		85.937500
4128		82.031250
4129		85.937500
4130		83.984375
4131		87.890625
4132		82.031250
4133		89.843750
4134		85.937500
4135		89.843750
4136		87.890625
4137		89.843750
4138		87.890625
4139		89.843750
4140		85.937500
4141		93.750000
4142		87.890625
4143		93.750000
4144		89.843750
4145		93.750000
4146		89.843750
4147		93.750000
4148		89.843750
4149		95.703125
4150		89.843750
4151		97.656250
4152		91.796875
4153		95.703125
4154		93.750000
4155		95.703125
4156		91.796875
4157		99.609375
4158		91.796875
4159		97.656250
4160		93.750000
4161		97.656250
4162		93.750000
4163		97.656250
4164		93.750000
4165		97.656250
4166		91.796875
4167		99.609375
4168		91.796875
4169		99.609375
4170		95.703125
4171		97.656250
4172		93.750000
4173		97.656250
4174		91.796875
4175		99.609375
4176		91.796875
4177		99.609375
4178		93.750000
4179		97.656250
4180		93.750000
4181		97.656250
4182		89.843750
4183		97.656250
4184		89.843750
4185		97.656250
4186		91.796875
4187		95.703125
4188		91.796875
4189		93.750000
4190		89.843750
4191		95.703125
4192		89.843750
4193		93.750000
4194		89.843750
4195		93.750000
4196		87.890625
4197		91.796875
4198		87.890625
4199		91.796875
4200		83.984375
4201		91.796875
4202		83.984375
4203		91.796875
4204		85.937500
4205		87.890625
4206		82.031250
4207		89.843750
4208		82.031250
4209		85.937500
4210		82.031250
4211		85.937500
4212		80.078125
4213		83.984375
4214		78.125000
4215		82.031250
4216		76.171875
4217		82.031250
4218		74.218750
4219		82.031250
4220		74.218750
4221		78.125000
4222		74.218750
4223		76.171875
4224		70.312500
4225		76.171875
4226		68.359375
4227		74.218750
4228		68.359375
4229		72.265625
4230		66.406250
4231		70.312500
4232		64.453125
4233		68.359375
4234		62.500000
4235		66.406250
4236		60.546875
4237		64.453125
4238		58.593750
4239		62.500000
4240		56.640625
4241		60.546875
4242		54.687500
4243		58.593750
4244		52.734375
4245		56.640625
4246		48.828125
4247		54.687500
4248		48.828125
4249		52.734375
4250		46.875000
4251		50.781250
4252		44.921875
4253		48.828125
4254		41.015625
4255		44.921875
4256		39.062500
4257		42.968750
4258		37.109375
4259		41.015625
4260		35.156250
4261		39.062500
4262		33.203125
4263		37.109375
4264		29.296875
4265		35.156250
4266		27.343750
4267		33.203125
4268		23.437500
4269		29.296875
4270		23.437500
4271		27.343750
4272		19.531250
4273		23.437500
4274		17.578125
4275		21.484375
4276		15.625000
4277		19.531250
4278		11.718750
4279		17.578125
4280		9.765625
4281		13.671875
4282		7.812500
4283		11.718750
4284		3.906250
4285		9.765625
4286		1.953125
4287		7.812500
4288		0.000000
4289		3.906250
4290		-3.906250
4291		0.000000
4292		-5.859375
4293		-1.953125
4294		-7.812500
4295		-3.906250
4296		-11.718750
4297		-5.859375
4298		-13.671875
4299		-9.765625
4300		-17.578125
4301		-11.718750
4302		-19.531250
4303		-13.671875
4304		-21.484375
4305		-17.578125
4306		-23.437500
4307		-21.484375
4308		-27.343750
4309		-21.484375
4310		-31.250000
4311		-25.390625
4312		-33.203125
4313		-27.343750
4314		-35.156250
4315		-31.250000
4316		-37.109375
4317		-33.203125
4318		-41.015625
4319		-35.156250
4320		-42.968750
4321		-37.109375
4322		-44.921875
4323		-41.015625
4324		-46.875000
4325		-42.968750
4326		-50.781250
4327		-44.921875
4328		-52.734375
4329		-48.828125
4330		-54.687500
4331		-50.781250
4332		-56.640625
4333		-52.734375
4334		-58.593750
4335		-54.687500
4336		-62.500000
4337		-56.640625
4338		-64.453125
4339		-60.546875
4340		-66.406250
4341		-62.500000
4342		-68.359375
4343		-64.453125
4344		-70.312500
4345		-66.406250
4346		-72.265625
4347		-68.359375
4348		-74.218750
4349		-70.312500
4350		-76.171875
4351		-72.265625
4352		-78.125000
4353		-74.218750
4354		-80.078125
4355		-76.171875
4356		-82.031250
4357		-78.125000
4358		-83.984375
4359		-78.125000
4360		-83.984375
4361		-80.078125
4362		-87.890625
4363		-82.031250
4364		-87.890625
4365		-83.984375
4366		-89.843750
4367		-85.937500
4368		-91.796875
4369		-85.937500
4370		-91.796875
4371		-87.890625
4372		-93.750000
4373		-89.843750
4374		-95.703125
4375		-89.843750
4376		-95.703125
4377		-91.796875
4378		-97.656250
4379		-91.796875
4380		-97.656250
4381		-93.750000
4382		-97.656250
4383		-95.703125
4384		-99.609375
4385		-95.703125
4386		-101.562500
4387		-95.703125
4388		-99.609375
4389		-97.656250
4390		-101.562500
4391		-97.656250
4392		-101.562500
4393		-97.656250
4394		-101.562500
4395		-99.609375
4396		-101.562500
4397		-99.609375
4398		-103.515625
4399		-99.609375
4400		-103.515625
4401		-99.609375
4402		-103.515625
4403		-99.609375
4404		-103.515625
4405		-99.609375
4406		-103.515625
4407		-99.609375
4408		-103.515625
4409		-99.609375
4410		-103.515625
4411		-99.609375
4412		-103.515625
4413		-99.609375
4414		-103.515625
4415		-99.609375
4416		-101.562500
4417		-99.609375
4418		-101.562500
4419		-97.656250
4420		-101.562500
4421		-95.703125
4422		-99.609375
4423		-97.656250
4424		-99.609375
4425		-95.703125
4426		-99.609375
4427		-93.750000
4428		-97.656250
4429		-93.750000
4430		-97.656250
4431		-93.750000
4432		-95.703125
4433		-91.796875
4434		-95.703125
4435		-91.796875
4436		-93.750000
4437		-89.843750
4438		-91.796875
4439		-89.843750
4440		-91.796875
4441		-87.890625
4442		-89.843750
4443		-85.937500
4444		-87.890625
4445		-83.984375
4446		-87.890625
4447		-82.031250
4448		-85.937500
4449		-82.031250
4450		-83.984375
4451		-80.078125
4452		-82.031250
4453		-78.125000
4454		-80.078125
4455		-76.171875
4456		-78.125000
4457		-74.218750
4458		-76.171875
4459		-72.265625
4460		-74.218750
4461		-70.312500
4462		-72.265625
4463		-68.359375
4464		-70.312500
4465		-66.406250
4466		-68.359375
4467		-64.453125
4468		-66.406250
4469		-62.500000
4470		-64.453125
4471		-58.593750
4472		-62.500000
4473		-58.593750
4474		-58.593750
4475		-54.687500
4476		-58.593750
4477		-52.734375
4478		-54.687500
4479		-48.828125
4480		-52.734375
4481		-48.828125
4482		-50.781250
4483		-44.921875
4484		-46.875000
4485		-42.968750
4486		-44.921875
4487		-41.015625
4488		-44.921875
4489		-39.062500
4490		-39.062500
4491		-35.156250
4492		-37.109375
4493		-31.250000
4494		-35.156250
4495		-31.250000
4496		-33.203125
4497		-27.343750
4498		-31.250000
4499		-25.390625
4500		-27.343750
4501		-23.437500
4502		-25.390625
4503		-19.531250
4504		-21.484375
4505		-17.578125
4506		-19.531250
4507		-15.625000
4508		-15.625000
4509		-9.765625
4510		-13.671875
4511		-7.812500
4512		-11.718750
4513		-7.812500
4514		-7.812500
4515		-3.906250
4516		-5.859375
4517		-1.953125
4518		-3.906250
4519		1.953125
4520		0.000000
4521		3.906250
4522		1.953125
4523		5.859375
4524		3.906250
4525		9.765625
4526		7.812500
4527		11.718750
4528		9.765625
4529		15.625000
4530		11.718750
4531		17.578125
4532		15.625000
4533		19.531250
4534		17.578125
4535		23.437500
4536		19.531250
4537		25.390625
4538		21.484375
4539		27.343750
4540		25.390625
4541		29.296875
4542		27.343750
4543		33.203125
4544		29.296875
4545		35.156250
4546		33.203125
4547		37.109375
4548		35.156250
4549		39.062500
4550		37.109375
4551		41.015625
4552		39.062500
4553		44.921875
4554		41.015625
4555		46.875000
4556		44.921875
4557		48.828125
4558		46.875000
4559		50.781250
4560		46.875000
4561		52.734375
4562		50.781250
4563		54.687500
4564		52.734375
4565		56.640625
4566		54.687500
4567		60.546875
4568		56.640625
4569		60.546875
4570		58.593750
4571		64.453125
4572		60.546875
4573		64.453125
4574		62.500000
4575		66.406250
4576		64.453125
4577		68.359375
4578		66.406250
4579		70.312500
4580		68.359375
4581		72.265625
4582		68.359375
4583		74.218750
4584		72.265625
4585		76.171875
4586		72.265625
4587		78.125000
4588		74.218750
4589		78.125000
4590		76.171875
4591		78.125000
4592		76.171875
4593		82.031250
4594		76.171875
4595		82.031250
4596		80.078125
4597		83.984375
4598		82.031250
4599		83.984375
4600		82.031250
4601		85.937500
4602		83.984375
4603		87.890625
4604		83.984375
4605		89.843750
4606		85.937500
4607		87.890625
4608		85.937500
4609		89.843750
4610		87.890625
4611		91.796875
4612		87.890625
4613		91.796875
4614		89.843750
4615		91.796875
4616		89.843750
4617		93.750000
4618		89.843750
4619		93.750000
4620		91.796875
4621		95.703125
4622		89.843750
4623		95.703125
4624		93.750000
4625		95.703125
4626		91.796875
4627		95.703125
4628		93.750000
4629		97.656250
4630		93.750000
4631		97.656250
4632		93.750000
4633		97.656250
4634		93.750000
4635		97.656250
4636		93.750000
4637		97.656250
4638		93.750000
4639		97.656250
4640		95.703125
4641		97.656250
4642		95.703125
4643		97.656250
4644		93.750000
4645		97.656250
4646		93.750000
4647		97.656250
4648		93.750000
4649		97.656250
4650		93.750000
4651		97.656250
4652		93.750000
4653		97.656250
4654		93.750000
4655		97.656250
4656		93.750000
4657		97.656250
4658		93.750000
4659		95.703125
4660		91.796875
4661		95.703125
4662		91.796875
4663		93.750000
4664		91.796875
4665		93.750000
4666		89.843750
4667		93.750000
4668		87.890625
4669		91.796875
4670		87.890625
4671		91.796875
4672		85.937500
4673		91.796875
4674		87.890625
4675		89.843750
4676		85.937500
4677		87.890625
4678		83.984375
4679		89.843750
4680		82.031250
4681		85.937500
4682		82.031250
4683		85.937500
4684		80.078125
4685		83.984375
4686		78.125000
4687		83.984375
4688		76.171875
4689		82.031250
4690		76.171875
4691		80.078125
4692		74.218750
4693		78.125000
4694		74.218750
4695		78.125000
4696		72.265625
4697		76.171875
4698		70.312500
4699		74.218750
4700		68.359375
4701		74.218750
4702		66.406250
4703		72.265625
4704		64.453125
4705		68.359375
4706		64.453125
4707		68.359375
4708		62.500000
4709		64.453125
4710		58.593750
4711		64.453125
4712		56.640625
4713		62.500000
4714		54.687500
4715		60.546875
4716		54.687500
4717		58.593750
4718		50.781250
4719		54.687500
4720		48.828125
4721		52.734375
4722		46.875000
4723		50.781250
4724		44.921875
4725		48.828125
4726		42.968750
4727		46.875000
4728		41.015625
4729		44.921875
4730		39.062500
4731		42.968750
4732		35.156250
4733		41.015625
4734		33.203125
4735		37.109375
4736		31.250000
4737		35.156250
4738		27.343750
4739		33.203125
4740		27.343750
4741		31.250000
4742		23.437500
4743		27.343750
4744		21.484375
4745		25.390625
4746		19.531250
4747		23.437500
4748		15.625000
4749		19.531250
4750		13.671875
4751		17.578125
4752		11.718750
4753		15.625000
4754		7.812500
4755		11.718750
4756		5.859375
4757		9.765625
4758		3.906250
4759		7.812500
4760		0.000000
4761		3.906250
4762		-1.953125
4763		1.953125
4764		-5.859375
4765		0.000000
4766		-7.812500
4767		-1.953125
4768		-9.765625
4769		-5.859375
4770		-13.671875
4771		-7.812500
4772		-15.625000
4773		-11.718750
4774		-17.578125
4775		-11.718750
4776		-21.484375
4777		-17.578125
4778		-23.437500
4779		-19.531250
4780		-25.390625
4781		-21.484375
4782		-29.296875
4783		-25.390625
4784		-31.250000
4785		-25.390625
4786		-33.203125
4787		-29.296875
4788		-37.109375
4789		-31.250000
4790		-39.062500
4791		-35.156250
4792		-41.015625
4793		-37.109375
4794		-44.921875
4795		-39.062500
4796		-46.875000
4797		-41.015625
4798		-48.828125
4799		-44.921875
4800		-52.734375
4801		-46.875000
4802		-52.734375
4803		-48.828125
4804		-56.640625
4805		-50.781250
4806		-58.593750
4807		-52.734375
4808		-60.546875
4809		-56.640625
4810		-62.500000
4811		-58.593750
4812		-64.453125
4813		-60.546875
4814		-66.406250
4815		-62.500000
4816		-68.359375
4817		-64.453125
4818		-70.312500
4819		-66.406250
4820		-72.265625
4821		-68.359375
4822		-74.218750
4823		-70.312500
4824		-76.171875
4825		-72.265625
4826		-78.125000
4827		-74.218750
4828		-80.078125
4829		-76.171875
4830		-82.031250
4831		-78.125000
4832		-83.984375
4833		-80.078125
4834		-85.937500
4835		-82.031250
4836		-85.937500
4837		-82.031250
4838		-87.890625
4839		-83.984375
4840		-89.843750
4841		-85.937500
4842		-89.843750
4843		-87.890625
4844		-91.796875
4845		-89.843750
4846		-93.750000
4847		-89.843750
4848		-95.703125
4849		-89.843750
4850		-95.703125
4851		-91.796875
4852		-97.656250
4853		-93.750000
4854		-97.656250
4855		-93.750000
4856		-97.656250
4857		-95.703125
4858		-97.656250
4859		-95.703125
4860		-99.609375
4861		-97.656250
4862		-101.562500
4863		-95.703125
4864		-101.562500
4865		-97.656250
4866		-101.562500
4867		-97.656250
4868		-101.562500
4869		-97.656250
4870		-101.562500
4871		-99.609375
4872		-101.562500
4873		-97.656250
4874		-103.515625
4875		-97.656250
4876		-101.562500
4877		-99.609375
4878		-103.515625
4879		-97.656250
4880		-101.562500
4881		-97.656250
4882		-101.562500
4883		-99.609375
4884		-101.562500
4885		-97.656250
4886		-101.562500
4887		-97.656250
4888		-101.562500
4889		-97.656250
4890		-101.562500
4891		-95.703125
4892		-99.609375
4893		-97.656250
4894		-99.609375
4895		-95.703125
4896		-97.656250
4897		-95.703125
4898		-97.656250
4899		-93.750000
4900		-97.656250
4901		-93.750000
4902		-95.703125
4903		-91.796875
4904		-95.703125
4905		-91.796875
4906		-93.750000
4907		-89.843750
4908		-93.750000
4909		-89.843750
4910		-91.796875
4911		-87.890625
4912		-89.843750
4913		-85.937500
4914		-89.843750
4915		-85.937500
4916		-87.890625
4917		-83.984375
4918		-85.937500
4919		-82.031250
4920		-83.984375
4921		-80.078125
4922		-82.031250
4923		-80.078125
4924		-82.031250
4925		-78.125000
4926		-80.078125
4927		-76.171875
4928		-78.125000
4929		-74.218750
4930		-76.171875
4931		-72.265625
4932		-74.218750
4933		-70.312500
4934		-72.265625
4935		-68.359375
4936		-70.312500
4937		-66.406250
4938		-68.359375
4939		-64.453125
4940		-66.406250
4941		-62.500000
4942		-64.453125
4943		-60.546875
4944		-60.546875
4945		-56.640625
4946		-58.593750
4947		-54.687500
4948		-56.640625
4949		-52.734375
4950		-54.687500
4951		-50.781250
4952		-52.734375
4953		-46.875000
4954		-50.781250
4955		-44.921875
4956		-48.828125
4957		-42.968750
4958		-44.921875
4959		-41.015625
4960		-42.968750
4961		-39.062500
4962		-39.062500
4963		-35.156250
4964		-37.109375
4965		-33.203125
4966		-35.156250
4967		-31.250000
4968		-31.250000
4969		-27.343750
4970		-29.296875
4971		-25.390625
4972		-27.343750
4973		-23.437500
4974		-23.437500
4975		-19.531250
4976		-21.484375
4977		-17.578125
4978		-19.531250
4979		-15.625000
4980		-17.578125
4981		-11.718750
4982		-13.671875
4983		-9.765625
4984		-11.718750
4985		-5.859375
4986		-7.812500
4987		-3.906250
4988		-5.859375
4989		-1.953125
4990		-3.906250
4991		1.953125
4992		0.000000
4993		3.906250
4994		1.953125
4995		5.859375
4996		3.906250
4997		9.765625
4998		7.812500
4999		11.718750
5000		9.765625
5001		13.671875
5002		13.671875
5003		17.578125
5004		15.625000
5005		19.531250
5006		17.578125
5007		21.484375
5008		19.531250
5009		23.437500
5010		23.437500
5011		27.343750
5012		25.390625
5013		29.296875
5014		25.390625
5015		33.203125
5016		29.296875
5017		35.156250
5018		31.250000
5019		37.109375
5020		35.156250
5021		39.062500
5022		37.109375
5023		41.015625
5024		39.062500
5025		44.921875
5026		41.015625
5027		44.921875
5028		44.921875
5029		46.875000
5030		46.875000
5031		50.781250
5032		46.875000
5033		52.734375
5034		50.781250
5035		54.687500
5036		52.734375
5037		56.640625
5038		54.687500
5039		58.593750
5040		56.640625
5041		60.546875
5042		58.593750
5043		62.500000
5044		60.546875
5045		64.453125
5046		62.500000
5047		66.406250
5048		64.453125
5049		68.359375
5050		66.406250
5051		70.312500
5052		68.359375
5053		72.265625
5054		70.312500
5055		74.218750
5056		70.312500
5057		74.218750
5058		72.265625
5059		76.171875
5060		74.218750
5061		78.125000
5062		76.171875
5063		78.125000
5064		76.171875
5065		82.031250
5066		78.125000
5067		82.031250
5068		80.078125
5069		83.984375
5070		82.031250
5071		83.984375
5072		82.031250
5073		85.937500
5074		83.984375
5075		87.890625
5076		83.984375
5077		87.890625
5078		85.937500
5079		87.890625
5080		85.937500
5081		89.843750
5082		85.937500
5083		91.796875
5084		87.890625
5085		91.796875
5086		89.843750
5087		91.796875
5088		89.843750
5089		93.750000
5090		89.843750
5091		93.750000
5092		91.796875
5093		95.703125
5094		91.796875
5095		95.703125
5096		93.750000
5097		95.703125
5098		93.750000
5099		97.656250
5100		93.750000
5101		97.656250
5102		93.750000
5103		97.656250
5104		93.750000
5105		97.656250
5106		95.703125
5107		97.656250
5108		95.703125
5109		97.656250
5110		93.750000
5111		99.609375
5112		95.703125
5113		97.656250
5114		95.703125
5115		99.609375
5116		95.703125
5117		99.609375
5118		95.703125
5119		97.656250
5120		93.750000
5121		97.656250
5122		93.750000
5123		97.656250
5124		93.750000
5125		97.656250
5126		93.750000
5127		97.656250
5128		93.750000
5129		95.703125
5130		93.750000
5131		95.703125
5132		91.796875
5133		95.703125
5134		91.796875
5135		95.703125
5136		89.843750
5137		95.703125
5138		89.843750
5139		93.750000
5140		89.843750
5141		93.750000
5142		87.890625
5143		93.750000
5144		87.890625
5145		91.796875
5146		87.890625
5147		89.843750
5148		85.937500
5149		89.843750
5150		85.937500
5151		89.843750
5152		83.984375
5153		87.890625
5154		82.031250
5155		85.937500
5156		82.031250
5157		85.937500
5158		80.078125
5159		83.984375
5160		78.125000
5161		83.984375
5162		78.125000
5163		82.031250
5164		76.171875
5165		80.078125
5166		74.218750
5167		78.125000
5168		72.265625
5169		76.171875
5170		72.265625
5171		76.171875
5172		70.312500
5173		74.218750
5174		68.359375
5175		72.265625
5176		66.406250
5177		70.312500
5178		64.453125
5179		68.359375
5180		62.500000
5181		66.406250
5182		60.546875
5183		64.453125
5184		58.593750
5185		62.500000
5186		56.640625
5187		62.500000
5188		54.687500
5189		58.593750
5190		52.734375
5191		56.640625
5192		50.781250
5193		54.687500
5194		48.828125
5195		54.687500
5196		46.875000
5197		50.781250
5198		42.968750
5199		48.828125
5200		41.015625
5201		46.875000
5202		39.062500
5203		44.921875
5204		37.109375
5205		41.015625
5206		35.156250
5207		39.062500
5208		31.250000
5209		37.109375
5210		29.296875
5211		33.203125
5212		27.343750
5213		31.250000
5214		25.390625
5215		29.296875
5216		23.437500
5217		27.343750
5218		19.531250
5219		25.390625
5220		17.578125
5221		21.484375
5222		15.625000
5223		19.531250
5224		11.718750
5225		17.578125
5226		7.812500
5227		13.671875
5228		7.812500
5229		11.718750
5230		3.906250
5231		7.812500
5232		1.953125
5233		5.859375
5234		0.000000
5235		3.906250
5236		-3.906250
5237		0.000000
5238		-5.859375
5239		-1.953125
5240		-9.765625
5241		-3.906250
5242		-11.718750
5243		-7.812500
5244		-13.671875
5245		-7.812500
5246		-17.578125
5247		-13.671875
5248		-19.531250
5249		-15.625000
5250		-21.484375
5251		-17.578125
5252		-25.390625
5253		-19.531250
5254		-27.343750
5255		-23.437500
5256		-29.296875
5257		-25.390625
5258		-33.203125
5259		-27.343750
5260		-35.156250
5261		-31.250000
5262		-37.109375
5263		-33.203125
5264		-41.015625
5265		-35.156250
5266		-42.968750
5267		-39.062500
5268		-44.921875
5269		-41.015625
5270		-48.828125
5271		-42.968750
5272		-50.781250
5273		-44.921875
5274		-52.734375
5275		-48.828125
5276		-54.687500
5277		-48.828125
5278		-56.640625
5279		-52.734375
5280		-58.593750
5281		-54.687500
5282		-62.500000
5283		-56.640625
5284		-64.453125
5285		-60.546875
5286		-64.453125
5287		-60.546875
5288		-68.359375
5289		-62.500000
5290		-70.312500
5291		-66.406250
5292		-72.265625
5293		-68.359375
5294		-74.218750
5295		-70.312500
5296		-76.171875
5297		-72.265625
5298		-78.125000
5299		-72.265625
5300		-78.125000
5301		-74.218750
5302		-82.031250
5303		-76.171875
5304		-82.031250
5305		-78.125000
5306		-83.984375
5307		-78.125000
5308		-85.937500
5309		-82.031250
5310		-87.890625
5311		-83.984375
5312		-87.890625
5313		-83.984375
5314		-89.843750
5315		-85.937500
5316		-89.843750
5317		-87.890625
5318		-91.796875
5319		-87.890625
5320		-93.750000
5321		-89.843750
5322		-95.703125
5323		-91.796875
5324		-95.703125
5325		-91.796875
5326		-95.703125
5327		-93.750000
5328		-97.656250
5329		-93.750000
5330		-97.656250
5331		-95.703125
5332		-99.609375
5333		-95.703125
5334		-99.609375
5335		-95.703125
5336		-99.609375
5337		-97.656250
5338		-99.609375
5339		-95.703125
5340		-101.562500
5341		-97.656250
5342		-101.562500
5343		-97.656250
5344		-101.562500
5345		-97.656250
5346		-101.562500
5347		-99.609375
5348		-101.562500
5349		-99.609375
5350		-103.515625
5351		-97.656250
5352		-101.562500
5353		-97.656250
5354		-101.562500
5355		-97.656250
5356		-101.562500
5357		-97.656250
5358		-101.562500
5359		-97.656250
5360		-101.562500
5361		-97.656250
5362		-101.562500
5363		-97.656250
5364		-99.609375
5365		-95.703125
5366		-99.609375
5367		-95.703125
5368		-97.656250
5369		-95.703125
5370		-97.656250
5371		-93.750000
5372		-95.703125
5373		-93.750000
5374		-95.703125
5375		-91.796875
5376		-95.703125
5377		-91.796875
5378		-93.750000
5379		-89.843750
5380		-91.796875
5381		-89.843750
5382		-91.796875
5383		-87.890625
5384		-89.843750
5385		-87.890625
5386		-89.843750
5387		-83.984375
5388		-87.890625
5389		-83.984375
5390		-85.937500
5391		-82.031250
5392		-83.984375
5393		-80.078125
5394		-83.984375
5395		-80.078125
5396		-82.031250
5397		-78.125000
5398		-80.078125
5399		-76.171875
5400		-78.125000
5401		-74.218750
5402		-76.171875
5403		-72.265625
5404		-74.218750
5405		-70.312500
5406		-72.265625
5407		-68.359375
5408		-70.312500
5409		-66.406250
5410		-68.359375
5411		-64.453125
5412		-66.406250
5413		-62.500000
5414		-64.453125
5415		-60.546875
5416		-62.500000
5417		-56.640625
5418		-60.546875
5419		-54.687500
5420		-56.640625
5421		-52.734375
5422		-54.687500
5423		-50.781250
5424		-52.734375
5425		-48.828125
5426		-50.781250
5427		-46.875000
5428		-48.828125
5429		-42.968750
5430		-44.921875
5431		-41.015625
5432		-42.968750
5433		-39.062500
5434		-41.015625
5435		-35.156250
5436		-37.109375
5437		-33.203125
5438		-35.156250
5439		-31.250000
5440		-33.203125
5441		-29.296875
5442		-29.296875
5443		-25.390625
5444		-27.343750
5445		-21.484375
5446		-25.390625
5447		-21.484375
5448		-21.484375
5449		-17.578125
5450		-19.531250
5451		-15.625000
5452		-17.578125
5453		-11.718750
5454		-13.671875
5455		-9.765625
5456		-11.718750
5457		-7.812500
5458		-9.765625
5459		-3.906250
5460		-5.859375
5461		-1.953125
5462		-3.906250
5463		1.953125
5464		0.000000
5465		3.906250
5466		1.953125
5467		5.859375
5468		1.953125
5469		7.812500
5470		5.859375
5471		11.718750
5472		9.765625
5473		13.671875
5474		11.718750
5475		15.625000
5476		13.671875
5477		19.531250
5478		17.578125
5479		21.484375
5480		17.578125
5481		23.437500
5482		23.437500
5483		27.343750
5484		25.390625
5485		29.296875
5486		27.343750
5487		33.203125
5488		29.296875
5489		35.156250
5490		31.250000
5491		37.109375
5492		35.156250
5493		39.062500
5494		37.109375
5495		41.015625
5496		39.062500
5497		42.968750
5498		41.015625
5499		44.921875
5500		44.921875
5501		48.828125
5502		44.921875
5503		50.781250
5504		48.828125
5505		52.734375
5506		50.781250
5507		54.687500
5508		52.734375
5509		56.640625
5510		54.687500
5511		58.593750
5512		56.640625
5513		60.546875
5514		58.593750
5515		62.500000
5516		60.546875
5517		64.453125
5518		62.500000
5519		66.406250
5520		62.500000
5521		68.359375
5522		66.406250
5523		70.312500
5524		68.359375
5525		72.265625
5526		68.359375
5527		74.218750
5528		70.312500
5529		74.218750
5530		72.265625
5531		76.171875
5532		74.218750
5533		78.125000
5534		76.171875
5535		80.078125
5536		78.125000
5537		82.031250
5538		78.125000
5539		82.031250
5540		80.078125
5541		83.984375
5542		80.078125
5543		85.937500
5544		82.031250
5545		85.937500
5546		83.984375
5547		87.890625
5548		83.984375
5549		87.890625
5550		85.937500
5551		89.843750
5552		85.937500
5553		91.796875
5554		87.890625
5555		91.796875
5556		87.890625
5557		91.796875
5558		89.843750
5559		93.750000
5560		89.843750
5561		93.750000
5562		91.796875
5563		93.750000
5564		91.796875
5565		95.703125
5566		93.750000
5567		95.703125
5568		91.796875
5569		97.656250
5570		93.750000
5571		97.656250
5572		93.750000
5573		97.656250
5574		93.750000
5575		97.656250
5576		95.703125
5577		97.656250
5578		95.703125
5579		97.656250
5580		93.750000
5581		99.609375
5582		95.703125
5583		97.656250
5584		95.703125
5585		99.609375
5586		95.703125
5587		99.609375
5588		95.703125
5589		99.609375
5590		95.703125
5591		97.656250
5592		95.703125
5593		97.656250
5594		95.703125
5595		97.656250
5596		93.750000
5597		99.609375
5598		95.703125
5599		97.656250
5600		95.703125
5601		97.656250
5602		93.750000
5603		97.656250
5604		93.750000
5605		97.656250
5606		91.796875
5607		95.703125
5608		91.796875
5609		95.703125
5610		91.796875
5611		95.703125
5612		89.843750
5613		93.750000
5614		89.843750
5615		93.750000
5616		89.843750
5617		91.796875
5618		87.890625
5619		91.796875
5620		85.937500
5621		89.843750
5622		85.937500
5623		89.843750
5624		85.937500
5625		89.843750
5626		83.984375
5627		87.890625
5628		82.031250
5629		85.937500
5630		82.031250
5631		85.937500
5632		80.078125
5633		83.984375
5634		80.078125
5635		82.031250
5636		78.125000
5637		82.031250
5638		76.171875
5639		80.078125
5640		74.218750
5641		78.125000
5642		72.265625
5643		78.125000
5644		70.312500
5645		74.218750
5646		68.359375
5647		74.218750
5648		68.359375
5649		72.265625
5650		66.406250
5651		70.312500
5652		64.453125
5653		68.359375
5654		62.500000
5655		66.406250
5656		58.593750
5657		64.453125
5658		56.640625
5659		62.500000
5660		56.640625
5661		60.546875
5662		54.687500
5663		58.593750
5664		50.781250
5665		56.640625
5666		50.781250
5667		54.687500
5668		46.875000
5669		50.781250
5670		44.921875
5671		48.828125
5672		42.968750
5673		46.875000
5674		41.015625
5675		44.921875
5676		39.062500
5677		42.968750
5678		35.156250
5679		41.015625
5680		33.203125
5681		37.109375
5682		31.250000
5683		35.156250
5684		29.296875
5685		33.203125
5686		25.390625
5687		31.250000
5688		23.437500
5689		29.296875
5690		19.531250
5691		25.390625
5692		19.531250
5693		23.437500
5694		15.625000
5695		21.484375
5696		13.671875
5697		19.531250
5698		11.718750
5699		17.578125
5700		7.812500
5701		13.671875
5702		5.859375
5703		9.765625
5704		3.906250
5705		9.765625
5706		0.000000
5707		5.859375
5708		-1.953125
5709		3.906250
5710		-5.859375
5711		0.000000
5712		-7.812500
5713		-1.953125
5714		-9.765625
5715		-5.859375
5716		-11.718750
5717		-7.812500
5718		-15.625000
5719		-11.718750
5720		-19.531250
5721		-13.671875
5722		-21.484375
5723		-15.625000
5724		-23.437500
5725		-17.578125
5726		-25.390625
5727		-19.531250
5728		-29.296875
5729		-23.437500
5730		-31.250000
5731		-25.390625
5732		-33.203125
5733		-27.343750
5734		-35.156250
5735		-31.250000
5736		-39.062500
5737		-35.156250
5738		-42.968750
5739		-35.156250
5740		-44.921875
5741		-39.062500
5742		-46.875000
5743		-41.015625
5744		-48.828125
5745		-42.968750
5746		-52.734375
5747		-44.921875
5748		-52.734375
5749		-48.828125
5750		-54.687500
5751		-50.781250
5752		-58.593750
5753		-52.734375
5754		-60.546875
5755		-54.687500
5756		-62.500000
5757		-56.640625
5758		-64.453125
5759		-58.593750
5760		-68.359375
5761		-60.546875
5762		-70.312500
5763		-64.453125
5764		-72.265625
5765		-64.453125
5766		-72.265625
5767		-68.359375
5768		-74.218750
5769		-70.312500
5770		-78.125000
5771		-70.312500
5772		-80.078125
5773		-74.218750
5774		-80.078125
5775		-74.218750
5776		-82.031250
5777		-76.171875
5778		-83.984375
5779		-78.125000
5780		-85.937500
5781		-80.078125
5782		-85.937500
5783		-80.078125
5784		-87.890625
5785		-83.984375
5786		-89.843750
5787		-83.984375
5788		-91.796875
5789		-83.984375
5790		-91.796875
5791		-85.937500
5792		-93.750000
5793		-87.890625
5794		-93.750000
5795		-89.843750
5796		-95.703125
5797		-89.843750
5798		-95.703125
5799		-89.843750
5800		-95.703125
5801		-93.750000
5802		-97.656250
5803		-93.750000
5804		-97.656250
5805		-95.703125
5806		-97.656250
5807		-95.703125
5808		-99.609375
5809		-95.703125
5810		-99.609375
5811		-95.703125
5812		-99.609375
5813		-97.656250
5814		-99.609375
5815		-97.656250
5816		-99.609375
5817		-97.656250
5818		-99.609375
5819		-97.656250
5820		-101.562500
5821		-97.656250
5822		-101.562500
5823		-97.656250
5824		-99.609375
5825		-97.656250
5826		-99.609375
5827		-97.656250
5828		-99.609375
5829		-97.656250
5830		-99.609375
5831		-97.656250
5832		-101.562500
5833		-97.656250
5834		-99.609375
5835		-95.703125
5836		-97.656250
5837		-95.703125
5838		-97.656250
5839		-95.703125
5840		-97.656250
5841		-95.703125
5842		-97.656250
5843		-93.750000
5844		-95.703125
5845		-93.750000
5846		-95.703125
5847		-91.796875
5848		-93.750000
5849		-91.796875
5850		-93.750000
5851		-89.843750
5852		-91.796875
5853		-89.843750
5854		-91.796875
5855		-87.890625
5856		-89.843750
5857		-87.890625
5858		-87.890625
5859		-85.937500
5860		-87.890625
5861		-83.984375
5862		-85.937500
5863		-82.031250
5864		-83.984375
5865		-82.031250
5866		-82.031250
5867		-80.078125
5868		-82.031250
5869		-78.125000
5870		-80.078125
5871		-76.171875
5872		-78.125000
5873		-74.218750
5874		-76.171875
5875		-72.265625
5876		-74.218750
5877		-70.312500
5878		-72.265625
5879		-68.359375
5880		-70.312500
5881		-66.406250
5882		-68.359375
5883		-64.453125
5884		-66.406250
5885		-62.500000
5886		-64.453125
5887		-60.546875
5888		-62.500000
5889		-58.593750
5890		-60.546875
5891		-56.640625
5892		-56.640625
5893		-52.734375
5894		-54.687500
5895		-50.781250
5896		-52.734375
5897		-48.828125
5898		-50.781250
5899		-46.875000
5900		-46.875000
5901		-42.968750
5902		-44.921875
5903		-41.015625
5904		-44.921875
5905		-35.156250
5906		-42.968750
5907		-33.203125
5908		-41.015625
5909		-29.296875
5910		-37.109375
5911		-31.250000
5912		-33.203125
5913		-29.296875
5914		-29.296875
5915		-25.390625
5916		-27.343750
5917		-23.437500
5918		-25.390625
5919		-21.484375
5920		-21.484375
5921		-17.578125
5922		-23.437500
5923		-13.671875
5924		-21.484375
5925		-9.765625
5926		-17.578125
5927		-7.812500
5928		-11.718750
5929		-7.812500
5930		-9.765625
5931		-5.859375
5932		-7.812500
5933		-1.953125
5934		-3.906250
5935		0.000000
5936		0.000000
5937		1.953125
5938		-1.953125
5939		7.812500
5940		1.953125
5941		11.718750
5942		3.906250
5943		13.671875
5944		9.765625
5945		13.671875
5946		11.718750
5947		15.625000
5948		13.671875
5949		17.578125
5950		17.578125
5951		21.484375
5952		19.531250
5953		23.437500
5954		19.531250
5955		29.296875
5956		21.484375
5957		33.203125
5958		23.437500
5959		35.156250
5960		25.390625
5961		35.156250
5962		31.250000
5963		35.156250
5964		35.156250
5965		39.062500
5966		37.109375
5967		41.015625
5968		39.062500
5969		42.968750
5970		41.015625
5971		44.921875
5972		41.015625
5973		50.781250
5974		42.968750
5975		52.734375
5976		44.921875
5977		54.687500
5978		50.781250
5979		54.687500
5980		52.734375
5981		56.640625
5982		54.687500
5983		58.593750
5984		56.640625
5985		60.546875
5986		58.593750
5987		62.500000
5988		58.593750
5989		68.359375
5990		58.593750
5991		70.312500
5992		60.546875
5993		72.265625
5994		62.500000
5995		70.312500
5996		68.359375
5997		72.265625
5998		70.312500
5999		72.265625
6000		72.265625
6001		74.218750
6002		72.265625
6003		76.171875
6004		74.218750
6005		78.125000
6006		72.265625
6007		82.031250
6008		74.218750
6009		83.984375
6010		76.171875
6011		85.937500
6012		80.078125
6013		83.984375
6014		82.031250
6015		83.984375
6016		82.031250
6017		85.937500
6018		83.984375
6019		87.890625
6020		85.937500
6021		87.890625
6022		83.984375
6023		93.750000
6024		83.984375
6025		93.750000
6026		85.937500
6027		93.750000
6028		89.843750
6029		91.796875
6030		89.843750
6031		93.750000
6032		91.796875
6033		93.750000
6034		91.796875
6035		93.750000
6036		91.796875
6037		95.703125
6038		91.796875
6039		99.609375
6040		91.796875
6041		99.609375
6042		91.796875
6043		99.609375
6044		91.796875
6045		99.609375
6046		93.750000
6047		97.656250
6048		95.703125
6049		97.656250
6050		95.703125
6051		97.656250
6052		95.703125
6053		97.656250
6054		95.703125
6055		97.656250
6056		93.750000
6057		103.515625
6058		93.750000
6059		101.562500
6060		93.750000
6061		103.515625
6062		95.703125
6063		97.656250
6064		95.703125
6065		97.656250
6066		95.703125
6067		97.656250
6068		95.703125
6069		99.609375
6070		95.703125
6071		97.656250
6072		91.796875
6073		101.562500
6074		91.796875
6075		101.562500
6076		89.843750
6077		99.609375
6078		89.843750
6079		99.609375
6080		93.750000
6081		95.703125
6082		91.796875
6083		95.703125
6084		91.796875
6085		93.750000
6086		91.796875
6087		93.750000
6088		89.843750
6089		93.750000
6090		89.843750
6091		91.796875
6092		85.937500
6093		93.750000
6094		85.937500
6095		93.750000
6096		85.937500
6097		89.843750
6098		85.937500
6099		87.890625
6100		83.984375
6101		85.937500
6102		82.031250
6103		85.937500
6104		82.031250
6105		83.984375
6106		80.078125
6107		83.984375
6108		76.171875
6109		85.937500
6110		76.171875
6111		82.031250
6112		76.171875
6113		78.125000
6114		74.218750
6115		78.125000
6116		72.265625
6117		76.171875
6118		70.312500
6119		74.218750
6120		68.359375
6121		72.265625
6122		66.406250
6123		70.312500
6124		64.453125
6125		68.359375
6126		62.500000
6127		68.359375
6128		62.500000
6129		64.453125
6130		60.546875
6131		62.500000
6132		58.593750
6133		60.546875
6134		56.640625
6135		58.593750
6136		54.687500
6137		58.593750
6138		50.781250
6139		54.687500
6140		48.828125
6141		52.734375
6142		46.875000
6143		50.781250
6144		44.921875
6145		48.828125
6146		42.968750
6147		46.875000
6148		41.015625
6149		44.921875
6150		37.109375
6151		41.015625
6152		35.156250
6153		39.062500
6154		33.203125
6155		37.109375
6156		31.250000
6157		35.156250
6158		29.296875
6159		33.203125
6160		25.390625
6161		29.296875
6162		23.437500
6163		27.343750
6164		21.484375
6165		25.390625
6166		17.578125
6167		21.484375
6168		15.625000
6169		19.531250
6170		13.671875
6171		17.578125
6172		9.765625
6173		13.671875
6174		7.812500
6175		11.718750
6176		5.859375
6177		9.765625
6178		1.953125
6179		5.859375
6180		0.000000
6181		3.906250
6182		-1.953125
6183		1.953125
6184		-5.859375
6185		-1.953125
6186		-7.812500
6187		-3.906250
6188		-11.718750
6189		-5.859375
6190		-13.671875
6191		-9.765625
6192		-15.625000
6193		-11.718750
6194		-19.531250
6195		-15.625000
6196		-23.437500
6197		-17.578125
6198		-23.437500
6199		-17.578125
6200		-27.343750
6201		-23.437500
6202		-29.296875
6203		-25.390625
6204		-31.250000
6205		-27.343750
6206		-35.156250
6207		-31.250000
6208		-37.109375
6209		-33.203125
6210		-39.062500
6211		-33.203125
6212		-42.968750
6213		-37.109375
6214		-44.921875
6215		-41.015625
6216		-46.875000
6217		-42.968750
6218		-48.828125
6219		-44.921875
6220		-50.781250
6221		-46.875000
6222		-54.687500
6223		-50.781250
6224		-56.640625
6225		-52.734375
6226		-58.593750
6227		-54.687500
6228		-60.546875
6229		-56.640625
6230		-64.453125
6231		-58.593750
6232		-64.453125
6233		-60.546875
6234		-66.406250
6235		-62.500000
6236		-68.359375
6237		-66.406250
6238		-70.312500
6239		-66.406250
6240		-74.218750
6241		-68.359375
6242		-76.171875
6243		-70.312500
6244		-76.171875
6245		-72.265625
6246		-80.078125
6247		-74.218750
6248		-82.031250
6249		-76.171875
6250		-82.031250
6251		-78.125000
6252		-83.984375
6253		-80.078125
6254		-83.984375
6255		-82.031250
6256		-85.937500
6257		-83.984375
6258		-87.890625
6259		-82.031250
6260		-89.843750
6261		-83.984375
6262		-89.843750
6263		-87.890625
6264		-91.796875
6265		-87.890625
6266		-93.750000
6267		-87.890625
6268		-93.750000
6269		-89.843750
6270		-93.750000
6271		-91.796875
6272		-95.703125
6273		-93.750000
6274		-97.656250
6275		-91.796875
6276		-97.656250
6277		-93.750000
6278		-97.656250
6279		-95.703125
6280		-99.609375
6281		-95.703125
6282		-99.609375
6283		-95.703125
6284		-99.609375
6285		-95.703125
6286		-99.609375
6287		-97.656250
6288		-99.609375
6289		-97.656250
6290		-103.515625
6291		-95.703125
6292		-101.562500
6293		-97.656250
6294		-101.562500
6295		-97.656250
6296		-99.609375
6297		-97.656250
6298		-101.562500
6299		-97.656250
6300		-101.562500
6301		-97.656250
6302		-99.609375
6303		-97.656250
6304		-99.609375
6305		-97.656250
6306		-99.609375
6307		-97.656250
6308		-99.609375
6309		-95.703125
6310		-99.609375
6311		-95.703125
6312		-97.656250
6313		-95.703125
6314		-97.656250
6315		-93.750000
6316		-97.656250
6317		-93.750000
6318		-95.703125
6319		-91.796875
6320		-93.750000
6321		-91.796875
6322		-93.750000
6323		-89.843750
6324		-93.750000
6325		-87.890625
6326		-91.796875
6327		-87.890625
6328		-89.843750
6329		-87.890625
6330		-89.843750
6331		-85.937500
6332		-87.890625
6333		-83.984375
6334		-85.937500
6335		-83.984375
6336		-83.984375
6337		-82.031250
6338		-82.031250
6339		-80.078125
6340		-82.031250
6341		-78.125000
6342		-82.031250
6343		-74.218750
6344		-78.125000
6345		-74.218750
6346		-76.171875
6347		-72.265625
6348		-76.171875
6349		-70.312500
6350		-74.218750
6351		-68.359375
6352		-70.312500
6353		-66.406250
6354		-68.359375
6355		-64.453125
6356		-66.406250
6357		-62.500000
6358		-64.453125
6359		-60.546875
6360		-62.500000
6361		-58.593750
6362		-60.546875
6363		-56.640625
6364		-56.640625
6365		-52.734375
6366		-56.640625
6367		-50.781250
6368		-52.734375
6369		-48.828125
6370		-50.781250
6371		-46.875000
6372		-48.828125
6373		-44.921875
6374		-46.875000
6375		-42.968750
6376		-42.968750
6377		-39.062500
6378		-41.015625
6379		-37.109375
6380		-39.062500
6381		-35.156250
6382		-35.156250
6383		-31.250000
6384		-33.203125
6385		-29.296875
6386		-31.250000
6387		-27.343750
6388		-29.296875
6389		-23.437500
6390		-25.390625
6391		-21.484375
6392		-23.437500
6393		-19.531250
6394		-19.531250
6395		-15.625000
6396		-17.578125
6397		-13.671875
6398		-15.625000
6399		-11.718750
6400		-11.718750
6401		-7.812500
6402		-9.765625
6403		-5.859375
6404		-7.812500
6405		-3.906250
6406		-3.906250
6407		0.000000
6408		-1.953125
6409		1.953125
6410		0.000000
6411		5.859375
6412		3.906250
6413		7.812500
6414		5.859375
6415		9.765625
6416		9.765625
6417		13.671875
6418		11.718750
6419		15.625000
6420		13.671875
6421		17.578125
6422		15.625000
6423		19.531250
6424		19.531250
6425		23.437500
6426		21.484375
6427		25.390625
6428		23.437500
6429		27.343750
6430		27.343750
6431		31.250000
6432		29.296875
6433		33.203125
6434		31.250000
6435		35.156250
6436		33.203125
6437		37.109375
6438		37.109375
6439		41.015625
6440		39.062500
6441		42.968750
6442		41.015625
6443		44.921875
6444		42.968750
6445		46.875000
6446		44.921875
6447		48.828125
6448		48.828125
6449		50.781250
6450		50.781250
6451		52.734375
6452		52.734375
6453		56.640625
6454		54.687500
6455		58.593750
6456		56.640625
6457		60.546875
6458		58.593750
6459		62.500000
6460		60.546875
6461		64.453125
6462		62.500000
6463		66.406250
6464		62.500000
6465		66.406250
6466		66.406250
6467		68.359375
6468		68.359375
6469		70.312500
6470		70.312500
6471		72.265625
6472		72.265625
6473		74.218750
6474		72.265625
6475		76.171875
6476		74.218750
6477		78.125000
6478		76.171875
6479		78.125000
6480		78.125000
6481		80.078125
6482		78.125000
6483		82.031250
6484		80.078125
6485		83.984375
6486		80.078125
6487		83.984375
6488		83.984375
6489		85.937500
6490		83.984375
6491		85.937500
6492		83.984375
6493		89.843750
6494		85.937500
6495		89.843750
6496		87.890625
6497		89.843750
6498		87.890625
6499		91.796875
6500		89.843750
6501		91.796875
6502		89.843750
6503		93.750000
6504		91.796875
6505		93.750000
6506		91.796875
6507		93.750000
6508		91.796875
6509		95.703125
6510		91.796875
6511		95.703125
6512		93.750000
6513		95.703125
6514		93.750000
6515		97.656250
6516		95.703125
6517		97.656250
6518		95.703125
6519		97.656250
6520		95.703125
6521		97.656250
6522		95.703125
6523		97.656250
6524		95.703125
6525		97.656250
6526		95.703125
6527		99.609375
6528		95.703125
6529		101.562500
6530		97.656250
6531		99.609375
6532		97.656250
6533		99.609375
6534		95.703125
6535		99.609375
6536		97.656250
6537		99.609375
6538		95.703125
6539		99.609375
6540		95.703125
6541		99.609375
6542		93.750000
6543		99.609375
6544		93.750000
6545		99.609375
6546		95.703125
6547		99.609375
6548		95.703125
6549		97.656250
6550		93.750000
6551		97.656250
6552		93.750000
6553		95.703125
6554		93.750000
6555		95.703125
6556		91.796875
6557		95.703125
6558		91.796875
6559		93.750000
6560		87.890625
6561		97.656250
6562		89.843750
6563		93.750000
6564		87.890625
6565		91.796875
6566		87.890625
6567		91.796875
6568		87.890625
6569		89.843750
6570		85.937500
6571		89.843750
6572		83.984375
6573		87.890625
6574		83.984375
6575		85.937500
6576		80.078125
6577		85.937500
6578		80.078125
6579		85.937500
6580		80.078125
6581		82.031250
6582		78.125000
6583		82.031250
6584		76.171875
6585		80.078125
6586		76.171875
6587		78.125000
6588		74.218750
6589		76.171875
6590		72.265625
6591		74.218750
6592		70.312500
6593		74.218750
6594		66.406250
6595		74.218750
6596		66.406250
6597		72.265625
6598		64.453125
6599		68.359375
6600		62.500000
6601		66.406250
6602		60.546875
6603		64.453125
6604		58.593750
6605		62.500000
6606		56.640625
6607		60.546875
6608		54.687500
6609		58.593750
6610		50.781250
6611		58.593750
6612		48.828125
6613		56.640625
6614		48.828125
6615		52.734375
6616		46.875000
6617		50.781250
6618		44.921875
6619		46.875000
6620		41.015625
6621		44.921875
6622		39.062500
6623		42.968750
6624		37.109375
6625		41.015625
6626		31.250000
6627		39.062500
6628		31.250000
6629		39.062500
6630		29.296875
6631		35.156250
6632		27.343750
6633		31.250000
6634		25.390625
6635		29.296875
6636		21.484375
6637		27.343750
6638		19.531250
6639		23.437500
6640		17.578125
6641		21.484375
6642		13.671875
6643		17.578125
6644		9.765625
6645		17.578125
6646		7.812500
6647		15.625000
6648		5.859375
6649		11.718750
6650		3.906250
6651		7.812500
6652		1.953125
6653		5.859375
6654		-1.953125
6655		1.953125
6656		-3.906250
6657		0.000000
6658		-5.859375
6659		-1.953125
6660		-11.718750
6661		-5.859375
6662		-13.671875
6663		-5.859375
6664		-13.671875
6665		-9.765625
6666		-17.578125
6667		-13.671875
6668		-19.531250
6669		-15.625000
6670		-23.437500
6671		-17.578125
6672		-25.390625
6673		-21.484375
6674		-27.343750
6675		-23.437500
6676		-31.250000
6677		-27.343750
6678		-33.203125
6679		-25.390625
6680		-35.156250
6681		-29.296875
6682		-37.109375
6683		-35.156250
6684		-41.015625
6685		-37.109375
6686		-42.968750
6687		-39.062500
6688		-44.921875
6689		-41.015625
6690		-46.875000
6691		-42.968750
6692		-50.781250
6693		-46.875000
6694		-54.687500
6695		-46.875000
6696		-56.640625
6697		-48.828125
6698		-58.593750
6699		-52.734375
6700		-58.593750
6701		-54.687500
6702		-60.546875
6703		-58.593750
6704		-64.453125
6705		-60.546875
6706		-66.406250
6707		-62.500000
6708		-68.359375
6709		-64.453125
6710		-70.312500
6711		-66.406250
6712		-72.265625
6713		-66.406250
6714		-74.218750
6715		-70.312500
6716		-76.171875
6717		-72.265625
6718		-78.125000
6719		-74.218750
6720		-80.078125
6721		-76.171875
6722		-80.078125
6723		-78.125000
6724		-82.031250
6725		-78.125000
6726		-83.984375
6727		-80.078125
6728		-85.937500
6729		-82.031250
6730		-85.937500
6731		-83.984375
6732		-87.890625
6733		-85.937500
6734		-89.843750
6735		-85.937500
6736		-89.843750
6737		-87.890625
6738		-91.796875
6739		-87.890625
6740		-91.796875
6741		-89.843750
6742		-93.750000
6743		-89.843750
6744		-95.703125
6745		-89.843750
6746		-95.703125
6747		-93.750000
6748		-95.703125
6749		-93.750000
6750		-97.656250
6751		-93.750000
6752		-97.656250
6753		-95.703125
6754		-97.656250
6755		-95.703125
6756		-97.656250
6757		-95.703125
6758		-99.609375
6759		-95.703125
6760		-99.609375
6761		-97.656250
6762		-99.609375
6763		-97.656250
6764		-99.609375
6765		-97.656250
6766		-99.609375
6767		-97.656250
6768		-99.609375
6769		-97.656250
6770		-99.609375
6771		-97.656250
6772		-99.609375
6773		-97.656250
6774		-99.609375
6775		-95.703125
6776		-99.609375
6777		-97.656250
6778		-99.609375
6779		-95.703125
6780		-97.656250
6781		-95.703125
6782		-97.656250
6783		-95.703125
6784		-97.656250
6785		-93.750000
6786		-95.703125
6787		-93.750000
6788		-95.703125
6789		-93.750000
6790		-95.703125
6791		-91.796875
6792		-93.750000
6793		-91.796875
6794		-93.750000
6795		-89.843750
6796		-91.796875
6797		-89.843750
6798		-91.796875
6799		-87.890625
6800		-89.843750
6801		-87.890625
6802		-87.890625
6803		-85.937500
6804		-87.890625
6805		-83.984375
6806		-85.937500
6807		-82.031250
6808		-83.984375
6809		-82.031250
6810		-82.031250
6811		-80.078125
6812		-82.031250
6813		-78.125000
6814		-80.078125
6815		-76.171875
6816		-80.078125
6817		-74.218750
6818		-76.171875
6819		-72.265625
6820		-74.218750
6821		-70.312500
6822		-72.265625
6823		-68.359375
6824		-70.312500
6825		-66.406250
6826		-68.359375
6827		-64.453125
6828		-66.406250
6829		-62.500000
6830		-64.453125
6831		-60.546875
6832		-62.500000
6833		-58.593750
6834		-60.546875
6835		-56.640625
6836		-58.593750
6837		-54.687500
6838		-56.640625
6839		-52.734375
6840		-52.734375
6841		-48.828125
6842		-50.781250
6843		-46.875000
6844		-48.828125
6845		-44.921875
6846		-46.875000
6847		-41.015625
6848		-44.921875
6849		-39.062500
6850		-41.015625
6851		-37.109375
6852		-39.062500
6853		-35.156250
6854		-37.109375
6855		-33.203125
6856		-33.203125
6857		-29.296875
6858		-31.250000
6859		-27.343750
6860		-29.296875
6861		-25.390625
6862		-25.390625
6863		-21.484375
6864		-23.437500
6865		-19.531250
6866		-21.484375
6867		-15.625000
6868		-17.578125
6869		-13.671875
6870		-15.625000
6871		-11.718750
6872		-13.671875
6873		-9.765625
6874		-9.765625
6875		-5.859375
6876		-7.812500
6877		-3.906250
6878		-3.906250
6879		0.000000
6880		-1.953125
6881		1.953125
6882		0.000000
6883		3.906250
6884		3.906250
6885		7.812500
6886		5.859375
6887		9.765625
6888		7.812500
6889		11.718750
6890		9.765625
6891		15.625000
6892		13.671875
6893		17.578125
6894		15.625000
6895		19.531250
6896		19.531250
6897		23.437500
6898		21.484375
6899		25.390625
6900		23.437500
6901		27.343750
6902		27.343750
6903		31.250000
6904		29.296875
6905		33.203125
6906		31.250000
6907		35.156250
6908		33.203125
6909		37.109375
6910		35.156250
6911		41.015625
6912		39.062500
6913		42.968750
6914		41.015625
6915		44.921875
6916		42.968750
6917		46.875000
6918		44.921875
6919		48.828125
6920		46.875000
6921		50.781250
6922		48.828125
6923		52.734375
6924		52.734375
6925		54.687500
6926		52.734375
6927		56.640625
6928		56.640625
6929		58.593750
6930		58.593750
6931		60.546875
6932		60.546875
6933		64.453125
6934		62.500000
6935		64.453125
6936		64.453125
6937		66.406250
6938		66.406250
6939		68.359375
6940		66.406250
6941		70.312500
6942		70.312500
6943		72.265625
6944		70.312500
6945		74.218750
6946		72.265625
6947		76.171875
6948		74.218750
6949		78.125000
6950		76.171875
6951		78.125000
6952		78.125000
6953		80.078125
6954		78.125000
6955		82.031250
6956		80.078125
6957		83.984375
6958		82.031250
6959		83.984375
6960		82.031250
6961		85.937500
6962		83.984375
6963		85.937500
6964		85.937500
6965		87.890625
6966		85.937500
6967		89.843750
6968		87.890625
6969		89.843750
6970		87.890625
6971		91.796875
6972		89.843750
6973		91.796875
6974		89.843750
6975		93.750000
6976		91.796875
6977		93.750000
6978		91.796875
6979		93.750000
6980		93.750000
6981		95.703125
6982		93.750000
6983		95.703125
6984		93.750000
6985		95.703125
6986		93.750000
6987		97.656250
6988		95.703125
6989		97.656250
6990		95.703125
6991		97.656250
6992		95.703125
6993		99.609375
6994		95.703125
6995		99.609375
6996		97.656250
6997		99.609375
6998		97.656250
6999		99.609375
7000		97.656250
7001		99.609375
7002		97.656250
7003		99.609375
7004		97.656250
7005		99.609375
7006		97.656250
7007		99.609375
7008		97.656250
7009		99.609375
7010		97.656250
7011		99.609375
7012		97.656250
7013		99.609375
7014		97.656250
7015		99.609375
7016		95.703125
7017		99.609375
7018		95.703125
7019		97.656250
7020		95.703125
7021		97.656250
7022		95.703125
7023		97.656250
7024		95.703125
7025		97.656250
7026		93.750000
7027		95.703125
7028		91.796875
7029		95.703125
7030		91.796875
7031		95.703125
7032		91.796875
7033		93.750000
7034		91.796875
7035		93.750000
7036		89.843750
7037		91.796875
7038		89.843750
7039		91.796875
7040		87.890625
7041		91.796875
7042		85.937500
7043		89.843750
7044		85.937500
7045		87.890625
7046		83.984375
7047		87.890625
7048		83.984375
7049		85.937500
7050		82.031250
7051		85.937500
7052		80.078125
7053		83.984375
7054		80.078125
7055		82.031250
7056		78.125000
7057		80.078125
7058		76.171875
7059		80.078125
7060		74.218750
7061		78.125000
7062		72.265625
7063		76.171875
7064		72.265625
7065		74.218750
7066		70.312500
7067		72.265625
7068		68.359375
7069		70.312500
7070		66.406250
7071		70.312500
7072		64.453125
7073		68.359375
7074		62.500000
7075		66.406250
7076		60.546875
7077		64.453125
7078		58.593750
7079		62.500000
7080		56.640625
7081		60.546875
7082		54.687500
7083		58.593750
7084		52.734375
7085		56.640625
7086		50.781250
7087		52.734375
7088		48.828125
7089		50.781250
7090		44.921875
7091		48.828125
7092		42.968750
7093		46.875000
7094		41.015625
7095		46.875000
7096		39.062500
7097		42.968750
7098		35.156250
7099		39.062500
7100		33.203125
7101		37.109375
7102		31.250000
7103		35.156250
7104		29.296875
7105		33.203125
7106		25.390625
7107		29.296875
7108		23.437500
7109		27.343750
7110		21.484375
7111		25.390625
7112		19.531250
7113		23.437500
7114		15.625000
7115		19.531250
7116		13.671875
7117		17.578125
7118		11.718750
7119		15.625000
7120		7.812500
7121		11.718750
7122		5.859375
7123		9.765625
7124		1.953125
7125		7.812500
7126		0.000000
7127		3.906250
7128		-1.953125
7129		1.953125
7130		-3.906250
7131		0.000000
7132		-7.812500
7133		-3.906250
7134		-9.765625
7135		-5.859375
7136		-13.671875
7137		-9.765625
7138		-15.625000
7139		-11.718750
7140		-17.578125
7141		-13.671875
7142		-21.484375
7143		-17.578125
7144		-23.437500
7145		-19.531250
7146		-25.390625
7147		-21.484375
7148		-29.296875
7149		-23.437500
7150		-31.250000
7151		-27.343750
7152		-33.203125
7153		-29.296875
7154		-37.109375
7155		-31.250000
7156		-39.062500
7157		-35.156250
7158		-41.015625
7159		-37.109375
7160		-42.968750
7161		-39.062500
7162		-46.875000
7163		-42.968750
7164		-48.828125
7165		-44.921875
7166		-50.781250
7167		-46.875000
7168		-52.734375
7169		-48.828125
7170		-54.687500
7171		-50.781250
7172		-56.640625
7173		-54.687500
7174		-60.546875
7175		-56.640625
7176		-62.500000
7177		-58.593750
7178		-64.453125
7179		-60.546875
7180		-66.406250
7181		-62.500000
7182		-68.359375
7183		-64.453125
7184		-70.312500
7185		-66.406250
7186		-72.265625
7187		-68.359375
7188		-74.218750
7189		-70.312500
7190		-76.171875
7191		-72.265625
7192		-76.171875
7193		-74.218750
7194		-78.125000
7195		-76.171875
7196		-80.078125
7197		-78.125000
7198		-82.031250
7199		-78.125000
7200		-83.984375
7201		-80.078125
7202		-85.937500
7203		-82.031250
7204		-85.937500
7205		-83.984375
7206		-87.890625
7207		-83.984375
7208		-87.890625
7209		-85.937500
7210		-89.843750
7211		-87.890625
7212		-91.796875
7213		-87.890625
7214		-91.796875
7215		-89.843750
7216		-93.750000
7217		-89.843750
7218		-93.750000
7219		-91.796875
7220		-93.750000
7221		-91.796875
7222		-95.703125
7223		-93.750000
7224		-95.703125
7225		-93.750000
7226		-95.703125
7227		-93.750000
7228		-97.656250
7229		-95.703125
7230		-97.656250
7231		-95.703125
7232		-97.656250
7233		-95.703125
7234		-97.656250
7235		-95.703125
7236		-97.656250
7237		-95.703125
7238		-97.656250
7239		-95.703125
7240		-97.656250
7241		-95.703125
7242		-99.609375
7243		-95.703125
7244		-97.656250
7245		-95.703125
7246		-99.609375
7247		-95.703125
7248		-97.656250
7249		-95.703125
7250		-97.656250
7251		-95.703125
7252		-97.656250
7253		-95.703125
7254		-97.656250
7255		-93.750000
7256		-95.703125
7257		-93.750000
7258		-95.703125
7259		-93.750000
7260		-95.703125
7261		-91.796875
7262		-93.750000
7263		-91.796875
7264		-93.750000
7265		-89.843750
7266		-91.796875
7267		-89.843750
7268		-91.796875
7269		-87.890625
7270		-89.843750
7271		-87.890625
7272		-87.890625
7273		-85.937500
7274		-87.890625
7275		-85.937500
7276		-85.937500
7277		-83.984375
7278		-85.937500
7279		-82.031250
7280		-83.984375
7281		-80.078125
7282		-82.031250
7283		-80.078125
7284		-80.078125
7285		-78.125000
7286		-78.125000
7287		-76.171875
7288		-78.125000
7289		-74.218750
7290		-76.171875
7291		-72.265625
7292		-74.218750
7293		-70.312500
7294		-72.265625
7295		-68.359375
7296		-70.312500
7297		-66.406250
7298		-68.359375
7299		-64.453125
7300		-66.406250
7301		-62.500000
7302		-64.453125
7303		-60.546875
7304		-62.500000
7305		-58.593750
7306		-60.546875
7307		-56.640625
7308		-56.640625
7309		-54.687500
7310		-54.687500
7311		-50.781250
7312		-52.734375
7313		-48.828125
7314		-50.781250
7315		-46.875000
7316		-48.828125
7317		-44.921875
7318		-44.921875
7319		-41.015625
7320		-42.968750
7321		-39.062500
7322		-41.015625
7323		-37.109375
7324		-39.062500
7325		-35.156250
7326		-35.156250
7327		-31.250000
7328		-33.203125
7329		-29.296875
7330		-31.250000
7331		-27.343750
7332		-27.343750
7333		-25.390625
7334		-25.390625
7335		-21.484375
7336		-23.437500
7337		-19.531250
7338		-19.531250
7339		-15.625000
7340		-17.578125
7341		-13.671875
7342		-15.625000
7343		-11.718750
7344		-13.671875
7345		-7.812500
7346		-9.765625
7347		-5.859375
7348		-7.812500
7349		-3.906250
7350		-3.906250
7351		0.000000
7352		-1.953125
7353		1.953125
7354		1.953125
7355		3.906250
7356		1.953125
7357		7.812500
7358		5.859375
7359		9.765625
7360		9.765625
7361		11.718750
7362		11.718750
7363		15.625000
7364		13.671875
7365		17.578125
7366		15.625000
7367		21.484375
7368		19.531250
7369		23.437500
7370		21.484375
7371		25.390625
7372		23.437500
7373		27.343750
7374		27.343750
7375		31.250000
7376		29.296875
7377		33.203125
7378		31.250000
7379		35.156250
7380		33.203125
7381		37.109375
7382		37.109375
7383		41.015625
7384		39.062500
7385		42.968750
7386		41.015625
7387		44.921875
7388		42.968750
7389		46.875000
7390		46.875000
7391		48.828125
7392		48.828125
7393		50.781250
7394		50.781250
7395		52.734375
7396		52.734375
7397		56.640625
7398		54.687500
7399		58.593750
7400		56.640625
7401		60.546875
7402		58.593750
7403		62.500000
7404		60.546875
7405		64.453125
7406		62.500000
7407		66.406250
7408		64.453125
7409		68.359375
7410		66.406250
7411		70.312500
7412		68.359375
7413		72.265625
7414		70.312500
7415		72.265625
7416		72.265625
7417		74.218750
7418		72.265625
7419		76.171875
7420		74.218750
7421		78.125000
7422		76.171875
7423		80.078125
7424		78.125000
7425		80.078125
7426		80.078125
7427		82.031250
7428		82.031250
7429		83.984375
7430		82.031250
7431		85.937500
7432		83.984375
7433		85.937500
7434		83.984375
7435		87.890625
7436		85.937500
7437		87.890625
7438		87.890625
7439		89.843750
7440		87.890625
7441		91.796875
7442		89.843750
7443		91.796875
7444		89.843750
7445		93.750000
7446		91.796875
7447		93.750000
7448		91.796875
7449		93.750000
7450		93.750000
7451		95.703125
7452		93.750000
7453		95.703125
7454		93.750000
7455		97.656250
7456		95.703125
7457		97.656250
7458		95.703125
7459		97.656250
7460		95.703125
7461		97.656250
7462		95.703125
7463		99.609375
7464		97.656250
7465		99.609375
7466		97.656250
7467		99.609375
7468		97.656250
7469		99.609375
7470		97.656250
7471		99.609375
7472		97.656250
7473		99.609375
7474		97.656250
7475		99.609375
7476		97.656250
7477		101.562500
7478		97.656250
7479		101.562500
7480		99.609375
7481		101.562500
7482		97.656250
7483		101.562500
7484		97.656250
7485		99.609375
7486		97.656250
7487		99.609375
7488		97.656250
7489		99.609375
7490		97.656250
7491		99.609375
7492		97.656250
7493		99.609375
7494		95.703125
7495		97.656250
7496		95.703125
7497		97.656250
7498		95.703125
7499		97.656250
7500		93.750000
7501		97.656250
7502		93.750000
7503		95.703125
7504		93.750000
7505		95.703125
7506		91.796875
7507		95.703125
7508		91.796875
7509		93.750000
7510		89.843750
7511		93.750000
7512		89.843750
7513		93.750000
7514		87.890625
7515		91.796875
7516		87.890625
7517		89.843750
7518		85.937500
7519		89.843750
7520		83.984375
7521		87.890625
7522		83.984375
7523		85.937500
7524		82.031250
7525		85.937500
7526		80.078125
7527		83.984375
7528		80.078125
7529		82.031250
7530		78.125000
7531		82.031250
7532		76.171875
7533		80.078125
7534		74.218750
7535		78.125000
7536		72.265625
7537		76.171875
7538		72.265625
7539		74.218750
7540		70.312500
7541		72.265625
7542		68.359375
7543		72.265625
7544		64.453125
7545		70.312500
7546		64.453125
7547		68.359375
7548		62.500000
7549		66.406250
7550		60.546875
7551		64.453125
7552		58.593750
7553		62.500000
7554		56.640625
7555		60.546875
7556		52.734375
7557		60.546875
7558		52.734375
7559		54.687500
7560		48.828125
7561		54.687500
7562		46.875000
7563		50.781250
7564		44.921875
7565		48.828125
7566		41.015625
7567		46.875000
7568		41.015625
7569		44.921875
7570		39.062500
7571		41.015625
7572		33.203125
7573		41.015625
7574		33.203125
7575		37.109375
7576		29.296875
7577		35.156250
7578		27.343750
7579		33.203125
7580		23.437500
7581		33.203125
7582		23.437500
7583		27.343750
7584		19.531250
7585		25.390625
7586		17.578125
7587		23.437500
7588		13.671875
7589		19.531250
7590		13.671875
7591		17.578125
7592		9.765625
7593		15.625000
7594		7.812500
7595		13.671875
7596		0.000000
7597		9.765625
7598		1.953125
7599		7.812500
7600		0.000000
7601		3.906250
7602		-3.906250
7603		1.953125
7604		-5.859375
7605		0.000000
7606		-9.765625
7607		-1.953125
7608		-11.718750
7609		-7.812500
7610		-15.625000
7611		-7.812500
7612		-15.625000
7613		-11.718750
7614		-19.531250
7615		-11.718750
7616		-21.484375
7617		-17.578125
7618		-23.437500
7619		-19.531250
7620		-29.296875
7621		-21.484375
7622		-31.250000
7623		-21.484375
7624		-33.203125
7625		-27.343750
7626		-35.156250
7627		-29.296875
7628		-37.109375
7629		-31.250000
7630		-42.968750
7631		-33.203125
7632		-41.015625
7633		-37.109375
7634		-44.921875
7635		-41.015625
7636		-48.828125
7637		-41.015625
7638		-50.781250
7639		-42.968750
7640		-50.781250
7641		-44.921875
7642		-52.734375
7643		-48.828125
7644		-60.546875
7645		-50.781250
7646		-58.593750
7647		-52.734375
7648		-60.546875
7649		-52.734375
7650		-62.500000
7651		-58.593750
7652		-66.406250
7653		-60.546875
7654		-68.359375
7655		-60.546875
7656		-68.359375
7657		-64.453125
7658		-70.312500
7659		-66.406250
7660		-74.218750
7661		-68.359375
7662		-76.171875
7663		-66.406250
7664		-78.125000
7665		-70.312500
7666		-76.171875
7667		-74.218750
7668		-78.125000
7669		-76.171875
7670		-82.031250
7671		-76.171875
7672		-85.937500
7673		-76.171875
7674		-85.937500
7675		-78.125000
7676		-83.984375
7677		-82.031250
7678		-89.843750
7679		-80.078125
7680		-87.890625
7681		-83.984375
7682		-91.796875
7683		-82.031250
7684		-89.843750
7685		-87.890625
7686		-91.796875
7687		-87.890625
7688		-95.703125
7689		-85.937500
7690		-93.750000
7691		-87.890625
7692		-93.750000
7693		-91.796875
7694		-97.656250
7695		-87.890625
7696		-97.656250
7697		-87.890625
7698		-99.609375
7699		-89.843750
7700		-95.703125
7701		-93.750000
7702		-97.656250
7703		-93.750000
7704		-99.609375
7705		-91.796875
7706		-99.609375
7707		-91.796875
7708		-97.656250
7709		-95.703125
7710		-97.656250
7711		-95.703125
7712		-101.562500
7713		-91.796875
7714		-99.609375
7715		-91.796875
7716		-97.656250
7717		-95.703125
7718		-97.656250
7719		-95.703125
7720		-99.609375
7721		-91.796875
7722		-99.609375
7723		-89.843750
7724		-97.656250
7725		-91.796875
7726		-95.703125
7727		-93.750000
7728		-97.656250
7729		-89.843750
7730		-97.656250
7731		-89.843750
7732		-95.703125
7733		-87.890625
7734		-93.750000
7735		-89.843750
7736		-93.750000
7737		-87.890625
7738		-93.750000
7739		-83.984375
7740		-93.750000
7741		-85.937500
7742		-89.843750
7743		-85.937500
7744		-89.843750
7745		-83.984375
7746		-89.843750
7747		-82.031250
7748		-87.890625
7749		-78.125000
7750		-83.984375
7751		-82.031250
7752		-83.984375
7753		-80.078125
7754		-83.984375
7755		-76.171875
7756		-82.031250
7757		-74.218750
7758		-82.031250
7759		-74.218750
7760		-76.171875
7761		-74.218750
7762		-78.125000
7763		-68.359375
7764		-74.218750
7765		-70.312500
7766		-74.218750
7767		-66.406250
7768		-70.312500
7769		-66.406250
7770		-68.359375
7771		-62.500000
7772		-68.359375
7773		-58.593750
7774		-64.453125
7775		-58.593750
7776		-60.546875
7777		-58.593750
7778		-60.546875
7779		-52.734375
7780		-60.546875
7781		-50.781250
7782		-56.640625
7783		-48.828125
7784		-52.734375
7785		-48.828125
7786		-50.781250
7787		-46.875000
7788		-50.781250
7789		-42.968750
7790		-48.828125
7791		-39.062500
7792		-44.921875
7793		-39.062500
7794		-41.015625
7795		-35.156250
7796		-41.015625
7797		-31.250000
7798		-35.156250
7799		-29.296875
7800		-33.203125
7801		-29.296875
7802		-31.250000
7803		-25.390625
7804		-27.343750
7805		-23.437500
7806		-27.343750
7807		-19.531250
7808		-25.390625
7809		-19.531250
7810		-21.484375
7811		-15.625000
7812		-19.531250
7813		-9.765625
7814		-19.531250
7815		-9.765625
7816		-15.625000
7817		-7.812500
7818		-9.765625
7819		-5.859375
7820		-7.812500
7821		-1.953125
7822		-5.859375
7823		1.953125
7824		-5.859375
7825		3.906250
7826		0.000000
7827		3.906250
7828		1.953125
7829		9.765625
7830		3.906250
7831		9.765625
7832		5.859375
7833		15.625000
7834		11.718750
7835		15.625000
7836		13.671875
7837		17.578125
7838		15.625000
7839		19.531250
7840		17.578125
7841		25.390625
7842		19.531250
7843		25.390625
7844		23.437500
7845		27.343750
7846		25.390625
7847		33.203125
7848		29.296875
7849		33.203125
7850		31.250000
7851		35.156250
7852		33.203125
7853		39.062500
7854		37.109375
7855		41.015625
7856		39.062500
7857		42.968750
7858		39.062500
7859		46.875000
7860		42.968750
7861		46.875000
7862		44.921875
7863		50.781250
7864		48.828125
7865		50.781250
7866		50.781250
7867		52.734375
7868		52.734375
7869		54.687500
7870		54.687500
7871		58.593750
7872		54.687500
7873		60.546875
7874		58.593750
7875		62.500000
7876		60.546875
7877		64.453125
7878		62.500000
7879		66.406250
7880		64.453125
7881		68.359375
7882		66.406250
7883		70.312500
7884		66.406250
7885		72.265625
7886		70.312500
7887		72.265625
7888		70.312500
7889		74.218750
7890		74.218750
7891		76.171875
7892		74.218750
7893		78.125000
7894		76.171875
7895		80.078125
7896		78.125000
7897		80.078125
7898		80.078125
7899		82.031250
7900		80.078125
7901		83.984375
7902		82.031250
7903		85.937500
7904		83.984375
7905		87.890625
7906		83.984375
7907		89.843750
7908		85.937500
7909		89.843750
7910		85.937500
7911		91.796875
7912		87.890625
7913		91.796875
7914		87.890625
7915		93.750000
7916		89.843750
7917		95.703125
7918		91.796875
7919		93.750000
7920		91.796875
7921		95.703125
7922		91.796875
7923		97.656250
7924		91.796875
7925		97.656250
7926		93.750000
7927		99.609375
7928		93.750000
7929		99.609375
7930		93.750000
7931		99.609375
7932		95.703125
7933		99.609375
7934		95.703125
7935		101.562500
7936		97.656250
7937		99.609375
7938		95.703125
7939		101.562500
7940		95.703125
7941		101.562500
7942		97.656250
7943		101.562500
7944		95.703125
7945		103.515625
7946		97.656250
7947		103.515625
7948		97.656250
7949		103.515625
7950		97.656250
7951		103.515625
7952		99.609375
7953		101.562500
7954		99.609375
7955		101.562500
7956		97.656250
7957		103.515625
7958		97.656250
7959		101.562500
7960		97.656250
7961		101.562500
7962		95.703125
7963		101.562500
7964		95.703125
7965		101.562500
7966		95.703125
7967		101.562500
7968		95.703125
7969		99.609375
7970		95.703125
7971		99.609375
7972		93.750000
7973		99.609375
7974		93.750000
7975		99.609375
7976		93.750000
7977		97.656250
7978		91.796875
7979		97.656250
7980		91.796875
7981		95.703125
7982		89.843750
7983		95.703125
7984		89.843750
7985		95.703125
7986		89.843750
7987		91.796875
7988		87.890625
7989		91.796875
7990		85.937500
7991		91.796875
7992		85.937500
7993		89.843750
7994		82.031250
7995		89.843750
7996		82.031250
7997		87.890625
7998		80.078125
7999		85.937500
8000		80.078125
8001		83.984375
8002		78.125000
8003		82.031250
8004		78.125000
8005		80.078125
8006		76.171875
8007		80.078125
8008		72.265625
8009		78.125000
8010		70.312500
8011		76.171875
8012		68.359375
8013		76.171875
8014		68.359375
8015		74.218750
8016		66.406250
8017		72.265625
8018		64.453125
8019		70.312500
8020		62.500000
8021		66.406250
8022		60.546875
8023		64.453125
8024		58.593750
8025		62.500000
8026		56.640625
8027		60.546875
8028		52.734375
8029		60.546875
8030		52.734375
8031		56.640625
8032		50.781250
8033		54.687500
8034		46.875000
8035		52.734375
8036		46.875000
8037		50.781250
8038		44.921875
8039		48.828125
8040		41.015625
8041		46.875000
8042		39.062500
8043		42.968750
8044		37.109375
8045		41.015625
8046		33.203125
8047		41.015625
8048		31.250000
8049		37.109375
8050		29.296875
8051		35.156250
8052		27.343750
8053		33.203125
8054		25.390625
8055		29.296875
8056		21.484375
8057		25.390625
8058		19.531250
8059		23.437500
8060		17.578125
8061		21.484375
8062		11.718750
8063		19.531250
8064		11.718750
8065		15.625000
8066		9.765625
8067		13.671875
8068		5.859375
8069		11.718750
8070		3.906250
8071		7.812500
8072		0.000000
8073		5.859375
8074		-1.953125
8075		3.906250
8076		-3.906250
8077		0.000000
8078		-9.765625
8079		-1.953125
8080		-9.765625
8081		-3.906250
8082		-11.718750
8083		-5.859375
8084		-15.625000
8085		-9.765625
8086		-17.578125
8087		-13.671875
8088		-19.531250
8089		-15.625000
8090		-23.437500
8091		-17.578125
8092		-25.390625
8093		-19.531250
8094		-27.343750
8095		-23.437500
8096		-29.296875
8097		-25.390625
8098		-33.203125
8099		-29.296875
8100		-35.156250
8101		-31.250000
8102		-37.109375
8103		-33.203125
8104		-39.062500
8105		-35.156250
8106		-42.968750
8107		-39.062500
8108		-44.921875
8109		-41.015625
8110		-48.828125
8111		-42.968750
8112		-50.781250
8113		-44.921875
8114		-52.734375
8115		-46.875000
8116		-54.687500
8117		-48.828125
8118		-58.593750
8119		-52.734375
8120		-58.593750
8121		-54.687500
8122		-60.546875
8123		-56.640625
8124		-62.500000
8125		-58.593750
8126		-64.453125
8127		-60.546875
8128		-66.406250
8129		-62.500000
8130		-70.312500
8131		-62.500000
8132		-70.312500
8133		-66.406250
8134		-72.265625
8135		-68.359375
8136		-74.218750
8137		-68.359375
8138		-76.171875
8139		-72.265625
8140		-78.125000
8141		-74.218750
8142		-80.078125
8143		-76.171875
8144		-82.031250
8145		-76.171875
8146		-82.031250
8147		-78.125000
8148		-83.984375
8149		-80.078125
8150		-83.984375
8151		-80.078125
8152		-85.937500
8153		-82.031250
8154		-87.890625
8155		-83.984375
8156		-89.843750
8157		-85.937500
8158		-89.843750
8159		-85.937500
8160		-91.796875
8161		-87.890625
8162		-91.796875
8163		-87.890625
8164		-91.796875
8165		-87.890625
8166		-93.750000
8167		-89.843750
8168		-95.703125
8169		-89.843750
8170		-93.750000
8171		-91.796875
8172		-95.703125
8173		-91.796875
8174		-95.703125
8175		-91.796875
8176		-95.703125
8177		-91.796875
8178		-95.703125
8179		-91.796875
8180		-95.703125
8181		-93.750000
8182		-97.656250
8183		-93.750000
8184		-97.656250
8185		-93.750000
8186		-97.656250
8187		-93.750000
8188		-95.703125
8189		-93.750000
8190		-97.656250
8191		-93.750000
8192		-97.656250
8193		-93.750000
8194		-95.703125
8195		-91.796875
8196		-95.703125
8197		-91.796875
8198		-95.703125
8199		-91.796875
8200		-95.703125
8201		-91.796875
8202		-95.703125
8203		-89.843750
8204		-93.750000
8205		-91.796875
8206		-91.796875
8207		-89.843750
8208		-91.796875
8209		-87.890625
8210		-91.796875
8211		-87.890625
8212		-89.843750
8213		-85.937500
8214		-89.843750
8215		-85.937500
8216		-87.890625
8217		-83.984375
8218		-85.937500
8219		-82.031250
8220		-85.937500
8221		-82.031250
8222		-83.984375
8223		-82.031250
8224		-83.984375
8225		-78.125000
8226		-82.031250
8227		-78.125000
8228		-80.078125
8229		-76.171875
8230		-78.125000
8231		-74.218750
8232		-76.171875
8233		-72.265625
8234		-76.171875
8235		-70.312500
8236		-74.218750
8237		-68.359375
8238		-70.312500
8239		-68.359375
8240		-68.359375
8241		-64.453125
8242		-70.312500
8243		-62.500000
8244		-66.406250
8245		-60.546875
8246		-64.453125
8247		-56.640625
8248		-62.500000
8249		-58.593750
8250		-60.546875
8251		-54.687500
8252		-56.640625
8253		-52.734375
8254		-54.687500
8255		-50.781250
8256		-52.734375
8257		-48.828125
8258		-50.781250
8259		-46.875000
8260		-48.828125
8261		-42.968750
8262		-46.875000
8263		-41.015625
8264		-42.968750
8265		-39.062500
8266		-41.015625
8267		-37.109375
8268		-39.062500
8269		-35.156250
8270		-37.109375
8271		-31.250000
8272		-33.203125
8273		-29.296875
8274		-31.250000
8275		-25.390625
8276		-29.296875
8277		-23.437500
8278		-25.390625
8279		-21.484375
8280		-23.437500
8281		-19.531250
8282		-21.484375
8283		-15.625000
8284		-17.578125
8285		-13.671875
8286		-15.625000
8287		-9.765625
8288		-11.718750
8289		-7.812500
8290		-9.765625
8291		-5.859375
8292		-7.812500
8293		-3.906250
8294		-3.906250
8295		0.000000
8296		-1.953125
8297		1.953125
8298		0.000000
8299		5.859375
8300		3.906250
8301		7.812500
8302		5.859375
8303		9.765625
8304		7.812500
8305		11.718750
8306		11.718750
8307		15.625000
8308		13.671875
8309		17.578125
8310		15.625000
8311		19.531250
8312		17.578125
8313		23.437500
8314		21.484375
8315		25.390625
8316		23.437500
8317		29.296875
8318		25.390625
8319		31.250000
8320		29.296875
8321		33.203125
8322		31.250000
8323		35.156250
8324		33.203125
8325		37.109375
8326		35.156250
8327		41.015625
8328		37.109375
8329		42.968750
8330		41.015625
8331		44.921875
8332		42.968750
8333		46.875000
8334		44.921875
8335		50.781250
8336		48.828125
8337		52.734375
8338		48.828125
8339		52.734375
8340		52.734375
8341		56.640625
8342		54.687500
8343		58.593750
8344		56.640625
8345		60.546875
8346		58.593750
8347		62.500000
8348		60.546875
8349		64.453125
8350		62.500000
8351		66.406250
8352		64.453125
8353		68.359375
8354		66.406250
8355		70.312500
8356		68.359375
8357		72.265625
8358		70.312500
8359		74.218750
8360		70.312500
8361		76.171875
8362		72.265625
8363		76.171875
8364		74.218750
8365		78.125000
8366		76.171875
8367		80.078125
8368		78.125000
8369		82.031250
8370		78.125000
8371		82.031250
8372		80.078125
8373		83.984375
8374		82.031250
8375		85.937500
8376		82.031250
8377		87.890625
8378		85.937500
8379		87.890625
8380		85.937500
8381		89.843750
8382		87.890625
8383		89.843750
8384		87.890625
8385		91.796875
8386		89.843750
8387		93.750000
8388		89.843750
8389		93.750000
8390		91.796875
8391		93.750000
8392		91.796875
8393		95.703125
8394		91.796875
8395		95.703125
8396		93.750000
8397		97.656250
8398		95.703125
8399		97.656250
8400		93.750000
8401		99.609375
8402		95.703125
8403		99.609375
8404		95.703125
8405		101.562500
8406		97.656250
8407		99.609375
8408		97.656250
8409		99.609375
8410		95.703125
8411		101.562500
8412		97.656250
8413		101.562500
8414		97.656250
8415		101.562500
8416		97.656250
8417		103.515625
8418		99.609375
8419		103.515625
8420		97.656250
8421		103.515625
8422		99.609375
8423		101.562500
8424		99.609375
8425		101.562500
8426		97.656250
8427		103.515625
8428		99.609375
8429		101.562500
8430		99.609375
8431		101.562500
8432		97.656250
8433		101.562500
8434		97.656250
8435		101.562500
8436		97.656250
8437		101.562500
8438		97.656250
8439		99.609375
8440		97.656250
8441		99.609375
8442		95.703125
8443		99.609375
8444		95.703125
8445		99.609375
8446		95.703125
8447		97.656250
8448		93.750000
8449		97.656250
8450		93.750000
8451		97.656250
8452		91.796875
8453		95.703125
8454		89.843750
8455		95.703125
8456		91.796875
8457		93.750000
8458		89.843750
8459		93.750000
8460		87.890625
8461		93.750000
8462		87.890625
8463		89.843750
8464		85.937500
8465		89.843750
8466		83.984375
8467		87.890625
8468		83.984375
8469		87.890625
8470		82.031250
8471		85.937500
8472		80.078125
8473		85.937500
8474		80.078125
8475		83.984375
8476		78.125000
8477		82.031250
8478		76.171875
8479		80.078125
8480		74.218750
8481		78.125000
8482		74.218750
8483		76.171875
8484		72.265625
8485		76.171875
8486		68.359375
8487		74.218750
8488		68.359375
8489		72.265625
8490		66.406250
8491		70.312500
8492		64.453125
8493		68.359375
8494		62.500000
8495		66.406250
8496		60.546875
8497		64.453125
8498		58.593750
8499		62.500000
8500		56.640625
8501		60.546875
8502		54.687500
8503		58.593750
8504		52.734375
8505		56.640625
8506		48.828125
8507		54.687500
8508		46.875000
8509		50.781250
8510		44.921875
8511		50.781250
8512		42.968750
8513		46.875000
8514		41.015625
8515		44.921875
8516		39.062500
8517		42.968750
8518		35.156250
8519		41.015625
8520		33.203125
8521		37.109375
8522		31.250000
8523		35.156250
8524		29.296875
8525		33.203125
8526		25.390625
8527		29.296875
8528		23.437500
8529		29.296875
8530		21.484375
8531		25.390625
8532		17.578125
8533		23.437500
8534		15.625000
8535		19.531250
8536		13.671875
8537		17.578125
8538		9.765625
8539		15.625000
8540		7.812500
8541		11.718750
8542		5.859375
8543		9.765625
8544		1.953125
8545		7.812500
8546		0.000000
8547		3.906250
8548		-1.953125
8549		1.953125
8550		-5.859375
8551		-1.953125
8552		-7.812500
8553		-3.906250
8554		-9.765625
8555		-5.859375
8556		-13.671875
8557		-7.812500
8558		-15.625000
8559		-11.718750
8560		-19.531250
8561		-13.671875
8562		-21.484375
8563		-17.578125
8564		-23.437500
8565		-19.531250
8566		-25.390625
8567		-21.484375
8568		-29.296875
8569		-23.437500
8570		-31.250000
8571		-27.343750
8572		-33.203125
8573		-29.296875
8574		-37.109375
8575		-31.250000
8576		-39.062500
8577		-35.156250
8578		-41.015625
8579		-35.156250
8580		-44.921875
8581		-39.062500
8582		-46.875000
8583		-41.015625
8584		-48.828125
8585		-42.968750
8586		-50.781250
8587		-46.875000
8588		-52.734375
8589		-48.828125
8590		-54.687500
8591		-48.828125
8592		-56.640625
8593		-52.734375
8594		-60.546875
8595		-54.687500
8596		-62.500000
8597		-56.640625
8598		-64.453125
8599		-58.593750
8600		-66.406250
8601		-60.546875
8602		-68.359375
8603		-64.453125
8604		-70.312500
8605		-64.453125
8606		-72.265625
8607		-66.406250
8608		-72.265625
8609		-70.312500
8610		-74.218750
8611		-70.312500
8612		-78.125000
8613		-72.265625
8614		-78.125000
8615		-74.218750
8616		-80.078125
8617		-76.171875
8618		-82.031250
8619		-78.125000
8620		-82.031250
8621		-80.078125
8622		-85.937500
8623		-80.078125
8624		-83.984375
8625		-82.031250
8626		-85.937500
8627		-83.984375
8628		-87.890625
8629		-83.984375
8630		-89.843750
8631		-85.937500
8632		-89.843750
8633		-85.937500
8634		-91.796875
8635		-87.890625
8636		-91.796875
8637		-87.890625
8638		-91.796875
8639		-89.843750
8640		-93.750000
8641		-89.843750
8642		-93.750000
8643		-91.796875
8644		-95.703125
8645		-89.843750
8646		-95.703125
8647		-91.796875
8648		-95.703125
8649		-91.796875
8650		-95.703125
8651		-93.750000
8652		-97.656250
8653		-93.750000
8654		-95.703125
8655		-93.750000
8656		-95.703125
8657		-91.796875
8658		-95.703125
8659		-93.750000
8660		-95.703125
8661		-93.750000
8662		-97.656250
8663		-91.796875
8664		-97.656250
8665		-93.750000
8666		-95.703125
8667		-91.796875
8668		-95.703125
8669		-91.796875
8670		-95.703125
8671		-91.796875
8672		-93.750000
8673		-89.843750
8674		-95.703125
8675		-89.843750
8676		-93.750000
8677		-89.843750
8678		-91.796875
8679		-89.843750
8680		-91.796875
8681		-87.890625
8682		-91.796875
8683		-87.890625
8684		-89.843750
8685		-85.937500
8686		-89.843750
8687		-85.937500
8688		-87.890625
8689		-83.984375
8690		-87.890625
8691		-83.984375
8692		-85.937500
8693		-82.031250
8694		-83.984375
8695		-80.078125
8696		-83.984375
8697		-80.078125
8698		-82.031250
8699		-78.125000
8700		-80.078125
8701		-76.171875
8702		-78.125000
8703		-74.218750
8704		-76.171875
8705		-72.265625
8706		-76.171875
8707		-70.312500
8708		-74.218750
8709		-70.312500
8710		-72.265625
8711		-68.359375
8712		-70.312500
8713		-66.406250
8714		-68.359375
8715		-64.453125
8716		-66.406250
8717		-60.546875
8718		-64.453125
8719		-60.546875
8720		-62.500000
8721		-58.593750
8722		-60.546875
8723		-54.687500
8724		-58.593750
8725		-54.687500
8726		-54.687500
8727		-50.781250
8728		-52.734375
8729		-48.828125
8730		-52.734375
8731		-46.875000
8732		-48.828125
8733		-42.968750
8734		-46.875000
8735		-42.968750
8736		-44.921875
8737		-39.062500
8738		-41.015625
8739		-37.109375
8740		-39.062500
8741		-35.156250
8742		-37.109375
8743		-33.203125
8744		-33.203125
8745		-29.296875
8746		-31.250000
8747		-27.343750
8748		-29.296875
8749		-25.390625
8750		-25.390625
8751		-21.484375
8752		-23.437500
8753		-19.531250
8754		-21.484375
8755		-17.578125
8756		-17.578125
8757		-13.671875
8758		-17.578125
8759		-11.718750
8760		-13.671875
8761		-9.765625
8762		-9.765625
8763		-5.859375
8764		-7.812500
8765		-3.906250
8766		-5.859375
8767		0.000000
8768		-3.906250
8769		1.953125
8770		0.000000
8771		3.906250
8772		1.953125
8773		5.859375
8774		5.859375
8775		9.765625
8776		7.812500
8777		11.718750
8778		9.765625
8779		15.625000
8780		13.671875
8781		17.578125
8782		15.625000
8783		19.531250
8784		17.578125
8785		21.484375
8786		21.484375
8787		25.390625
8788		23.437500
8789		27.343750
8790		25.390625
8791		31.250000
8792		27.343750
8793		33.203125
8794		31.250000
8795		35.156250
8796		33.203125
8797		37.109375
8798		35.156250
8799		39.062500
8800		37.109375
8801		42.968750
8802		41.015625
8803		44.921875
8804		42.968750
8805		46.875000
8806		44.921875
8807		48.828125
8808		46.875000
8809		50.781250
8810		48.828125
8811		52.734375
8812		50.781250
8813		56.640625
8814		52.734375
8815		58.593750
8816		56.640625
8817		60.546875
8818		58.593750
8819		60.546875
8820		58.593750
8821		64.453125
8822		62.500000
8823		66.406250
8824		64.453125
8825		68.359375
8826		64.453125
8827		68.359375
8828		68.359375
8829		70.312500
8830		68.359375
8831		74.218750
8832		70.312500
8833		76.171875
8834		72.265625
8835		76.171875
8836		74.218750
8837		78.125000
8838		76.171875
8839		80.078125
8840		76.171875
8841		82.031250
8842		78.125000
8843		82.031250
8844		80.078125
8845		83.984375
8846		80.078125
8847		85.937500
8848		83.984375
8849		87.890625
8850		83.984375
8851		87.890625
8852		85.937500
8853		89.843750
8854		87.890625
8855		89.843750
8856		87.890625
8857		91.796875
8858		89.843750
8859		91.796875
8860		89.843750
8861		93.750000
8862		89.843750
8863		95.703125
8864		91.796875
8865		95.703125
8866		91.796875
8867		97.656250
8868		93.750000
8869		97.656250
8870		93.750000
8871		97.656250
8872		95.703125
8873		97.656250
8874		95.703125
8875		99.609375
8876		97.656250
8877		99.609375
8878		97.656250
8879		99.609375
8880		97.656250
8881		101.562500
8882		97.656250
8883		101.562500
8884		97.656250
8885		101.562500
8886		99.609375
8887		101.562500
8888		99.609375
8889		103.515625
8890		99.609375
8891		101.562500
8892		97.656250
8893		103.515625
8894		99.609375
8895		101.562500
8896		99.609375
8897		101.562500
8898		99.609375
8899		103.515625
8900		99.609375
8901		101.562500
8902		99.609375
8903		101.562500
8904		97.656250
8905		101.562500
8906		97.656250
8907		103.515625
8908		97.656250
8909		101.562500
8910		97.656250
8911		99.609375
8912		97.656250
8913		99.609375
8914		95.703125
8915		101.562500
8916		95.703125
8917		99.609375
8918		95.703125
8919		99.609375
8920		93.750000
8921		97.656250
8922		93.750000
8923		97.656250
8924		93.750000
8925		97.656250
8926		91.796875
8927		97.656250
8928		91.796875
8929		95.703125
8930		89.843750
8931		93.750000
8932		89.843750
8933		91.796875
8934		87.890625
8935		91.796875
8936		85.937500
8937		89.843750
8938		83.984375
8939		89.843750
8940		83.984375
8941		87.890625
8942		82.031250
8943		85.937500
8944		82.031250
8945		85.937500
8946		80.078125
8947		83.984375
8948		78.125000
8949		83.984375
8950		76.171875
8951		80.078125
8952		76.171875
8953		80.078125
8954		74.218750
8955		78.125000
8956		72.265625
8957		76.171875
8958		68.359375
8959		74.218750
8960		68.359375
8961		72.265625
8962		66.406250
8963		70.312500
8964		64.453125
8965		68.359375
8966		62.500000
8967		68.359375
8968		60.546875
8969		64.453125
8970		58.593750
8971		64.453125
8972		56.640625
8973		60.546875
8974		54.687500
8975		58.593750
8976		52.734375
8977		56.640625
8978		50.781250
8979		54.687500
8980		46.875000
8981		52.734375
8982		44.921875
8983		50.781250
8984		44.921875
8985		48.828125
8986		41.015625
8987		44.921875
8988		39.062500
8989		42.968750
8990		37.109375
8991		41.015625
8992		33.203125
8993		39.062500
8994		31.250000
8995		35.156250
8996		29.296875
8997		33.203125
8998		27.343750
8999		31.250000
9000		23.437500
9001		29.296875
9002		21.484375
9003		27.343750
9004		19.531250
9005		23.437500
9006		17.578125
9007		21.484375
9008		13.671875
9009		17.578125
9010		11.718750
9011		15.625000
9012		9.765625
9013		13.671875
9014		5.859375
9015		9.765625
9016		1.953125
9017		7.812500
9018		0.000000
9019		5.859375
9020		-1.953125
9021		3.906250
9022		-3.906250
9023		0.000000
9024		-7.812500
9025		-1.953125
9026		-9.765625
9027		-5.859375
9028		-11.718750
9029		-7.812500
9030		-15.625000
9031		-9.765625
9032		-17.578125
9033		-11.718750
9034		-21.484375
9035		-15.625000
9036		-23.437500
9037		-17.578125
9038		-25.390625
9039		-21.484375
9040		-29.296875
9041		-23.437500
9042		-31.250000
9043		-27.343750
9044		-33.203125
9045		-27.343750
9046		-35.156250
9047		-31.250000
9048		-39.062500
9049		-33.203125
9050		-41.015625
9051		-35.156250
9052		-42.968750
9053		-39.062500
9054		-44.921875
9055		-41.015625
9056		-46.875000
9057		-42.968750
9058		-50.781250
9059		-44.921875
9060		-52.734375
9061		-46.875000
9062		-54.687500
9063		-50.781250
9064		-58.593750
9065		-52.734375
9066		-58.593750
9067		-54.687500
9068		-60.546875
9069		-56.640625
9070		-62.500000
9071		-58.593750
9072		-64.453125
9073		-60.546875
9074		-66.406250
9075		-62.500000
9076		-68.359375
9077		-64.453125
9078		-70.312500
9079		-68.359375
9080		-72.265625
9081		-70.312500
9082		-74.218750
9083		-70.312500
9084		-76.171875
9085		-72.265625
9086		-78.125000
9087		-74.218750
9088		-80.078125
9089		-74.218750
9090		-82.031250
9091		-78.125000
9092		-83.984375
9093		-80.078125
9094		-83.984375
9095		-80.078125
9096		-83.984375
9097		-82.031250
9098		-87.890625
9099		-82.031250
9100		-87.890625
9101		-83.984375
9102		-89.843750
9103		-83.984375
9104		-89.843750
9105		-85.937500
9106		-91.796875
9107		-87.890625
9108		-91.796875
9109		-87.890625
9110		-93.750000
9111		-87.890625
9112		-93.750000
9113		-89.843750
9114		-93.750000
9115		-91.796875
9116		-95.703125
9117		-91.796875
9118		-95.703125
9119		-91.796875
9120		-95.703125
9121		-91.796875
9122		-95.703125
9123		-93.750000
9124		-95.703125
9125		-93.750000
9126		-95.703125
9127		-93.750000
9128		-97.656250
9129		-93.750000
9130		-95.703125
9131		-93.750000
9132		-97.656250
9133		-93.750000
9134		-97.656250
9135		-93.750000
9136		-97.656250
9137		-93.750000
9138		-95.703125
9139		-93.750000
9140		-95.703125
9141		-91.796875
9142		-95.703125
9143		-91.796875
9144		-95.703125
9145		-91.796875
9146		-93.750000
9147		-91.796875
9148		-93.750000
9149		-89.843750
9150		-93.750000
9151		-89.843750
9152		-91.796875
9153		-89.843750
9154		-91.796875
9155		-87.890625
9156		-91.796875
9157		-87.890625
9158		-89.843750
9159		-85.937500
9160		-89.843750
9161		-83.984375
9162		-87.890625
9163		-83.984375
9164		-85.937500
9165		-83.984375
9166		-85.937500
9167		-82.031250
9168		-83.984375
9169		-80.078125
9170		-82.031250
9171		-78.125000
9172		-80.078125
9173		-78.125000
9174		-80.078125
9175		-76.171875
9176		-78.125000
9177		-74.218750
9178		-76.171875
9179		-72.265625
9180		-74.218750
9181		-70.312500
9182		-72.265625
9183		-68.359375
9184		-70.312500
9185		-66.406250
9186		-68.359375
9187		-64.453125
9188		-66.406250
9189		-62.500000
9190		-64.453125
9191		-60.546875
9192		-62.500000
9193		-58.593750
9194		-60.546875
9195		-56.640625
9196		-58.593750
9197		-54.687500
9198		-56.640625
9199		-52.734375
9200		-54.687500
9201		-50.781250
9202		-52.734375
9203		-48.828125
9204		-48.828125
9205		-44.921875
9206		-46.875000
9207		-42.968750
9208		-44.921875
9209		-41.015625
9210		-42.968750
9211		-39.062500
9212		-41.015625
9213		-37.109375
9214		-37.109375
9215		-33.203125
9216		-35.156250
9217		-29.296875
9218		-33.203125
9219		-27.343750
9220		-29.296875
9221		-25.390625
9222		-27.343750
9223		-23.437500
9224		-25.390625
9225		-21.484375
9226		-23.437500
9227		-17.578125
9228		-19.531250
9229		-15.625000
9230		-17.578125
9231		-13.671875
9232		-13.671875
9233		-9.765625
9234		-11.718750
9235		-7.812500
9236		-9.765625
9237		-3.906250
9238		-7.812500
9239		-1.953125
9240		-3.906250
9241		0.000000
9242		-1.953125
9243		3.906250
9244		1.953125
9245		7.812500
9246		3.906250
9247		7.812500
9248		5.859375
9249		11.718750
9250		7.812500
9251		15.625000
9252		11.718750
9253		15.625000
9254		13.671875
9255		19.531250
9256		17.578125
9257		21.484375
9258		19.531250
9259		23.437500
9260		21.484375
9261		25.390625
9262		23.437500
9263		29.296875
9264		27.343750
9265		31.250000
9266		29.296875
9267		33.203125
9268		31.250000
9269		37.109375
9270		33.203125
9271		39.062500
9272		37.109375
9273		41.015625
9274		39.062500
9275		42.968750
9276		41.015625
9277		46.875000
9278		42.968750
9279		48.828125
9280		46.875000
9281		50.781250
9282		48.828125
9283		52.734375
9284		48.828125
9285		54.687500
9286		52.734375
9287		56.640625
9288		54.687500
9289		58.593750
9290		56.640625
9291		60.546875
9292		58.593750
9293		62.500000
9294		60.546875
9295		64.453125
9296		62.500000
9297		66.406250
9298		64.453125
9299		68.359375
9300		66.406250
9301		70.312500
9302		68.359375
9303		72.265625
9304		70.312500
9305		74.218750
9306		72.265625
9307		76.171875
9308		74.218750
9309		78.125000
9310		74.218750
9311		80.078125
9312		76.171875
9313		80.078125
9314		78.125000
9315		82.031250
9316		80.078125
9317		83.984375
9318		80.078125
9319		85.937500
9320		82.031250
9321		85.937500
9322		83.984375
9323		85.937500
9324		85.937500
9325		87.890625
9326		85.937500
9327		89.843750
9328		87.890625
9329		91.796875
9330		87.890625
9331		91.796875
9332		89.843750
9333		91.796875
9334		89.843750
9335		93.750000
9336		91.796875
9337		93.750000
9338		91.796875
9339		95.703125
9340		93.750000
9341		95.703125
9342		93.750000
9343		97.656250
9344		93.750000
9345		97.656250
9346		95.703125
9347		99.609375
9348		95.703125
9349		99.609375
9350		95.703125
9351		101.562500
9352		97.656250
9353		99.609375
9354		97.656250
9355		99.609375
9356		97.656250
9357		101.562500
9358		97.656250
9359		101.562500
9360		97.656250
9361		101.562500
9362		97.656250
9363		101.562500
9364		99.609375
9365		101.562500
9366		99.609375
9367		101.562500
9368		97.656250
9369		103.515625
9370		99.609375
9371		101.562500
9372		99.609375
9373		101.562500
9374		97.656250
9375		101.562500
9376		97.656250
9377		101.562500
9378		97.656250
9379		101.562500
9380		97.656250
9381		101.562500
9382		97.656250
9383		99.609375
9384		97.656250
9385		99.609375
9386		95.703125
9387		99.609375
9388		95.703125
9389		99.609375
9390		95.703125
9391		97.656250
9392		95.703125
9393		97.656250
9394		93.750000
9395		97.656250
9396		91.796875
9397		97.656250
9398		91.796875
9399		95.703125
9400		91.796875
9401		93.750000
9402		89.843750
9403		93.750000
9404		89.843750
9405		93.750000
9406		87.890625
9407		91.796875
9408		85.937500
9409		89.843750
9410		85.937500
9411		89.843750
9412		83.984375
9413		87.890625
9414		83.984375
9415		85.937500
9416		82.031250
9417		83.984375
9418		80.078125
9419		83.984375
9420		78.125000
9421		82.031250
9422		76.171875
9423		80.078125
9424		74.218750
9425		80.078125
9426		74.218750
9427		78.125000
9428		72.265625
9429		76.171875
9430		70.312500
9431		74.218750
9432		68.359375
9433		72.265625
9434		66.406250
9435		70.312500
9436		64.453125
9437		70.312500
9438		62.500000
9439		68.359375
9440		62.500000
9441		64.453125
9442		58.593750
9443		62.500000
9444		56.640625
9445		60.546875
9446		54.687500
9447		58.593750
9448		52.734375
9449		56.640625
9450		50.781250
9451		54.687500
9452		48.828125
9453		54.687500
9454		46.875000
9455		50.781250
9456		42.968750
9457		48.828125
9458		41.015625
9459		44.921875
9460		39.062500
9461		42.968750
9462		37.109375
9463		41.015625
9464		35.156250
9465		41.015625
9466		31.250000
9467		35.156250
9468		29.296875
9469		33.203125
9470		27.343750
9471		31.250000
9472		23.437500
9473		29.296875
9474		21.484375
9475		25.390625
9476		19.531250
9477		23.437500
9478		15.625000
9479		21.484375
9480		13.671875
9481		19.531250
9482		11.718750
9483		15.625000
9484		9.765625
9485		13.671875
9486		5.859375
9487		11.718750
9488		3.906250
9489		7.812500
9490		1.953125
9491		5.859375
9492		-1.953125
9493		1.953125
9494		-3.906250
9495		0.000000
9496		-7.812500
9497		-1.953125
9498		-9.765625
9499		-5.859375
9500		-11.718750
9501		-7.812500
9502		-15.625000
9503		-9.765625
9504		-17.578125
9505		-11.718750
9506		-19.531250
9507		-15.625000
9508		-23.437500
9509		-17.578125
9510		-25.390625
9511		-21.484375
9512		-27.343750
9513		-23.437500
9514		-31.250000
9515		-25.390625
9516		-33.203125
9517		-29.296875
9518		-35.156250
9519		-31.250000
9520		-39.062500
9521		-33.203125
9522		-42.968750
9523		-35.156250
9524		-42.968750
9525		-35.156250
9526		-46.875000
9527		-39.062500
9528		-46.875000
9529		-42.968750
9530		-50.781250
9531		-44.921875
9532		-52.734375
9533		-48.828125
9534		-54.687500
9535		-50.781250
9536		-56.640625
9537		-52.734375
9538		-58.593750
9539		-54.687500
9540		-62.500000
9541		-54.687500
9542		-62.500000
9543		-58.593750
9544		-64.453125
9545		-58.593750
9546		-66.406250
9547		-62.500000
9548		-68.359375
9549		-64.453125
9550		-70.312500
9551		-66.406250
9552		-72.265625
9553		-68.359375
9554		-76.171875
9555		-68.359375
9556		-78.125000
9557		-70.312500
9558		-80.078125
9559		-72.265625
9560		-82.031250
9561		-72.265625
9562		-82.031250
9563		-76.171875
9564		-82.031250
9565		-78.125000
9566		-83.984375
9567		-80.078125
9568		-83.984375
9569		-82.031250
9570		-87.890625
9571		-82.031250
9572		-89.843750
9573		-82.031250
9574		-89.843750
9575		-83.984375
9576		-91.796875
9577		-83.984375
9578		-91.796875
9579		-85.937500
9580		-93.750000
9581		-87.890625
9582		-91.796875
9583		-89.843750
9584		-93.750000
9585		-89.843750
9586		-95.703125
9587		-89.843750
9588		-95.703125
9589		-89.843750
9590		-95.703125
9591		-91.796875
9592		-97.656250
9593		-91.796875
9594		-97.656250
9595		-91.796875
9596		-97.656250
9597		-93.750000
9598		-97.656250
9599		-93.750000
9600		-95.703125
9601		-93.750000
9602		-99.609375
9603		-91.796875
9604		-99.609375
9605		-91.796875
9606		-99.609375
9607		-91.796875
9608		-99.609375
9609		-91.796875
9610		-99.609375
9611		-91.796875
9612		-99.609375
9613		-91.796875
9614		-97.656250
9615		-91.796875
9616		-95.703125
9617		-93.750000
9618		-95.703125
9619		-91.796875
9620		-97.656250
9621		-89.843750
9622		-95.703125
9623		-89.843750
9624		-95.703125
9625		-87.890625
9626		-95.703125
9627		-85.937500
9628		-93.750000
9629		-85.937500
9630		-93.750000
9631		-85.937500
9632		-89.843750
9633		-85.937500
9634		-87.890625
9635		-85.937500
9636		-87.890625
9637		-82.031250
9638		-87.890625
9639		-80.078125
9640		-87.890625
9641		-78.125000
9642		-85.937500
9643		-78.125000
9644		-83.984375
9645		-78.125000
9646		-82.031250
9647		-74.218750
9648		-82.031250
9649		-74.218750
9650		-78.125000
9651		-74.218750
9652		-76.171875
9653		-72.265625
9654		-76.171875
9655		-68.359375
9656		-74.218750
9657		-66.406250
9658		-72.265625
9659		-64.453125
9660		-70.312500
9661		-62.500000
9662		-68.359375
9663		-58.593750
9664		-66.406250
9665		-58.593750
9666		-64.453125
9667		-58.593750
9668		-60.546875
9669		-56.640625
9670		-60.546875
9671		-50.781250
9672		-58.593750
9673		-50.781250
9674		-54.687500
9675		-46.875000
9676		-52.734375
9677		-44.921875
9678		-50.781250
9679		-41.015625
9680		-48.828125
9681		-41.015625
9682		-44.921875
9683		-39.062500
9684		-41.015625
9685		-37.109375
9686		-39.062500
9687		-33.203125
9688		-39.062500
9689		-31.250000
9690		-35.156250
9691		-27.343750
9692		-33.203125
9693		-25.390625
9694		-31.250000
9695		-23.437500
9696		-29.296875
9697		-21.484375
9698		-25.390625
9699		-19.531250
9700		-21.484375
9701		-17.578125
9702		-17.578125
9703		-13.671875
9704		-17.578125
9705		-9.765625
9706		-15.625000
9707		-5.859375
9708		-11.718750
9709		-3.906250
9710		-11.718750
9711		-1.953125
9712		-7.812500
9713		0.000000
9714		-5.859375
9715		3.906250
9716		0.000000
9717		3.906250
9718		1.953125
9719		5.859375
9720		3.906250
9721		11.718750
9722		5.859375
9723		15.625000
9724		7.812500
9725		15.625000
9726		11.718750
9727		19.531250
9728		11.718750
9729		21.484375
9730		15.625000
9731		25.390625
9732		19.531250
9733		25.390625
9734		23.437500
9735		27.343750
9736		25.390625
9737		29.296875
9738		25.390625
9739		35.156250
9740		29.296875
9741		37.109375
9742		31.250000
9743		39.062500
9744		33.203125
9745		42.968750
9746		35.156250
9747		44.921875
9748		39.062500
9749		46.875000
9750		41.015625
9751		46.875000
9752		44.921875
9753		48.828125
9754		44.921875
9755		52.734375
9756		46.875000
9757		54.687500
9758		48.828125
9759		58.593750
9760		50.781250
9761		60.546875
9762		54.687500
9763		62.500000
9764		54.687500
9765		64.453125
9766		56.640625
9767		64.453125
9768		60.546875
9769		64.453125
9770		62.500000
9771		70.312500
9772		62.500000
9773		70.312500
9774		64.453125
9775		72.265625
9776		66.406250
9777		74.218750
9778		68.359375
9779		76.171875
9780		70.312500
9781		78.125000
9782		72.265625
9783		80.078125
9784		76.171875
9785		80.078125
9786		76.171875
9787		80.078125
9788		76.171875
9789		83.984375
9790		78.125000
9791		85.937500
9792		80.078125
9793		87.890625
9794		80.078125
9795		87.890625
9796		82.031250
9797		89.843750
9798		83.984375
9799		91.796875
9800		85.937500
9801		89.843750
9802		87.890625
9803		89.843750
9804		87.890625
9805		93.750000
9806		87.890625
9807		95.703125
9808		87.890625
9809		95.703125
9810		89.843750
9811		97.656250
9812		89.843750
9813		97.656250
9814		91.796875
9815		99.609375
9816		91.796875
9817		99.609375
9818		95.703125
9819		97.656250
9820		95.703125
9821		97.656250
9822		93.750000
9823		101.562500
9824		93.750000
9825		101.562500
9826		93.750000
9827		101.562500
9828		95.703125
9829		101.562500
9830		95.703125
9831		103.515625
9832		95.703125
9833		103.515625
9834		97.656250
9835		101.562500
9836		97.656250
9837		101.562500
9838		95.703125
9839		103.515625
9840		95.703125
9841		103.515625
9842		95.703125
9843		103.515625
9844		95.703125
9845		103.515625
9846		95.703125
9847		103.515625
9848		95.703125
9849		103.515625
9850		95.703125
9851		103.515625
9852		97.656250
9853		99.609375
9854		95.703125
9855		99.609375
9856		93.750000
9857		101.562500
9858		93.750000
9859		101.562500
9860		93.750000
9861		101.562500
9862		91.796875
9863		99.609375
9864		91.796875
9865		99.609375
9866		91.796875
9867		99.609375
9868		91.796875
9869		95.703125
9870		91.796875
9871		95.703125
9872		87.890625
9873		95.703125
9874		87.890625
9875		95.703125
9876		85.937500
9877		93.750000
9878		85.937500
9879		93.750000
9880		85.937500
9881		91.796875
9882		83.984375
9883		91.796875
9884		83.984375
9885		87.890625
9886		83.984375
9887		85.937500
9888		80.078125
9889		85.937500
9890		78.125000
9891		85.937500
9892		76.171875
9893		83.984375
9894		74.218750
9895		83.984375
9896		72.265625
9897		82.031250
9898		70.312500
9899		80.078125
9900		70.312500
9901		78.125000
9902		70.312500
9903		74.218750
9904		68.359375
9905		72.265625
9906		64.453125
9907		72.265625
9908		62.500000
9909		70.312500
9910		60.546875
9911		68.359375
9912		58.593750
9913		68.359375
9914		56.640625
9915		64.453125
9916		54.687500
9917		62.500000
9918		54.687500
9919		60.546875
9920		52.734375
9921		56.640625
9922		48.828125
9923		56.640625
9924		46.875000
9925		54.687500
9926		44.921875
9927		52.734375
9928		41.015625
9929		50.781250
9930		39.062500
9931		48.828125
9932		37.109375
9933		46.875000
9934		35.156250
9935		42.968750
9936		35.156250
9937		39.062500
9938		31.250000
9939		37.109375
9940		27.343750
9941		37.109375
9942		25.390625
9943		33.203125
9944		23.437500
9945		31.250000
9946		19.531250
9947		29.296875
9948		17.578125
9949		27.343750
9950		13.671875
9951		23.437500
9952		13.671875
9953		19.531250
9954		9.765625
9955		15.625000
9956		7.812500
9957		15.625000
9958		3.906250
9959		13.671875
9960		1.953125
9961		9.765625
9962		0.000000
9963		7.812500
9964		-3.906250
9965		3.906250
9966		-5.859375
9967		3.906250
9968		-7.812500
9969		0.000000
9970		-9.765625
9971		-3.906250
9972		-13.671875
9973		-5.859375
9974		-17.578125
9975		-9.765625
9976		-19.531250
9977		-9.765625
9978		-21.484375
9979		-11.718750
9980		-25.390625
9981		-15.625000
9982		-27.343750
9983		-17.578125
9984		-27.343750
9985		-19.531250
9986		-31.250000
9987		-25.390625
9988		-35.156250
9989		-19.531250
9990		-39.062500
9991		-27.343750
9992		-41.015625
9993		-29.296875
9994		-41.015625
9995		-33.203125
9996		-44.921875
9997		-35.156250
9998		-48.828125
9999		-37.109375
10000		-48.828125
