Channel              :		CH1
Frequency            :		1.061kHz
Period               :		0.942ms
PK-PK                :		199.2mV
Probe attenuation    :		1X
Voltage per ADC value:		0.122070mV
Time interval        :		2.00000us

index		CH1_Voltage(mV)
1		39.062500
2		39.062500
3		42.968750
4		37.109375
5		41.015625
6		35.156250
7		39.062500
8		33.203125
9		37.109375
10		29.296875
11		35.156250
12		27.343750
13		33.203125
14		25.390625
15		31.250000
16		23.437500
17		29.296875
18		21.484375
19		25.390625
20		19.531250
21		23.437500
22		15.625000
23		21.484375
24		13.671875
25		19.531250
26		11.718750
27		15.625000
28		7.812500
29		13.671875
30		7.812500
31		11.718750
32		3.906250
33		9.765625
34		1.953125
35		7.812500
36		0.000000
37		3.906250
38		-3.906250
39		1.953125
40		-5.859375
41		0.000000
42		-7.812500
43		-3.906250
44		-9.765625
45		-5.859375
46		-13.671875
47		-7.812500
48		-15.625000
49		-9.765625
50		-17.578125
51		-13.671875
52		-21.484375
53		-15.625000
54		-23.437500
55		-17.578125
56		-25.390625
57		-19.531250
58		-27.343750
59		-23.437500
60		-31.250000
61		-25.390625
62		-33.203125
63		-27.343750
64		-35.156250
65		-31.250000
66		-37.109375
67		-33.203125
68		-41.015625
69		-35.156250
70		-42.968750
71		-37.109375
72		-44.921875
73		-41.015625
74		-46.875000
75		-42.968750
76		-48.828125
77		-44.921875
78		-52.734375
79		-46.875000
80		-54.687500
81		-48.828125
82		-56.640625
83		-50.781250
84		-58.593750
85		-52.734375
86		-60.546875
87		-56.640625
88		-62.500000
89		-58.593750
90		-64.453125
91		-60.546875
92		-66.406250
93		-62.500000
94		-70.312500
95		-64.453125
96		-70.312500
97		-66.406250
98		-72.265625
99		-68.359375
100		-74.218750
101		-70.312500
102		-76.171875
103		-72.265625
104		-78.125000
105		-74.218750
106		-80.078125
107		-76.171875
108		-82.031250
109		-76.171875
110		-82.031250
111		-78.125000
112		-83.984375
113		-80.078125
114		-85.937500
115		-82.031250
116		-87.890625
117		-82.031250
118		-87.890625
119		-83.984375
120		-89.843750
121		-85.937500
122		-91.796875
123		-85.937500
124		-91.796875
125		-87.890625
126		-93.750000
127		-89.843750
128		-93.750000
129		-89.843750
130		-95.703125
131		-91.796875
132		-95.703125
133		-91.796875
134		-95.703125
135		-93.750000
136		-97.656250
137		-93.750000
138		-97.656250
139		-93.750000
140		-97.656250
141		-95.703125
142		-99.609375
143		-95.703125
144		-99.609375
145		-95.703125
146		-99.609375
147		-95.703125
148		-99.609375
149		-95.703125
150		-99.609375
151		-95.703125
152		-101.562500
153		-97.656250
154		-101.562500
155		-97.656250
156		-99.609375
157		-95.703125
158		-101.562500
159		-97.656250
160		-99.609375
161		-97.656250
162		-101.562500
163		-95.703125
164		-101.562500
165		-95.703125
166		-99.609375
167		-95.703125
168		-99.609375
169		-95.703125
170		-97.656250
171		-95.703125
172		-97.656250
173		-93.750000
174		-97.656250
175		-93.750000
176		-97.656250
177		-93.750000
178		-95.703125
179		-91.796875
180		-95.703125
181		-91.796875
182		-93.750000
183		-89.843750
184		-93.750000
185		-89.843750
186		-91.796875
187		-87.890625
188		-89.843750
189		-87.890625
190		-89.843750
191		-85.937500
192		-87.890625
193		-83.984375
194		-85.937500
195		-83.984375
196		-85.937500
197		-82.031250
198		-83.984375
199		-80.078125
200		-82.031250
201		-78.125000
202		-82.031250
203		-76.171875
204		-80.078125
205		-76.171875
206		-78.125000
207		-74.218750
208		-76.171875
209		-72.265625
210		-74.218750
211		-70.312500
212		-72.265625
213		-68.359375
214		-70.312500
215		-66.406250
216		-68.359375
217		-64.453125
218		-66.406250
219		-62.500000
220		-64.453125
221		-60.546875
222		-62.500000
223		-58.593750
224		-60.546875
225		-56.640625
226		-58.593750
227		-54.687500
228		-56.640625
229		-52.734375
230		-54.687500
231		-48.828125
232		-52.734375
233		-46.875000
234		-50.781250
235		-44.921875
236		-46.875000
237		-42.968750
238		-44.921875
239		-41.015625
240		-42.968750
241		-37.109375
242		-41.015625
243		-35.156250
244		-39.062500
245		-33.203125
246		-35.156250
247		-31.250000
248		-33.203125
249		-27.343750
250		-31.250000
251		-25.390625
252		-29.296875
253		-23.437500
254		-25.390625
255		-21.484375
256		-23.437500
257		-17.578125
258		-21.484375
259		-15.625000
260		-17.578125
261		-13.671875
262		-15.625000
263		-11.718750
264		-13.671875
265		-7.812500
266		-11.718750
267		-5.859375
268		-7.812500
269		-3.906250
270		-5.859375
271		0.000000
272		-3.906250
273		1.953125
274		0.000000
275		3.906250
276		1.953125
277		5.859375
278		3.906250
279		7.812500
280		5.859375
281		11.718750
282		7.812500
283		13.671875
284		11.718750
285		15.625000
286		13.671875
287		17.578125
288		15.625000
289		21.484375
290		17.578125
291		23.437500
292		19.531250
293		25.390625
294		23.437500
295		27.343750
296		25.390625
297		31.250000
298		27.343750
299		33.203125
300		29.296875
301		35.156250
302		31.250000
303		37.109375
304		33.203125
305		39.062500
306		35.156250
307		41.015625
308		39.062500
309		42.968750
310		41.015625
311		44.921875
312		42.968750
313		46.875000
314		44.921875
315		48.828125
316		44.921875
317		50.781250
318		48.828125
319		52.734375
320		50.781250
321		54.687500
322		50.781250
323		56.640625
324		52.734375
325		58.593750
326		54.687500
327		58.593750
328		56.640625
329		60.546875
330		58.593750
331		62.500000
332		60.546875
333		64.453125
334		60.546875
335		66.406250
336		62.500000
337		66.406250
338		64.453125
339		68.359375
340		66.406250
341		70.312500
342		66.406250
343		72.265625
344		68.359375
345		72.265625
346		70.312500
347		74.218750
348		70.312500
349		76.171875
350		72.265625
351		76.171875
352		74.218750
353		78.125000
354		74.218750
355		78.125000
356		76.171875
357		78.125000
358		76.171875
359		80.078125
360		76.171875
361		80.078125
362		78.125000
363		82.031250
364		78.125000
365		82.031250
366		80.078125
367		83.984375
368		80.078125
369		83.984375
370		80.078125
371		83.984375
372		82.031250
373		85.937500
374		82.031250
375		85.937500
376		82.031250
377		85.937500
378		82.031250
379		85.937500
380		82.031250
381		87.890625
382		83.984375
383		87.890625
384		83.984375
385		85.937500
386		83.984375
387		87.890625
388		83.984375
389		87.890625
390		83.984375
391		87.890625
392		83.984375
393		87.890625
394		83.984375
395		87.890625
396		83.984375
397		87.890625
398		83.984375
399		87.890625
400		83.984375
401		87.890625
402		83.984375
403		85.937500
404		82.031250
405		85.937500
406		82.031250
407		85.937500
408		82.031250
409		85.937500
410		82.031250
411		85.937500
412		80.078125
413		83.984375
414		80.078125
415		83.984375
416		80.078125
417		83.984375
418		80.078125
419		82.031250
420		78.125000
421		82.031250
422		78.125000
423		82.031250
424		76.171875
425		80.078125
426		74.218750
427		80.078125
428		74.218750
429		78.125000
430		74.218750
431		78.125000
432		72.265625
433		76.171875
434		70.312500
435		76.171875
436		70.312500
437		74.218750
438		68.359375
439		72.265625
440		68.359375
441		70.312500
442		66.406250
443		70.312500
444		64.453125
445		68.359375
446		62.500000
447		66.406250
448		62.500000
449		66.406250
450		60.546875
451		64.453125
452		58.593750
453		62.500000
454		56.640625
455		60.546875
456		54.687500
457		58.593750
458		52.734375
459		58.593750
460		50.781250
461		56.640625
462		48.828125
463		54.687500
464		48.828125
465		52.734375
466		46.875000
467		50.781250
468		44.921875
469		48.828125
470		42.968750
471		46.875000
472		39.062500
473		44.921875
474		37.109375
475		42.968750
476		35.156250
477		39.062500
478		33.203125
479		37.109375
480		31.250000
481		35.156250
482		29.296875
483		33.203125
484		27.343750
485		31.250000
486		25.390625
487		29.296875
488		21.484375
489		27.343750
490		19.531250
491		25.390625
492		17.578125
493		21.484375
494		15.625000
495		19.531250
496		11.718750
497		17.578125
498		9.765625
499		15.625000
500		7.812500
501		11.718750
502		5.859375
503		9.765625
504		3.906250
505		7.812500
506		0.000000
507		5.859375
508		-1.953125
509		3.906250
510		-3.906250
511		0.000000
512		-7.812500
513		-1.953125
514		-9.765625
515		-3.906250
516		-11.718750
517		-5.859375
518		-15.625000
519		-9.765625
520		-17.578125
521		-11.718750
522		-19.531250
523		-15.625000
524		-21.484375
525		-17.578125
526		-25.390625
527		-19.531250
528		-27.343750
529		-21.484375
530		-29.296875
531		-25.390625
532		-33.203125
533		-27.343750
534		-35.156250
535		-29.296875
536		-37.109375
537		-33.203125
538		-39.062500
539		-35.156250
540		-42.968750
541		-37.109375
542		-44.921875
543		-39.062500
544		-46.875000
545		-42.968750
546		-48.828125
547		-44.921875
548		-50.781250
549		-46.875000
550		-52.734375
551		-48.828125
552		-54.687500
553		-50.781250
554		-58.593750
555		-52.734375
556		-60.546875
557		-54.687500
558		-62.500000
559		-58.593750
560		-64.453125
561		-60.546875
562		-66.406250
563		-62.500000
564		-68.359375
565		-64.453125
566		-72.265625
567		-66.406250
568		-72.265625
569		-68.359375
570		-74.218750
571		-70.312500
572		-76.171875
573		-72.265625
574		-78.125000
575		-72.265625
576		-80.078125
577		-76.171875
578		-80.078125
579		-76.171875
580		-82.031250
581		-78.125000
582		-83.984375
583		-80.078125
584		-85.937500
585		-82.031250
586		-87.890625
587		-82.031250
588		-87.890625
589		-83.984375
590		-89.843750
591		-85.937500
592		-91.796875
593		-85.937500
594		-91.796875
595		-87.890625
596		-93.750000
597		-89.843750
598		-93.750000
599		-89.843750
600		-95.703125
601		-91.796875
602		-95.703125
603		-91.796875
604		-97.656250
605		-93.750000
606		-97.656250
607		-93.750000
608		-97.656250
609		-93.750000
610		-99.609375
611		-95.703125
612		-99.609375
613		-95.703125
614		-99.609375
615		-97.656250
616		-99.609375
617		-97.656250
618		-99.609375
619		-97.656250
620		-101.562500
621		-97.656250
622		-101.562500
623		-97.656250
624		-101.562500
625		-97.656250
626		-101.562500
627		-97.656250
628		-101.562500
629		-97.656250
630		-101.562500
631		-97.656250
632		-101.562500
633		-95.703125
634		-101.562500
635		-97.656250
636		-99.609375
637		-95.703125
638		-99.609375
639		-97.656250
640		-99.609375
641		-95.703125
642		-99.609375
643		-95.703125
644		-99.609375
645		-93.750000
646		-97.656250
647		-93.750000
648		-97.656250
649		-93.750000
650		-95.703125
651		-91.796875
652		-95.703125
653		-91.796875
654		-93.750000
655		-91.796875
656		-93.750000
657		-89.843750
658		-91.796875
659		-87.890625
660		-91.796875
661		-87.890625
662		-89.843750
663		-85.937500
664		-87.890625
665		-85.937500
666		-87.890625
667		-83.984375
668		-85.937500
669		-82.031250
670		-83.984375
671		-80.078125
672		-83.984375
673		-80.078125
674		-82.031250
675		-78.125000
676		-80.078125
677		-76.171875
678		-78.125000
679		-74.218750
680		-76.171875
681		-72.265625
682		-74.218750
683		-70.312500
684		-74.218750
685		-68.359375
686		-70.312500
687		-66.406250
688		-68.359375
689		-64.453125
690		-66.406250
691		-62.500000
692		-64.453125
693		-60.546875
694		-62.500000
695		-58.593750
696		-60.546875
697		-56.640625
698		-58.593750
699		-54.687500
700		-56.640625
701		-50.781250
702		-54.687500
703		-48.828125
704		-50.781250
705		-46.875000
706		-48.828125
707		-44.921875
708		-46.875000
709		-42.968750
710		-44.921875
711		-39.062500
712		-42.968750
713		-39.062500
714		-41.015625
715		-35.156250
716		-37.109375
717		-33.203125
718		-35.156250
719		-31.250000
720		-33.203125
721		-27.343750
722		-31.250000
723		-25.390625
724		-27.343750
725		-23.437500
726		-25.390625
727		-19.531250
728		-23.437500
729		-17.578125
730		-21.484375
731		-15.625000
732		-17.578125
733		-13.671875
734		-15.625000
735		-11.718750
736		-13.671875
737		-7.812500
738		-9.765625
739		-5.859375
740		-7.812500
741		-1.953125
742		-5.859375
743		0.000000
744		-3.906250
745		1.953125
746		0.000000
747		3.906250
748		1.953125
749		5.859375
750		3.906250
751		9.765625
752		5.859375
753		11.718750
754		7.812500
755		13.671875
756		9.765625
757		17.578125
758		11.718750
759		21.484375
760		15.625000
761		21.484375
762		17.578125
763		23.437500
764		21.484375
765		25.390625
766		23.437500
767		27.343750
768		25.390625
769		31.250000
770		27.343750
771		33.203125
772		29.296875
773		37.109375
774		31.250000
775		37.109375
776		31.250000
777		39.062500
778		35.156250
779		41.015625
780		37.109375
781		42.968750
782		41.015625
783		44.921875
784		42.968750
785		48.828125
786		41.015625
787		50.781250
788		44.921875
789		52.734375
790		46.875000
791		52.734375
792		48.828125
793		56.640625
794		50.781250
795		56.640625
796		52.734375
797		56.640625
798		54.687500
799		60.546875
800		56.640625
801		60.546875
802		56.640625
803		64.453125
804		58.593750
805		64.453125
806		60.546875
807		66.406250
808		62.500000
809		68.359375
810		62.500000
811		70.312500
812		62.500000
813		70.312500
814		66.406250
815		70.312500
816		68.359375
817		72.265625
818		68.359375
819		74.218750
820		68.359375
821		76.171875
822		70.312500
823		78.125000
824		72.265625
825		78.125000
826		72.265625
827		80.078125
828		74.218750
829		80.078125
830		76.171875
831		80.078125
832		76.171875
833		80.078125
834		76.171875
835		83.984375
836		78.125000
837		83.984375
838		78.125000
839		83.984375
840		78.125000
841		85.937500
842		78.125000
843		85.937500
844		80.078125
845		85.937500
846		80.078125
847		85.937500
848		82.031250
849		85.937500
850		82.031250
851		85.937500
852		82.031250
853		87.890625
854		80.078125
855		87.890625
856		82.031250
857		87.890625
858		80.078125
859		89.843750
860		82.031250
861		87.890625
862		82.031250
863		89.843750
864		83.984375
865		87.890625
866		83.984375
867		85.937500
868		82.031250
869		87.890625
870		80.078125
871		87.890625
872		80.078125
873		87.890625
874		80.078125
875		87.890625
876		80.078125
877		87.890625
878		80.078125
879		87.890625
880		80.078125
881		85.937500
882		80.078125
883		83.984375
884		80.078125
885		83.984375
886		78.125000
887		83.984375
888		78.125000
889		83.984375
890		76.171875
891		83.984375
892		76.171875
893		82.031250
894		74.218750
895		82.031250
896		74.218750
897		82.031250
898		74.218750
899		78.125000
900		74.218750
901		76.171875
902		72.265625
903		76.171875
904		70.312500
905		76.171875
906		68.359375
907		76.171875
908		66.406250
909		74.218750
910		66.406250
911		74.218750
912		64.453125
913		72.265625
914		64.453125
915		70.312500
916		64.453125
917		66.406250
918		60.546875
919		66.406250
920		58.593750
921		66.406250
922		56.640625
923		64.453125
924		56.640625
925		62.500000
926		52.734375
927		60.546875
928		52.734375
929		58.593750
930		50.781250
931		58.593750
932		50.781250
933		54.687500
934		48.828125
935		52.734375
936		44.921875
937		50.781250
938		42.968750
939		50.781250
940		41.015625
941		48.828125
942		39.062500
943		46.875000
944		37.109375
945		44.921875
946		35.156250
947		42.968750
948		33.203125
949		39.062500
950		33.203125
951		37.109375
952		27.343750
953		35.156250
954		25.390625
955		33.203125
956		23.437500
957		31.250000
958		21.484375
959		29.296875
960		19.531250
961		27.343750
962		15.625000
963		25.390625
964		15.625000
965		21.484375
966		13.671875
967		17.578125
968		11.718750
969		15.625000
970		5.859375
971		15.625000
972		3.906250
973		11.718750
974		1.953125
975		9.765625
976		0.000000
977		7.812500
978		-3.906250
979		5.859375
980		-5.859375
981		1.953125
982		-5.859375
983		0.000000
984		-7.812500
985		-3.906250
986		-13.671875
987		-5.859375
988		-15.625000
989		-7.812500
990		-17.578125
991		-7.812500
992		-19.531250
993		-11.718750
994		-23.437500
995		-15.625000
996		-25.390625
997		-17.578125
998		-27.343750
999		-19.531250
1000		-29.296875
1001		-23.437500
1002		-31.250000
1003		-25.390625
1004		-35.156250
1005		-27.343750
1006		-37.109375
1007		-29.296875
1008		-39.062500
1009		-33.203125
1010		-41.015625
1011		-35.156250
1012		-44.921875
1013		-37.109375
1014		-46.875000
1015		-39.062500
1016		-46.875000
1017		-42.968750
1018		-50.781250
1019		-44.921875
1020		-54.687500
1021		-46.875000
1022		-56.640625
1023		-48.828125
1024		-58.593750
1025		-50.781250
1026		-60.546875
1027		-52.734375
1028		-62.500000
1029		-54.687500
1030		-64.453125
1031		-56.640625
1032		-64.453125
1033		-60.546875
1034		-68.359375
1035		-62.500000
1036		-70.312500
1037		-64.453125
1038		-74.218750
1039		-66.406250
1040		-76.171875
1041		-68.359375
1042		-76.171875
1043		-68.359375
1044		-78.125000
1045		-72.265625
1046		-80.078125
1047		-72.265625
1048		-82.031250
1049		-74.218750
1050		-82.031250
1051		-78.125000
1052		-83.984375
1053		-78.125000
1054		-85.937500
1055		-78.125000
1056		-87.890625
1057		-82.031250
1058		-89.843750
1059		-82.031250
1060		-91.796875
1061		-83.984375
1062		-91.796875
1063		-83.984375
1064		-93.750000
1065		-85.937500
1066		-93.750000
1067		-87.890625
1068		-93.750000
1069		-89.843750
1070		-95.703125
1071		-89.843750
1072		-97.656250
1073		-89.843750
1074		-99.609375
1075		-91.796875
1076		-99.609375
1077		-91.796875
1078		-99.609375
1079		-93.750000
1080		-101.562500
1081		-93.750000
1082		-101.562500
1083		-95.703125
1084		-99.609375
1085		-95.703125
1086		-101.562500
1087		-95.703125
1088		-103.515625
1089		-95.703125
1090		-103.515625
1091		-95.703125
1092		-103.515625
1093		-97.656250
1094		-103.515625
1095		-97.656250
1096		-103.515625
1097		-95.703125
1098		-103.515625
1099		-95.703125
1100		-101.562500
1101		-97.656250
1102		-101.562500
1103		-97.656250
1104		-103.515625
1105		-95.703125
1106		-103.515625
1107		-95.703125
1108		-103.515625
1109		-93.750000
1110		-101.562500
1111		-95.703125
1112		-101.562500
1113		-93.750000
1114		-101.562500
1115		-93.750000
1116		-99.609375
1117		-95.703125
1118		-97.656250
1119		-93.750000
1120		-99.609375
1121		-91.796875
1122		-97.656250
1123		-89.843750
1124		-97.656250
1125		-89.843750
1126		-97.656250
1127		-87.890625
1128		-95.703125
1129		-87.890625
1130		-93.750000
1131		-85.937500
1132		-93.750000
1133		-85.937500
1134		-89.843750
1135		-85.937500
1136		-87.890625
1137		-83.984375
1138		-89.843750
1139		-82.031250
1140		-87.890625
1141		-80.078125
1142		-85.937500
1143		-78.125000
1144		-83.984375
1145		-78.125000
1146		-83.984375
1147		-76.171875
1148		-82.031250
1149		-74.218750
1150		-78.125000
1151		-74.218750
1152		-76.171875
1153		-72.265625
1154		-74.218750
1155		-68.359375
1156		-74.218750
1157		-66.406250
1158		-72.265625
1159		-64.453125
1160		-68.359375
1161		-62.500000
1162		-68.359375
1163		-60.546875
1164		-66.406250
1165		-58.593750
1166		-64.453125
1167		-58.593750
1168		-60.546875
1169		-56.640625
1170		-58.593750
1171		-52.734375
1172		-58.593750
1173		-50.781250
1174		-56.640625
1175		-48.828125
1176		-52.734375
1177		-44.921875
1178		-50.781250
1179		-42.968750
1180		-48.828125
1181		-41.015625
1182		-46.875000
1183		-39.062500
1184		-42.968750
1185		-37.109375
1186		-39.062500
1187		-35.156250
1188		-39.062500
1189		-31.250000
1190		-37.109375
1191		-27.343750
1192		-33.203125
1193		-25.390625
1194		-31.250000
1195		-23.437500
1196		-29.296875
1197		-21.484375
1198		-25.390625
1199		-19.531250
1200		-23.437500
1201		-17.578125
1202		-19.531250
1203		-15.625000
1204		-17.578125
1205		-11.718750
1206		-15.625000
1207		-7.812500
1208		-13.671875
1209		-5.859375
1210		-11.718750
1211		-3.906250
1212		-9.765625
1213		-1.953125
1214		-5.859375
1215		1.953125
1216		-5.859375
1217		1.953125
1218		0.000000
1219		3.906250
1220		1.953125
1221		5.859375
1222		3.906250
1223		11.718750
1224		5.859375
1225		13.671875
1226		7.812500
1227		15.625000
1228		9.765625
1229		17.578125
1230		11.718750
1231		19.531250
1232		13.671875
1233		23.437500
1234		17.578125
1235		23.437500
1236		21.484375
1237		25.390625
1238		23.437500
1239		29.296875
1240		23.437500
1241		31.250000
1242		27.343750
1243		35.156250
1244		29.296875
1245		37.109375
1246		31.250000
1247		37.109375
1248		33.203125
1249		39.062500
1250		35.156250
1251		41.015625
1252		39.062500
1253		42.968750
1254		41.015625
1255		44.921875
1256		41.015625
1257		48.828125
1258		42.968750
1259		50.781250
1260		44.921875
1261		52.734375
1262		46.875000
1263		52.734375
1264		48.828125
1265		56.640625
1266		48.828125
1267		56.640625
1268		54.687500
1269		58.593750
1270		54.687500
1271		58.593750
1272		56.640625
1273		62.500000
1274		56.640625
1275		64.453125
1276		58.593750
1277		66.406250
1278		58.593750
1279		68.359375
1280		62.500000
1281		68.359375
1282		62.500000
1283		70.312500
1284		64.453125
1285		70.312500
1286		68.359375
1287		70.312500
1288		68.359375
1289		74.218750
1290		68.359375
1291		74.218750
1292		68.359375
1293		76.171875
1294		70.312500
1295		78.125000
1296		70.312500
1297		78.125000
1298		72.265625
1299		80.078125
1300		72.265625
1301		80.078125
1302		76.171875
1303		80.078125
1304		76.171875
1305		80.078125
1306		76.171875
1307		83.984375
1308		76.171875
1309		83.984375
1310		76.171875
1311		83.984375
1312		78.125000
1313		83.984375
1314		78.125000
1315		85.937500
1316		78.125000
1317		85.937500
1318		82.031250
1319		85.937500
1320		82.031250
1321		85.937500
1322		80.078125
1323		87.890625
1324		80.078125
1325		87.890625
1326		82.031250
1327		87.890625
1328		82.031250
1329		87.890625
1330		80.078125
1331		87.890625
1332		82.031250
1333		87.890625
1334		82.031250
1335		87.890625
1336		83.984375
1337		85.937500
1338		83.984375
1339		87.890625
1340		82.031250
1341		87.890625
1342		82.031250
1343		87.890625
1344		80.078125
1345		87.890625
1346		80.078125
1347		85.937500
1348		80.078125
1349		85.937500
1350		80.078125
1351		85.937500
1352		82.031250
1353		83.984375
1354		80.078125
1355		83.984375
1356		78.125000
1357		83.984375
1358		76.171875
1359		85.937500
1360		76.171875
1361		83.984375
1362		76.171875
1363		82.031250
1364		74.218750
1365		82.031250
1366		74.218750
1367		80.078125
1368		74.218750
1369		80.078125
1370		74.218750
1371		78.125000
1372		72.265625
1373		78.125000
1374		70.312500
1375		76.171875
1376		68.359375
1377		76.171875
1378		68.359375
1379		76.171875
1380		66.406250
1381		74.218750
1382		66.406250
1383		72.265625
1384		64.453125
1385		70.312500
1386		64.453125
1387		68.359375
1388		62.500000
1389		66.406250
1390		60.546875
1391		66.406250
1392		58.593750
1393		64.453125
1394		56.640625
1395		64.453125
1396		54.687500
1397		60.546875
1398		54.687500
1399		58.593750
1400		52.734375
1401		58.593750
1402		50.781250
1403		54.687500
1404		48.828125
1405		52.734375
1406		46.875000
1407		52.734375
1408		42.968750
1409		50.781250
1410		41.015625
1411		48.828125
1412		39.062500
1413		46.875000
1414		39.062500
1415		44.921875
1416		35.156250
1417		42.968750
1418		33.203125
1419		41.015625
1420		33.203125
1421		37.109375
1422		31.250000
1423		35.156250
1424		27.343750
1425		35.156250
1426		25.390625
1427		31.250000
1428		23.437500
1429		31.250000
1430		19.531250
1431		29.296875
1432		17.578125
1433		25.390625
1434		15.625000
1435		23.437500
1436		15.625000
1437		19.531250
1438		11.718750
1439		17.578125
1440		7.812500
1441		15.625000
1442		5.859375
1443		13.671875
1444		3.906250
1445		9.765625
1446		0.000000
1447		7.812500
1448		0.000000
1449		5.859375
1450		-3.906250
1451		3.906250
1452		-5.859375
1453		3.906250
1454		-7.812500
1455		-1.953125
1456		-13.671875
1457		-5.859375
1458		-13.671875
1459		-5.859375
1460		-15.625000
1461		-7.812500
1462		-19.531250
1463		-9.765625
1464		-21.484375
1465		-13.671875
1466		-23.437500
1467		-15.625000
1468		-25.390625
1469		-17.578125
1470		-27.343750
1471		-21.484375
1472		-29.296875
1473		-25.390625
1474		-33.203125
1475		-25.390625
1476		-37.109375
1477		-27.343750
1478		-39.062500
1479		-31.250000
1480		-41.015625
1481		-35.156250
1482		-42.968750
1483		-37.109375
1484		-46.875000
1485		-39.062500
1486		-46.875000
1487		-41.015625
1488		-48.828125
1489		-44.921875
1490		-52.734375
1491		-46.875000
1492		-56.640625
1493		-46.875000
1494		-56.640625
1495		-50.781250
1496		-58.593750
1497		-52.734375
1498		-62.500000
1499		-54.687500
1500		-64.453125
1501		-56.640625
1502		-66.406250
1503		-58.593750
1504		-66.406250
1505		-62.500000
1506		-68.359375
1507		-64.453125
1508		-72.265625
1509		-64.453125
1510		-74.218750
1511		-66.406250
1512		-76.171875
1513		-68.359375
1514		-78.125000
1515		-70.312500
1516		-80.078125
1517		-72.265625
1518		-82.031250
1519		-74.218750
1520		-82.031250
1521		-76.171875
1522		-82.031250
1523		-78.125000
1524		-87.890625
1525		-80.078125
1526		-87.890625
1527		-80.078125
1528		-89.843750
1529		-82.031250
1530		-89.843750
1531		-83.984375
1532		-91.796875
1533		-85.937500
1534		-93.750000
1535		-85.937500
1536		-93.750000
1537		-87.890625
1538		-93.750000
1539		-89.843750
1540		-95.703125
1541		-91.796875
1542		-97.656250
1543		-89.843750
1544		-97.656250
1545		-91.796875
1546		-99.609375
1547		-91.796875
1548		-99.609375
1549		-93.750000
1550		-101.562500
1551		-93.750000
1552		-101.562500
1553		-93.750000
1554		-99.609375
1555		-95.703125
1556		-101.562500
1557		-97.656250
1558		-103.515625
1559		-97.656250
1560		-103.515625
1561		-97.656250
1562		-103.515625
1563		-97.656250
1564		-103.515625
1565		-97.656250
1566		-103.515625
1567		-97.656250
1568		-103.515625
1569		-97.656250
1570		-103.515625
1571		-99.609375
1572		-101.562500
1573		-99.609375
1574		-105.468750
1575		-97.656250
1576		-103.515625
1577		-97.656250
1578		-103.515625
1579		-97.656250
1580		-103.515625
1581		-95.703125
1582		-103.515625
1583		-95.703125
1584		-101.562500
1585		-95.703125
1586		-101.562500
1587		-95.703125
1588		-99.609375
1589		-95.703125
1590		-97.656250
1591		-95.703125
1592		-99.609375
1593		-91.796875
1594		-97.656250
1595		-91.796875
1596		-97.656250
1597		-91.796875
1598		-97.656250
1599		-89.843750
1600		-95.703125
1601		-87.890625
1602		-93.750000
1603		-85.937500
1604		-93.750000
1605		-87.890625
1606		-89.843750
1607		-85.937500
1608		-89.843750
1609		-83.984375
1610		-89.843750
1611		-82.031250
1612		-87.890625
1613		-80.078125
1614		-85.937500
1615		-78.125000
1616		-83.984375
1617		-76.171875
1618		-82.031250
1619		-76.171875
1620		-82.031250
1621		-76.171875
1622		-78.125000
1623		-74.218750
1624		-76.171875
1625		-70.312500
1626		-76.171875
1627		-68.359375
1628		-74.218750
1629		-66.406250
1630		-72.265625
1631		-64.453125
1632		-70.312500
1633		-62.500000
1634		-68.359375
1635		-60.546875
1636		-66.406250
1637		-58.593750
1638		-62.500000
1639		-58.593750
1640		-60.546875
1641		-56.640625
1642		-60.546875
1643		-52.734375
1644		-58.593750
1645		-50.781250
1646		-54.687500
1647		-48.828125
1648		-52.734375
1649		-44.921875
1650		-50.781250
1651		-42.968750
1652		-48.828125
1653		-41.015625
1654		-44.921875
1655		-39.062500
1656		-42.968750
1657		-37.109375
1658		-39.062500
1659		-33.203125
1660		-39.062500
1661		-31.250000
1662		-37.109375
1663		-29.296875
1664		-33.203125
1665		-27.343750
1666		-31.250000
1667		-25.390625
1668		-29.296875
1669		-19.531250
1670		-27.343750
1671		-17.578125
1672		-21.484375
1673		-17.578125
1674		-19.531250
1675		-15.625000
1676		-19.531250
1677		-11.718750
1678		-17.578125
1679		-9.765625
1680		-13.671875
1681		-5.859375
1682		-11.718750
1683		-3.906250
1684		-9.765625
1685		0.000000
1686		-7.812500
1687		1.953125
1688		-3.906250
1689		1.953125
1690		0.000000
1691		3.906250
1692		1.953125
1693		7.812500
1694		1.953125
1695		11.718750
1696		5.859375
1697		13.671875
1698		7.812500
1699		15.625000
1700		9.765625
1701		17.578125
1702		13.671875
1703		19.531250
1704		15.625000
1705		21.484375
1706		19.531250
1707		23.437500
1708		21.484375
1709		27.343750
1710		21.484375
1711		29.296875
1712		25.390625
1713		31.250000
1714		25.390625
1715		33.203125
1716		29.296875
1717		37.109375
1718		31.250000
1719		37.109375
1720		33.203125
1721		39.062500
1722		37.109375
1723		41.015625
1724		39.062500
1725		42.968750
1726		39.062500
1727		46.875000
1728		41.015625
1729		48.828125
1730		42.968750
1731		52.734375
1732		44.921875
1733		52.734375
1734		46.875000
1735		54.687500
1736		48.828125
1737		54.687500
1738		50.781250
1739		56.640625
1740		54.687500
1741		58.593750
1742		54.687500
1743		60.546875
1744		54.687500
1745		62.500000
1746		58.593750
1747		64.453125
1748		56.640625
1749		66.406250
1750		60.546875
1751		66.406250
1752		62.500000
1753		70.312500
1754		62.500000
1755		70.312500
1756		66.406250
1757		70.312500
1758		66.406250
1759		70.312500
1760		66.406250
1761		74.218750
1762		68.359375
1763		76.171875
1764		68.359375
1765		76.171875
1766		70.312500
1767		78.125000
1768		72.265625
1769		78.125000
1770		72.265625
1771		80.078125
1772		74.218750
1773		78.125000
1774		76.171875
1775		80.078125
1776		76.171875
1777		82.031250
1778		76.171875
1779		82.031250
1780		76.171875
1781		83.984375
1782		76.171875
1783		83.984375
1784		78.125000
1785		83.984375
1786		78.125000
1787		85.937500
1788		78.125000
1789		83.984375
1790		80.078125
1791		83.984375
1792		80.078125
1793		85.937500
1794		80.078125
1795		85.937500
1796		80.078125
1797		87.890625
1798		80.078125
1799		85.937500
1800		80.078125
1801		87.890625
1802		80.078125
1803		87.890625
1804		82.031250
1805		87.890625
1806		82.031250
1807		87.890625
1808		82.031250
1809		85.937500
1810		80.078125
1811		85.937500
1812		80.078125
1813		85.937500
1814		80.078125
1815		87.890625
1816		80.078125
1817		87.890625
1818		80.078125
1819		87.890625
1820		80.078125
1821		85.937500
1822		80.078125
1823		83.984375
1824		80.078125
1825		83.984375
1826		78.125000
1827		83.984375
1828		78.125000
1829		83.984375
1830		76.171875
1831		82.031250
1832		74.218750
1833		82.031250
1834		74.218750
1835		82.031250
1836		74.218750
1837		80.078125
1838		74.218750
1839		80.078125
1840		74.218750
1841		78.125000
1842		72.265625
1843		78.125000
1844		70.312500
1845		78.125000
1846		70.312500
1847		76.171875
1848		68.359375
1849		74.218750
1850		66.406250
1851		74.218750
1852		64.453125
1853		72.265625
1854		64.453125
1855		70.312500
1856		62.500000
1857		68.359375
1858		62.500000
1859		66.406250
1860		60.546875
1861		66.406250
1862		58.593750
1863		66.406250
1864		56.640625
1865		62.500000
1866		54.687500
1867		62.500000
1868		52.734375
1869		60.546875
1870		50.781250
1871		58.593750
1872		50.781250
1873		56.640625
1874		48.828125
1875		54.687500
1876		46.875000
1877		52.734375
1878		42.968750
1879		52.734375
1880		42.968750
1881		50.781250
1882		41.015625
1883		46.875000
1884		39.062500
1885		44.921875
1886		35.156250
1887		44.921875
1888		33.203125
1889		42.968750
1890		33.203125
1891		39.062500
1892		31.250000
1893		37.109375
1894		27.343750
1895		35.156250
1896		25.390625
1897		33.203125
1898		23.437500
1899		31.250000
1900		21.484375
1901		29.296875
1902		19.531250
1903		27.343750
1904		15.625000
1905		23.437500
1906		15.625000
1907		21.484375
1908		13.671875
1909		17.578125
1910		7.812500
1911		15.625000
1912		5.859375
1913		13.671875
1914		3.906250
1915		13.671875
1916		1.953125
1917		9.765625
1918		0.000000
1919		7.812500
1920		-3.906250
1921		3.906250
1922		-5.859375
1923		1.953125
1924		-5.859375
1925		-1.953125
1926		-9.765625
1927		-3.906250
1928		-13.671875
1929		-5.859375
1930		-15.625000
1931		-7.812500
1932		-19.531250
1933		-9.765625
1934		-19.531250
1935		-11.718750
1936		-23.437500
1937		-15.625000
1938		-25.390625
1939		-17.578125
1940		-27.343750
1941		-19.531250
1942		-29.296875
1943		-25.390625
1944		-33.203125
1945		-27.343750
1946		-35.156250
1947		-27.343750
1948		-39.062500
1949		-31.250000
1950		-41.015625
1951		-33.203125
1952		-42.968750
1953		-35.156250
1954		-44.921875
1955		-39.062500
1956		-46.875000
1957		-41.015625
1958		-48.828125
1959		-42.968750
1960		-50.781250
1961		-46.875000
1962		-54.687500
1963		-46.875000
1964		-56.640625
1965		-48.828125
1966		-60.546875
1967		-50.781250
1968		-62.500000
1969		-54.687500
1970		-64.453125
1971		-56.640625
1972		-66.406250
1973		-58.593750
1974		-66.406250
1975		-62.500000
1976		-68.359375
1977		-64.453125
1978		-72.265625
1979		-64.453125
1980		-74.218750
1981		-66.406250
1982		-74.218750
1983		-68.359375
1984		-78.125000
1985		-70.312500
1986		-80.078125
1987		-72.265625
1988		-82.031250
1989		-74.218750
1990		-83.984375
1991		-76.171875
1992		-82.031250
1993		-78.125000
1994		-85.937500
1995		-80.078125
1996		-87.890625
1997		-80.078125
1998		-89.843750
1999		-82.031250
2000		-89.843750
2001		-83.984375
2002		-91.796875
2003		-83.984375
2004		-93.750000
2005		-85.937500
2006		-93.750000
2007		-85.937500
2008		-93.750000
2009		-89.843750
2010		-95.703125
2011		-91.796875
2012		-97.656250
2013		-89.843750
2014		-99.609375
2015		-91.796875
2016		-99.609375
2017		-93.750000
2018		-99.609375
2019		-93.750000
2020		-101.562500
2021		-93.750000
2022		-101.562500
2023		-95.703125
2024		-101.562500
2025		-95.703125
2026		-101.562500
2027		-97.656250
2028		-101.562500
2029		-95.703125
2030		-103.515625
2031		-97.656250
2032		-105.468750
2033		-97.656250
2034		-105.468750
2035		-97.656250
2036		-103.515625
2037		-97.656250
2038		-105.468750
2039		-97.656250
2040		-105.468750
2041		-97.656250
2042		-103.515625
2043		-99.609375
2044		-103.515625
2045		-99.609375
2046		-105.468750
2047		-97.656250
2048		-105.468750
2049		-97.656250
2050		-105.468750
2051		-97.656250
2052		-103.515625
2053		-97.656250
2054		-103.515625
2055		-97.656250
2056		-103.515625
2057		-95.703125
2058		-99.609375
2059		-97.656250
2060		-99.609375
2061		-95.703125
2062		-99.609375
2063		-93.750000
2064		-99.609375
2065		-91.796875
2066		-99.609375
2067		-91.796875
2068		-97.656250
2069		-91.796875
2070		-97.656250
2071		-89.843750
2072		-95.703125
2073		-89.843750
2074		-93.750000
2075		-89.843750
2076		-91.796875
2077		-87.890625
2078		-91.796875
2079		-83.984375
2080		-89.843750
2081		-83.984375
2082		-89.843750
2083		-82.031250
2084		-89.843750
2085		-80.078125
2086		-87.890625
2087		-80.078125
2088		-85.937500
2089		-78.125000
2090		-83.984375
2091		-76.171875
2092		-80.078125
2093		-76.171875
2094		-78.125000
2095		-74.218750
2096		-78.125000
2097		-70.312500
2098		-76.171875
2099		-68.359375
2100		-74.218750
2101		-66.406250
2102		-74.218750
2103		-64.453125
2104		-70.312500
2105		-62.500000
2106		-68.359375
2107		-60.546875
2108		-64.453125
2109		-60.546875
2110		-62.500000
2111		-58.593750
2112		-60.546875
2113		-54.687500
2114		-60.546875
2115		-50.781250
2116		-56.640625
2117		-50.781250
2118		-54.687500
2119		-46.875000
2120		-52.734375
2121		-44.921875
2122		-50.781250
2123		-42.968750
2124		-48.828125
2125		-42.968750
2126		-44.921875
2127		-39.062500
2128		-41.015625
2129		-37.109375
2130		-41.015625
2131		-33.203125
2132		-39.062500
2133		-31.250000
2134		-37.109375
2135		-27.343750
2136		-33.203125
2137		-27.343750
2138		-31.250000
2139		-23.437500
2140		-29.296875
2141		-21.484375
2142		-25.390625
2143		-19.531250
2144		-21.484375
2145		-17.578125
2146		-19.531250
2147		-13.671875
2148		-19.531250
2149		-11.718750
2150		-17.578125
2151		-9.765625
2152		-13.671875
2153		-5.859375
2154		-9.765625
2155		-3.906250
2156		-9.765625
2157		-1.953125
2158		-5.859375
2159		0.000000
2160		-1.953125
2161		1.953125
2162		0.000000
2163		5.859375
2164		1.953125
2165		7.812500
2166		3.906250
2167		11.718750
2168		5.859375
2169		11.718750
2170		7.812500
2171		15.625000
2172		11.718750
2173		17.578125
2174		13.671875
2175		19.531250
2176		15.625000
2177		21.484375
2178		19.531250
2179		23.437500
2180		19.531250
2181		27.343750
2182		23.437500
2183		29.296875
2184		25.390625
2185		31.250000
2186		25.390625
2187		35.156250
2188		29.296875
2189		35.156250
2190		31.250000
2191		39.062500
2192		33.203125
2193		39.062500
2194		37.109375
2195		41.015625
2196		39.062500
2197		44.921875
2198		39.062500
2199		46.875000
2200		41.015625
2201		48.828125
2202		42.968750
2203		50.781250
2204		44.921875
2205		52.734375
2206		46.875000
2207		54.687500
2208		48.828125
2209		54.687500
2210		50.781250
2211		56.640625
2212		52.734375
2213		56.640625
2214		54.687500
2215		60.546875
2216		54.687500
2217		62.500000
2218		56.640625
2219		64.453125
2220		58.593750
2221		66.406250
2222		58.593750
2223		66.406250
2224		60.546875
2225		68.359375
2226		62.500000
2227		68.359375
2228		66.406250
2229		70.312500
2230		66.406250
2231		72.265625
2232		66.406250
2233		74.218750
2234		68.359375
2235		74.218750
2236		70.312500
2237		76.171875
2238		70.312500
2239		76.171875
2240		70.312500
2241		78.125000
2242		72.265625
2243		78.125000
2244		74.218750
2245		78.125000
2246		76.171875
2247		80.078125
2248		74.218750
2249		82.031250
2250		74.218750
2251		82.031250
2252		76.171875
2253		82.031250
2254		76.171875
2255		83.984375
2256		78.125000
2257		83.984375
2258		78.125000
2259		83.984375
2260		80.078125
2261		83.984375
2262		80.078125
2263		83.984375
2264		78.125000
2265		85.937500
2266		78.125000
2267		85.937500
2268		78.125000
2269		85.937500
2270		80.078125
2271		85.937500
2272		80.078125
2273		85.937500
2274		80.078125
2275		85.937500
2276		82.031250
2277		85.937500
2278		82.031250
2279		85.937500
2280		80.078125
2281		85.937500
2282		80.078125
2283		85.937500
2284		80.078125
2285		87.890625
2286		80.078125
2287		85.937500
2288		78.125000
2289		85.937500
2290		78.125000
2291		85.937500
2292		78.125000
2293		85.937500
2294		80.078125
2295		83.984375
2296		80.078125
2297		82.031250
2298		76.171875
2299		83.984375
2300		76.171875
2301		83.984375
2302		76.171875
2303		82.031250
2304		76.171875
2305		82.031250
2306		72.265625
2307		80.078125
2308		74.218750
2309		80.078125
2310		72.265625
2311		78.125000
2312		72.265625
2313		76.171875
2314		70.312500
2315		76.171875
2316		68.359375
2317		76.171875
2318		68.359375
2319		74.218750
2320		66.406250
2321		74.218750
2322		66.406250
2323		72.265625
2324		62.500000
2325		70.312500
2326		62.500000
2327		70.312500
2328		62.500000
2329		66.406250
2330		60.546875
2331		66.406250
2332		56.640625
2333		64.453125
2334		56.640625
2335		64.453125
2336		54.687500
2337		62.500000
2338		54.687500
2339		60.546875
2340		52.734375
2341		58.593750
2342		50.781250
2343		56.640625
2344		50.781250
2345		54.687500
2346		48.828125
2347		52.734375
2348		44.921875
2349		50.781250
2350		42.968750
2351		48.828125
2352		41.015625
2353		48.828125
2354		37.109375
2355		44.921875
2356		37.109375
2357		44.921875
2358		35.156250
2359		42.968750
2360		33.203125
2361		39.062500
2362		31.250000
2363		37.109375
2364		29.296875
2365		35.156250
2366		27.343750
2367		33.203125
2368		23.437500
2369		31.250000
2370		21.484375
2371		29.296875
2372		19.531250
2373		27.343750
2374		17.578125
2375		23.437500
2376		15.625000
2377		21.484375
2378		13.671875
2379		17.578125
2380		11.718750
2381		15.625000
2382		7.812500
2383		13.671875
2384		5.859375
2385		11.718750
2386		1.953125
2387		9.765625
2388		0.000000
2389		7.812500
2390		-1.953125
2391		5.859375
2392		-3.906250
2393		1.953125
2394		-5.859375
2395		0.000000
2396		-7.812500
2397		-3.906250
2398		-13.671875
2399		-5.859375
2400		-13.671875
2401		-7.812500
2402		-17.578125
2403		-9.765625
2404		-19.531250
2405		-13.671875
2406		-23.437500
2407		-13.671875
2408		-25.390625
2409		-17.578125
2410		-25.390625
2411		-19.531250
2412		-29.296875
2413		-23.437500
2414		-33.203125
2415		-25.390625
2416		-35.156250
2417		-27.343750
2418		-37.109375
2419		-29.296875
2420		-39.062500
2421		-31.250000
2422		-41.015625
2423		-35.156250
2424		-44.921875
2425		-37.109375
2426		-46.875000
2427		-39.062500
2428		-48.828125
2429		-42.968750
2430		-50.781250
2431		-44.921875
2432		-54.687500
2433		-46.875000
2434		-56.640625
2435		-48.828125
2436		-58.593750
2437		-50.781250
2438		-60.546875
2439		-54.687500
2440		-62.500000
2441		-54.687500
2442		-64.453125
2443		-58.593750
2444		-66.406250
2445		-60.546875
2446		-68.359375
2447		-64.453125
2448		-72.265625
2449		-66.406250
2450		-74.218750
2451		-66.406250
2452		-76.171875
2453		-68.359375
2454		-78.125000
2455		-70.312500
2456		-78.125000
2457		-72.265625
2458		-80.078125
2459		-74.218750
2460		-82.031250
2461		-76.171875
2462		-82.031250
2463		-78.125000
2464		-83.984375
2465		-80.078125
2466		-87.890625
2467		-80.078125
2468		-89.843750
2469		-82.031250
2470		-91.796875
2471		-83.984375
2472		-93.750000
2473		-83.984375
2474		-93.750000
2475		-85.937500
2476		-93.750000
2477		-87.890625
2478		-93.750000
2479		-89.843750
2480		-95.703125
2481		-91.796875
2482		-97.656250
2483		-91.796875
2484		-99.609375
2485		-91.796875
2486		-101.562500
2487		-93.750000
2488		-101.562500
2489		-93.750000
2490		-103.515625
2491		-95.703125
2492		-103.515625
2493		-95.703125
2494		-103.515625
2495		-95.703125
2496		-101.562500
2497		-99.609375
2498		-105.468750
2499		-99.609375
2500		-105.468750
2501		-97.656250
2502		-105.468750
2503		-97.656250
2504		-105.468750
2505		-99.609375
2506		-105.468750
2507		-99.609375
2508		-105.468750
2509		-99.609375
2510		-107.421875
2511		-99.609375
2512		-103.515625
2513		-101.562500
2514		-105.468750
2515		-101.562500
2516		-105.468750
2517		-99.609375
2518		-107.421875
2519		-99.609375
2520		-105.468750
2521		-99.609375
2522		-105.468750
2523		-99.609375
2524		-105.468750
2525		-99.609375
2526		-105.468750
2527		-97.656250
2528		-103.515625
2529		-97.656250
2530		-101.562500
2531		-97.656250
2532		-101.562500
2533		-95.703125
2534		-103.515625
2535		-95.703125
2536		-101.562500
2537		-93.750000
2538		-99.609375
2539		-93.750000
2540		-99.609375
2541		-91.796875
2542		-97.656250
2543		-91.796875
2544		-97.656250
2545		-89.843750
2546		-93.750000
2547		-89.843750
2548		-93.750000
2549		-89.843750
2550		-93.750000
2551		-87.890625
2552		-91.796875
2553		-85.937500
2554		-91.796875
2555		-82.031250
2556		-89.843750
2557		-82.031250
2558		-87.890625
2559		-80.078125
2560		-85.937500
2561		-80.078125
2562		-83.984375
2563		-78.125000
2564		-80.078125
2565		-76.171875
2566		-80.078125
2567		-74.218750
2568		-78.125000
2569		-72.265625
2570		-78.125000
2571		-70.312500
2572		-76.171875
2573		-68.359375
2574		-72.265625
2575		-64.453125
2576		-70.312500
2577		-64.453125
2578		-68.359375
2579		-62.500000
2580		-64.453125
2581		-60.546875
2582		-62.500000
2583		-58.593750
2584		-62.500000
2585		-54.687500
2586		-60.546875
2587		-52.734375
2588		-58.593750
2589		-50.781250
2590		-56.640625
2591		-48.828125
2592		-52.734375
2593		-46.875000
2594		-50.781250
2595		-44.921875
2596		-46.875000
2597		-42.968750
2598		-44.921875
2599		-41.015625
2600		-42.968750
2601		-35.156250
2602		-41.015625
2603		-33.203125
2604		-39.062500
2605		-31.250000
2606		-37.109375
2607		-29.296875
2608		-35.156250
2609		-27.343750
2610		-31.250000
2611		-23.437500
2612		-29.296875
2613		-21.484375
2614		-25.390625
2615		-21.484375
2616		-23.437500
2617		-17.578125
2618		-21.484375
2619		-13.671875
2620		-19.531250
2621		-11.718750
2622		-17.578125
2623		-7.812500
2624		-13.671875
2625		-5.859375
2626		-13.671875
2627		-1.953125
2628		-9.765625
2629		-1.953125
2630		-5.859375
2631		0.000000
2632		-3.906250
2633		1.953125
2634		-1.953125
2635		5.859375
2636		1.953125
2637		7.812500
2638		3.906250
2639		9.765625
2640		5.859375
2641		13.671875
2642		7.812500
2643		15.625000
2644		9.765625
2645		17.578125
2646		11.718750
2647		19.531250
2648		15.625000
2649		21.484375
2650		17.578125
2651		25.390625
2652		19.531250
2653		27.343750
2654		21.484375
2655		29.296875
2656		23.437500
2657		31.250000
2658		25.390625
2659		33.203125
2660		29.296875
2661		37.109375
2662		31.250000
2663		37.109375
2664		35.156250
2665		39.062500
2666		35.156250
2667		41.015625
2668		37.109375
2669		44.921875
2670		39.062500
2671		44.921875
2672		41.015625
2673		48.828125
2674		42.968750
2675		48.828125
2676		42.968750
2677		52.734375
2678		46.875000
2679		54.687500
2680		48.828125
2681		54.687500
2682		50.781250
2683		54.687500
2684		52.734375
2685		58.593750
2686		52.734375
2687		60.546875
2688		54.687500
2689		62.500000
2690		56.640625
2691		62.500000
2692		58.593750
2693		64.453125
2694		58.593750
2695		66.406250
2696		60.546875
2697		66.406250
2698		64.453125
2699		66.406250
2700		64.453125
2701		68.359375
2702		64.453125
2703		72.265625
2704		66.406250
2705		72.265625
2706		68.359375
2707		74.218750
2708		68.359375
2709		76.171875
2710		70.312500
2711		76.171875
2712		70.312500
2713		78.125000
2714		72.265625
2715		76.171875
2716		74.218750
2717		78.125000
2718		74.218750
2719		80.078125
2720		74.218750
2721		80.078125
2722		74.218750
2723		82.031250
2724		74.218750
2725		82.031250
2726		76.171875
2727		83.984375
2728		76.171875
2729		82.031250
2730		76.171875
2731		83.984375
2732		80.078125
2733		82.031250
2734		78.125000
2735		83.984375
2736		78.125000
2737		85.937500
2738		78.125000
2739		85.937500
2740		80.078125
2741		85.937500
2742		78.125000
2743		85.937500
2744		80.078125
2745		85.937500
2746		80.078125
2747		85.937500
2748		82.031250
2749		83.984375
2750		80.078125
2751		83.984375
2752		80.078125
2753		85.937500
2754		80.078125
2755		85.937500
2756		78.125000
2757		85.937500
2758		78.125000
2759		85.937500
2760		78.125000
2761		83.984375
2762		78.125000
2763		83.984375
2764		78.125000
2765		82.031250
2766		78.125000
2767		82.031250
2768		76.171875
2769		82.031250
2770		74.218750
2771		82.031250
2772		76.171875
2773		82.031250
2774		74.218750
2775		82.031250
2776		72.265625
2777		80.078125
2778		72.265625
2779		80.078125
2780		72.265625
2781		78.125000
2782		72.265625
2783		76.171875
2784		70.312500
2785		76.171875
2786		68.359375
2787		74.218750
2788		66.406250
2789		74.218750
2790		66.406250
2791		74.218750
2792		64.453125
2793		72.265625
2794		64.453125
2795		70.312500
2796		62.500000
2797		70.312500
2798		62.500000
2799		66.406250
2800		60.546875
2801		66.406250
2802		58.593750
2803		66.406250
2804		56.640625
2805		64.453125
2806		56.640625
2807		62.500000
2808		52.734375
2809		60.546875
2810		52.734375
2811		60.546875
2812		50.781250
2813		56.640625
2814		48.828125
2815		56.640625
2816		48.828125
2817		52.734375
2818		44.921875
2819		50.781250
2820		42.968750
2821		50.781250
2822		41.015625
2823		48.828125
2824		39.062500
2825		46.875000
2826		35.156250
2827		44.921875
2828		35.156250
2829		42.968750
2830		33.203125
2831		41.015625
2832		33.203125
2833		37.109375
2834		29.296875
2835		35.156250
2836		27.343750
2837		33.203125
2838		23.437500
2839		31.250000
2840		21.484375
2841		29.296875
2842		19.531250
2843		27.343750
2844		17.578125
2845		25.390625
2846		13.671875
2847		23.437500
2848		13.671875
2849		19.531250
2850		11.718750
2851		17.578125
2852		7.812500
2853		15.625000
2854		5.859375
2855		13.671875
2856		3.906250
2857		9.765625
2858		1.953125
2859		9.765625
2860		-1.953125
2861		5.859375
2862		-3.906250
2863		3.906250
2864		-5.859375
2865		1.953125
2866		-7.812500
2867		-3.906250
2868		-11.718750
2869		-5.859375
2870		-15.625000
2871		-7.812500
2872		-17.578125
2873		-9.765625
2874		-19.531250
2875		-11.718750
2876		-23.437500
2877		-13.671875
2878		-23.437500
2879		-17.578125
2880		-27.343750
2881		-19.531250
2882		-27.343750
2883		-23.437500
2884		-29.296875
2885		-25.390625
2886		-35.156250
2887		-27.343750
2888		-37.109375
2889		-29.296875
2890		-39.062500
2891		-31.250000
2892		-42.968750
2893		-35.156250
2894		-42.968750
2895		-37.109375
2896		-46.875000
2897		-39.062500
2898		-46.875000
2899		-41.015625
2900		-48.828125
2901		-44.921875
2902		-54.687500
2903		-46.875000
2904		-56.640625
2905		-48.828125
2906		-58.593750
2907		-50.781250
2908		-60.546875
2909		-52.734375
2910		-64.453125
2911		-54.687500
2912		-64.453125
2913		-58.593750
2914		-66.406250
2915		-60.546875
2916		-68.359375
2917		-62.500000
2918		-70.312500
2919		-64.453125
2920		-74.218750
2921		-66.406250
2922		-76.171875
2923		-68.359375
2924		-76.171875
2925		-70.312500
2926		-78.125000
2927		-72.265625
2928		-82.031250
2929		-72.265625
2930		-82.031250
2931		-74.218750
2932		-82.031250
2933		-78.125000
2934		-83.984375
2935		-80.078125
2936		-87.890625
2937		-82.031250
2938		-89.843750
2939		-82.031250
2940		-89.843750
2941		-83.984375
2942		-93.750000
2943		-85.937500
2944		-93.750000
2945		-85.937500
2946		-95.703125
2947		-87.890625
2948		-95.703125
2949		-89.843750
2950		-95.703125
2951		-91.796875
2952		-97.656250
2953		-93.750000
2954		-99.609375
2955		-93.750000
2956		-99.609375
2957		-93.750000
2958		-101.562500
2959		-95.703125
2960		-101.562500
2961		-93.750000
2962		-103.515625
2963		-95.703125
2964		-103.515625
2965		-97.656250
2966		-103.515625
2967		-99.609375
2968		-103.515625
2969		-99.609375
2970		-105.468750
2971		-99.609375
2972		-105.468750
2973		-99.609375
2974		-107.421875
2975		-99.609375
2976		-107.421875
2977		-99.609375
2978		-107.421875
2979		-101.562500
2980		-107.421875
2981		-99.609375
2982		-107.421875
2983		-101.562500
2984		-105.468750
2985		-101.562500
2986		-105.468750
2987		-101.562500
2988		-107.421875
2989		-99.609375
2990		-107.421875
2991		-99.609375
2992		-107.421875
2993		-99.609375
2994		-107.421875
2995		-99.609375
2996		-105.468750
2997		-97.656250
2998		-105.468750
2999		-97.656250
3000		-101.562500
3001		-99.609375
3002		-103.515625
3003		-97.656250
3004		-103.515625
3005		-95.703125
3006		-103.515625
3007		-95.703125
3008		-101.562500
3009		-93.750000
3010		-99.609375
3011		-93.750000
3012		-99.609375
3013		-91.796875
3014		-97.656250
3015		-91.796875
3016		-97.656250
3017		-91.796875
3018		-93.750000
3019		-89.843750
3020		-93.750000
3021		-87.890625
3022		-93.750000
3023		-85.937500
3024		-91.796875
3025		-83.984375
3026		-91.796875
3027		-83.984375
3028		-89.843750
3029		-82.031250
3030		-87.890625
3031		-80.078125
3032		-85.937500
3033		-78.125000
3034		-82.031250
3035		-78.125000
3036		-80.078125
3037		-76.171875
3038		-80.078125
3039		-72.265625
3040		-80.078125
3041		-72.265625
3042		-78.125000
3043		-68.359375
3044		-74.218750
3045		-66.406250
3046		-72.265625
3047		-66.406250
3048		-72.265625
3049		-64.453125
3050		-66.406250
3051		-62.500000
3052		-64.453125
3053		-60.546875
3054		-64.453125
3055		-56.640625
3056		-62.500000
3057		-54.687500
3058		-60.546875
3059		-52.734375
3060		-58.593750
3061		-50.781250
3062		-56.640625
3063		-48.828125
3064		-54.687500
3065		-46.875000
3066		-50.781250
3067		-44.921875
3068		-46.875000
3069		-42.968750
3070		-44.921875
3071		-39.062500
3072		-42.968750
3073		-37.109375
3074		-41.015625
3075		-35.156250
3076		-39.062500
3077		-33.203125
3078		-35.156250
3079		-29.296875
3080		-33.203125
3081		-27.343750
3082		-31.250000
3083		-25.390625
3084		-27.343750
3085		-23.437500
3086		-25.390625
3087		-19.531250
3088		-23.437500
3089		-15.625000
3090		-21.484375
3091		-13.671875
3092		-19.531250
3093		-9.765625
3094		-15.625000
3095		-9.765625
3096		-13.671875
3097		-5.859375
3098		-11.718750
3099		-3.906250
3100		-9.765625
3101		-1.953125
3102		-3.906250
3103		0.000000
3104		-1.953125
3105		3.906250
3106		-1.953125
3107		5.859375
3108		0.000000
3109		7.812500
3110		3.906250
3111		9.765625
3112		5.859375
3113		13.671875
3114		7.812500
3115		15.625000
3116		9.765625
3117		17.578125
3118		13.671875
3119		19.531250
3120		15.625000
3121		21.484375
3122		17.578125
3123		25.390625
3124		19.531250
3125		27.343750
3126		21.484375
3127		29.296875
3128		25.390625
3129		31.250000
3130		27.343750
3131		33.203125
3132		27.343750
3133		35.156250
3134		33.203125
3135		37.109375
3136		35.156250
3137		39.062500
3138		35.156250
3139		42.968750
3140		37.109375
3141		42.968750
3142		39.062500
3143		46.875000
3144		41.015625
3145		48.828125
3146		42.968750
3147		50.781250
3148		44.921875
3149		50.781250
3150		46.875000
3151		52.734375
3152		50.781250
3153		54.687500
3154		50.781250
3155		56.640625
3156		50.781250
3157		58.593750
3158		52.734375
3159		60.546875
3160		54.687500
3161		62.500000
3162		56.640625
3163		64.453125
3164		58.593750
3165		64.453125
3166		58.593750
3167		66.406250
3168		62.500000
3169		66.406250
3170		64.453125
3171		68.359375
3172		64.453125
3173		70.312500
3174		64.453125
3175		72.265625
3176		66.406250
3177		72.265625
3178		66.406250
3179		74.218750
3180		68.359375
3181		76.171875
3182		68.359375
3183		76.171875
3184		72.265625
3185		76.171875
3186		72.265625
3187		76.171875
3188		72.265625
3189		78.125000
3190		74.218750
3191		80.078125
3192		74.218750
3193		80.078125
3194		74.218750
3195		82.031250
3196		74.218750
3197		82.031250
3198		76.171875
3199		82.031250
3200		76.171875
3201		83.984375
3202		78.125000
3203		82.031250
3204		78.125000
3205		82.031250
3206		78.125000
3207		83.984375
3208		78.125000
3209		83.984375
3210		78.125000
3211		85.937500
3212		78.125000
3213		85.937500
3214		78.125000
3215		85.937500
3216		78.125000
3217		85.937500
3218		80.078125
3219		83.984375
3220		80.078125
3221		83.984375
3222		78.125000
3223		85.937500
3224		78.125000
3225		85.937500
3226		78.125000
3227		85.937500
3228		78.125000
3229		83.984375
3230		78.125000
3231		83.984375
3232		78.125000
3233		83.984375
3234		78.125000
3235		83.984375
3236		78.125000
3237		82.031250
3238		78.125000
3239		82.031250
3240		76.171875
3241		82.031250
3242		76.171875
3243		82.031250
3244		74.218750
3245		82.031250
3246		74.218750
3247		80.078125
3248		72.265625
3249		80.078125
3250		72.265625
3251		80.078125
3252		72.265625
3253		76.171875
3254		72.265625
3255		76.171875
3256		68.359375
3257		76.171875
3258		68.359375
3259		74.218750
3260		66.406250
3261		74.218750
3262		66.406250
3263		72.265625
3264		64.453125
3265		70.312500
3266		62.500000
3267		70.312500
3268		64.453125
3269		68.359375
3270		62.500000
3271		66.406250
3272		58.593750
3273		64.453125
3274		58.593750
3275		64.453125
3276		56.640625
3277		64.453125
3278		52.734375
3279		60.546875
3280		52.734375
3281		60.546875
3282		50.781250
3283		58.593750
3284		50.781250
3285		56.640625
3286		48.828125
3287		54.687500
3288		46.875000
3289		52.734375
3290		44.921875
3291		50.781250
3292		42.968750
3293		50.781250
3294		41.015625
3295		46.875000
3296		39.062500
3297		44.921875
3298		37.109375
3299		44.921875
3300		33.203125
3301		41.015625
3302		33.203125
3303		39.062500
3304		31.250000
3305		35.156250
3306		27.343750
3307		33.203125
3308		25.390625
3309		33.203125
3310		21.484375
3311		31.250000
3312		19.531250
3313		29.296875
3314		17.578125
3315		25.390625
3316		15.625000
3317		23.437500
3318		15.625000
3319		21.484375
3320		13.671875
3321		17.578125
3322		9.765625
3323		15.625000
3324		7.812500
3325		13.671875
3326		5.859375
3327		11.718750
3328		1.953125
3329		9.765625
3330		-1.953125
3331		7.812500
3332		-3.906250
3333		3.906250
3334		-5.859375
3335		1.953125
3336		-5.859375
3337		-1.953125
3338		-7.812500
3339		-3.906250
3340		-11.718750
3341		-5.859375
3342		-15.625000
3343		-7.812500
3344		-17.578125
3345		-9.765625
3346		-21.484375
3347		-13.671875
3348		-23.437500
3349		-15.625000
3350		-25.390625
3351		-17.578125
3352		-27.343750
3353		-19.531250
3354		-29.296875
3355		-23.437500
3356		-33.203125
3357		-27.343750
3358		-35.156250
3359		-29.296875
3360		-37.109375
3361		-31.250000
3362		-41.015625
3363		-33.203125
3364		-44.921875
3365		-35.156250
3366		-44.921875
3367		-37.109375
3368		-46.875000
3369		-41.015625
3370		-48.828125
3371		-44.921875
3372		-50.781250
3373		-46.875000
3374		-54.687500
3375		-48.828125
3376		-56.640625
3377		-50.781250
3378		-58.593750
3379		-50.781250
3380		-62.500000
3381		-54.687500
3382		-64.453125
3383		-56.640625
3384		-66.406250
3385		-58.593750
3386		-66.406250
3387		-62.500000
3388		-68.359375
3389		-64.453125
3390		-72.265625
3391		-66.406250
3392		-74.218750
3393		-66.406250
3394		-76.171875
3395		-68.359375
3396		-78.125000
3397		-70.312500
3398		-80.078125
3399		-72.265625
3400		-82.031250
3401		-74.218750
3402		-82.031250
3403		-76.171875
3404		-83.984375
3405		-80.078125
3406		-85.937500
3407		-82.031250
3408		-87.890625
3409		-82.031250
3410		-89.843750
3411		-82.031250
3412		-91.796875
3413		-83.984375
3414		-91.796875
3415		-83.984375
3416		-93.750000
3417		-87.890625
3418		-95.703125
3419		-89.843750
3420		-95.703125
3421		-91.796875
3422		-95.703125
3423		-93.750000
3424		-99.609375
3425		-91.796875
3426		-99.609375
3427		-93.750000
3428		-101.562500
3429		-95.703125
3430		-103.515625
3431		-95.703125
3432		-103.515625
3433		-95.703125
3434		-103.515625
3435		-97.656250
3436		-103.515625
3437		-97.656250
3438		-103.515625
3439		-99.609375
3440		-105.468750
3441		-99.609375
3442		-105.468750
3443		-97.656250
3444		-105.468750
3445		-99.609375
3446		-107.421875
3447		-99.609375
3448		-107.421875
3449		-99.609375
3450		-107.421875
3451		-99.609375
3452		-107.421875
3453		-101.562500
3454		-105.468750
3455		-103.515625
3456		-105.468750
3457		-101.562500
3458		-107.421875
3459		-99.609375
3460		-107.421875
3461		-101.562500
3462		-107.421875
3463		-101.562500
3464		-107.421875
3465		-99.609375
3466		-107.421875
3467		-99.609375
3468		-105.468750
3469		-97.656250
3470		-103.515625
3471		-99.609375
3472		-101.562500
3473		-99.609375
3474		-103.515625
3475		-97.656250
3476		-103.515625
3477		-95.703125
3478		-103.515625
3479		-95.703125
3480		-101.562500
3481		-93.750000
3482		-99.609375
3483		-93.750000
3484		-99.609375
3485		-91.796875
3486		-97.656250
3487		-91.796875
3488		-95.703125
3489		-91.796875
3490		-93.750000
3491		-89.843750
3492		-95.703125
3493		-87.890625
3494		-93.750000
3495		-85.937500
3496		-91.796875
3497		-83.984375
3498		-89.843750
3499		-83.984375
3500		-87.890625
3501		-82.031250
3502		-87.890625
3503		-80.078125
3504		-83.984375
3505		-80.078125
3506		-82.031250
3507		-78.125000
3508		-80.078125
3509		-74.218750
3510		-80.078125
3511		-72.265625
3512		-78.125000
3513		-70.312500
3514		-76.171875
3515		-68.359375
3516		-74.218750
3517		-66.406250
3518		-72.265625
3519		-66.406250
3520		-72.265625
3521		-64.453125
3522		-66.406250
3523		-62.500000
3524		-64.453125
3525		-58.593750
3526		-64.453125
3527		-56.640625
3528		-62.500000
3529		-54.687500
3530		-60.546875
3531		-52.734375
3532		-56.640625
3533		-48.828125
3534		-54.687500
3535		-46.875000
3536		-52.734375
3537		-44.921875
3538		-48.828125
3539		-44.921875
3540		-46.875000
3541		-41.015625
3542		-44.921875
3543		-37.109375
3544		-42.968750
3545		-35.156250
3546		-41.015625
3547		-33.203125
3548		-39.062500
3549		-29.296875
3550		-35.156250
3551		-27.343750
3552		-33.203125
3553		-23.437500
3554		-29.296875
3555		-23.437500
3556		-27.343750
3557		-21.484375
3558		-25.390625
3559		-17.578125
3560		-23.437500
3561		-15.625000
3562		-21.484375
3563		-13.671875
3564		-19.531250
3565		-11.718750
3566		-15.625000
3567		-7.812500
3568		-13.671875
3569		-5.859375
3570		-11.718750
3571		-3.906250
3572		-5.859375
3573		-1.953125
3574		-3.906250
3575		1.953125
3576		-1.953125
3577		5.859375
3578		-1.953125
3579		7.812500
3580		1.953125
3581		9.765625
3582		3.906250
3583		11.718750
3584		5.859375
3585		13.671875
3586		7.812500
3587		17.578125
3588		13.671875
3589		17.578125
3590		15.625000
3591		19.531250
3592		17.578125
3593		23.437500
3594		17.578125
3595		27.343750
3596		21.484375
3597		27.343750
3598		21.484375
3599		31.250000
3600		23.437500
3601		33.203125
3602		25.390625
3603		35.156250
3604		29.296875
3605		35.156250
3606		33.203125
3607		37.109375
3608		35.156250
3609		41.015625
3610		35.156250
3611		42.968750
3612		37.109375
3613		44.921875
3614		39.062500
3615		46.875000
3616		41.015625
3617		48.828125
3618		42.968750
3619		50.781250
3620		44.921875
3621		50.781250
3622		48.828125
3623		52.734375
3624		50.781250
3625		54.687500
3626		50.781250
3627		58.593750
3628		52.734375
3629		60.546875
3630		54.687500
3631		62.500000
3632		56.640625
3633		62.500000
3634		56.640625
3635		64.453125
3636		58.593750
3637		66.406250
3638		60.546875
3639		66.406250
3640		62.500000
3641		66.406250
3642		64.453125
3643		68.359375
3644		64.453125
3645		70.312500
3646		64.453125
3647		72.265625
3648		66.406250
3649		74.218750
3650		68.359375
3651		74.218750
3652		68.359375
3653		74.218750
3654		70.312500
3655		76.171875
3656		72.265625
3657		76.171875
3658		74.218750
3659		76.171875
3660		72.265625
3661		80.078125
3662		72.265625
3663		80.078125
3664		72.265625
3665		82.031250
3666		74.218750
3667		82.031250
3668		74.218750
3669		82.031250
3670		76.171875
3671		82.031250
3672		78.125000
3673		82.031250
3674		78.125000
3675		82.031250
3676		78.125000
3677		83.984375
3678		78.125000
3679		83.984375
3680		78.125000
3681		85.937500
3682		78.125000
3683		83.984375
3684		78.125000
3685		85.937500
3686		78.125000
3687		85.937500
3688		80.078125
3689		83.984375
3690		80.078125
3691		83.984375
3692		80.078125
3693		83.984375
3694		78.125000
3695		85.937500
3696		78.125000
3697		85.937500
3698		78.125000
3699		85.937500
3700		78.125000
3701		83.984375
3702		78.125000
3703		85.937500
3704		78.125000
3705		83.984375
3706		78.125000
3707		82.031250
3708		78.125000
3709		82.031250
3710		76.171875
3711		82.031250
3712		76.171875
3713		82.031250
3714		76.171875
3715		82.031250
3716		74.218750
3717		82.031250
3718		74.218750
3719		80.078125
3720		72.265625
3721		80.078125
3722		72.265625
3723		78.125000
3724		72.265625
3725		76.171875
3726		68.359375
3727		76.171875
3728		68.359375
3729		76.171875
3730		68.359375
3731		76.171875
3732		66.406250
3733		74.218750
3734		64.453125
3735		72.265625
3736		64.453125
3737		70.312500
3738		62.500000
3739		70.312500
3740		62.500000
3741		66.406250
3742		60.546875
3743		66.406250
3744		58.593750
3745		66.406250
3746		58.593750
3747		64.453125
3748		54.687500
3749		62.500000
3750		52.734375
3751		60.546875
3752		52.734375
3753		58.593750
3754		50.781250
3755		58.593750
3756		50.781250
3757		54.687500
3758		48.828125
3759		52.734375
3760		44.921875
3761		50.781250
3762		42.968750
3763		50.781250
3764		41.015625
3765		48.828125
3766		39.062500
3767		46.875000
3768		37.109375
3769		44.921875
3770		35.156250
3771		42.968750
3772		35.156250
3773		41.015625
3774		33.203125
3775		37.109375
3776		29.296875
3777		35.156250
3778		25.390625
3779		35.156250
3780		23.437500
3781		31.250000
3782		23.437500
3783		29.296875
3784		19.531250
3785		27.343750
3786		17.578125
3787		25.390625
3788		15.625000
3789		23.437500
3790		13.671875
3791		19.531250
3792		11.718750
3793		17.578125
3794		7.812500
3795		15.625000
3796		5.859375
3797		13.671875
3798		1.953125
3799		11.718750
3800		0.000000
3801		9.765625
3802		-1.953125
3803		5.859375
3804		-3.906250
3805		3.906250
3806		-5.859375
3807		1.953125
3808		-7.812500
3809		-1.953125
3810		-11.718750
3811		-5.859375
3812		-13.671875
3813		-5.859375
3814		-17.578125
3815		-7.812500
3816		-19.531250
3817		-11.718750
3818		-21.484375
3819		-13.671875
3820		-25.390625
3821		-17.578125
3822		-25.390625
3823		-19.531250
3824		-27.343750
3825		-23.437500
3826		-31.250000
3827		-25.390625
3828		-33.203125
3829		-25.390625
3830		-37.109375
3831		-27.343750
3832		-39.062500
3833		-29.296875
3834		-42.968750
3835		-33.203125
3836		-44.921875
3837		-37.109375
3838		-46.875000
3839		-37.109375
3840		-46.875000
3841		-42.968750
3842		-48.828125
3843		-44.921875
3844		-54.687500
3845		-46.875000
3846		-56.640625
3847		-46.875000
3848		-58.593750
3849		-50.781250
3850		-60.546875
3851		-52.734375
3852		-62.500000
3853		-54.687500
3854		-64.453125
3855		-56.640625
3856		-66.406250
3857		-58.593750
3858		-68.359375
3859		-62.500000
3860		-70.312500
3861		-64.453125
3862		-72.265625
3863		-66.406250
3864		-74.218750
3865		-66.406250
3866		-78.125000
3867		-70.312500
3868		-78.125000
3869		-72.265625
3870		-80.078125
3871		-74.218750
3872		-82.031250
3873		-74.218750
3874		-82.031250
3875		-78.125000
3876		-83.984375
3877		-80.078125
3878		-87.890625
3879		-82.031250
3880		-89.843750
3881		-82.031250
3882		-91.796875
3883		-83.984375
3884		-93.750000
3885		-85.937500
3886		-93.750000
3887		-87.890625
3888		-95.703125
3889		-87.890625
3890		-95.703125
3891		-89.843750
3892		-95.703125
3893		-91.796875
3894		-99.609375
3895		-91.796875
3896		-99.609375
3897		-93.750000
3898		-101.562500
3899		-93.750000
3900		-103.515625
3901		-95.703125
3902		-103.515625
3903		-95.703125
3904		-103.515625
3905		-95.703125
3906		-103.515625
3907		-97.656250
3908		-103.515625
3909		-99.609375
3910		-103.515625
3911		-99.609375
3912		-105.468750
3913		-99.609375
3914		-105.468750
3915		-101.562500
3916		-105.468750
3917		-101.562500
3918		-105.468750
3919		-101.562500
3920		-107.421875
3921		-101.562500
3922		-107.421875
3923		-101.562500
3924		-105.468750
3925		-103.515625
3926		-105.468750
3927		-103.515625
3928		-107.421875
3929		-101.562500
3930		-107.421875
3931		-101.562500
3932		-107.421875
3933		-101.562500
3934		-105.468750
3935		-101.562500
3936		-107.421875
3937		-99.609375
3938		-105.468750
3939		-99.609375
3940		-105.468750
3941		-99.609375
3942		-103.515625
3943		-99.609375
3944		-103.515625
3945		-99.609375
3946		-103.515625
3947		-97.656250
3948		-103.515625
3949		-95.703125
3950		-103.515625
3951		-95.703125
3952		-99.609375
3953		-95.703125
3954		-99.609375
3955		-93.750000
3956		-99.609375
3957		-91.796875
3958		-97.656250
3959		-93.750000
3960		-95.703125
3961		-91.796875
3962		-95.703125
3963		-89.843750
3964		-93.750000
3965		-87.890625
3966		-93.750000
3967		-85.937500
3968		-89.843750
3969		-85.937500
3970		-89.843750
3971		-83.984375
3972		-87.890625
3973		-82.031250
3974		-87.890625
3975		-82.031250
3976		-83.984375
3977		-80.078125
3978		-82.031250
3979		-76.171875
3980		-82.031250
3981		-76.171875
3982		-80.078125
3983		-74.218750
3984		-76.171875
3985		-72.265625
3986		-76.171875
3987		-70.312500
3988		-72.265625
3989		-68.359375
3990		-74.218750
3991		-66.406250
3992		-68.359375
3993		-64.453125
3994		-66.406250
3995		-62.500000
3996		-66.406250
3997		-58.593750
3998		-64.453125
3999		-56.640625
4000		-60.546875
4001		-54.687500
4002		-58.593750
4003		-52.734375
4004		-54.687500
4005		-50.781250
4006		-54.687500
4007		-46.875000
4008		-52.734375
4009		-44.921875
4010		-48.828125
4011		-42.968750
4012		-46.875000
4013		-39.062500
4014		-44.921875
4015		-39.062500
4016		-41.015625
4017		-37.109375
4018		-39.062500
4019		-33.203125
4020		-37.109375
4021		-31.250000
4022		-33.203125
4023		-27.343750
4024		-31.250000
4025		-27.343750
4026		-29.296875
4027		-23.437500
4028		-25.390625
4029		-21.484375
4030		-23.437500
4031		-17.578125
4032		-21.484375
4033		-17.578125
4034		-19.531250
4035		-13.671875
4036		-15.625000
4037		-11.718750
4038		-13.671875
4039		-9.765625
4040		-11.718750
4041		-5.859375
4042		-9.765625
4043		-3.906250
4044		-5.859375
4045		-1.953125
4046		-3.906250
4047		3.906250
4048		-1.953125
4049		3.906250
4050		1.953125
4051		5.859375
4052		3.906250
4053		7.812500
4054		5.859375
4055		9.765625
4056		7.812500
4057		13.671875
4058		9.765625
4059		15.625000
4060		13.671875
4061		17.578125
4062		15.625000
4063		21.484375
4064		17.578125
4065		21.484375
4066		19.531250
4067		25.390625
4068		21.484375
4069		27.343750
4070		25.390625
4071		29.296875
4072		27.343750
4073		31.250000
4074		29.296875
4075		33.203125
4076		31.250000
4077		35.156250
4078		33.203125
4079		37.109375
4080		35.156250
4081		39.062500
4082		37.109375
4083		41.015625
4084		39.062500
4085		42.968750
4086		41.015625
4087		46.875000
4088		42.968750
4089		46.875000
4090		44.921875
4091		48.828125
4092		46.875000
4093		50.781250
4094		48.828125
4095		52.734375
4096		50.781250
4097		54.687500
4098		52.734375
4099		56.640625
4100		54.687500
4101		58.593750
4102		54.687500
4103		60.546875
4104		56.640625
4105		60.546875
4106		58.593750
4107		62.500000
4108		60.546875
4109		64.453125
4110		62.500000
4111		64.453125
4112		62.500000
4113		66.406250
4114		64.453125
4115		68.359375
4116		66.406250
4117		70.312500
4118		66.406250
4119		70.312500
4120		68.359375
4121		72.265625
4122		68.359375
4123		72.265625
4124		70.312500
4125		74.218750
4126		72.265625
4127		74.218750
4128		72.265625
4129		76.171875
4130		74.218750
4131		76.171875
4132		74.218750
4133		78.125000
4134		74.218750
4135		78.125000
4136		74.218750
4137		80.078125
4138		76.171875
4139		80.078125
4140		76.171875
4141		80.078125
4142		76.171875
4143		80.078125
4144		78.125000
4145		82.031250
4146		78.125000
4147		82.031250
4148		78.125000
4149		83.984375
4150		78.125000
4151		82.031250
4152		78.125000
4153		82.031250
4154		80.078125
4155		83.984375
4156		80.078125
4157		83.984375
4158		80.078125
4159		83.984375
4160		80.078125
4161		83.984375
4162		80.078125
4163		83.984375
4164		80.078125
4165		83.984375
4166		80.078125
4167		83.984375
4168		80.078125
4169		83.984375
4170		80.078125
4171		83.984375
4172		80.078125
4173		83.984375
4174		78.125000
4175		82.031250
4176		78.125000
4177		82.031250
4178		78.125000
4179		82.031250
4180		76.171875
4181		82.031250
4182		76.171875
4183		80.078125
4184		76.171875
4185		80.078125
4186		76.171875
4187		80.078125
4188		74.218750
4189		78.125000
4190		74.218750
4191		78.125000
4192		72.265625
4193		78.125000
4194		72.265625
4195		76.171875
4196		72.265625
4197		76.171875
4198		70.312500
4199		74.218750
4200		70.312500
4201		74.218750
4202		68.359375
4203		72.265625
4204		66.406250
4205		72.265625
4206		66.406250
4207		70.312500
4208		64.453125
4209		68.359375
4210		62.500000
4211		68.359375
4212		62.500000
4213		66.406250
4214		60.546875
4215		64.453125
4216		58.593750
4217		64.453125
4218		56.640625
4219		62.500000
4220		56.640625
4221		60.546875
4222		54.687500
4223		58.593750
4224		52.734375
4225		56.640625
4226		50.781250
4227		56.640625
4228		48.828125
4229		52.734375
4230		46.875000
4231		50.781250
4232		44.921875
4233		50.781250
4234		42.968750
4235		48.828125
4236		41.015625
4237		44.921875
4238		39.062500
4239		44.921875
4240		37.109375
4241		41.015625
4242		35.156250
4243		41.015625
4244		33.203125
4245		37.109375
4246		31.250000
4247		35.156250
4248		29.296875
4249		35.156250
4250		27.343750
4251		31.250000
4252		25.390625
4253		29.296875
4254		23.437500
4255		27.343750
4256		19.531250
4257		25.390625
4258		17.578125
4259		23.437500
4260		15.625000
4261		21.484375
4262		13.671875
4263		17.578125
4264		9.765625
4265		15.625000
4266		7.812500
4267		13.671875
4268		5.859375
4269		9.765625
4270		3.906250
4271		7.812500
4272		1.953125
4273		5.859375
4274		-1.953125
4275		3.906250
4276		-3.906250
4277		0.000000
4278		-5.859375
4279		-1.953125
4280		-9.765625
4281		-3.906250
4282		-11.718750
4283		-5.859375
4284		-13.671875
4285		-9.765625
4286		-17.578125
4287		-11.718750
4288		-19.531250
4289		-13.671875
4290		-21.484375
4291		-17.578125
4292		-25.390625
4293		-19.531250
4294		-27.343750
4295		-21.484375
4296		-29.296875
4297		-25.390625
4298		-31.250000
4299		-27.343750
4300		-35.156250
4301		-29.296875
4302		-37.109375
4303		-33.203125
4304		-39.062500
4305		-35.156250
4306		-41.015625
4307		-37.109375
4308		-44.921875
4309		-39.062500
4310		-46.875000
4311		-41.015625
4312		-48.828125
4313		-42.968750
4314		-52.734375
4315		-46.875000
4316		-52.734375
4317		-48.828125
4318		-56.640625
4319		-50.781250
4320		-58.593750
4321		-52.734375
4322		-60.546875
4323		-56.640625
4324		-62.500000
4325		-58.593750
4326		-64.453125
4327		-60.546875
4328		-66.406250
4329		-62.500000
4330		-68.359375
4331		-64.453125
4332		-70.312500
4333		-66.406250
4334		-74.218750
4335		-68.359375
4336		-74.218750
4337		-70.312500
4338		-76.171875
4339		-72.265625
4340		-80.078125
4341		-74.218750
4342		-80.078125
4343		-76.171875
4344		-82.031250
4345		-78.125000
4346		-83.984375
4347		-80.078125
4348		-85.937500
4349		-82.031250
4350		-87.890625
4351		-83.984375
4352		-89.843750
4353		-83.984375
4354		-89.843750
4355		-85.937500
4356		-91.796875
4357		-87.890625
4358		-93.750000
4359		-89.843750
4360		-95.703125
4361		-89.843750
4362		-95.703125
4363		-91.796875
4364		-97.656250
4365		-93.750000
4366		-99.609375
4367		-93.750000
4368		-99.609375
4369		-95.703125
4370		-101.562500
4371		-95.703125
4372		-101.562500
4373		-97.656250
4374		-101.562500
4375		-97.656250
4376		-103.515625
4377		-99.609375
4378		-103.515625
4379		-99.609375
4380		-103.515625
4381		-101.562500
4382		-105.468750
4383		-101.562500
4384		-105.468750
4385		-101.562500
4386		-105.468750
4387		-101.562500
4388		-105.468750
4389		-101.562500
4390		-105.468750
4391		-103.515625
4392		-107.421875
4393		-103.515625
4394		-107.421875
4395		-103.515625
4396		-107.421875
4397		-103.515625
4398		-107.421875
4399		-103.515625
4400		-107.421875
4401		-103.515625
4402		-107.421875
4403		-103.515625
4404		-107.421875
4405		-103.515625
4406		-105.468750
4407		-103.515625
4408		-105.468750
4409		-101.562500
4410		-105.468750
4411		-101.562500
4412		-105.468750
4413		-101.562500
4414		-103.515625
4415		-101.562500
4416		-103.515625
4417		-99.609375
4418		-103.515625
4419		-99.609375
4420		-103.515625
4421		-97.656250
4422		-101.562500
4423		-97.656250
4424		-99.609375
4425		-95.703125
4426		-99.609375
4427		-95.703125
4428		-99.609375
4429		-93.750000
4430		-95.703125
4431		-93.750000
4432		-95.703125
4433		-91.796875
4434		-93.750000
4435		-91.796875
4436		-93.750000
4437		-89.843750
4438		-91.796875
4439		-87.890625
4440		-89.843750
4441		-85.937500
4442		-87.890625
4443		-83.984375
4444		-87.890625
4445		-82.031250
4446		-85.937500
4447		-82.031250
4448		-83.984375
4449		-80.078125
4450		-83.984375
4451		-78.125000
4452		-80.078125
4453		-76.171875
4454		-78.125000
4455		-74.218750
4456		-76.171875
4457		-72.265625
4458		-74.218750
4459		-70.312500
4460		-72.265625
4461		-68.359375
4462		-70.312500
4463		-66.406250
4464		-68.359375
4465		-64.453125
4466		-66.406250
4467		-62.500000
4468		-64.453125
4469		-58.593750
4470		-62.500000
4471		-56.640625
4472		-60.546875
4473		-54.687500
4474		-56.640625
4475		-52.734375
4476		-54.687500
4477		-50.781250
4478		-52.734375
4479		-48.828125
4480		-50.781250
4481		-44.921875
4482		-48.828125
4483		-42.968750
4484		-46.875000
4485		-41.015625
4486		-42.968750
4487		-39.062500
4488		-41.015625
4489		-35.156250
4490		-39.062500
4491		-33.203125
4492		-37.109375
4493		-31.250000
4494		-33.203125
4495		-27.343750
4496		-31.250000
4497		-25.390625
4498		-27.343750
4499		-23.437500
4500		-25.390625
4501		-21.484375
4502		-23.437500
4503		-17.578125
4504		-21.484375
4505		-15.625000
4506		-17.578125
4507		-13.671875
4508		-15.625000
4509		-11.718750
4510		-13.671875
4511		-7.812500
4512		-11.718750
4513		-5.859375
4514		-7.812500
4515		-3.906250
4516		-5.859375
4517		0.000000
4518		-3.906250
4519		1.953125
4520		-1.953125
4521		3.906250
4522		1.953125
4523		5.859375
4524		3.906250
4525		9.765625
4526		5.859375
4527		11.718750
4528		7.812500
4529		13.671875
4530		11.718750
4531		15.625000
4532		13.671875
4533		17.578125
4534		15.625000
4535		19.531250
4536		17.578125
4537		23.437500
4538		21.484375
4539		25.390625
4540		23.437500
4541		27.343750
4542		25.390625
4543		29.296875
4544		27.343750
4545		33.203125
4546		29.296875
4547		33.203125
4548		31.250000
4549		37.109375
4550		33.203125
4551		39.062500
4552		35.156250
4553		41.015625
4554		37.109375
4555		42.968750
4556		39.062500
4557		44.921875
4558		41.015625
4559		46.875000
4560		42.968750
4561		48.828125
4562		44.921875
4563		50.781250
4564		46.875000
4565		50.781250
4566		48.828125
4567		52.734375
4568		50.781250
4569		54.687500
4570		52.734375
4571		56.640625
4572		54.687500
4573		58.593750
4574		54.687500
4575		60.546875
4576		56.640625
4577		60.546875
4578		58.593750
4579		62.500000
4580		60.546875
4581		64.453125
4582		62.500000
4583		66.406250
4584		62.500000
4585		66.406250
4586		64.453125
4587		68.359375
4588		66.406250
4589		70.312500
4590		66.406250
4591		70.312500
4592		68.359375
4593		72.265625
4594		70.312500
4595		74.218750
4596		70.312500
4597		74.218750
4598		72.265625
4599		74.218750
4600		72.265625
4601		76.171875
4602		74.218750
4603		76.171875
4604		74.218750
4605		78.125000
4606		74.218750
4607		78.125000
4608		76.171875
4609		80.078125
4610		76.171875
4611		80.078125
4612		76.171875
4613		80.078125
4614		78.125000
4615		80.078125
4616		78.125000
4617		82.031250
4618		78.125000
4619		82.031250
4620		78.125000
4621		82.031250
4622		78.125000
4623		83.984375
4624		80.078125
4625		83.984375
4626		80.078125
4627		83.984375
4628		80.078125
4629		83.984375
4630		80.078125
4631		83.984375
4632		80.078125
4633		83.984375
4634		80.078125
4635		83.984375
4636		80.078125
4637		83.984375
4638		80.078125
4639		83.984375
4640		80.078125
4641		83.984375
4642		80.078125
4643		82.031250
4644		78.125000
4645		82.031250
4646		78.125000
4647		83.984375
4648		78.125000
4649		82.031250
4650		76.171875
4651		82.031250
4652		78.125000
4653		80.078125
4654		76.171875
4655		80.078125
4656		76.171875
4657		80.078125
4658		76.171875
4659		80.078125
4660		74.218750
4661		78.125000
4662		74.218750
4663		78.125000
4664		72.265625
4665		76.171875
4666		72.265625
4667		76.171875
4668		70.312500
4669		74.218750
4670		70.312500
4671		74.218750
4672		68.359375
4673		72.265625
4674		68.359375
4675		72.265625
4676		66.406250
4677		70.312500
4678		64.453125
4679		70.312500
4680		64.453125
4681		68.359375
4682		62.500000
4683		66.406250
4684		60.546875
4685		66.406250
4686		60.546875
4687		64.453125
4688		58.593750
4689		62.500000
4690		56.640625
4691		60.546875
4692		54.687500
4693		60.546875
4694		52.734375
4695		58.593750
4696		52.734375
4697		56.640625
4698		50.781250
4699		54.687500
4700		48.828125
4701		52.734375
4702		46.875000
4703		50.781250
4704		44.921875
4705		48.828125
4706		42.968750
4707		46.875000
4708		41.015625
4709		44.921875
4710		39.062500
4711		42.968750
4712		37.109375
4713		42.968750
4714		35.156250
4715		41.015625
4716		33.203125
4717		37.109375
4718		31.250000
4719		35.156250
4720		27.343750
4721		33.203125
4722		25.390625
4723		31.250000
4724		23.437500
4725		29.296875
4726		21.484375
4727		25.390625
4728		19.531250
4729		23.437500
4730		17.578125
4731		21.484375
4732		13.671875
4733		19.531250
4734		11.718750
4735		17.578125
4736		9.765625
4737		13.671875
4738		7.812500
4739		11.718750
4740		5.859375
4741		9.765625
4742		1.953125
4743		7.812500
4744		0.000000
4745		5.859375
4746		-3.906250
4747		1.953125
4748		-5.859375
4749		0.000000
4750		-7.812500
4751		-1.953125
4752		-9.765625
4753		-5.859375
4754		-11.718750
4755		-7.812500
4756		-15.625000
4757		-9.765625
4758		-17.578125
4759		-13.671875
4760		-19.531250
4761		-15.625000
4762		-23.437500
4763		-17.578125
4764		-25.390625
4765		-19.531250
4766		-27.343750
4767		-21.484375
4768		-31.250000
4769		-25.390625
4770		-33.203125
4771		-27.343750
4772		-35.156250
4773		-29.296875
4774		-37.109375
4775		-33.203125
4776		-41.015625
4777		-35.156250
4778		-42.968750
4779		-37.109375
4780		-44.921875
4781		-41.015625
4782		-48.828125
4783		-42.968750
4784		-48.828125
4785		-44.921875
4786		-52.734375
4787		-46.875000
4788		-54.687500
4789		-48.828125
4790		-56.640625
4791		-52.734375
4792		-58.593750
4793		-54.687500
4794		-60.546875
4795		-56.640625
4796		-64.453125
4797		-58.593750
4798		-66.406250
4799		-60.546875
4800		-68.359375
4801		-64.453125
4802		-70.312500
4803		-64.453125
4804		-72.265625
4805		-66.406250
4806		-74.218750
4807		-70.312500
4808		-76.171875
4809		-70.312500
4810		-78.125000
4811		-74.218750
4812		-80.078125
4813		-74.218750
4814		-82.031250
4815		-78.125000
4816		-83.984375
4817		-80.078125
4818		-85.937500
4819		-80.078125
4820		-85.937500
4821		-82.031250
4822		-87.890625
4823		-83.984375
4824		-89.843750
4825		-85.937500
4826		-91.796875
4827		-87.890625
4828		-91.796875
4829		-87.890625
4830		-95.703125
4831		-89.843750
4832		-95.703125
4833		-91.796875
4834		-95.703125
4835		-93.750000
4836		-99.609375
4837		-93.750000
4838		-99.609375
4839		-95.703125
4840		-99.609375
4841		-95.703125
4842		-101.562500
4843		-97.656250
4844		-101.562500
4845		-97.656250
4846		-101.562500
4847		-99.609375
4848		-103.515625
4849		-99.609375
4850		-103.515625
4851		-99.609375
4852		-105.468750
4853		-101.562500
4854		-105.468750
4855		-101.562500
4856		-105.468750
4857		-101.562500
4858		-105.468750
4859		-101.562500
4860		-105.468750
4861		-103.515625
4862		-107.421875
4863		-103.515625
4864		-107.421875
4865		-103.515625
4866		-107.421875
4867		-103.515625
4868		-107.421875
4869		-103.515625
4870		-107.421875
4871		-103.515625
4872		-107.421875
4873		-103.515625
4874		-107.421875
4875		-103.515625
4876		-105.468750
4877		-103.515625
4878		-105.468750
4879		-103.515625
4880		-105.468750
4881		-101.562500
4882		-105.468750
4883		-101.562500
4884		-105.468750
4885		-101.562500
4886		-103.515625
4887		-99.609375
4888		-103.515625
4889		-99.609375
4890		-103.515625
4891		-99.609375
4892		-101.562500
4893		-97.656250
4894		-101.562500
4895		-97.656250
4896		-101.562500
4897		-95.703125
4898		-99.609375
4899		-95.703125
4900		-97.656250
4901		-93.750000
4902		-95.703125
4903		-93.750000
4904		-95.703125
4905		-89.843750
4906		-93.750000
4907		-89.843750
4908		-93.750000
4909		-89.843750
4910		-91.796875
4911		-87.890625
4912		-89.843750
4913		-85.937500
4914		-87.890625
4915		-83.984375
4916		-87.890625
4917		-82.031250
4918		-83.984375
4919		-80.078125
4920		-83.984375
4921		-80.078125
4922		-82.031250
4923		-76.171875
4924		-80.078125
4925		-76.171875
4926		-78.125000
4927		-72.265625
4928		-76.171875
4929		-72.265625
4930		-74.218750
4931		-70.312500
4932		-72.265625
4933		-68.359375
4934		-70.312500
4935		-66.406250
4936		-68.359375
4937		-62.500000
4938		-66.406250
4939		-60.546875
4940		-64.453125
4941		-58.593750
4942		-60.546875
4943		-56.640625
4944		-58.593750
4945		-54.687500
4946		-56.640625
4947		-52.734375
4948		-54.687500
4949		-48.828125
4950		-52.734375
4951		-46.875000
4952		-48.828125
4953		-44.921875
4954		-48.828125
4955		-42.968750
4956		-44.921875
4957		-39.062500
4958		-42.968750
4959		-37.109375
4960		-39.062500
4961		-35.156250
4962		-37.109375
4963		-33.203125
4964		-35.156250
4965		-31.250000
4966		-33.203125
4967		-27.343750
4968		-31.250000
4969		-25.390625
4970		-27.343750
4971		-23.437500
4972		-25.390625
4973		-19.531250
4974		-21.484375
4975		-17.578125
4976		-19.531250
4977		-13.671875
4978		-17.578125
4979		-11.718750
4980		-15.625000
4981		-9.765625
4982		-11.718750
4983		-7.812500
4984		-9.765625
4985		-5.859375
4986		-7.812500
4987		-1.953125
4988		-3.906250
4989		0.000000
4990		-1.953125
4991		1.953125
4992		0.000000
4993		3.906250
4994		1.953125
4995		7.812500
4996		3.906250
4997		9.765625
4998		7.812500
4999		13.671875
5000		9.765625
5001		13.671875
5002		11.718750
5003		17.578125
5004		13.671875
5005		19.531250
5006		15.625000
5007		21.484375
5008		19.531250
5009		23.437500
5010		21.484375
5011		25.390625
5012		23.437500
5013		29.296875
5014		25.390625
5015		31.250000
5016		27.343750
5017		33.203125
5018		31.250000
5019		35.156250
5020		33.203125
5021		37.109375
5022		35.156250
5023		39.062500
5024		37.109375
5025		41.015625
5026		39.062500
5027		42.968750
5028		41.015625
5029		44.921875
5030		42.968750
5031		46.875000
5032		42.968750
5033		48.828125
5034		46.875000
5035		50.781250
5036		46.875000
5037		52.734375
5038		50.781250
5039		54.687500
5040		50.781250
5041		54.687500
5042		52.734375
5043		58.593750
5044		54.687500
5045		58.593750
5046		56.640625
5047		60.546875
5048		58.593750
5049		62.500000
5050		58.593750
5051		62.500000
5052		60.546875
5053		64.453125
5054		62.500000
5055		66.406250
5056		64.453125
5057		66.406250
5058		64.453125
5059		68.359375
5060		66.406250
5061		70.312500
5062		68.359375
5063		70.312500
5064		68.359375
5065		72.265625
5066		70.312500
5067		74.218750
5068		70.312500
5069		74.218750
5070		72.265625
5071		74.218750
5072		72.265625
5073		76.171875
5074		74.218750
5075		76.171875
5076		74.218750
5077		78.125000
5078		76.171875
5079		78.125000
5080		76.171875
5081		80.078125
5082		76.171875
5083		80.078125
5084		78.125000
5085		80.078125
5086		78.125000
5087		80.078125
5088		78.125000
5089		82.031250
5090		78.125000
5091		82.031250
5092		80.078125
5093		82.031250
5094		78.125000
5095		82.031250
5096		80.078125
5097		83.984375
5098		80.078125
5099		83.984375
5100		80.078125
5101		83.984375
5102		80.078125
5103		83.984375
5104		80.078125
5105		83.984375
5106		80.078125
5107		83.984375
5108		80.078125
5109		83.984375
5110		80.078125
5111		83.984375
5112		80.078125
5113		83.984375
5114		80.078125
5115		82.031250
5116		78.125000
5117		83.984375
5118		78.125000
5119		82.031250
5120		78.125000
5121		82.031250
5122		78.125000
5123		82.031250
5124		78.125000
5125		82.031250
5126		76.171875
5127		80.078125
5128		76.171875
5129		80.078125
5130		76.171875
5131		80.078125
5132		74.218750
5133		78.125000
5134		74.218750
5135		78.125000
5136		72.265625
5137		76.171875
5138		72.265625
5139		76.171875
5140		70.312500
5141		74.218750
5142		70.312500
5143		74.218750
5144		68.359375
5145		72.265625
5146		68.359375
5147		72.265625
5148		66.406250
5149		70.312500
5150		64.453125
5151		70.312500
5152		64.453125
5153		68.359375
5154		62.500000
5155		66.406250
5156		60.546875
5157		66.406250
5158		60.546875
5159		64.453125
5160		58.593750
5161		62.500000
5162		56.640625
5163		60.546875
5164		54.687500
5165		58.593750
5166		52.734375
5167		58.593750
5168		52.734375
5169		56.640625
5170		50.781250
5171		54.687500
5172		48.828125
5173		52.734375
5174		46.875000
5175		50.781250
5176		44.921875
5177		48.828125
5178		42.968750
5179		46.875000
5180		41.015625
5181		44.921875
5182		39.062500
5183		42.968750
5184		37.109375
5185		41.015625
5186		35.156250
5187		39.062500
5188		33.203125
5189		37.109375
5190		29.296875
5191		35.156250
5192		27.343750
5193		33.203125
5194		25.390625
5195		31.250000
5196		23.437500
5197		29.296875
5198		21.484375
5199		27.343750
5200		17.578125
5201		23.437500
5202		17.578125
5203		21.484375
5204		13.671875
5205		19.531250
5206		11.718750
5207		15.625000
5208		9.765625
5209		15.625000
5210		7.812500
5211		11.718750
5212		3.906250
5213		9.765625
5214		1.953125
5215		7.812500
5216		0.000000
5217		3.906250
5218		-1.953125
5219		1.953125
5220		-5.859375
5221		0.000000
5222		-7.812500
5223		-3.906250
5224		-9.765625
5225		-5.859375
5226		-13.671875
5227		-7.812500
5228		-15.625000
5229		-9.765625
5230		-17.578125
5231		-13.671875
5232		-21.484375
5233		-15.625000
5234		-23.437500
5235		-17.578125
5236		-25.390625
5237		-21.484375
5238		-29.296875
5239		-23.437500
5240		-31.250000
5241		-25.390625
5242		-33.203125
5243		-29.296875
5244		-35.156250
5245		-31.250000
5246		-37.109375
5247		-33.203125
5248		-41.015625
5249		-35.156250
5250		-42.968750
5251		-37.109375
5252		-44.921875
5253		-39.062500
5254		-46.875000
5255		-42.968750
5256		-50.781250
5257		-44.921875
5258		-52.734375
5259		-46.875000
5260		-54.687500
5261		-48.828125
5262		-56.640625
5263		-52.734375
5264		-58.593750
5265		-54.687500
5266		-62.500000
5267		-56.640625
5268		-64.453125
5269		-58.593750
5270		-66.406250
5271		-60.546875
5272		-70.312500
5273		-64.453125
5274		-70.312500
5275		-64.453125
5276		-72.265625
5277		-68.359375
5278		-74.218750
5279		-68.359375
5280		-76.171875
5281		-72.265625
5282		-78.125000
5283		-72.265625
5284		-80.078125
5285		-76.171875
5286		-82.031250
5287		-76.171875
5288		-82.031250
5289		-80.078125
5290		-85.937500
5291		-80.078125
5292		-85.937500
5293		-82.031250
5294		-87.890625
5295		-83.984375
5296		-89.843750
5297		-85.937500
5298		-91.796875
5299		-87.890625
5300		-91.796875
5301		-87.890625
5302		-93.750000
5303		-89.843750
5304		-95.703125
5305		-91.796875
5306		-95.703125
5307		-91.796875
5308		-97.656250
5309		-93.750000
5310		-99.609375
5311		-95.703125
5312		-99.609375
5313		-95.703125
5314		-99.609375
5315		-95.703125
5316		-101.562500
5317		-97.656250
5318		-103.515625
5319		-97.656250
5320		-101.562500
5321		-99.609375
5322		-103.515625
5323		-99.609375
5324		-103.515625
5325		-99.609375
5326		-105.468750
5327		-99.609375
5328		-105.468750
5329		-101.562500
5330		-105.468750
5331		-101.562500
5332		-105.468750
5333		-101.562500
5334		-105.468750
5335		-101.562500
5336		-105.468750
5337		-101.562500
5338		-105.468750
5339		-103.515625
5340		-105.468750
5341		-103.515625
5342		-105.468750
5343		-103.515625
5344		-105.468750
5345		-103.515625
5346		-105.468750
5347		-101.562500
5348		-105.468750
5349		-101.562500
5350		-105.468750
5351		-101.562500
5352		-105.468750
5353		-101.562500
5354		-103.515625
5355		-101.562500
5356		-103.515625
5357		-99.609375
5358		-103.515625
5359		-99.609375
5360		-101.562500
5361		-97.656250
5362		-101.562500
5363		-97.656250
5364		-101.562500
5365		-97.656250
5366		-99.609375
5367		-95.703125
5368		-99.609375
5369		-95.703125
5370		-97.656250
5371		-93.750000
5372		-95.703125
5373		-91.796875
5374		-95.703125
5375		-89.843750
5376		-93.750000
5377		-89.843750
5378		-93.750000
5379		-87.890625
5380		-91.796875
5381		-87.890625
5382		-89.843750
5383		-85.937500
5384		-87.890625
5385		-83.984375
5386		-87.890625
5387		-82.031250
5388		-85.937500
5389		-82.031250
5390		-83.984375
5391		-80.078125
5392		-82.031250
5393		-78.125000
5394		-80.078125
5395		-76.171875
5396		-78.125000
5397		-74.218750
5398		-76.171875
5399		-72.265625
5400		-74.218750
5401		-70.312500
5402		-72.265625
5403		-68.359375
5404		-70.312500
5405		-66.406250
5406		-68.359375
5407		-64.453125
5408		-66.406250
5409		-62.500000
5410		-64.453125
5411		-58.593750
5412		-62.500000
5413		-56.640625
5414		-58.593750
5415		-54.687500
5416		-56.640625
5417		-52.734375
5418		-54.687500
5419		-50.781250
5420		-52.734375
5421		-48.828125
5422		-50.781250
5423		-46.875000
5424		-48.828125
5425		-42.968750
5426		-44.921875
5427		-41.015625
5428		-42.968750
5429		-39.062500
5430		-41.015625
5431		-35.156250
5432		-39.062500
5433		-33.203125
5434		-35.156250
5435		-31.250000
5436		-33.203125
5437		-29.296875
5438		-31.250000
5439		-25.390625
5440		-29.296875
5441		-23.437500
5442		-25.390625
5443		-21.484375
5444		-23.437500
5445		-19.531250
5446		-21.484375
5447		-15.625000
5448		-17.578125
5449		-13.671875
5450		-15.625000
5451		-11.718750
5452		-13.671875
5453		-7.812500
5454		-11.718750
5455		-5.859375
5456		-7.812500
5457		-3.906250
5458		-5.859375
5459		0.000000
5460		-3.906250
5461		1.953125
5462		0.000000
5463		3.906250
5464		1.953125
5465		5.859375
5466		3.906250
5467		9.765625
5468		5.859375
5469		11.718750
5470		7.812500
5471		13.671875
5472		11.718750
5473		15.625000
5474		13.671875
5475		19.531250
5476		15.625000
5477		21.484375
5478		19.531250
5479		23.437500
5480		19.531250
5481		25.390625
5482		21.484375
5483		27.343750
5484		25.390625
5485		29.296875
5486		27.343750
5487		33.203125
5488		29.296875
5489		33.203125
5490		31.250000
5491		37.109375
5492		33.203125
5493		39.062500
5494		35.156250
5495		41.015625
5496		39.062500
5497		42.968750
5498		39.062500
5499		44.921875
5500		41.015625
5501		46.875000
5502		42.968750
5503		48.828125
5504		44.921875
5505		48.828125
5506		46.875000
5507		52.734375
5508		48.828125
5509		54.687500
5510		50.781250
5511		56.640625
5512		52.734375
5513		56.640625
5514		54.687500
5515		58.593750
5516		56.640625
5517		60.546875
5518		56.640625
5519		62.500000
5520		58.593750
5521		64.453125
5522		60.546875
5523		64.453125
5524		62.500000
5525		66.406250
5526		62.500000
5527		68.359375
5528		64.453125
5529		70.312500
5530		64.453125
5531		70.312500
5532		66.406250
5533		72.265625
5534		68.359375
5535		74.218750
5536		70.312500
5537		74.218750
5538		70.312500
5539		74.218750
5540		72.265625
5541		76.171875
5542		72.265625
5543		78.125000
5544		72.265625
5545		78.125000
5546		74.218750
5547		78.125000
5548		74.218750
5549		80.078125
5550		74.218750
5551		80.078125
5552		76.171875
5553		80.078125
5554		78.125000
5555		82.031250
5556		78.125000
5557		82.031250
5558		78.125000
5559		82.031250
5560		78.125000
5561		83.984375
5562		78.125000
5563		83.984375
5564		80.078125
5565		83.984375
5566		78.125000
5567		85.937500
5568		78.125000
5569		85.937500
5570		80.078125
5571		85.937500
5572		80.078125
5573		83.984375
5574		82.031250
5575		83.984375
5576		80.078125
5577		85.937500
5578		80.078125
5579		85.937500
5580		80.078125
5581		83.984375
5582		80.078125
5583		83.984375
5584		78.125000
5585		85.937500
5586		80.078125
5587		85.937500
5588		80.078125
5589		83.984375
5590		80.078125
5591		82.031250
5592		78.125000
5593		83.984375
5594		78.125000
5595		82.031250
5596		78.125000
5597		82.031250
5598		78.125000
5599		80.078125
5600		76.171875
5601		80.078125
5602		76.171875
5603		80.078125
5604		74.218750
5605		80.078125
5606		74.218750
5607		78.125000
5608		74.218750
5609		76.171875
5610		72.265625
5611		76.171875
5612		72.265625
5613		76.171875
5614		70.312500
5615		74.218750
5616		68.359375
5617		74.218750
5618		68.359375
5619		72.265625
5620		66.406250
5621		70.312500
5622		66.406250
5623		70.312500
5624		64.453125
5625		68.359375
5626		62.500000
5627		66.406250
5628		62.500000
5629		64.453125
5630		60.546875
5631		64.453125
5632		58.593750
5633		62.500000
5634		56.640625
5635		60.546875
5636		54.687500
5637		58.593750
5638		52.734375
5639		58.593750
5640		52.734375
5641		56.640625
5642		50.781250
5643		54.687500
5644		48.828125
5645		52.734375
5646		46.875000
5647		50.781250
5648		44.921875
5649		48.828125
5650		42.968750
5651		46.875000
5652		41.015625
5653		44.921875
5654		39.062500
5655		42.968750
5656		37.109375
5657		41.015625
5658		35.156250
5659		39.062500
5660		33.203125
5661		37.109375
5662		29.296875
5663		35.156250
5664		27.343750
5665		33.203125
5666		25.390625
5667		31.250000
5668		23.437500
5669		27.343750
5670		21.484375
5671		25.390625
5672		19.531250
5673		23.437500
5674		17.578125
5675		21.484375
5676		13.671875
5677		17.578125
5678		11.718750
5679		15.625000
5680		9.765625
5681		13.671875
5682		7.812500
5683		11.718750
5684		3.906250
5685		9.765625
5686		1.953125
5687		7.812500
5688		0.000000
5689		3.906250
5690		-1.953125
5691		1.953125
5692		-5.859375
5693		-1.953125
5694		-9.765625
5695		0.000000
5696		-13.671875
5697		-3.906250
5698		-13.671875
5699		-5.859375
5700		-15.625000
5701		-11.718750
5702		-17.578125
5703		-13.671875
5704		-19.531250
5705		-15.625000
5706		-23.437500
5707		-17.578125
5708		-25.390625
5709		-21.484375
5710		-31.250000
5711		-21.484375
5712		-33.203125
5713		-23.437500
5714		-35.156250
5715		-27.343750
5716		-35.156250
5717		-31.250000
5718		-39.062500
5719		-33.203125
5720		-41.015625
5721		-37.109375
5722		-42.968750
5723		-39.062500
5724		-44.921875
5725		-41.015625
5726		-50.781250
5727		-42.968750
5728		-52.734375
5729		-41.015625
5730		-54.687500
5731		-44.921875
5732		-56.640625
5733		-46.875000
5734		-56.640625
5735		-52.734375
5736		-58.593750
5737		-54.687500
5738		-62.500000
5739		-56.640625
5740		-64.453125
5741		-58.593750
5742		-66.406250
5743		-60.546875
5744		-70.312500
5745		-60.546875
5746		-74.218750
5747		-62.500000
5748		-74.218750
5749		-64.453125
5750		-74.218750
5751		-70.312500
5752		-76.171875
5753		-72.265625
5754		-78.125000
5755		-74.218750
5756		-80.078125
5757		-76.171875
5758		-82.031250
5759		-78.125000
5760		-85.937500
5761		-76.171875
5762		-87.890625
5763		-78.125000
5764		-89.843750
5765		-80.078125
5766		-87.890625
5767		-82.031250
5768		-89.843750
5769		-85.937500
5770		-91.796875
5771		-87.890625
5772		-91.796875
5773		-87.890625
5774		-93.750000
5775		-89.843750
5776		-95.703125
5777		-91.796875
5778		-97.656250
5779		-89.843750
5780		-99.609375
5781		-89.843750
5782		-99.609375
5783		-91.796875
5784		-99.609375
5785		-95.703125
5786		-99.609375
5787		-95.703125
5788		-101.562500
5789		-97.656250
5790		-101.562500
5791		-97.656250
5792		-101.562500
5793		-99.609375
5794		-105.468750
5795		-95.703125
5796		-105.468750
5797		-97.656250
5798		-107.421875
5799		-97.656250
5800		-105.468750
5801		-101.562500
5802		-105.468750
5803		-101.562500
5804		-105.468750
5805		-101.562500
5806		-105.468750
5807		-101.562500
5808		-105.468750
5809		-101.562500
5810		-107.421875
5811		-99.609375
5812		-107.421875
5813		-99.609375
5814		-109.375000
5815		-99.609375
5816		-107.421875
5817		-99.609375
5818		-105.468750
5819		-101.562500
5820		-103.515625
5821		-101.562500
5822		-103.515625
5823		-101.562500
5824		-103.515625
5825		-101.562500
5826		-103.515625
5827		-99.609375
5828		-105.468750
5829		-95.703125
5830		-105.468750
5831		-95.703125
5832		-103.515625
5833		-95.703125
5834		-101.562500
5835		-97.656250
5836		-99.609375
5837		-95.703125
5838		-99.609375
5839		-95.703125
5840		-97.656250
5841		-93.750000
5842		-97.656250
5843		-93.750000
5844		-97.656250
5845		-87.890625
5846		-97.656250
5847		-87.890625
5848		-95.703125
5849		-85.937500
5850		-95.703125
5851		-85.937500
5852		-89.843750
5853		-85.937500
5854		-87.890625
5855		-85.937500
5856		-87.890625
5857		-83.984375
5858		-85.937500
5859		-82.031250
5860		-83.984375
5861		-80.078125
5862		-85.937500
5863		-76.171875
5864		-83.984375
5865		-74.218750
5866		-82.031250
5867		-72.265625
5868		-78.125000
5869		-72.265625
5870		-74.218750
5871		-70.312500
5872		-72.265625
5873		-68.359375
5874		-70.312500
5875		-66.406250
5876		-68.359375
5877		-64.453125
5878		-66.406250
5879		-62.500000
5880		-68.359375
5881		-58.593750
5882		-64.453125
5883		-56.640625
5884		-60.546875
5885		-56.640625
5886		-58.593750
5887		-54.687500
5888		-56.640625
5889		-50.781250
5890		-54.687500
5891		-48.828125
5892		-50.781250
5893		-46.875000
5894		-48.828125
5895		-44.921875
5896		-46.875000
5897		-39.062500
5898		-44.921875
5899		-37.109375
5900		-41.015625
5901		-37.109375
5902		-39.062500
5903		-35.156250
5904		-37.109375
5905		-33.203125
5906		-35.156250
5907		-29.296875
5908		-31.250000
5909		-27.343750
5910		-29.296875
5911		-25.390625
5912		-29.296875
5913		-21.484375
5914		-25.390625
5915		-19.531250
5916		-21.484375
5917		-17.578125
5918		-19.531250
5919		-15.625000
5920		-17.578125
5921		-11.718750
5922		-15.625000
5923		-9.765625
5924		-11.718750
5925		-7.812500
5926		-9.765625
5927		-5.859375
5928		-7.812500
5929		-1.953125
5930		-3.906250
5931		0.000000
5932		-1.953125
5933		1.953125
5934		0.000000
5935		5.859375
5936		3.906250
5937		7.812500
5938		5.859375
5939		9.765625
5940		7.812500
5941		11.718750
5942		9.765625
5943		15.625000
5944		11.718750
5945		17.578125
5946		13.671875
5947		19.531250
5948		17.578125
5949		21.484375
5950		19.531250
5951		25.390625
5952		21.484375
5953		25.390625
5954		25.390625
5955		29.296875
5956		25.390625
5957		31.250000
5958		29.296875
5959		33.203125
5960		31.250000
5961		35.156250
5962		33.203125
5963		37.109375
5964		35.156250
5965		39.062500
5966		37.109375
5967		41.015625
5968		39.062500
5969		42.968750
5970		41.015625
5971		44.921875
5972		42.968750
5973		46.875000
5974		44.921875
5975		48.828125
5976		46.875000
5977		50.781250
5978		48.828125
5979		52.734375
5980		50.781250
5981		54.687500
5982		52.734375
5983		56.640625
5984		54.687500
5985		58.593750
5986		54.687500
5987		60.546875
5988		56.640625
5989		60.546875
5990		58.593750
5991		62.500000
5992		60.546875
5993		64.453125
5994		62.500000
5995		66.406250
5996		62.500000
5997		68.359375
5998		64.453125
5999		68.359375
6000		66.406250
6001		70.312500
6002		66.406250
6003		70.312500
6004		68.359375
6005		72.265625
6006		70.312500
6007		74.218750
6008		70.312500
6009		74.218750
6010		72.265625
6011		74.218750
6012		72.265625
6013		78.125000
6014		74.218750
6015		78.125000
6016		74.218750
6017		78.125000
6018		76.171875
6019		78.125000
6020		76.171875
6021		80.078125
6022		78.125000
6023		80.078125
6024		78.125000
6025		82.031250
6026		78.125000
6027		82.031250
6028		80.078125
6029		82.031250
6030		78.125000
6031		83.984375
6032		80.078125
6033		83.984375
6034		80.078125
6035		83.984375
6036		80.078125
6037		83.984375
6038		80.078125
6039		83.984375
6040		82.031250
6041		83.984375
6042		82.031250
6043		83.984375
6044		82.031250
6045		85.937500
6046		82.031250
6047		85.937500
6048		82.031250
6049		85.937500
6050		82.031250
6051		83.984375
6052		82.031250
6053		85.937500
6054		80.078125
6055		83.984375
6056		80.078125
6057		83.984375
6058		80.078125
6059		83.984375
6060		80.078125
6061		83.984375
6062		78.125000
6063		83.984375
6064		80.078125
6065		83.984375
6066		80.078125
6067		83.984375
6068		78.125000
6069		82.031250
6070		78.125000
6071		82.031250
6072		78.125000
6073		80.078125
6074		76.171875
6075		80.078125
6076		76.171875
6077		78.125000
6078		74.218750
6079		78.125000
6080		72.265625
6081		78.125000
6082		74.218750
6083		76.171875
6084		72.265625
6085		76.171875
6086		70.312500
6087		74.218750
6088		70.312500
6089		74.218750
6090		68.359375
6091		72.265625
6092		68.359375
6093		72.265625
6094		66.406250
6095		70.312500
6096		64.453125
6097		68.359375
6098		62.500000
6099		68.359375
6100		60.546875
6101		66.406250
6102		60.546875
6103		64.453125
6104		58.593750
6105		62.500000
6106		56.640625
6107		60.546875
6108		56.640625
6109		58.593750
6110		54.687500
6111		58.593750
6112		50.781250
6113		56.640625
6114		50.781250
6115		56.640625
6116		48.828125
6117		52.734375
6118		46.875000
6119		50.781250
6120		44.921875
6121		48.828125
6122		42.968750
6123		46.875000
6124		41.015625
6125		44.921875
6126		39.062500
6127		42.968750
6128		37.109375
6129		41.015625
6130		35.156250
6131		39.062500
6132		33.203125
6133		37.109375
6134		31.250000
6135		35.156250
6136		27.343750
6137		33.203125
6138		25.390625
6139		31.250000
6140		23.437500
6141		27.343750
6142		21.484375
6143		25.390625
6144		19.531250
6145		23.437500
6146		15.625000
6147		21.484375
6148		13.671875
6149		19.531250
6150		11.718750
6151		17.578125
6152		9.765625
6153		13.671875
6154		5.859375
6155		11.718750
6156		3.906250
6157		9.765625
6158		1.953125
6159		5.859375
6160		0.000000
6161		3.906250
6162		-1.953125
6163		1.953125
6164		-5.859375
6165		0.000000
6166		-7.812500
6167		-3.906250
6168		-9.765625
6169		-5.859375
6170		-13.671875
6171		-7.812500
6172		-15.625000
6173		-9.765625
6174		-17.578125
6175		-13.671875
6176		-21.484375
6177		-15.625000
6178		-23.437500
6179		-17.578125
6180		-25.390625
6181		-21.484375
6182		-27.343750
6183		-23.437500
6184		-31.250000
6185		-25.390625
6186		-33.203125
6187		-29.296875
6188		-35.156250
6189		-31.250000
6190		-37.109375
6191		-33.203125
6192		-41.015625
6193		-35.156250
6194		-42.968750
6195		-37.109375
6196		-44.921875
6197		-41.015625
6198		-46.875000
6199		-42.968750
6200		-48.828125
6201		-44.921875
6202		-52.734375
6203		-46.875000
6204		-54.687500
6205		-48.828125
6206		-56.640625
6207		-52.734375
6208		-58.593750
6209		-54.687500
6210		-60.546875
6211		-56.640625
6212		-64.453125
6213		-58.593750
6214		-66.406250
6215		-60.546875
6216		-68.359375
6217		-62.500000
6218		-70.312500
6219		-64.453125
6220		-72.265625
6221		-66.406250
6222		-74.218750
6223		-68.359375
6224		-76.171875
6225		-72.265625
6226		-78.125000
6227		-74.218750
6228		-80.078125
6229		-74.218750
6230		-80.078125
6231		-76.171875
6232		-82.031250
6233		-78.125000
6234		-83.984375
6235		-80.078125
6236		-85.937500
6237		-82.031250
6238		-87.890625
6239		-83.984375
6240		-89.843750
6241		-85.937500
6242		-89.843750
6243		-85.937500
6244		-91.796875
6245		-87.890625
6246		-93.750000
6247		-89.843750
6248		-93.750000
6249		-89.843750
6250		-95.703125
6251		-91.796875
6252		-95.703125
6253		-93.750000
6254		-97.656250
6255		-93.750000
6256		-97.656250
6257		-95.703125
6258		-99.609375
6259		-95.703125
6260		-99.609375
6261		-97.656250
6262		-101.562500
6263		-97.656250
6264		-101.562500
6265		-97.656250
6266		-101.562500
6267		-99.609375
6268		-103.515625
6269		-99.609375
6270		-103.515625
6271		-99.609375
6272		-103.515625
6273		-99.609375
6274		-103.515625
6275		-101.562500
6276		-103.515625
6277		-101.562500
6278		-103.515625
6279		-101.562500
6280		-105.468750
6281		-101.562500
6282		-105.468750
6283		-101.562500
6284		-103.515625
6285		-101.562500
6286		-105.468750
6287		-101.562500
6288		-105.468750
6289		-101.562500
6290		-103.515625
6291		-101.562500
6292		-103.515625
6293		-101.562500
6294		-103.515625
6295		-99.609375
6296		-103.515625
6297		-99.609375
6298		-103.515625
6299		-99.609375
6300		-101.562500
6301		-99.609375
6302		-101.562500
6303		-97.656250
6304		-99.609375
6305		-95.703125
6306		-99.609375
6307		-95.703125
6308		-97.656250
6309		-95.703125
6310		-97.656250
6311		-93.750000
6312		-95.703125
6313		-93.750000
6314		-95.703125
6315		-91.796875
6316		-95.703125
6317		-89.843750
6318		-93.750000
6319		-89.843750
6320		-91.796875
6321		-87.890625
6322		-89.843750
6323		-85.937500
6324		-89.843750
6325		-85.937500
6326		-87.890625
6327		-83.984375
6328		-85.937500
6329		-82.031250
6330		-83.984375
6331		-80.078125
6332		-83.984375
6333		-78.125000
6334		-82.031250
6335		-76.171875
6336		-80.078125
6337		-76.171875
6338		-78.125000
6339		-72.265625
6340		-76.171875
6341		-70.312500
6342		-74.218750
6343		-70.312500
6344		-72.265625
6345		-68.359375
6346		-70.312500
6347		-66.406250
6348		-68.359375
6349		-62.500000
6350		-66.406250
6351		-60.546875
6352		-64.453125
6353		-58.593750
6354		-60.546875
6355		-56.640625
6356		-60.546875
6357		-54.687500
6358		-56.640625
6359		-52.734375
6360		-54.687500
6361		-50.781250
6362		-52.734375
6363		-46.875000
6364		-50.781250
6365		-44.921875
6366		-48.828125
6367		-41.015625
6368		-46.875000
6369		-41.015625
6370		-42.968750
6371		-39.062500
6372		-41.015625
6373		-35.156250
6374		-39.062500
6375		-33.203125
6376		-35.156250
6377		-31.250000
6378		-33.203125
6379		-27.343750
6380		-31.250000
6381		-25.390625
6382		-29.296875
6383		-21.484375
6384		-25.390625
6385		-19.531250
6386		-23.437500
6387		-17.578125
6388		-21.484375
6389		-15.625000
6390		-17.578125
6391		-13.671875
6392		-15.625000
6393		-11.718750
6394		-13.671875
6395		-7.812500
6396		-9.765625
6397		-5.859375
6398		-7.812500
6399		-1.953125
6400		-7.812500
6401		0.000000
6402		-3.906250
6403		1.953125
6404		0.000000
6405		3.906250
6406		1.953125
6407		5.859375
6408		3.906250
6409		9.765625
6410		7.812500
6411		11.718750
6412		9.765625
6413		13.671875
6414		11.718750
6415		15.625000
6416		13.671875
6417		19.531250
6418		15.625000
6419		21.484375
6420		19.531250
6421		23.437500
6422		21.484375
6423		25.390625
6424		23.437500
6425		27.343750
6426		25.390625
6427		29.296875
6428		27.343750
6429		33.203125
6430		29.296875
6431		35.156250
6432		31.250000
6433		37.109375
6434		33.203125
6435		39.062500
6436		37.109375
6437		41.015625
6438		39.062500
6439		42.968750
6440		41.015625
6441		44.921875
6442		42.968750
6443		46.875000
6444		44.921875
6445		48.828125
6446		46.875000
6447		50.781250
6448		48.828125
6449		52.734375
6450		48.828125
6451		54.687500
6452		50.781250
6453		56.640625
6454		52.734375
6455		56.640625
6456		54.687500
6457		58.593750
6458		56.640625
6459		60.546875
6460		58.593750
6461		62.500000
6462		60.546875
6463		62.500000
6464		60.546875
6465		64.453125
6466		60.546875
6467		68.359375
6468		62.500000
6469		68.359375
6470		66.406250
6471		68.359375
6472		66.406250
6473		70.312500
6474		68.359375
6475		72.265625
6476		68.359375
6477		74.218750
6478		70.312500
6479		74.218750
6480		70.312500
6481		74.218750
6482		72.265625
6483		76.171875
6484		72.265625
6485		78.125000
6486		74.218750
6487		78.125000
6488		74.218750
6489		78.125000
6490		76.171875
6491		80.078125
6492		76.171875
6493		80.078125
6494		78.125000
6495		80.078125
6496		78.125000
6497		82.031250
6498		78.125000
6499		82.031250
6500		78.125000
6501		82.031250
6502		80.078125
6503		82.031250
6504		80.078125
6505		83.984375
6506		82.031250
6507		83.984375
6508		82.031250
6509		83.984375
6510		82.031250
6511		83.984375
6512		82.031250
6513		83.984375
6514		82.031250
6515		83.984375
6516		82.031250
6517		85.937500
6518		82.031250
6519		85.937500
6520		82.031250
6521		85.937500
6522		82.031250
6523		83.984375
6524		82.031250
6525		83.984375
6526		82.031250
6527		83.984375
6528		82.031250
6529		83.984375
6530		82.031250
6531		83.984375
6532		80.078125
6533		83.984375
6534		80.078125
6535		83.984375
6536		80.078125
6537		82.031250
6538		80.078125
6539		82.031250
6540		78.125000
6541		82.031250
6542		78.125000
6543		82.031250
6544		76.171875
6545		80.078125
6546		76.171875
6547		80.078125
6548		76.171875
6549		78.125000
6550		74.218750
6551		78.125000
6552		74.218750
6553		78.125000
6554		72.265625
6555		76.171875
6556		72.265625
6557		76.171875
6558		70.312500
6559		74.218750
6560		70.312500
6561		74.218750
6562		68.359375
6563		72.265625
6564		66.406250
6565		70.312500
6566		66.406250
6567		70.312500
6568		64.453125
6569		68.359375
6570		62.500000
6571		66.406250
6572		62.500000
6573		64.453125
6574		60.546875
6575		64.453125
6576		58.593750
6577		62.500000
6578		56.640625
6579		62.500000
6580		54.687500
6581		58.593750
6582		52.734375
6583		56.640625
6584		52.734375
6585		54.687500
6586		50.781250
6587		54.687500
6588		48.828125
6589		52.734375
6590		46.875000
6591		50.781250
6592		44.921875
6593		48.828125
6594		42.968750
6595		46.875000
6596		41.015625
6597		44.921875
6598		39.062500
6599		42.968750
6600		37.109375
6601		41.015625
6602		35.156250
6603		39.062500
6604		33.203125
6605		37.109375
6606		29.296875
6607		35.156250
6608		27.343750
6609		31.250000
6610		25.390625
6611		31.250000
6612		23.437500
6613		27.343750
6614		21.484375
6615		25.390625
6616		17.578125
6617		23.437500
6618		15.625000
6619		21.484375
6620		13.671875
6621		17.578125
6622		11.718750
6623		15.625000
6624		7.812500
6625		13.671875
6626		5.859375
6627		11.718750
6628		3.906250
6629		7.812500
6630		1.953125
6631		5.859375
6632		0.000000
6633		3.906250
6634		-3.906250
6635		1.953125
6636		-5.859375
6637		-1.953125
6638		-7.812500
6639		-3.906250
6640		-11.718750
6641		-5.859375
6642		-13.671875
6643		-9.765625
6644		-15.625000
6645		-11.718750
6646		-17.578125
6647		-13.671875
6648		-21.484375
6649		-15.625000
6650		-23.437500
6651		-19.531250
6652		-25.390625
6653		-21.484375
6654		-29.296875
6655		-23.437500
6656		-31.250000
6657		-27.343750
6658		-33.203125
6659		-29.296875
6660		-37.109375
6661		-31.250000
6662		-39.062500
6663		-33.203125
6664		-41.015625
6665		-37.109375
6666		-42.968750
6667		-39.062500
6668		-44.921875
6669		-41.015625
6670		-48.828125
6671		-42.968750
6672		-50.781250
6673		-44.921875
6674		-52.734375
6675		-48.828125
6676		-54.687500
6677		-50.781250
6678		-58.593750
6679		-52.734375
6680		-60.546875
6681		-54.687500
6682		-62.500000
6683		-56.640625
6684		-64.453125
6685		-60.546875
6686		-66.406250
6687		-62.500000
6688		-68.359375
6689		-64.453125
6690		-70.312500
6691		-66.406250
6692		-72.265625
6693		-68.359375
6694		-74.218750
6695		-70.312500
6696		-76.171875
6697		-72.265625
6698		-80.078125
6699		-74.218750
6700		-80.078125
6701		-76.171875
6702		-82.031250
6703		-78.125000
6704		-83.984375
6705		-78.125000
6706		-83.984375
6707		-80.078125
6708		-85.937500
6709		-82.031250
6710		-87.890625
6711		-83.984375
6712		-89.843750
6713		-85.937500
6714		-91.796875
6715		-87.890625
6716		-91.796875
6717		-87.890625
6718		-93.750000
6719		-89.843750
6720		-95.703125
6721		-89.843750
6722		-95.703125
6723		-91.796875
6724		-97.656250
6725		-93.750000
6726		-97.656250
6727		-93.750000
6728		-97.656250
6729		-95.703125
6730		-99.609375
6731		-95.703125
6732		-101.562500
6733		-97.656250
6734		-101.562500
6735		-97.656250
6736		-101.562500
6737		-97.656250
6738		-101.562500
6739		-99.609375
6740		-103.515625
6741		-99.609375
6742		-103.515625
6743		-99.609375
6744		-103.515625
6745		-101.562500
6746		-103.515625
6747		-101.562500
6748		-103.515625
6749		-101.562500
6750		-105.468750
6751		-101.562500
6752		-105.468750
6753		-101.562500
6754		-105.468750
6755		-101.562500
6756		-103.515625
6757		-101.562500
6758		-103.515625
6759		-101.562500
6760		-103.515625
6761		-101.562500
6762		-103.515625
6763		-101.562500
6764		-103.515625
6765		-99.609375
6766		-103.515625
6767		-99.609375
6768		-103.515625
6769		-99.609375
6770		-101.562500
6771		-99.609375
6772		-101.562500
6773		-97.656250
6774		-101.562500
6775		-97.656250
6776		-99.609375
6777		-95.703125
6778		-99.609375
6779		-95.703125
6780		-99.609375
6781		-95.703125
6782		-97.656250
6783		-93.750000
6784		-95.703125
6785		-93.750000
6786		-95.703125
6787		-91.796875
6788		-93.750000
6789		-89.843750
6790		-93.750000
6791		-87.890625
6792		-91.796875
6793		-87.890625
6794		-89.843750
6795		-85.937500
6796		-87.890625
6797		-83.984375
6798		-87.890625
6799		-83.984375
6800		-85.937500
6801		-82.031250
6802		-83.984375
6803		-80.078125
6804		-82.031250
6805		-78.125000
6806		-80.078125
6807		-76.171875
6808		-78.125000
6809		-74.218750
6810		-78.125000
6811		-72.265625
6812		-76.171875
6813		-70.312500
6814		-72.265625
6815		-68.359375
6816		-70.312500
6817		-66.406250
6818		-70.312500
6819		-64.453125
6820		-66.406250
6821		-62.500000
6822		-64.453125
6823		-60.546875
6824		-62.500000
6825		-58.593750
6826		-60.546875
6827		-56.640625
6828		-58.593750
6829		-54.687500
6830		-56.640625
6831		-50.781250
6832		-54.687500
6833		-48.828125
6834		-50.781250
6835		-46.875000
6836		-48.828125
6837		-44.921875
6838		-46.875000
6839		-42.968750
6840		-44.921875
6841		-41.015625
6842		-41.015625
6843		-37.109375
6844		-39.062500
6845		-35.156250
6846		-37.109375
6847		-33.203125
6848		-35.156250
6849		-29.296875
6850		-31.250000
6851		-27.343750
6852		-29.296875
6853		-25.390625
6854		-27.343750
6855		-21.484375
6856		-25.390625
6857		-19.531250
6858		-21.484375
6859		-17.578125
6860		-19.531250
6861		-15.625000
6862		-17.578125
6863		-11.718750
6864		-15.625000
6865		-9.765625
6866		-11.718750
6867		-7.812500
6868		-9.765625
6869		-3.906250
6870		-7.812500
6871		-1.953125
6872		-3.906250
6873		0.000000
6874		-1.953125
6875		1.953125
6876		0.000000
6877		5.859375
6878		1.953125
6879		7.812500
6880		5.859375
6881		9.765625
6882		7.812500
6883		11.718750
6884		9.765625
6885		15.625000
6886		11.718750
6887		17.578125
6888		15.625000
6889		19.531250
6890		17.578125
6891		21.484375
6892		19.531250
6893		23.437500
6894		21.484375
6895		25.390625
6896		23.437500
6897		29.296875
6898		27.343750
6899		31.250000
6900		29.296875
6901		33.203125
6902		31.250000
6903		35.156250
6904		33.203125
6905		37.109375
6906		35.156250
6907		39.062500
6908		37.109375
6909		41.015625
6910		39.062500
6911		44.921875
6912		41.015625
6913		44.921875
6914		42.968750
6915		46.875000
6916		44.921875
6917		48.828125
6918		46.875000
6919		50.781250
6920		48.828125
6921		52.734375
6922		50.781250
6923		54.687500
6924		52.734375
6925		56.640625
6926		54.687500
6927		58.593750
6928		56.640625
6929		60.546875
6930		56.640625
6931		60.546875
6932		58.593750
6933		62.500000
6934		60.546875
6935		64.453125
6936		62.500000
6937		66.406250
6938		62.500000
6939		66.406250
6940		64.453125
6941		68.359375
6942		66.406250
6943		70.312500
6944		66.406250
6945		70.312500
6946		68.359375
6947		72.265625
6948		70.312500
6949		74.218750
6950		70.312500
6951		74.218750
6952		72.265625
6953		76.171875
6954		72.265625
6955		76.171875
6956		74.218750
6957		78.125000
6958		74.218750
6959		78.125000
6960		76.171875
6961		78.125000
6962		76.171875
6963		80.078125
6964		78.125000
6965		80.078125
6966		78.125000
6967		82.031250
6968		78.125000
6969		82.031250
6970		80.078125
6971		82.031250
6972		80.078125
6973		83.984375
6974		80.078125
6975		83.984375
6976		80.078125
6977		83.984375
6978		82.031250
6979		83.984375
6980		82.031250
6981		83.984375
6982		82.031250
6983		83.984375
6984		82.031250
6985		85.937500
6986		82.031250
6987		85.937500
6988		82.031250
6989		85.937500
6990		82.031250
6991		85.937500
6992		82.031250
6993		83.984375
6994		82.031250
6995		85.937500
6996		82.031250
6997		83.984375
6998		82.031250
6999		83.984375
7000		82.031250
7001		83.984375
7002		80.078125
7003		83.984375
7004		80.078125
7005		83.984375
7006		80.078125
7007		83.984375
7008		80.078125
7009		82.031250
7010		80.078125
7011		82.031250
7012		78.125000
7013		82.031250
7014		78.125000
7015		82.031250
7016		78.125000
7017		80.078125
7018		76.171875
7019		80.078125
7020		76.171875
7021		78.125000
7022		74.218750
7023		78.125000
7024		74.218750
7025		76.171875
7026		72.265625
7027		76.171875
7028		72.265625
7029		76.171875
7030		70.312500
7031		74.218750
7032		70.312500
7033		72.265625
7034		68.359375
7035		72.265625
7036		66.406250
7037		70.312500
7038		66.406250
7039		70.312500
7040		64.453125
7041		68.359375
7042		62.500000
7043		66.406250
7044		60.546875
7045		64.453125
7046		60.546875
7047		62.500000
7048		58.593750
7049		62.500000
7050		56.640625
7051		60.546875
7052		54.687500
7053		58.593750
7054		52.734375
7055		56.640625
7056		50.781250
7057		54.687500
7058		48.828125
7059		52.734375
7060		46.875000
7061		52.734375
7062		44.921875
7063		50.781250
7064		42.968750
7065		48.828125
7066		42.968750
7067		46.875000
7068		41.015625
7069		44.921875
7070		37.109375
7071		41.015625
7072		35.156250
7073		41.015625
7074		33.203125
7075		37.109375
7076		31.250000
7077		35.156250
7078		29.296875
7079		33.203125
7080		27.343750
7081		31.250000
7082		25.390625
7083		29.296875
7084		23.437500
7085		27.343750
7086		19.531250
7087		25.390625
7088		17.578125
7089		21.484375
7090		15.625000
7091		19.531250
7092		13.671875
7093		17.578125
7094		11.718750
7095		15.625000
7096		7.812500
7097		13.671875
7098		5.859375
7099		9.765625
7100		1.953125
7101		7.812500
7102		1.953125
7103		5.859375
7104		-1.953125
7105		1.953125
7106		-3.906250
7107		0.000000
7108		-5.859375
7109		-1.953125
7110		-9.765625
7111		-3.906250
7112		-11.718750
7113		-7.812500
7114		-13.671875
7115		-9.765625
7116		-17.578125
7117		-11.718750
7118		-19.531250
7119		-13.671875
7120		-21.484375
7121		-17.578125
7122		-23.437500
7123		-19.531250
7124		-27.343750
7125		-21.484375
7126		-29.296875
7127		-25.390625
7128		-31.250000
7129		-27.343750
7130		-35.156250
7131		-29.296875
7132		-37.109375
7133		-31.250000
7134		-39.062500
7135		-35.156250
7136		-41.015625
7137		-37.109375
7138		-44.921875
7139		-39.062500
7140		-46.875000
7141		-41.015625
7142		-48.828125
7143		-44.921875
7144		-50.781250
7145		-46.875000
7146		-52.734375
7147		-48.828125
7148		-54.687500
7149		-50.781250
7150		-58.593750
7151		-52.734375
7152		-60.546875
7153		-54.687500
7154		-62.500000
7155		-58.593750
7156		-64.453125
7157		-60.546875
7158		-66.406250
7159		-62.500000
7160		-68.359375
7161		-64.453125
7162		-70.312500
7163		-66.406250
7164		-72.265625
7165		-68.359375
7166		-74.218750
7167		-70.312500
7168		-76.171875
7169		-72.265625
7170		-78.125000
7171		-74.218750
7172		-80.078125
7173		-76.171875
7174		-82.031250
7175		-78.125000
7176		-83.984375
7177		-80.078125
7178		-83.984375
7179		-80.078125
7180		-85.937500
7181		-82.031250
7182		-87.890625
7183		-83.984375
7184		-89.843750
7185		-85.937500
7186		-91.796875
7187		-87.890625
7188		-91.796875
7189		-87.890625
7190		-93.750000
7191		-89.843750
7192		-93.750000
7193		-89.843750
7194		-95.703125
7195		-91.796875
7196		-97.656250
7197		-93.750000
7198		-97.656250
7199		-93.750000
7200		-97.656250
7201		-95.703125
7202		-99.609375
7203		-95.703125
7204		-99.609375
7205		-97.656250
7206		-99.609375
7207		-97.656250
7208		-101.562500
7209		-97.656250
7210		-101.562500
7211		-97.656250
7212		-101.562500
7213		-99.609375
7214		-103.515625
7215		-99.609375
7216		-103.515625
7217		-99.609375
7218		-103.515625
7219		-99.609375
7220		-103.515625
7221		-99.609375
7222		-103.515625
7223		-101.562500
7224		-103.515625
7225		-101.562500
7226		-103.515625
7227		-101.562500
7228		-103.515625
7229		-101.562500
7230		-103.515625
7231		-99.609375
7232		-103.515625
7233		-99.609375
7234		-103.515625
7235		-99.609375
7236		-103.515625
7237		-99.609375
7238		-101.562500
7239		-99.609375
7240		-101.562500
7241		-99.609375
7242		-101.562500
7243		-97.656250
7244		-101.562500
7245		-97.656250
7246		-99.609375
7247		-97.656250
7248		-99.609375
7249		-95.703125
7250		-97.656250
7251		-95.703125
7252		-97.656250
7253		-93.750000
7254		-95.703125
7255		-91.796875
7256		-95.703125
7257		-91.796875
7258		-93.750000
7259		-89.843750
7260		-93.750000
7261		-89.843750
7262		-91.796875
7263		-85.937500
7264		-89.843750
7265		-85.937500
7266		-87.890625
7267		-85.937500
7268		-87.890625
7269		-83.984375
7270		-85.937500
7271		-82.031250
7272		-83.984375
7273		-80.078125
7274		-82.031250
7275		-78.125000
7276		-80.078125
7277		-78.125000
7278		-80.078125
7279		-74.218750
7280		-78.125000
7281		-74.218750
7282		-76.171875
7283		-70.312500
7284		-74.218750
7285		-68.359375
7286		-72.265625
7287		-66.406250
7288		-70.312500
7289		-64.453125
7290		-68.359375
7291		-62.500000
7292		-64.453125
7293		-60.546875
7294		-64.453125
7295		-58.593750
7296		-60.546875
7297		-56.640625
7298		-58.593750
7299		-54.687500
7300		-56.640625
7301		-52.734375
7302		-54.687500
7303		-50.781250
7304		-52.734375
7305		-46.875000
7306		-50.781250
7307		-44.921875
7308		-48.828125
7309		-42.968750
7310		-44.921875
7311		-41.015625
7312		-42.968750
7313		-37.109375
7314		-41.015625
7315		-35.156250
7316		-37.109375
7317		-33.203125
7318		-35.156250
7319		-31.250000
7320		-33.203125
7321		-29.296875
7322		-31.250000
7323		-25.390625
7324		-27.343750
7325		-23.437500
7326		-25.390625
7327		-19.531250
7328		-23.437500
7329		-17.578125
7330		-21.484375
7331		-15.625000
7332		-17.578125
7333		-13.671875
7334		-15.625000
7335		-11.718750
7336		-13.671875
7337		-7.812500
7338		-11.718750
7339		-5.859375
7340		-7.812500
7341		-1.953125
7342		-5.859375
7343		0.000000
7344		-3.906250
7345		1.953125
7346		0.000000
7347		3.906250
7348		1.953125
7349		7.812500
7350		3.906250
7351		9.765625
7352		5.859375
7353		11.718750
7354		9.765625
7355		13.671875
7356		11.718750
7357		15.625000
7358		13.671875
7359		19.531250
7360		15.625000
7361		21.484375
7362		17.578125
7363		23.437500
7364		21.484375
7365		27.343750
7366		21.484375
7367		29.296875
7368		25.390625
7369		31.250000
7370		27.343750
7371		33.203125
7372		29.296875
7373		35.156250
7374		31.250000
7375		37.109375
7376		33.203125
7377		39.062500
7378		35.156250
7379		41.015625
7380		39.062500
7381		42.968750
7382		39.062500
7383		44.921875
7384		42.968750
7385		46.875000
7386		41.015625
7387		50.781250
7388		46.875000
7389		50.781250
7390		48.828125
7391		52.734375
7392		48.828125
7393		54.687500
7394		50.781250
7395		56.640625
7396		52.734375
7397		58.593750
7398		54.687500
7399		58.593750
7400		54.687500
7401		60.546875
7402		56.640625
7403		66.406250
7404		60.546875
7405		64.453125
7406		62.500000
7407		64.453125
7408		62.500000
7409		68.359375
7410		62.500000
7411		70.312500
7412		64.453125
7413		70.312500
7414		66.406250
7415		70.312500
7416		68.359375
7417		72.265625
7418		70.312500
7419		74.218750
7420		70.312500
7421		76.171875
7422		72.265625
7423		76.171875
7424		72.265625
7425		78.125000
7426		72.265625
7427		80.078125
7428		74.218750
7429		80.078125
7430		76.171875
7431		80.078125
7432		76.171875
7433		82.031250
7434		74.218750
7435		83.984375
7436		76.171875
7437		82.031250
7438		80.078125
7439		82.031250
7440		80.078125
7441		82.031250
7442		78.125000
7443		85.937500
7444		78.125000
7445		85.937500
7446		78.125000
7447		83.984375
7448		80.078125
7449		85.937500
7450		80.078125
7451		87.890625
7452		80.078125
7453		87.890625
7454		80.078125
7455		87.890625
7456		82.031250
7457		85.937500
7458		82.031250
7459		85.937500
7460		80.078125
7461		89.843750
7462		82.031250
7463		87.890625
7464		82.031250
7465		85.937500
7466		80.078125
7467		87.890625
7468		80.078125
7469		87.890625
7470		80.078125
7471		87.890625
7472		82.031250
7473		85.937500
7474		82.031250
7475		83.984375
7476		80.078125
7477		85.937500
7478		78.125000
7479		87.890625
7480		80.078125
7481		83.984375
7482		80.078125
7483		83.984375
7484		76.171875
7485		85.937500
7486		76.171875
7487		83.984375
7488		78.125000
7489		82.031250
7490		76.171875
7491		80.078125
7492		74.218750
7493		80.078125
7494		74.218750
7495		82.031250
7496		74.218750
7497		78.125000
7498		72.265625
7499		76.171875
7500		68.359375
7501		78.125000
7502		68.359375
7503		78.125000
7504		68.359375
7505		76.171875
7506		68.359375
7507		72.265625
7508		66.406250
7509		72.265625
7510		64.453125
7511		72.265625
7512		62.500000
7513		70.312500
7514		62.500000
7515		66.406250
7516		60.546875
7517		66.406250
7518		58.593750
7519		66.406250
7520		56.640625
7521		62.500000
7522		56.640625
7523		60.546875
7524		54.687500
7525		58.593750
7526		52.734375
7527		58.593750
7528		50.781250
7529		58.593750
7530		50.781250
7531		56.640625
7532		46.875000
7533		52.734375
7534		42.968750
7535		52.734375
7536		44.921875
7537		48.828125
7538		41.015625
7539		48.828125
7540		39.062500
7541		44.921875
7542		37.109375
7543		42.968750
7544		33.203125
7545		41.015625
7546		33.203125
7547		39.062500
7548		31.250000
7549		35.156250
7550		27.343750
7551		35.156250
7552		25.390625
7553		35.156250
7554		23.437500
7555		31.250000
7556		23.437500
7557		27.343750
7558		19.531250
7559		25.390625
7560		17.578125
7561		23.437500
7562		13.671875
7563		23.437500
7564		13.671875
7565		17.578125
7566		9.765625
7567		15.625000
7568		5.859375
7569		15.625000
7570		5.859375
7571		11.718750
7572		3.906250
7573		7.812500
7574		1.953125
7575		5.859375
7576		-1.953125
7577		3.906250
7578		-5.859375
7579		3.906250
7580		-5.859375
7581		-1.953125
7582		-9.765625
7583		-3.906250
7584		-13.671875
7585		-5.859375
7586		-13.671875
7587		-5.859375
7588		-17.578125
7589		-11.718750
7590		-19.531250
7591		-13.671875
7592		-21.484375
7593		-17.578125
7594		-23.437500
7595		-19.531250
7596		-27.343750
7597		-19.531250
7598		-29.296875
7599		-23.437500
7600		-33.203125
7601		-27.343750
7602		-37.109375
7603		-27.343750
7604		-39.062500
7605		-31.250000
7606		-39.062500
7607		-35.156250
7608		-41.015625
7609		-37.109375
7610		-44.921875
7611		-39.062500
7612		-46.875000
7613		-39.062500
7614		-48.828125
7615		-42.968750
7616		-50.781250
7617		-46.875000
7618		-52.734375
7619		-48.828125
7620		-54.687500
7621		-50.781250
7622		-58.593750
7623		-50.781250
7624		-60.546875
7625		-54.687500
7626		-62.500000
7627		-56.640625
7628		-66.406250
7629		-60.546875
7630		-68.359375
7631		-60.546875
7632		-68.359375
7633		-64.453125
7634		-72.265625
7635		-64.453125
7636		-72.265625
7637		-68.359375
7638		-74.218750
7639		-70.312500
7640		-76.171875
7641		-72.265625
7642		-78.125000
7643		-74.218750
7644		-80.078125
7645		-76.171875
7646		-82.031250
7647		-76.171875
7648		-82.031250
7649		-78.125000
7650		-85.937500
7651		-80.078125
7652		-85.937500
7653		-80.078125
7654		-87.890625
7655		-83.984375
7656		-87.890625
7657		-83.984375
7658		-89.843750
7659		-85.937500
7660		-91.796875
7661		-87.890625
7662		-91.796875
7663		-87.890625
7664		-93.750000
7665		-89.843750
7666		-93.750000
7667		-91.796875
7668		-95.703125
7669		-91.796875
7670		-97.656250
7671		-93.750000
7672		-97.656250
7673		-93.750000
7674		-99.609375
7675		-95.703125
7676		-99.609375
7677		-95.703125
7678		-99.609375
7679		-95.703125
7680		-101.562500
7681		-97.656250
7682		-101.562500
7683		-97.656250
7684		-101.562500
7685		-97.656250
7686		-101.562500
7687		-99.609375
7688		-103.515625
7689		-99.609375
7690		-103.515625
7691		-99.609375
7692		-103.515625
7693		-99.609375
7694		-103.515625
7695		-99.609375
7696		-103.515625
7697		-99.609375
7698		-103.515625
7699		-97.656250
7700		-103.515625
7701		-97.656250
7702		-103.515625
7703		-97.656250
7704		-103.515625
7705		-97.656250
7706		-101.562500
7707		-99.609375
7708		-101.562500
7709		-97.656250
7710		-101.562500
7711		-97.656250
7712		-101.562500
7713		-95.703125
7714		-101.562500
7715		-95.703125
7716		-99.609375
7717		-93.750000
7718		-99.609375
7719		-93.750000
7720		-99.609375
7721		-93.750000
7722		-97.656250
7723		-93.750000
7724		-95.703125
7725		-91.796875
7726		-95.703125
7727		-91.796875
7728		-95.703125
7729		-89.843750
7730		-93.750000
7731		-87.890625
7732		-91.796875
7733		-85.937500
7734		-91.796875
7735		-85.937500
7736		-89.843750
7737		-83.984375
7738		-87.890625
7739		-82.031250
7740		-87.890625
7741		-82.031250
7742		-83.984375
7743		-80.078125
7744		-82.031250
7745		-78.125000
7746		-82.031250
7747		-76.171875
7748		-80.078125
7749		-74.218750
7750		-80.078125
7751		-72.265625
7752		-76.171875
7753		-70.312500
7754		-76.171875
7755		-68.359375
7756		-72.265625
7757		-66.406250
7758		-70.312500
7759		-66.406250
7760		-68.359375
7761		-62.500000
7762		-66.406250
7763		-60.546875
7764		-64.453125
7765		-58.593750
7766		-62.500000
7767		-54.687500
7768		-58.593750
7769		-54.687500
7770		-56.640625
7771		-50.781250
7772		-54.687500
7773		-50.781250
7774		-52.734375
7775		-48.828125
7776		-50.781250
7777		-44.921875
7778		-48.828125
7779		-42.968750
7780		-44.921875
7781		-41.015625
7782		-44.921875
7783		-37.109375
7784		-41.015625
7785		-35.156250
7786		-39.062500
7787		-33.203125
7788		-37.109375
7789		-31.250000
7790		-33.203125
7791		-29.296875
7792		-31.250000
7793		-25.390625
7794		-29.296875
7795		-23.437500
7796		-25.390625
7797		-21.484375
7798		-23.437500
7799		-17.578125
7800		-21.484375
7801		-15.625000
7802		-19.531250
7803		-13.671875
7804		-15.625000
7805		-11.718750
7806		-13.671875
7807		-9.765625
7808		-11.718750
7809		-5.859375
7810		-7.812500
7811		-3.906250
7812		-7.812500
7813		-1.953125
7814		-3.906250
7815		1.953125
7816		-1.953125
7817		3.906250
7818		0.000000
7819		5.859375
7820		3.906250
7821		9.765625
7822		5.859375
7823		9.765625
7824		7.812500
7825		13.671875
7826		11.718750
7827		15.625000
7828		13.671875
7829		17.578125
7830		15.625000
7831		21.484375
7832		17.578125
7833		23.437500
7834		19.531250
7835		25.390625
7836		21.484375
7837		27.343750
7838		25.390625
7839		29.296875
7840		27.343750
7841		31.250000
7842		29.296875
7843		33.203125
7844		31.250000
7845		37.109375
7846		33.203125
7847		37.109375
7848		35.156250
7849		41.015625
7850		37.109375
7851		44.921875
7852		41.015625
7853		44.921875
7854		41.015625
7855		46.875000
7856		44.921875
7857		48.828125
7858		44.921875
7859		50.781250
7860		48.828125
7861		52.734375
7862		48.828125
7863		54.687500
7864		50.781250
7865		56.640625
7866		52.734375
7867		56.640625
7868		54.687500
7869		58.593750
7870		56.640625
7871		60.546875
7872		58.593750
7873		62.500000
7874		58.593750
7875		64.453125
7876		60.546875
7877		64.453125
7878		62.500000
7879		68.359375
7880		64.453125
7881		68.359375
7882		64.453125
7883		70.312500
7884		66.406250
7885		72.265625
7886		68.359375
7887		72.265625
7888		68.359375
7889		74.218750
7890		70.312500
7891		74.218750
7892		72.265625
7893		76.171875
7894		72.265625
7895		76.171875
7896		74.218750
7897		78.125000
7898		74.218750
7899		78.125000
7900		76.171875
7901		80.078125
7902		76.171875
7903		80.078125
7904		78.125000
7905		82.031250
7906		78.125000
7907		82.031250
7908		78.125000
7909		82.031250
7910		80.078125
7911		83.984375
7912		80.078125
7913		83.984375
7914		80.078125
7915		83.984375
7916		82.031250
7917		85.937500
7918		82.031250
7919		85.937500
7920		82.031250
7921		85.937500
7922		82.031250
7923		85.937500
7924		82.031250
7925		85.937500
7926		82.031250
7927		85.937500
7928		82.031250
7929		87.890625
7930		82.031250
7931		85.937500
7932		83.984375
7933		85.937500
7934		82.031250
7935		87.890625
7936		83.984375
7937		85.937500
7938		82.031250
7939		85.937500
7940		82.031250
7941		85.937500
7942		82.031250
7943		85.937500
7944		82.031250
7945		85.937500
7946		82.031250
7947		85.937500
7948		82.031250
7949		85.937500
7950		80.078125
7951		83.984375
7952		80.078125
7953		83.984375
7954		80.078125
7955		83.984375
7956		80.078125
7957		83.984375
7958		78.125000
7959		82.031250
7960		78.125000
7961		82.031250
7962		76.171875
7963		82.031250
7964		76.171875
7965		80.078125
7966		76.171875
7967		78.125000
7968		74.218750
7969		78.125000
7970		72.265625
7971		78.125000
7972		72.265625
7973		76.171875
7974		70.312500
7975		74.218750
7976		70.312500
7977		74.218750
7978		68.359375
7979		72.265625
7980		68.359375
7981		72.265625
7982		66.406250
7983		70.312500
7984		64.453125
7985		68.359375
7986		62.500000
7987		66.406250
7988		62.500000
7989		66.406250
7990		60.546875
7991		64.453125
7992		58.593750
7993		62.500000
7994		56.640625
7995		60.546875
7996		54.687500
7997		58.593750
7998		52.734375
7999		58.593750
8000		52.734375
8001		56.640625
8002		48.828125
8003		54.687500
8004		48.828125
8005		52.734375
8006		44.921875
8007		50.781250
8008		44.921875
8009		48.828125
8010		42.968750
8011		46.875000
8012		39.062500
8013		44.921875
8014		39.062500
8015		42.968750
8016		35.156250
8017		41.015625
8018		33.203125
8019		39.062500
8020		31.250000
8021		37.109375
8022		29.296875
8023		33.203125
8024		25.390625
8025		31.250000
8026		25.390625
8027		29.296875
8028		23.437500
8029		27.343750
8030		19.531250
8031		25.390625
8032		17.578125
8033		23.437500
8034		15.625000
8035		19.531250
8036		13.671875
8037		17.578125
8038		9.765625
8039		15.625000
8040		7.812500
8041		13.671875
8042		5.859375
8043		11.718750
8044		3.906250
8045		7.812500
8046		0.000000
8047		5.859375
8048		-1.953125
8049		3.906250
8050		-3.906250
8051		0.000000
8052		-5.859375
8053		-1.953125
8054		-9.765625
8055		-3.906250
8056		-11.718750
8057		-7.812500
8058		-13.671875
8059		-9.765625
8060		-17.578125
8061		-11.718750
8062		-19.531250
8063		-13.671875
8064		-21.484375
8065		-15.625000
8066		-23.437500
8067		-19.531250
8068		-27.343750
8069		-21.484375
8070		-29.296875
8071		-23.437500
8072		-31.250000
8073		-27.343750
8074		-35.156250
8075		-29.296875
8076		-37.109375
8077		-31.250000
8078		-39.062500
8079		-35.156250
8080		-41.015625
8081		-37.109375
8082		-44.921875
8083		-39.062500
8084		-46.875000
8085		-41.015625
8086		-48.828125
8087		-42.968750
8088		-50.781250
8089		-46.875000
8090		-52.734375
8091		-48.828125
8092		-56.640625
8093		-50.781250
8094		-58.593750
8095		-52.734375
8096		-60.546875
8097		-54.687500
8098		-62.500000
8099		-56.640625
8100		-64.453125
8101		-58.593750
8102		-66.406250
8103		-60.546875
8104		-68.359375
8105		-64.453125
8106		-72.265625
8107		-66.406250
8108		-72.265625
8109		-68.359375
8110		-74.218750
8111		-70.312500
8112		-76.171875
8113		-72.265625
8114		-78.125000
8115		-74.218750
8116		-80.078125
8117		-74.218750
8118		-82.031250
8119		-76.171875
8120		-82.031250
8121		-78.125000
8122		-83.984375
8123		-80.078125
8124		-85.937500
8125		-82.031250
8126		-87.890625
8127		-82.031250
8128		-87.890625
8129		-83.984375
8130		-89.843750
8131		-85.937500
8132		-91.796875
8133		-87.890625
8134		-91.796875
8135		-87.890625
8136		-93.750000
8137		-89.843750
8138		-93.750000
8139		-91.796875
8140		-95.703125
8141		-91.796875
8142		-97.656250
8143		-91.796875
8144		-97.656250
8145		-93.750000
8146		-97.656250
8147		-93.750000
8148		-99.609375
8149		-95.703125
8150		-99.609375
8151		-95.703125
8152		-99.609375
8153		-95.703125
8154		-101.562500
8155		-97.656250
8156		-101.562500
8157		-97.656250
8158		-101.562500
8159		-97.656250
8160		-101.562500
8161		-97.656250
8162		-101.562500
8163		-99.609375
8164		-101.562500
8165		-97.656250
8166		-103.515625
8167		-99.609375
8168		-103.515625
8169		-99.609375
8170		-101.562500
8171		-99.609375
8172		-103.515625
8173		-99.609375
8174		-103.515625
8175		-99.609375
8176		-103.515625
8177		-97.656250
8178		-101.562500
8179		-97.656250
8180		-101.562500
8181		-97.656250
8182		-99.609375
8183		-97.656250
8184		-99.609375
8185		-97.656250
8186		-99.609375
8187		-95.703125
8188		-99.609375
8189		-95.703125
8190		-97.656250
8191		-93.750000
8192		-97.656250
8193		-93.750000
8194		-95.703125
8195		-93.750000
8196		-95.703125
8197		-91.796875
8198		-93.750000
8199		-89.843750
8200		-93.750000
8201		-89.843750
8202		-91.796875
8203		-87.890625
8204		-91.796875
8205		-85.937500
8206		-89.843750
8207		-85.937500
8208		-87.890625
8209		-83.984375
8210		-87.890625
8211		-82.031250
8212		-85.937500
8213		-82.031250
8214		-83.984375
8215		-80.078125
8216		-82.031250
8217		-78.125000
8218		-80.078125
8219		-76.171875
8220		-80.078125
8221		-74.218750
8222		-76.171875
8223		-72.265625
8224		-76.171875
8225		-70.312500
8226		-72.265625
8227		-68.359375
8228		-70.312500
8229		-66.406250
8230		-68.359375
8231		-64.453125
8232		-68.359375
8233		-62.500000
8234		-64.453125
8235		-60.546875
8236		-62.500000
8237		-58.593750
8238		-60.546875
8239		-56.640625
8240		-58.593750
8241		-54.687500
8242		-56.640625
8243		-52.734375
8244		-54.687500
8245		-48.828125
8246		-52.734375
8247		-46.875000
8248		-50.781250
8249		-44.921875
8250		-46.875000
8251		-42.968750
8252		-44.921875
8253		-41.015625
8254		-42.968750
8255		-39.062500
8256		-41.015625
8257		-35.156250
8258		-37.109375
8259		-33.203125
8260		-35.156250
8261		-29.296875
8262		-33.203125
8263		-27.343750
8264		-31.250000
8265		-25.390625
8266		-27.343750
8267		-23.437500
8268		-25.390625
8269		-19.531250
8270		-23.437500
8271		-17.578125
8272		-19.531250
8273		-15.625000
8274		-17.578125
8275		-13.671875
8276		-15.625000
8277		-9.765625
8278		-13.671875
8279		-7.812500
8280		-9.765625
8281		-5.859375
8282		-7.812500
8283		-3.906250
8284		-5.859375
8285		0.000000
8286		-1.953125
8287		1.953125
8288		0.000000
8289		3.906250
8290		1.953125
8291		7.812500
8292		3.906250
8293		9.765625
8294		5.859375
8295		11.718750
8296		9.765625
8297		13.671875
8298		11.718750
8299		17.578125
8300		13.671875
8301		19.531250
8302		15.625000
8303		21.484375
8304		19.531250
8305		23.437500
8306		21.484375
8307		25.390625
8308		23.437500
8309		27.343750
8310		25.390625
8311		31.250000
8312		27.343750
8313		33.203125
8314		29.296875
8315		35.156250
8316		33.203125
8317		37.109375
8318		35.156250
8319		39.062500
8320		35.156250
8321		41.015625
8322		39.062500
8323		42.968750
8324		41.015625
8325		44.921875
8326		42.968750
8327		46.875000
8328		42.968750
8329		48.828125
8330		46.875000
8331		50.781250
8332		48.828125
8333		52.734375
8334		50.781250
8335		54.687500
8336		52.734375
8337		56.640625
8338		52.734375
8339		58.593750
8340		54.687500
8341		60.546875
8342		56.640625
8343		60.546875
8344		58.593750
8345		62.500000
8346		60.546875
8347		64.453125
8348		62.500000
8349		66.406250
8350		62.500000
8351		66.406250
8352		64.453125
8353		68.359375
8354		66.406250
8355		70.312500
8356		66.406250
8357		72.265625
8358		68.359375
8359		72.265625
8360		70.312500
8361		74.218750
8362		70.312500
8363		74.218750
8364		72.265625
8365		76.171875
8366		72.265625
8367		78.125000
8368		74.218750
8369		78.125000
8370		74.218750
8371		78.125000
8372		76.171875
8373		80.078125
8374		76.171875
8375		82.031250
8376		78.125000
8377		82.031250
8378		78.125000
8379		82.031250
8380		80.078125
8381		82.031250
8382		80.078125
8383		83.984375
8384		80.078125
8385		83.984375
8386		80.078125
8387		85.937500
8388		82.031250
8389		85.937500
8390		82.031250
8391		85.937500
8392		82.031250
8393		85.937500
8394		82.031250
8395		85.937500
8396		83.984375
8397		85.937500
8398		83.984375
8399		85.937500
8400		82.031250
8401		85.937500
8402		83.984375
8403		85.937500
8404		82.031250
8405		87.890625
8406		83.984375
8407		85.937500
8408		82.031250
8409		87.890625
8410		83.984375
8411		85.937500
8412		82.031250
8413		85.937500
8414		83.984375
8415		85.937500
8416		82.031250
8417		85.937500
8418		82.031250
8419		85.937500
8420		82.031250
8421		85.937500
8422		82.031250
8423		83.984375
8424		80.078125
8425		83.984375
8426		80.078125
8427		83.984375
8428		80.078125
8429		82.031250
8430		78.125000
8431		82.031250
8432		78.125000
8433		82.031250
8434		76.171875
8435		80.078125
8436		76.171875
8437		80.078125
8438		76.171875
8439		78.125000
8440		74.218750
8441		78.125000
8442		72.265625
8443		76.171875
8444		72.265625
8445		76.171875
8446		70.312500
8447		76.171875
8448		70.312500
8449		74.218750
8450		68.359375
8451		72.265625
8452		66.406250
8453		70.312500
8454		66.406250
8455		70.312500
8456		64.453125
8457		68.359375
8458		62.500000
8459		66.406250
8460		60.546875
8461		66.406250
8462		60.546875
8463		64.453125
8464		58.593750
8465		62.500000
8466		54.687500
8467		60.546875
8468		54.687500
8469		58.593750
8470		52.734375
8471		56.640625
8472		50.781250
8473		54.687500
8474		48.828125
8475		52.734375
8476		46.875000
8477		52.734375
8478		44.921875
8479		48.828125
8480		42.968750
8481		48.828125
8482		41.015625
8483		46.875000
8484		39.062500
8485		44.921875
8486		37.109375
8487		42.968750
8488		35.156250
8489		41.015625
8490		33.203125
8491		37.109375
8492		31.250000
8493		35.156250
8494		29.296875
8495		33.203125
8496		27.343750
8497		31.250000
8498		23.437500
8499		29.296875
8500		19.531250
8501		27.343750
8502		19.531250
8503		23.437500
8504		15.625000
8505		21.484375
8506		15.625000
8507		19.531250
8508		11.718750
8509		17.578125
8510		9.765625
8511		13.671875
8512		7.812500
8513		11.718750
8514		5.859375
8515		9.765625
8516		1.953125
8517		7.812500
8518		0.000000
8519		3.906250
8520		-1.953125
8521		1.953125
8522		-5.859375
8523		0.000000
8524		-7.812500
8525		-1.953125
8526		-9.765625
8527		-5.859375
8528		-11.718750
8529		-7.812500
8530		-15.625000
8531		-9.765625
8532		-17.578125
8533		-13.671875
8534		-19.531250
8535		-15.625000
8536		-23.437500
8537		-17.578125
8538		-25.390625
8539		-19.531250
8540		-27.343750
8541		-23.437500
8542		-29.296875
8543		-25.390625
8544		-33.203125
8545		-27.343750
8546		-35.156250
8547		-29.296875
8548		-37.109375
8549		-33.203125
8550		-41.015625
8551		-35.156250
8552		-42.968750
8553		-37.109375
8554		-44.921875
8555		-41.015625
8556		-46.875000
8557		-42.968750
8558		-48.828125
8559		-44.921875
8560		-52.734375
8561		-46.875000
8562		-54.687500
8563		-48.828125
8564		-56.640625
8565		-52.734375
8566		-58.593750
8567		-54.687500
8568		-60.546875
8569		-54.687500
8570		-62.500000
8571		-58.593750
8572		-64.453125
8573		-60.546875
8574		-66.406250
8575		-62.500000
8576		-70.312500
8577		-64.453125
8578		-70.312500
8579		-66.406250
8580		-72.265625
8581		-68.359375
8582		-74.218750
8583		-70.312500
8584		-76.171875
8585		-72.265625
8586		-78.125000
8587		-74.218750
8588		-80.078125
8589		-76.171875
8590		-82.031250
8591		-78.125000
8592		-83.984375
8593		-80.078125
8594		-85.937500
8595		-80.078125
8596		-87.890625
8597		-82.031250
8598		-87.890625
8599		-83.984375
8600		-89.843750
8601		-85.937500
8602		-89.843750
8603		-85.937500
8604		-91.796875
8605		-87.890625
8606		-93.750000
8607		-87.890625
8608		-93.750000
8609		-89.843750
8610		-95.703125
8611		-91.796875
8612		-95.703125
8613		-91.796875
8614		-97.656250
8615		-91.796875
8616		-97.656250
8617		-93.750000
8618		-99.609375
8619		-95.703125
8620		-99.609375
8621		-95.703125
8622		-99.609375
8623		-97.656250
8624		-101.562500
8625		-97.656250
8626		-101.562500
8627		-97.656250
8628		-101.562500
8629		-97.656250
8630		-101.562500
8631		-97.656250
8632		-101.562500
8633		-99.609375
8634		-103.515625
8635		-99.609375
8636		-101.562500
8637		-99.609375
8638		-103.515625
8639		-99.609375
8640		-103.515625
8641		-99.609375
8642		-103.515625
8643		-99.609375
8644		-101.562500
8645		-99.609375
8646		-103.515625
8647		-97.656250
8648		-101.562500
8649		-99.609375
8650		-101.562500
8651		-97.656250
8652		-101.562500
8653		-97.656250
8654		-101.562500
8655		-97.656250
8656		-99.609375
8657		-95.703125
8658		-99.609375
8659		-95.703125
8660		-99.609375
8661		-95.703125
8662		-99.609375
8663		-93.750000
8664		-97.656250
8665		-91.796875
8666		-95.703125
8667		-91.796875
8668		-95.703125
8669		-91.796875
8670		-93.750000
8671		-89.843750
8672		-93.750000
8673		-89.843750
8674		-91.796875
8675		-87.890625
8676		-89.843750
8677		-85.937500
8678		-89.843750
8679		-83.984375
8680		-87.890625
8681		-83.984375
8682		-85.937500
8683		-82.031250
8684		-85.937500
8685		-80.078125
8686		-83.984375
8687		-80.078125
8688		-82.031250
8689		-78.125000
8690		-80.078125
8691		-76.171875
8692		-78.125000
8693		-74.218750
8694		-76.171875
8695		-72.265625
8696		-74.218750
8697		-70.312500
8698		-72.265625
8699		-68.359375
8700		-70.312500
8701		-66.406250
8702		-68.359375
8703		-64.453125
8704		-66.406250
8705		-62.500000
8706		-64.453125
8707		-60.546875
8708		-62.500000
8709		-58.593750
8710		-60.546875
8711		-54.687500
8712		-58.593750
8713		-52.734375
8714		-56.640625
8715		-50.781250
8716		-52.734375
8717		-48.828125
8718		-50.781250
8719		-46.875000
8720		-48.828125
8721		-44.921875
8722		-46.875000
8723		-41.015625
8724		-44.921875
8725		-39.062500
8726		-41.015625
8727		-37.109375
8728		-39.062500
8729		-35.156250
8730		-37.109375
8731		-31.250000
8732		-35.156250
8733		-29.296875
8734		-31.250000
8735		-27.343750
8736		-29.296875
8737		-23.437500
8738		-27.343750
8739		-21.484375
8740		-23.437500
8741		-19.531250
8742		-21.484375
8743		-17.578125
8744		-19.531250
8745		-13.671875
8746		-17.578125
8747		-11.718750
8748		-13.671875
8749		-9.765625
8750		-11.718750
8751		-7.812500
8752		-9.765625
8753		-3.906250
8754		-7.812500
8755		-1.953125
8756		-3.906250
8757		0.000000
8758		-1.953125
8759		1.953125
8760		0.000000
8761		5.859375
8762		3.906250
8763		7.812500
8764		5.859375
8765		9.765625
8766		7.812500
8767		11.718750
8768		9.765625
8769		15.625000
8770		11.718750
8771		17.578125
8772		15.625000
8773		19.531250
8774		15.625000
8775		21.484375
8776		19.531250
8777		23.437500
8778		21.484375
8779		27.343750
8780		23.437500
8781		29.296875
8782		25.390625
8783		31.250000
8784		29.296875
8785		33.203125
8786		31.250000
8787		37.109375
8788		33.203125
8789		37.109375
8790		35.156250
8791		39.062500
8792		37.109375
8793		41.015625
8794		37.109375
8795		44.921875
8796		41.015625
8797		44.921875
8798		42.968750
8799		46.875000
8800		44.921875
8801		48.828125
8802		46.875000
8803		50.781250
8804		48.828125
8805		52.734375
8806		50.781250
8807		54.687500
8808		52.734375
8809		56.640625
8810		54.687500
8811		58.593750
8812		56.640625
8813		60.546875
8814		58.593750
8815		62.500000
8816		58.593750
8817		62.500000
8818		60.546875
8819		64.453125
8820		62.500000
8821		66.406250
8822		64.453125
8823		68.359375
8824		64.453125
8825		70.312500
8826		66.406250
8827		70.312500
8828		68.359375
8829		72.265625
8830		68.359375
8831		72.265625
8832		70.312500
8833		74.218750
8834		72.265625
8835		74.218750
8836		72.265625
8837		76.171875
8838		72.265625
8839		78.125000
8840		74.218750
8841		78.125000
8842		76.171875
8843		78.125000
8844		76.171875
8845		80.078125
8846		78.125000
8847		80.078125
8848		78.125000
8849		82.031250
8850		78.125000
8851		82.031250
8852		80.078125
8853		83.984375
8854		80.078125
8855		83.984375
8856		80.078125
8857		83.984375
8858		82.031250
8859		83.984375
8860		82.031250
8861		85.937500
8862		82.031250
8863		85.937500
8864		82.031250
8865		85.937500
8866		82.031250
8867		85.937500
8868		82.031250
8869		85.937500
8870		82.031250
8871		85.937500
8872		83.984375
8873		85.937500
8874		83.984375
8875		85.937500
8876		83.984375
8877		87.890625
8878		82.031250
8879		87.890625
8880		83.984375
8881		85.937500
8882		82.031250
8883		85.937500
8884		82.031250
8885		85.937500
8886		82.031250
8887		85.937500
8888		82.031250
8889		85.937500
8890		80.078125
8891		85.937500
8892		82.031250
8893		85.937500
8894		80.078125
8895		83.984375
8896		80.078125
8897		83.984375
8898		80.078125
8899		82.031250
8900		78.125000
8901		82.031250
8902		78.125000
8903		82.031250
8904		76.171875
8905		82.031250
8906		74.218750
8907		80.078125
8908		74.218750
8909		80.078125
8910		74.218750
8911		78.125000
8912		74.218750
8913		78.125000
8914		72.265625
8915		76.171875
8916		70.312500
8917		76.171875
8918		70.312500
8919		74.218750
8920		68.359375
8921		72.265625
8922		66.406250
8923		72.265625
8924		66.406250
8925		70.312500
8926		64.453125
8927		68.359375
8928		64.453125
8929		68.359375
8930		62.500000
8931		66.406250
8932		58.593750
8933		64.453125
8934		58.593750
8935		62.500000
8936		56.640625
8937		62.500000
8938		54.687500
8939		60.546875
8940		54.687500
8941		58.593750
8942		52.734375
8943		56.640625
8944		50.781250
8945		54.687500
8946		48.828125
8947		52.734375
8948		46.875000
8949		50.781250
8950		44.921875
8951		50.781250
8952		42.968750
8953		46.875000
8954		39.062500
8955		44.921875
8956		39.062500
8957		42.968750
8958		37.109375
8959		41.015625
8960		33.203125
8961		39.062500
8962		31.250000
8963		37.109375
8964		29.296875
8965		33.203125
8966		27.343750
8967		33.203125
8968		25.390625
8969		29.296875
8970		23.437500
8971		27.343750
8972		19.531250
8973		25.390625
8974		17.578125
8975		23.437500
8976		15.625000
8977		21.484375
8978		13.671875
8979		17.578125
8980		11.718750
8981		15.625000
8982		7.812500
8983		13.671875
8984		5.859375
8985		11.718750
8986		3.906250
8987		7.812500
8988		1.953125
8989		5.859375
8990		-1.953125
8991		3.906250
8992		-3.906250
8993		1.953125
8994		-5.859375
8995		-1.953125
8996		-7.812500
8997		-3.906250
8998		-11.718750
8999		-5.859375
9000		-13.671875
9001		-9.765625
9002		-15.625000
9003		-11.718750
9004		-19.531250
9005		-13.671875
9006		-21.484375
9007		-15.625000
9008		-23.437500
9009		-19.531250
9010		-27.343750
9011		-21.484375
9012		-29.296875
9013		-23.437500
9014		-31.250000
9015		-27.343750
9016		-33.203125
9017		-29.296875
9018		-37.109375
9019		-31.250000
9020		-39.062500
9021		-33.203125
9022		-41.015625
9023		-37.109375
9024		-42.968750
9025		-39.062500
9026		-46.875000
9027		-41.015625
9028		-48.828125
9029		-42.968750
9030		-50.781250
9031		-44.921875
9032		-52.734375
9033		-48.828125
9034		-54.687500
9035		-50.781250
9036		-56.640625
9037		-52.734375
9038		-60.546875
9039		-54.687500
9040		-60.546875
9041		-56.640625
9042		-64.453125
9043		-58.593750
9044		-66.406250
9045		-60.546875
9046		-68.359375
9047		-62.500000
9048		-70.312500
9049		-64.453125
9050		-72.265625
9051		-66.406250
9052		-74.218750
9053		-70.312500
9054		-76.171875
9055		-72.265625
9056		-78.125000
9057		-72.265625
9058		-80.078125
9059		-74.218750
9060		-80.078125
9061		-76.171875
9062		-82.031250
9063		-78.125000
9064		-83.984375
9065		-80.078125
9066		-85.937500
9067		-82.031250
9068		-87.890625
9069		-82.031250
9070		-87.890625
9071		-83.984375
9072		-89.843750
9073		-85.937500
9074		-89.843750
9075		-87.890625
9076		-93.750000
9077		-87.890625
9078		-93.750000
9079		-89.843750
9080		-93.750000
9081		-91.796875
9082		-95.703125
9083		-91.796875
9084		-97.656250
9085		-93.750000
9086		-97.656250
9087		-93.750000
9088		-97.656250
9089		-95.703125
9090		-99.609375
9091		-95.703125
9092		-99.609375
9093		-95.703125
9094		-99.609375
9095		-95.703125
9096		-101.562500
9097		-97.656250
9098		-101.562500
9099		-97.656250
9100		-101.562500
9101		-97.656250
9102		-101.562500
9103		-99.609375
9104		-101.562500
9105		-99.609375
9106		-103.515625
9107		-99.609375
9108		-103.515625
9109		-99.609375
9110		-103.515625
9111		-99.609375
9112		-103.515625
9113		-99.609375
9114		-103.515625
9115		-99.609375
9116		-103.515625
9117		-97.656250
9118		-103.515625
9119		-99.609375
9120		-101.562500
9121		-99.609375
9122		-101.562500
9123		-97.656250
9124		-101.562500
9125		-97.656250
9126		-101.562500
9127		-97.656250
9128		-99.609375
9129		-97.656250
9130		-99.609375
9131		-95.703125
9132		-97.656250
9133		-95.703125
9134		-97.656250
9135		-93.750000
9136		-95.703125
9137		-93.750000
9138		-95.703125
9139		-91.796875
9140		-95.703125
9141		-91.796875
9142		-93.750000
9143		-89.843750
9144		-93.750000
9145		-89.843750
9146		-91.796875
9147		-87.890625
9148		-89.843750
9149		-85.937500
9150		-89.843750
9151		-83.984375
9152		-87.890625
9153		-83.984375
9154		-85.937500
9155		-82.031250
9156		-83.984375
9157		-80.078125
9158		-82.031250
9159		-78.125000
9160		-80.078125
9161		-76.171875
9162		-80.078125
9163		-74.218750
9164		-78.125000
9165		-74.218750
9166		-76.171875
9167		-72.265625
9168		-74.218750
9169		-70.312500
9170		-72.265625
9171		-68.359375
9172		-70.312500
9173		-64.453125
9174		-68.359375
9175		-64.453125
9176		-66.406250
9177		-60.546875
9178		-64.453125
9179		-58.593750
9180		-62.500000
9181		-56.640625
9182		-60.546875
9183		-54.687500
9184		-58.593750
9185		-52.734375
9186		-54.687500
9187		-50.781250
9188		-52.734375
9189		-48.828125
9190		-50.781250
9191		-44.921875
9192		-48.828125
9193		-42.968750
9194		-44.921875
9195		-41.015625
9196		-42.968750
9197		-39.062500
9198		-41.015625
9199		-37.109375
9200		-39.062500
9201		-33.203125
9202		-37.109375
9203		-31.250000
9204		-33.203125
9205		-29.296875
9206		-31.250000
9207		-25.390625
9208		-29.296875
9209		-23.437500
9210		-27.343750
9211		-21.484375
9212		-23.437500
9213		-17.578125
9214		-21.484375
9215		-15.625000
9216		-19.531250
9217		-13.671875
9218		-15.625000
9219		-11.718750
9220		-13.671875
9221		-7.812500
9222		-11.718750
9223		-5.859375
9224		-7.812500
9225		-3.906250
9226		-5.859375
9227		-1.953125
9228		-3.906250
9229		1.953125
9230		-1.953125
9231		3.906250
9232		1.953125
9233		5.859375
9234		1.953125
9235		7.812500
9236		5.859375
9237		11.718750
9238		7.812500
9239		13.671875
9240		9.765625
9241		15.625000
9242		13.671875
9243		17.578125
9244		15.625000
9245		21.484375
9246		17.578125
9247		23.437500
9248		19.531250
9249		25.390625
9250		23.437500
9251		27.343750
9252		25.390625
9253		29.296875
9254		27.343750
9255		31.250000
9256		29.296875
9257		35.156250
9258		31.250000
9259		35.156250
9260		33.203125
9261		39.062500
9262		35.156250
9263		39.062500
9264		37.109375
9265		42.968750
9266		39.062500
9267		44.921875
9268		42.968750
9269		46.875000
9270		42.968750
9271		48.828125
9272		44.921875
9273		50.781250
9274		46.875000
9275		52.734375
9276		48.828125
9277		52.734375
9278		50.781250
9279		56.640625
9280		52.734375
9281		56.640625
9282		54.687500
9283		58.593750
9284		56.640625
9285		60.546875
9286		56.640625
9287		62.500000
9288		60.546875
9289		64.453125
9290		60.546875
9291		64.453125
9292		62.500000
9293		66.406250
9294		64.453125
9295		68.359375
9296		66.406250
9297		70.312500
9298		66.406250
9299		70.312500
9300		68.359375
9301		72.265625
9302		68.359375
9303		74.218750
9304		70.312500
9305		74.218750
9306		72.265625
9307		76.171875
9308		72.265625
9309		76.171875
9310		74.218750
9311		78.125000
9312		74.218750
9313		78.125000
9314		76.171875
9315		80.078125
9316		76.171875
9317		80.078125
9318		78.125000
9319		82.031250
9320		78.125000
9321		82.031250
9322		78.125000
9323		82.031250
9324		80.078125
9325		83.984375
9326		80.078125
9327		83.984375
9328		80.078125
9329		83.984375
9330		82.031250
9331		83.984375
9332		82.031250
9333		85.937500
9334		82.031250
9335		85.937500
9336		82.031250
9337		85.937500
9338		83.984375
9339		85.937500
9340		83.984375
9341		85.937500
9342		83.984375
9343		87.890625
9344		83.984375
9345		85.937500
9346		83.984375
9347		87.890625
9348		83.984375
9349		85.937500
9350		83.984375
9351		85.937500
9352		82.031250
9353		85.937500
9354		82.031250
9355		85.937500
9356		82.031250
9357		85.937500
9358		82.031250
9359		85.937500
9360		82.031250
9361		85.937500
9362		82.031250
9363		85.937500
9364		82.031250
9365		83.984375
9366		80.078125
9367		83.984375
9368		78.125000
9369		83.984375
9370		80.078125
9371		83.984375
9372		78.125000
9373		82.031250
9374		78.125000
9375		82.031250
9376		78.125000
9377		80.078125
9378		76.171875
9379		80.078125
9380		76.171875
9381		78.125000
9382		74.218750
9383		78.125000
9384		74.218750
9385		76.171875
9386		72.265625
9387		76.171875
9388		70.312500
9389		74.218750
9390		70.312500
9391		74.218750
9392		68.359375
9393		72.265625
9394		66.406250
9395		72.265625
9396		66.406250
9397		70.312500
9398		64.453125
9399		68.359375
9400		62.500000
9401		68.359375
9402		60.546875
9403		66.406250
9404		60.546875
9405		64.453125
9406		58.593750
9407		62.500000
9408		56.640625
9409		60.546875
9410		54.687500
9411		58.593750
9412		52.734375
9413		56.640625
9414		50.781250
9415		54.687500
9416		50.781250
9417		54.687500
9418		46.875000
9419		52.734375
9420		44.921875
9421		50.781250
9422		44.921875
9423		48.828125
9424		42.968750
9425		46.875000
9426		39.062500
9427		44.921875
9428		37.109375
9429		42.968750
9430		35.156250
9431		41.015625
9432		33.203125
9433		39.062500
9434		31.250000
9435		35.156250
9436		29.296875
9437		33.203125
9438		27.343750
9439		31.250000
9440		25.390625
9441		29.296875
9442		21.484375
9443		27.343750
9444		19.531250
9445		25.390625
9446		17.578125
9447		21.484375
9448		15.625000
9449		19.531250
9450		13.671875
9451		17.578125
9452		9.765625
9453		15.625000
9454		7.812500
9455		13.671875
9456		5.859375
9457		9.765625
9458		1.953125
9459		7.812500
9460		0.000000
9461		5.859375
9462		-1.953125
9463		1.953125
9464		-3.906250
9465		0.000000
9466		-7.812500
9467		-1.953125
9468		-9.765625
9469		-3.906250
9470		-11.718750
9471		-7.812500
9472		-13.671875
9473		-9.765625
9474		-17.578125
9475		-11.718750
9476		-19.531250
9477		-15.625000
9478		-21.484375
9479		-17.578125
9480		-25.390625
9481		-19.531250
9482		-27.343750
9483		-21.484375
9484		-29.296875
9485		-25.390625
9486		-33.203125
9487		-27.343750
9488		-35.156250
9489		-29.296875
9490		-37.109375
9491		-33.203125
9492		-39.062500
9493		-35.156250
9494		-42.968750
9495		-37.109375
9496		-44.921875
9497		-39.062500
9498		-46.875000
9499		-42.968750
9500		-48.828125
9501		-44.921875
9502		-50.781250
9503		-46.875000
9504		-52.734375
9505		-48.828125
9506		-56.640625
9507		-50.781250
9508		-58.593750
9509		-52.734375
9510		-60.546875
9511		-54.687500
9512		-62.500000
9513		-56.640625
9514		-64.453125
9515		-60.546875
9516		-66.406250
9517		-62.500000
9518		-68.359375
9519		-64.453125
9520		-70.312500
9521		-66.406250
9522		-72.265625
9523		-68.359375
9524		-74.218750
9525		-70.312500
9526		-76.171875
9527		-70.312500
9528		-78.125000
9529		-74.218750
9530		-80.078125
9531		-76.171875
9532		-82.031250
9533		-76.171875
9534		-82.031250
9535		-78.125000
9536		-83.984375
9537		-80.078125
9538		-85.937500
9539		-82.031250
9540		-87.890625
9541		-83.984375
9542		-89.843750
9543		-85.937500
9544		-89.843750
9545		-85.937500
9546		-91.796875
9547		-87.890625
9548		-93.750000
9549		-87.890625
9550		-93.750000
9551		-89.843750
9552		-95.703125
9553		-89.843750
9554		-95.703125
9555		-91.796875
9556		-95.703125
9557		-93.750000
9558		-97.656250
9559		-93.750000
9560		-97.656250
9561		-93.750000
9562		-99.609375
9563		-95.703125
9564		-99.609375
9565		-95.703125
9566		-101.562500
9567		-95.703125
9568		-101.562500
9569		-97.656250
9570		-101.562500
9571		-97.656250
9572		-101.562500
9573		-97.656250
9574		-101.562500
9575		-97.656250
9576		-103.515625
9577		-99.609375
9578		-103.515625
9579		-97.656250
9580		-103.515625
9581		-97.656250
9582		-103.515625
9583		-97.656250
9584		-105.468750
9585		-97.656250
9586		-103.515625
9587		-97.656250
9588		-103.515625
9589		-97.656250
9590		-101.562500
9591		-97.656250
9592		-101.562500
9593		-97.656250
9594		-101.562500
9595		-97.656250
9596		-101.562500
9597		-95.703125
9598		-101.562500
9599		-93.750000
9600		-99.609375
9601		-93.750000
9602		-99.609375
9603		-93.750000
9604		-97.656250
9605		-93.750000
9606		-97.656250
9607		-93.750000
9608		-95.703125
9609		-91.796875
9610		-95.703125
9611		-89.843750
9612		-95.703125
9613		-89.843750
9614		-95.703125
9615		-87.890625
9616		-93.750000
9617		-85.937500
9618		-91.796875
9619		-85.937500
9620		-89.843750
9621		-83.984375
9622		-87.890625
9623		-83.984375
9624		-85.937500
9625		-82.031250
9626		-83.984375
9627		-80.078125
9628		-83.984375
9629		-78.125000
9630		-83.984375
9631		-76.171875
9632		-82.031250
9633		-72.265625
9634		-78.125000
9635		-74.218750
9636		-78.125000
9637		-70.312500
9638		-76.171875
9639		-70.312500
9640		-72.265625
9641		-68.359375
9642		-70.312500
9643		-66.406250
9644		-70.312500
9645		-62.500000
9646		-68.359375
9647		-60.546875
9648		-66.406250
9649		-58.593750
9650		-62.500000
9651		-56.640625
9652		-62.500000
9653		-54.687500
9654		-58.593750
9655		-50.781250
9656		-56.640625
9657		-50.781250
9658		-52.734375
9659		-48.828125
9660		-50.781250
9661		-44.921875
9662		-50.781250
9663		-42.968750
9664		-46.875000
9665		-41.015625
9666		-46.875000
9667		-37.109375
9668		-42.968750
9669		-35.156250
9670		-41.015625
9671		-33.203125
9672		-37.109375
9673		-31.250000
9674		-35.156250
9675		-29.296875
9676		-31.250000
9677		-27.343750
9678		-31.250000
9679		-23.437500
9680		-27.343750
9681		-19.531250
9682		-27.343750
9683		-19.531250
9684		-23.437500
9685		-15.625000
9686		-21.484375
9687		-13.671875
9688		-19.531250
9689		-9.765625
9690		-15.625000
9691		-9.765625
9692		-11.718750
9693		-7.812500
9694		-9.765625
9695		-3.906250
9696		-7.812500
9697		-1.953125
9698		-5.859375
9699		1.953125
9700		-3.906250
9701		3.906250
9702		-1.953125
9703		5.859375
9704		1.953125
9705		7.812500
9706		3.906250
9707		9.765625
9708		7.812500
9709		11.718750
9710		9.765625
9711		15.625000
9712		9.765625
9713		17.578125
9714		13.671875
9715		21.484375
9716		15.625000
9717		23.437500
9718		17.578125
9719		25.390625
9720		19.531250
9721		27.343750
9722		23.437500
9723		29.296875
9724		25.390625
9725		31.250000
9726		27.343750
9727		33.203125
9728		29.296875
9729		37.109375
9730		31.250000
9731		39.062500
9732		33.203125
9733		41.015625
9734		35.156250
9735		42.968750
9736		37.109375
9737		44.921875
9738		39.062500
9739		46.875000
9740		42.968750
9741		46.875000
9742		44.921875
9743		48.828125
9744		46.875000
9745		52.734375
9746		46.875000
9747		54.687500
9748		48.828125
9749		56.640625
9750		50.781250
9751		58.593750
9752		52.734375
9753		60.546875
9754		54.687500
9755		62.500000
9756		54.687500
9757		62.500000
9758		58.593750
9759		62.500000
9760		60.546875
9761		64.453125
9762		60.546875
9763		68.359375
9764		62.500000
9765		70.312500
9766		62.500000
9767		70.312500
9768		64.453125
9769		72.265625
9770		66.406250
9771		72.265625
9772		66.406250
9773		74.218750
9774		70.312500
9775		74.218750
9776		72.265625
9777		76.171875
9778		72.265625
9779		78.125000
9780		72.265625
9781		78.125000
9782		74.218750
9783		80.078125
9784		74.218750
9785		82.031250
9786		74.218750
9787		82.031250
9788		74.218750
9789		82.031250
9790		76.171875
9791		82.031250
9792		80.078125
9793		82.031250
9794		78.125000
9795		83.984375
9796		78.125000
9797		85.937500
9798		78.125000
9799		85.937500
9800		80.078125
9801		87.890625
9802		80.078125
9803		87.890625
9804		80.078125
9805		87.890625
9806		80.078125
9807		87.890625
9808		83.984375
9809		85.937500
9810		83.984375
9811		85.937500
9812		82.031250
9813		87.890625
9814		82.031250
9815		87.890625
9816		82.031250
9817		89.843750
9818		82.031250
9819		87.890625
9820		82.031250
9821		87.890625
9822		82.031250
9823		89.843750
9824		83.984375
9825		87.890625
9826		83.984375
9827		85.937500
9828		80.078125
9829		87.890625
9830		80.078125
9831		87.890625
9832		80.078125
9833		87.890625
9834		80.078125
9835		87.890625
9836		80.078125
9837		85.937500
9838		80.078125
9839		85.937500
9840		78.125000
9841		85.937500
9842		80.078125
9843		83.984375
9844		80.078125
9845		82.031250
9846		76.171875
9847		83.984375
9848		74.218750
9849		82.031250
9850		74.218750
9851		82.031250
9852		74.218750
9853		80.078125
9854		74.218750
9855		80.078125
9856		70.312500
9857		80.078125
9858		72.265625
9859		76.171875
9860		70.312500
9861		74.218750
9862		68.359375
9863		74.218750
9864		66.406250
9865		74.218750
9866		64.453125
9867		72.265625
9868		64.453125
9869		72.265625
9870		62.500000
9871		70.312500
9872		60.546875
9873		68.359375
9874		60.546875
9875		66.406250
9876		60.546875
9877		64.453125
9878		56.640625
9879		62.500000
9880		54.687500
9881		62.500000
9882		52.734375
9883		60.546875
9884		50.781250
9885		58.593750
9886		48.828125
9887		56.640625
9888		48.828125
9889		54.687500
9890		46.875000
9891		52.734375
9892		44.921875
9893		50.781250
9894		42.968750
9895		46.875000
9896		39.062500
9897		46.875000
9898		37.109375
9899		44.921875
9900		35.156250
9901		42.968750
9902		33.203125
9903		41.015625
9904		31.250000
9905		39.062500
9906		29.296875
9907		37.109375
9908		29.296875
9909		35.156250
9910		25.390625
9911		31.250000
9912		21.484375
9913		29.296875
9914		21.484375
9915		27.343750
9916		17.578125
9917		25.390625
9918		15.625000
9919		23.437500
9920		11.718750
9921		19.531250
9922		11.718750
9923		17.578125
9924		7.812500
9925		15.625000
9926		7.812500
9927		11.718750
9928		5.859375
9929		9.765625
9930		0.000000
9931		9.765625
9932		-1.953125
9933		5.859375
9934		-3.906250
9935		3.906250
9936		-7.812500
9937		1.953125
9938		-7.812500
9939		-1.953125
9940		-11.718750
9941		-3.906250
9942		-13.671875
9943		-7.812500
9944		-15.625000
9945		-9.765625
9946		-19.531250
9947		-13.671875
9948		-21.484375
9949		-13.671875
9950		-23.437500
9951		-15.625000
9952		-27.343750
9953		-19.531250
9954		-29.296875
9955		-21.484375
9956		-33.203125
9957		-23.437500
9958		-33.203125
9959		-25.390625
9960		-35.156250
9961		-31.250000
9962		-37.109375
9963		-33.203125
9964		-42.968750
9965		-33.203125
9966		-44.921875
9967		-37.109375
9968		-46.875000
9969		-39.062500
9970		-48.828125
9971		-41.015625
9972		-50.781250
9973		-42.968750
9974		-52.734375
9975		-46.875000
9976		-54.687500
9977		-48.828125
9978		-56.640625
9979		-52.734375
9980		-60.546875
9981		-52.734375
9982		-64.453125
9983		-54.687500
9984		-64.453125
9985		-56.640625
9986		-66.406250
9987		-58.593750
9988		-68.359375
9989		-60.546875
9990		-70.312500
9991		-64.453125
9992		-72.265625
9993		-64.453125
9994		-72.265625
9995		-68.359375
9996		-76.171875
9997		-70.312500
9998		-78.125000
9999		-70.312500
10000		-80.078125
