Channel              :		CH1
Frequency            :		1.061kHz
Period               :		0.942ms
PK-PK                :		212.9mV
Probe attenuation    :		1X
Voltage per ADC value:		0.122070mV
Time interval        :		2.00000us

index		CH1_Voltage(mV)
1		60.546875
2		60.546875
3		64.453125
4		56.640625
5		64.453125
6		54.687500
7		62.500000
8		52.734375
9		60.546875
10		50.781250
11		58.593750
12		48.828125
13		56.640625
14		44.921875
15		52.734375
16		44.921875
17		50.781250
18		42.968750
19		46.875000
20		39.062500
21		44.921875
22		37.109375
23		44.921875
24		33.203125
25		42.968750
26		31.250000
27		41.015625
28		29.296875
29		37.109375
30		25.390625
31		35.156250
32		25.390625
33		31.250000
34		23.437500
35		27.343750
36		21.484375
37		25.390625
38		15.625000
39		23.437500
40		13.671875
41		21.484375
42		11.718750
43		19.531250
44		9.765625
45		15.625000
46		5.859375
47		13.671875
48		1.953125
49		11.718750
50		1.953125
51		7.812500
52		0.000000
53		3.906250
54		-3.906250
55		1.953125
56		-7.812500
57		1.953125
58		-9.765625
59		-1.953125
60		-13.671875
61		-3.906250
62		-15.625000
63		-7.812500
64		-17.578125
65		-9.765625
66		-21.484375
67		-11.718750
68		-21.484375
69		-17.578125
70		-25.390625
71		-19.531250
72		-29.296875
73		-21.484375
74		-31.250000
75		-23.437500
76		-35.156250
77		-25.390625
78		-37.109375
79		-29.296875
80		-39.062500
81		-31.250000
82		-41.015625
83		-35.156250
84		-42.968750
85		-37.109375
86		-44.921875
87		-41.015625
88		-50.781250
89		-42.968750
90		-50.781250
91		-44.921875
92		-54.687500
93		-46.875000
94		-56.640625
95		-48.828125
96		-58.593750
97		-50.781250
98		-60.546875
99		-52.734375
100		-60.546875
101		-54.687500
102		-64.453125
103		-58.593750
104		-66.406250
105		-60.546875
106		-70.312500
107		-62.500000
108		-72.265625
109		-62.500000
110		-74.218750
111		-66.406250
112		-76.171875
113		-68.359375
114		-78.125000
115		-70.312500
116		-80.078125
117		-72.265625
118		-80.078125
119		-76.171875
120		-80.078125
121		-76.171875
122		-83.984375
123		-78.125000
124		-85.937500
125		-78.125000
126		-87.890625
127		-80.078125
128		-89.843750
129		-82.031250
130		-89.843750
131		-83.984375
132		-91.796875
133		-83.984375
134		-91.796875
135		-85.937500
136		-91.796875
137		-87.890625
138		-95.703125
139		-89.843750
140		-95.703125
141		-89.843750
142		-97.656250
143		-89.843750
144		-97.656250
145		-91.796875
146		-99.609375
147		-91.796875
148		-99.609375
149		-91.796875
150		-99.609375
151		-93.750000
152		-99.609375
153		-95.703125
154		-99.609375
155		-95.703125
156		-101.562500
157		-95.703125
158		-103.515625
159		-93.750000
160		-101.562500
161		-95.703125
162		-103.515625
163		-95.703125
164		-101.562500
165		-95.703125
166		-103.515625
167		-95.703125
168		-101.562500
169		-97.656250
170		-101.562500
171		-97.656250
172		-103.515625
173		-95.703125
174		-101.562500
175		-95.703125
176		-101.562500
177		-95.703125
178		-101.562500
179		-95.703125
180		-101.562500
181		-93.750000
182		-99.609375
183		-93.750000
184		-99.609375
185		-91.796875
186		-97.656250
187		-93.750000
188		-97.656250
189		-91.796875
190		-97.656250
191		-89.843750
192		-95.703125
193		-89.843750
194		-93.750000
195		-87.890625
196		-93.750000
197		-85.937500
198		-93.750000
199		-85.937500
200		-91.796875
201		-85.937500
202		-87.890625
203		-83.984375
204		-85.937500
205		-83.984375
206		-87.890625
207		-80.078125
208		-85.937500
209		-78.125000
210		-83.984375
211		-76.171875
212		-82.031250
213		-74.218750
214		-80.078125
215		-74.218750
216		-80.078125
217		-72.265625
218		-76.171875
219		-70.312500
220		-72.265625
221		-68.359375
222		-72.265625
223		-66.406250
224		-72.265625
225		-64.453125
226		-68.359375
227		-60.546875
228		-68.359375
229		-60.546875
230		-64.453125
231		-56.640625
232		-62.500000
233		-54.687500
234		-60.546875
235		-54.687500
236		-56.640625
237		-50.781250
238		-54.687500
239		-48.828125
240		-54.687500
241		-46.875000
242		-50.781250
243		-42.968750
244		-48.828125
245		-41.015625
246		-46.875000
247		-37.109375
248		-42.968750
249		-35.156250
250		-41.015625
251		-33.203125
252		-37.109375
253		-31.250000
254		-33.203125
255		-29.296875
256		-33.203125
257		-25.390625
258		-31.250000
259		-23.437500
260		-27.343750
261		-19.531250
262		-25.390625
263		-17.578125
264		-21.484375
265		-15.625000
266		-19.531250
267		-11.718750
268		-15.625000
269		-9.765625
270		-13.671875
271		-7.812500
272		-9.765625
273		-3.906250
274		-9.765625
275		-1.953125
276		-5.859375
277		1.953125
278		-3.906250
279		3.906250
280		0.000000
281		7.812500
282		0.000000
283		9.765625
284		3.906250
285		11.718750
286		7.812500
287		13.671875
288		11.718750
289		15.625000
290		11.718750
291		19.531250
292		15.625000
293		23.437500
294		17.578125
295		25.390625
296		19.531250
297		27.343750
298		21.484375
299		29.296875
300		23.437500
301		33.203125
302		27.343750
303		33.203125
304		31.250000
305		37.109375
306		33.203125
307		39.062500
308		35.156250
309		42.968750
310		37.109375
311		44.921875
312		39.062500
313		46.875000
314		41.015625
315		48.828125
316		42.968750
317		50.781250
318		44.921875
319		52.734375
320		50.781250
321		54.687500
322		52.734375
323		56.640625
324		52.734375
325		60.546875
326		54.687500
327		62.500000
328		56.640625
329		64.453125
330		58.593750
331		66.406250
332		60.546875
333		68.359375
334		62.500000
335		70.312500
336		64.453125
337		70.312500
338		68.359375
339		72.265625
340		68.359375
341		76.171875
342		68.359375
343		76.171875
344		72.265625
345		78.125000
346		72.265625
347		82.031250
348		74.218750
349		82.031250
350		76.171875
351		83.984375
352		78.125000
353		83.984375
354		80.078125
355		83.984375
356		82.031250
357		87.890625
358		82.031250
359		89.843750
360		82.031250
361		89.843750
362		83.984375
363		91.796875
364		85.937500
365		93.750000
366		85.937500
367		93.750000
368		87.890625
369		95.703125
370		89.843750
371		93.750000
372		91.796875
373		93.750000
374		89.843750
375		97.656250
376		91.796875
377		99.609375
378		91.796875
379		99.609375
380		91.796875
381		99.609375
382		93.750000
383		99.609375
384		93.750000
385		101.562500
386		93.750000
387		99.609375
388		95.703125
389		99.609375
390		93.750000
391		103.515625
392		95.703125
393		101.562500
394		95.703125
395		103.515625
396		95.703125
397		103.515625
398		95.703125
399		103.515625
400		95.703125
401		103.515625
402		95.703125
403		101.562500
404		97.656250
405		101.562500
406		97.656250
407		101.562500
408		95.703125
409		103.515625
410		95.703125
411		103.515625
412		95.703125
413		103.515625
414		95.703125
415		101.562500
416		93.750000
417		101.562500
418		93.750000
419		101.562500
420		95.703125
421		99.609375
422		95.703125
423		97.656250
424		91.796875
425		99.609375
426		91.796875
427		99.609375
428		89.843750
429		97.656250
430		89.843750
431		95.703125
432		89.843750
433		97.656250
434		87.890625
435		95.703125
436		87.890625
437		93.750000
438		87.890625
439		91.796875
440		85.937500
441		91.796875
442		83.984375
443		91.796875
444		82.031250
445		89.843750
446		82.031250
447		89.843750
448		80.078125
449		87.890625
450		78.125000
451		85.937500
452		78.125000
453		83.984375
454		78.125000
455		82.031250
456		76.171875
457		80.078125
458		72.265625
459		80.078125
460		70.312500
461		78.125000
462		68.359375
463		76.171875
464		66.406250
465		74.218750
466		66.406250
467		74.218750
468		64.453125
469		70.312500
470		64.453125
471		68.359375
472		60.546875
473		66.406250
474		56.640625
475		64.453125
476		56.640625
477		62.500000
478		52.734375
479		62.500000
480		52.734375
481		58.593750
482		48.828125
483		56.640625
484		46.875000
485		54.687500
486		44.921875
487		52.734375
488		44.921875
489		48.828125
490		42.968750
491		46.875000
492		39.062500
493		46.875000
494		35.156250
495		44.921875
496		33.203125
497		41.015625
498		31.250000
499		39.062500
500		27.343750
501		37.109375
502		25.390625
503		33.203125
504		25.390625
505		31.250000
506		21.484375
507		27.343750
508		17.578125
509		25.390625
510		15.625000
511		23.437500
512		13.671875
513		21.484375
514		9.765625
515		17.578125
516		7.812500
517		15.625000
518		5.859375
519		13.671875
520		3.906250
521		9.765625
522		1.953125
523		5.859375
524		-1.953125
525		3.906250
526		-5.859375
527		1.953125
528		-7.812500
529		0.000000
530		-11.718750
531		-1.953125
532		-13.671875
533		-3.906250
534		-15.625000
535		-7.812500
536		-19.531250
537		-11.718750
538		-19.531250
539		-15.625000
540		-21.484375
541		-17.578125
542		-25.390625
543		-19.531250
544		-29.296875
545		-21.484375
546		-33.203125
547		-23.437500
548		-35.156250
549		-27.343750
550		-37.109375
551		-29.296875
552		-39.062500
553		-33.203125
554		-41.015625
555		-35.156250
556		-42.968750
557		-39.062500
558		-46.875000
559		-41.015625
560		-48.828125
561		-42.968750
562		-52.734375
563		-44.921875
564		-54.687500
565		-46.875000
566		-56.640625
567		-48.828125
568		-60.546875
569		-52.734375
570		-60.546875
571		-54.687500
572		-62.500000
573		-58.593750
574		-64.453125
575		-60.546875
576		-66.406250
577		-60.546875
578		-70.312500
579		-62.500000
580		-72.265625
581		-64.453125
582		-74.218750
583		-66.406250
584		-76.171875
585		-68.359375
586		-78.125000
587		-70.312500
588		-78.125000
589		-72.265625
590		-80.078125
591		-76.171875
592		-83.984375
593		-76.171875
594		-85.937500
595		-78.125000
596		-85.937500
597		-78.125000
598		-87.890625
599		-80.078125
600		-89.843750
601		-82.031250
602		-91.796875
603		-82.031250
604		-91.796875
605		-83.984375
606		-91.796875
607		-87.890625
608		-93.750000
609		-89.843750
610		-95.703125
611		-87.890625
612		-97.656250
613		-89.843750
614		-97.656250
615		-89.843750
616		-97.656250
617		-91.796875
618		-99.609375
619		-91.796875
620		-99.609375
621		-93.750000
622		-97.656250
623		-95.703125
624		-99.609375
625		-95.703125
626		-101.562500
627		-95.703125
628		-101.562500
629		-95.703125
630		-103.515625
631		-95.703125
632		-103.515625
633		-95.703125
634		-103.515625
635		-95.703125
636		-103.515625
637		-95.703125
638		-103.515625
639		-95.703125
640		-101.562500
641		-97.656250
642		-101.562500
643		-95.703125
644		-101.562500
645		-95.703125
646		-101.562500
647		-95.703125
648		-101.562500
649		-93.750000
650		-101.562500
651		-93.750000
652		-99.609375
653		-93.750000
654		-99.609375
655		-93.750000
656		-97.656250
657		-93.750000
658		-95.703125
659		-93.750000
660		-97.656250
661		-89.843750
662		-97.656250
663		-89.843750
664		-95.703125
665		-89.843750
666		-93.750000
667		-87.890625
668		-93.750000
669		-85.937500
670		-91.796875
671		-85.937500
672		-89.843750
673		-85.937500
674		-87.890625
675		-83.984375
676		-87.890625
677		-80.078125
678		-85.937500
679		-80.078125
680		-85.937500
681		-78.125000
682		-83.984375
683		-76.171875
684		-82.031250
685		-74.218750
686		-82.031250
687		-74.218750
688		-78.125000
689		-72.265625
690		-74.218750
691		-70.312500
692		-72.265625
693		-68.359375
694		-74.218750
695		-64.453125
696		-70.312500
697		-62.500000
698		-68.359375
699		-60.546875
700		-66.406250
701		-58.593750
702		-64.453125
703		-56.640625
704		-62.500000
705		-54.687500
706		-58.593750
707		-52.734375
708		-56.640625
709		-50.781250
710		-54.687500
711		-46.875000
712		-52.734375
713		-44.921875
714		-48.828125
715		-42.968750
716		-46.875000
717		-41.015625
718		-44.921875
719		-37.109375
720		-42.968750
721		-35.156250
722		-41.015625
723		-33.203125
724		-35.156250
725		-31.250000
726		-33.203125
727		-27.343750
728		-33.203125
729		-25.390625
730		-31.250000
731		-23.437500
732		-27.343750
733		-19.531250
734		-25.390625
735		-15.625000
736		-21.484375
737		-13.671875
738		-19.531250
739		-11.718750
740		-15.625000
741		-9.765625
742		-11.718750
743		-7.812500
744		-9.765625
745		-3.906250
746		-9.765625
747		0.000000
748		-5.859375
749		1.953125
750		-3.906250
751		3.906250
752		0.000000
753		7.812500
754		1.953125
755		9.765625
756		5.859375
757		11.718750
758		9.765625
759		13.671875
760		11.718750
761		17.578125
762		11.718750
763		21.484375
764		15.625000
765		23.437500
766		17.578125
767		25.390625
768		21.484375
769		29.296875
770		21.484375
771		31.250000
772		25.390625
773		33.203125
774		29.296875
775		35.156250
776		31.250000
777		37.109375
778		33.203125
779		41.015625
780		35.156250
781		42.968750
782		37.109375
783		44.921875
784		39.062500
785		46.875000
786		41.015625
787		50.781250
788		44.921875
789		52.734375
790		48.828125
791		52.734375
792		50.781250
793		54.687500
794		52.734375
795		58.593750
796		52.734375
797		60.546875
798		56.640625
799		62.500000
800		56.640625
801		66.406250
802		58.593750
803		66.406250
804		60.546875
805		70.312500
806		64.453125
807		70.312500
808		66.406250
809		70.312500
810		68.359375
811		74.218750
812		68.359375
813		76.171875
814		70.312500
815		78.125000
816		72.265625
817		80.078125
818		74.218750
819		80.078125
820		74.218750
821		82.031250
822		74.218750
823		83.984375
824		80.078125
825		83.984375
826		82.031250
827		85.937500
828		80.078125
829		87.890625
830		82.031250
831		87.890625
832		83.984375
833		89.843750
834		83.984375
835		91.796875
836		85.937500
837		93.750000
838		85.937500
839		93.750000
840		87.890625
841		93.750000
842		89.843750
843		93.750000
844		89.843750
845		95.703125
846		89.843750
847		97.656250
848		91.796875
849		97.656250
850		91.796875
851		97.656250
852		93.750000
853		99.609375
854		93.750000
855		99.609375
856		93.750000
857		101.562500
858		95.703125
859		99.609375
860		95.703125
861		99.609375
862		95.703125
863		101.562500
864		95.703125
865		101.562500
866		95.703125
867		103.515625
868		95.703125
869		103.515625
870		95.703125
871		103.515625
872		95.703125
873		103.515625
874		97.656250
875		101.562500
876		97.656250
877		101.562500
878		95.703125
879		103.515625
880		95.703125
881		103.515625
882		95.703125
883		103.515625
884		95.703125
885		101.562500
886		95.703125
887		101.562500
888		95.703125
889		101.562500
890		95.703125
891		101.562500
892		95.703125
893		99.609375
894		93.750000
895		99.609375
896		91.796875
897		99.609375
898		91.796875
899		97.656250
900		91.796875
901		97.656250
902		89.843750
903		97.656250
904		89.843750
905		95.703125
906		87.890625
907		95.703125
908		89.843750
909		93.750000
910		87.890625
911		91.796875
912		85.937500
913		91.796875
914		83.984375
915		91.796875
916		82.031250
917		89.843750
918		82.031250
919		87.890625
920		80.078125
921		87.890625
922		80.078125
923		85.937500
924		78.125000
925		83.984375
926		78.125000
927		82.031250
928		74.218750
929		80.078125
930		72.265625
931		80.078125
932		70.312500
933		78.125000
934		68.359375
935		76.171875
936		66.406250
937		74.218750
938		66.406250
939		72.265625
940		64.453125
941		72.265625
942		64.453125
943		68.359375
944		62.500000
945		66.406250
946		58.593750
947		66.406250
948		54.687500
949		62.500000
950		52.734375
951		60.546875
952		50.781250
953		58.593750
954		48.828125
955		56.640625
956		46.875000
957		54.687500
958		46.875000
959		52.734375
960		44.921875
961		48.828125
962		39.062500
963		46.875000
964		37.109375
965		44.921875
966		35.156250
967		42.968750
968		33.203125
969		41.015625
970		29.296875
971		39.062500
972		27.343750
973		35.156250
974		27.343750
975		33.203125
976		25.390625
977		29.296875
978		19.531250
979		27.343750
980		17.578125
981		25.390625
982		15.625000
983		23.437500
984		13.671875
985		19.531250
986		9.765625
987		17.578125
988		7.812500
989		15.625000
990		3.906250
991		11.718750
992		3.906250
993		7.812500
994		1.953125
995		5.859375
996		-3.906250
997		3.906250
998		-5.859375
999		1.953125
1000		-7.812500
1001		0.000000
1002		-11.718750
1003		-3.906250
1004		-13.671875
1005		-7.812500
1006		-17.578125
1007		-9.765625
1008		-17.578125
1009		-11.718750
1010		-19.531250
1011		-15.625000
1012		-25.390625
1013		-17.578125
1014		-27.343750
1015		-19.531250
1016		-29.296875
1017		-21.484375
1018		-33.203125
1019		-25.390625
1020		-35.156250
1021		-27.343750
1022		-37.109375
1023		-29.296875
1024		-39.062500
1025		-33.203125
1026		-41.015625
1027		-37.109375
1028		-42.968750
1029		-39.062500
1030		-48.828125
1031		-39.062500
1032		-50.781250
1033		-42.968750
1034		-52.734375
1035		-44.921875
1036		-54.687500
1037		-46.875000
1038		-56.640625
1039		-48.828125
1040		-60.546875
1041		-52.734375
1042		-60.546875
1043		-54.687500
1044		-62.500000
1045		-58.593750
1046		-64.453125
1047		-60.546875
1048		-68.359375
1049		-60.546875
1050		-70.312500
1051		-62.500000
1052		-72.265625
1053		-64.453125
1054		-74.218750
1055		-66.406250
1056		-76.171875
1057		-68.359375
1058		-78.125000
1059		-70.312500
1060		-78.125000
1061		-74.218750
1062		-80.078125
1063		-76.171875
1064		-83.984375
1065		-76.171875
1066		-83.984375
1067		-78.125000
1068		-85.937500
1069		-80.078125
1070		-87.890625
1071		-80.078125
1072		-89.843750
1073		-82.031250
1074		-89.843750
1075		-83.984375
1076		-89.843750
1077		-85.937500
1078		-91.796875
1079		-87.890625
1080		-93.750000
1081		-85.937500
1082		-95.703125
1083		-87.890625
1084		-95.703125
1085		-89.843750
1086		-97.656250
1087		-89.843750
1088		-99.609375
1089		-91.796875
1090		-99.609375
1091		-91.796875
1092		-99.609375
1093		-91.796875
1094		-99.609375
1095		-95.703125
1096		-99.609375
1097		-93.750000
1098		-101.562500
1099		-93.750000
1100		-101.562500
1101		-93.750000
1102		-101.562500
1103		-95.703125
1104		-101.562500
1105		-95.703125
1106		-103.515625
1107		-95.703125
1108		-103.515625
1109		-95.703125
1110		-101.562500
1111		-97.656250
1112		-99.609375
1113		-97.656250
1114		-103.515625
1115		-95.703125
1116		-103.515625
1117		-95.703125
1118		-101.562500
1119		-95.703125
1120		-101.562500
1121		-95.703125
1122		-101.562500
1123		-93.750000
1124		-101.562500
1125		-95.703125
1126		-101.562500
1127		-95.703125
1128		-97.656250
1129		-95.703125
1130		-99.609375
1131		-91.796875
1132		-97.656250
1133		-91.796875
1134		-97.656250
1135		-89.843750
1136		-97.656250
1137		-89.843750
1138		-95.703125
1139		-89.843750
1140		-95.703125
1141		-87.890625
1142		-93.750000
1143		-85.937500
1144		-89.843750
1145		-87.890625
1146		-89.843750
1147		-85.937500
1148		-89.843750
1149		-82.031250
1150		-87.890625
1151		-82.031250
1152		-87.890625
1153		-80.078125
1154		-83.984375
1155		-78.125000
1156		-83.984375
1157		-76.171875
1158		-82.031250
1159		-74.218750
1160		-78.125000
1161		-74.218750
1162		-76.171875
1163		-72.265625
1164		-74.218750
1165		-68.359375
1166		-74.218750
1167		-66.406250
1168		-72.265625
1169		-64.453125
1170		-70.312500
1171		-62.500000
1172		-68.359375
1173		-60.546875
1174		-66.406250
1175		-58.593750
1176		-64.453125
1177		-56.640625
1178		-58.593750
1179		-54.687500
1180		-56.640625
1181		-50.781250
1182		-56.640625
1183		-48.828125
1184		-54.687500
1185		-46.875000
1186		-52.734375
1187		-44.921875
1188		-50.781250
1189		-41.015625
1190		-46.875000
1191		-39.062500
1192		-44.921875
1193		-37.109375
1194		-39.062500
1195		-35.156250
1196		-37.109375
1197		-33.203125
1198		-35.156250
1199		-27.343750
1200		-35.156250
1201		-25.390625
1202		-31.250000
1203		-23.437500
1204		-27.343750
1205		-19.531250
1206		-25.390625
1207		-17.578125
1208		-23.437500
1209		-15.625000
1210		-21.484375
1211		-13.671875
1212		-15.625000
1213		-11.718750
1214		-13.671875
1215		-5.859375
1216		-11.718750
1217		-3.906250
1218		-9.765625
1219		-1.953125
1220		-7.812500
1221		1.953125
1222		-3.906250
1223		3.906250
1224		-1.953125
1225		7.812500
1226		1.953125
1227		7.812500
1228		5.859375
1229		9.765625
1230		7.812500
1231		13.671875
1232		9.765625
1233		17.578125
1234		11.718750
1235		19.531250
1236		15.625000
1237		21.484375
1238		17.578125
1239		23.437500
1240		19.531250
1241		27.343750
1242		21.484375
1243		29.296875
1244		25.390625
1245		31.250000
1246		27.343750
1247		33.203125
1248		31.250000
1249		37.109375
1250		31.250000
1251		39.062500
1252		33.203125
1253		42.968750
1254		37.109375
1255		42.968750
1256		39.062500
1257		46.875000
1258		41.015625
1259		48.828125
1260		42.968750
1261		48.828125
1262		46.875000
1263		52.734375
1264		48.828125
1265		56.640625
1266		48.828125
1267		56.640625
1268		50.781250
1269		60.546875
1270		54.687500
1271		60.546875
1272		54.687500
1273		64.453125
1274		58.593750
1275		64.453125
1276		58.593750
1277		66.406250
1278		64.453125
1279		68.359375
1280		66.406250
1281		70.312500
1282		66.406250
1283		74.218750
1284		66.406250
1285		74.218750
1286		70.312500
1287		76.171875
1288		70.312500
1289		78.125000
1290		72.265625
1291		80.078125
1292		74.218750
1293		82.031250
1294		76.171875
1295		82.031250
1296		78.125000
1297		82.031250
1298		78.125000
1299		85.937500
1300		78.125000
1301		87.890625
1302		82.031250
1303		87.890625
1304		82.031250
1305		87.890625
1306		82.031250
1307		89.843750
1308		83.984375
1309		91.796875
1310		83.984375
1311		91.796875
1312		87.890625
1313		91.796875
1314		89.843750
1315		93.750000
1316		87.890625
1317		95.703125
1318		87.890625
1319		95.703125
1320		89.843750
1321		97.656250
1322		89.843750
1323		97.656250
1324		91.796875
1325		97.656250
1326		91.796875
1327		99.609375
1328		93.750000
1329		97.656250
1330		95.703125
1331		97.656250
1332		93.750000
1333		99.609375
1334		93.750000
1335		101.562500
1336		93.750000
1337		101.562500
1338		93.750000
1339		99.609375
1340		93.750000
1341		101.562500
1342		93.750000
1343		101.562500
1344		93.750000
1345		101.562500
1346		95.703125
1347		99.609375
1348		95.703125
1349		99.609375
1350		93.750000
1351		101.562500
1352		93.750000
1353		101.562500
1354		93.750000
1355		99.609375
1356		93.750000
1357		99.609375
1358		93.750000
1359		99.609375
1360		91.796875
1361		99.609375
1362		93.750000
1363		97.656250
1364		93.750000
1365		97.656250
1366		91.796875
1367		97.656250
1368		89.843750
1369		97.656250
1370		89.843750
1371		95.703125
1372		89.843750
1373		95.703125
1374		87.890625
1375		93.750000
1376		85.937500
1377		93.750000
1378		87.890625
1379		91.796875
1380		87.890625
1381		89.843750
1382		83.984375
1383		89.843750
1384		82.031250
1385		89.843750
1386		82.031250
1387		87.890625
1388		80.078125
1389		87.890625
1390		78.125000
1391		85.937500
1392		78.125000
1393		83.984375
1394		76.171875
1395		83.984375
1396		76.171875
1397		80.078125
1398		74.218750
1399		80.078125
1400		70.312500
1401		78.125000
1402		70.312500
1403		78.125000
1404		68.359375
1405		76.171875
1406		66.406250
1407		74.218750
1408		66.406250
1409		72.265625
1410		62.500000
1411		70.312500
1412		62.500000
1413		66.406250
1414		60.546875
1415		64.453125
1416		56.640625
1417		64.453125
1418		54.687500
1419		62.500000
1420		52.734375
1421		60.546875
1422		48.828125
1423		58.593750
1424		48.828125
1425		54.687500
1426		46.875000
1427		54.687500
1428		44.921875
1429		50.781250
1430		42.968750
1431		46.875000
1432		41.015625
1433		44.921875
1434		37.109375
1435		46.875000
1436		35.156250
1437		42.968750
1438		33.203125
1439		41.015625
1440		29.296875
1441		39.062500
1442		27.343750
1443		35.156250
1444		25.390625
1445		33.203125
1446		23.437500
1447		29.296875
1448		21.484375
1449		25.390625
1450		17.578125
1451		23.437500
1452		15.625000
1453		21.484375
1454		11.718750
1455		19.531250
1456		9.765625
1457		17.578125
1458		5.859375
1459		13.671875
1460		3.906250
1461		11.718750
1462		3.906250
1463		9.765625
1464		0.000000
1465		5.859375
1466		-3.906250
1467		1.953125
1468		-7.812500
1469		1.953125
1470		-9.765625
1471		-1.953125
1472		-11.718750
1473		-3.906250
1474		-15.625000
1475		-5.859375
1476		-17.578125
1477		-9.765625
1478		-19.531250
1479		-11.718750
1480		-21.484375
1481		-15.625000
1482		-23.437500
1483		-19.531250
1484		-27.343750
1485		-19.531250
1486		-31.250000
1487		-23.437500
1488		-33.203125
1489		-25.390625
1490		-35.156250
1491		-29.296875
1492		-39.062500
1493		-31.250000
1494		-41.015625
1495		-33.203125
1496		-41.015625
1497		-37.109375
1498		-44.921875
1499		-39.062500
1500		-48.828125
1501		-41.015625
1502		-50.781250
1503		-42.968750
1504		-52.734375
1505		-44.921875
1506		-56.640625
1507		-46.875000
1508		-58.593750
1509		-48.828125
1510		-60.546875
1511		-52.734375
1512		-60.546875
1513		-54.687500
1514		-62.500000
1515		-58.593750
1516		-66.406250
1517		-60.546875
1518		-70.312500
1519		-62.500000
1520		-72.265625
1521		-64.453125
1522		-74.218750
1523		-66.406250
1524		-76.171875
1525		-68.359375
1526		-76.171875
1527		-70.312500
1528		-80.078125
1529		-72.265625
1530		-78.125000
1531		-74.218750
1532		-82.031250
1533		-76.171875
1534		-83.984375
1535		-78.125000
1536		-85.937500
1537		-78.125000
1538		-87.890625
1539		-80.078125
1540		-89.843750
1541		-82.031250
1542		-89.843750
1543		-83.984375
1544		-91.796875
1545		-83.984375
1546		-91.796875
1547		-85.937500
1548		-91.796875
1549		-89.843750
1550		-95.703125
1551		-87.890625
1552		-97.656250
1553		-89.843750
1554		-97.656250
1555		-89.843750
1556		-99.609375
1557		-91.796875
1558		-99.609375
1559		-91.796875
1560		-101.562500
1561		-93.750000
1562		-101.562500
1563		-93.750000
1564		-99.609375
1565		-97.656250
1566		-101.562500
1567		-97.656250
1568		-103.515625
1569		-95.703125
1570		-105.468750
1571		-95.703125
1572		-103.515625
1573		-97.656250
1574		-105.468750
1575		-97.656250
1576		-105.468750
1577		-97.656250
1578		-105.468750
1579		-97.656250
1580		-103.515625
1581		-99.609375
1582		-101.562500
1583		-99.609375
1584		-103.515625
1585		-97.656250
1586		-103.515625
1587		-97.656250
1588		-103.515625
1589		-97.656250
1590		-103.515625
1591		-97.656250
1592		-103.515625
1593		-97.656250
1594		-103.515625
1595		-97.656250
1596		-101.562500
1597		-97.656250
1598		-99.609375
1599		-95.703125
1600		-99.609375
1601		-95.703125
1602		-101.562500
1603		-93.750000
1604		-99.609375
1605		-91.796875
1606		-97.656250
1607		-91.796875
1608		-97.656250
1609		-91.796875
1610		-97.656250
1611		-89.843750
1612		-95.703125
1613		-87.890625
1614		-91.796875
1615		-87.890625
1616		-91.796875
1617		-85.937500
1618		-89.843750
1619		-83.984375
1620		-89.843750
1621		-82.031250
1622		-87.890625
1623		-82.031250
1624		-87.890625
1625		-78.125000
1626		-85.937500
1627		-78.125000
1628		-83.984375
1629		-76.171875
1630		-82.031250
1631		-76.171875
1632		-78.125000
1633		-74.218750
1634		-76.171875
1635		-70.312500
1636		-76.171875
1637		-68.359375
1638		-74.218750
1639		-66.406250
1640		-72.265625
1641		-64.453125
1642		-70.312500
1643		-62.500000
1644		-68.359375
1645		-60.546875
1646		-64.453125
1647		-58.593750
1648		-62.500000
1649		-56.640625
1650		-58.593750
1651		-54.687500
1652		-58.593750
1653		-50.781250
1654		-54.687500
1655		-48.828125
1656		-54.687500
1657		-46.875000
1658		-50.781250
1659		-42.968750
1660		-48.828125
1661		-41.015625
1662		-46.875000
1663		-37.109375
1664		-42.968750
1665		-37.109375
1666		-39.062500
1667		-35.156250
1668		-37.109375
1669		-31.250000
1670		-35.156250
1671		-27.343750
1672		-33.203125
1673		-25.390625
1674		-31.250000
1675		-23.437500
1676		-29.296875
1677		-19.531250
1678		-25.390625
1679		-17.578125
1680		-23.437500
1681		-15.625000
1682		-17.578125
1683		-13.671875
1684		-15.625000
1685		-9.765625
1686		-13.671875
1687		-5.859375
1688		-11.718750
1689		-3.906250
1690		-9.765625
1691		-1.953125
1692		-5.859375
1693		1.953125
1694		-3.906250
1695		3.906250
1696		-1.953125
1697		7.812500
1698		3.906250
1699		7.812500
1700		5.859375
1701		9.765625
1702		7.812500
1703		15.625000
1704		9.765625
1705		17.578125
1706		11.718750
1707		19.531250
1708		15.625000
1709		23.437500
1710		17.578125
1711		25.390625
1712		19.531250
1713		27.343750
1714		21.484375
1715		29.296875
1716		27.343750
1717		31.250000
1718		29.296875
1719		35.156250
1720		29.296875
1721		39.062500
1722		31.250000
1723		41.015625
1724		35.156250
1725		41.015625
1726		37.109375
1727		44.921875
1728		39.062500
1729		46.875000
1730		41.015625
1731		48.828125
1732		44.921875
1733		50.781250
1734		46.875000
1735		52.734375
1736		48.828125
1737		56.640625
1738		50.781250
1739		58.593750
1740		52.734375
1741		60.546875
1742		54.687500
1743		62.500000
1744		56.640625
1745		64.453125
1746		58.593750
1747		66.406250
1748		60.546875
1749		66.406250
1750		64.453125
1751		68.359375
1752		66.406250
1753		72.265625
1754		66.406250
1755		74.218750
1756		68.359375
1757		74.218750
1758		68.359375
1759		78.125000
1760		70.312500
1761		78.125000
1762		74.218750
1763		80.078125
1764		74.218750
1765		80.078125
1766		78.125000
1767		82.031250
1768		80.078125
1769		83.984375
1770		78.125000
1771		85.937500
1772		80.078125
1773		85.937500
1774		80.078125
1775		87.890625
1776		82.031250
1777		89.843750
1778		83.984375
1779		91.796875
1780		83.984375
1781		91.796875
1782		87.890625
1783		91.796875
1784		87.890625
1785		91.796875
1786		87.890625
1787		95.703125
1788		87.890625
1789		95.703125
1790		89.843750
1791		95.703125
1792		89.843750
1793		97.656250
1794		89.843750
1795		97.656250
1796		91.796875
1797		99.609375
1798		91.796875
1799		99.609375
1800		93.750000
1801		97.656250
1802		93.750000
1803		99.609375
1804		93.750000
1805		99.609375
1806		93.750000
1807		101.562500
1808		93.750000
1809		101.562500
1810		95.703125
1811		101.562500
1812		93.750000
1813		101.562500
1814		93.750000
1815		101.562500
1816		97.656250
1817		99.609375
1818		97.656250
1819		99.609375
1820		93.750000
1821		101.562500
1822		93.750000
1823		101.562500
1824		93.750000
1825		101.562500
1826		93.750000
1827		101.562500
1828		93.750000
1829		99.609375
1830		93.750000
1831		99.609375
1832		93.750000
1833		99.609375
1834		95.703125
1835		97.656250
1836		93.750000
1837		99.609375
1838		91.796875
1839		97.656250
1840		89.843750
1841		97.656250
1842		89.843750
1843		95.703125
1844		89.843750
1845		95.703125
1846		87.890625
1847		95.703125
1848		87.890625
1849		93.750000
1850		87.890625
1851		91.796875
1852		87.890625
1853		91.796875
1854		83.984375
1855		91.796875
1856		83.984375
1857		89.843750
1858		82.031250
1859		87.890625
1860		80.078125
1861		87.890625
1862		78.125000
1863		85.937500
1864		78.125000
1865		85.937500
1866		78.125000
1867		82.031250
1868		76.171875
1869		80.078125
1870		74.218750
1871		80.078125
1872		72.265625
1873		80.078125
1874		70.312500
1875		78.125000
1876		68.359375
1877		76.171875
1878		66.406250
1879		74.218750
1880		64.453125
1881		72.265625
1882		64.453125
1883		70.312500
1884		62.500000
1885		66.406250
1886		60.546875
1887		64.453125
1888		56.640625
1889		64.453125
1890		54.687500
1891		62.500000
1892		52.734375
1893		60.546875
1894		50.781250
1895		58.593750
1896		48.828125
1897		56.640625
1898		46.875000
1899		54.687500
1900		46.875000
1901		50.781250
1902		42.968750
1903		48.828125
1904		39.062500
1905		46.875000
1906		37.109375
1907		44.921875
1908		35.156250
1909		42.968750
1910		33.203125
1911		41.015625
1912		29.296875
1913		37.109375
1914		27.343750
1915		35.156250
1916		25.390625
1917		33.203125
1918		25.390625
1919		29.296875
1920		19.531250
1921		27.343750
1922		17.578125
1923		25.390625
1924		13.671875
1925		23.437500
1926		11.718750
1927		19.531250
1928		9.765625
1929		17.578125
1930		7.812500
1931		13.671875
1932		3.906250
1933		13.671875
1934		3.906250
1935		7.812500
1936		0.000000
1937		5.859375
1938		-3.906250
1939		3.906250
1940		-5.859375
1941		1.953125
1942		-9.765625
1943		0.000000
1944		-11.718750
1945		-3.906250
1946		-13.671875
1947		-5.859375
1948		-15.625000
1949		-9.765625
1950		-17.578125
1951		-13.671875
1952		-21.484375
1953		-15.625000
1954		-25.390625
1955		-17.578125
1956		-27.343750
1957		-19.531250
1958		-31.250000
1959		-21.484375
1960		-33.203125
1961		-25.390625
1962		-35.156250
1963		-27.343750
1964		-39.062500
1965		-29.296875
1966		-39.062500
1967		-33.203125
1968		-41.015625
1969		-37.109375
1970		-44.921875
1971		-39.062500
1972		-48.828125
1973		-39.062500
1974		-50.781250
1975		-42.968750
1976		-52.734375
1977		-44.921875
1978		-54.687500
1979		-46.875000
1980		-58.593750
1981		-50.781250
1982		-58.593750
1983		-52.734375
1984		-60.546875
1985		-56.640625
1986		-62.500000
1987		-58.593750
1988		-66.406250
1989		-60.546875
1990		-68.359375
1991		-62.500000
1992		-70.312500
1993		-62.500000
1994		-72.265625
1995		-66.406250
1996		-76.171875
1997		-68.359375
1998		-76.171875
1999		-68.359375
2000		-78.125000
2001		-70.312500
2002		-78.125000
2003		-74.218750
2004		-82.031250
2005		-76.171875
2006		-83.984375
2007		-76.171875
2008		-85.937500
2009		-76.171875
2010		-87.890625
2011		-80.078125
2012		-89.843750
2013		-82.031250
2014		-89.843750
2015		-82.031250
2016		-89.843750
2017		-83.984375
2018		-89.843750
2019		-87.890625
2020		-91.796875
2021		-87.890625
2022		-93.750000
2023		-87.890625
2024		-95.703125
2025		-87.890625
2026		-97.656250
2027		-89.843750
2028		-97.656250
2029		-91.796875
2030		-99.609375
2031		-91.796875
2032		-99.609375
2033		-93.750000
2034		-97.656250
2035		-95.703125
2036		-99.609375
2037		-95.703125
2038		-101.562500
2039		-95.703125
2040		-103.515625
2041		-95.703125
2042		-103.515625
2043		-97.656250
2044		-103.515625
2045		-95.703125
2046		-103.515625
2047		-95.703125
2048		-103.515625
2049		-95.703125
2050		-103.515625
2051		-97.656250
2052		-101.562500
2053		-99.609375
2054		-101.562500
2055		-97.656250
2056		-103.515625
2057		-97.656250
2058		-103.515625
2059		-97.656250
2060		-103.515625
2061		-95.703125
2062		-103.515625
2063		-95.703125
2064		-103.515625
2065		-95.703125
2066		-103.515625
2067		-95.703125
2068		-99.609375
2069		-97.656250
2070		-99.609375
2071		-95.703125
2072		-99.609375
2073		-93.750000
2074		-99.609375
2075		-91.796875
2076		-97.656250
2077		-91.796875
2078		-97.656250
2079		-89.843750
2080		-95.703125
2081		-87.890625
2082		-95.703125
2083		-87.890625
2084		-93.750000
2085		-87.890625
2086		-91.796875
2087		-87.890625
2088		-89.843750
2089		-83.984375
2090		-89.843750
2091		-83.984375
2092		-87.890625
2093		-82.031250
2094		-87.890625
2095		-80.078125
2096		-85.937500
2097		-78.125000
2098		-83.984375
2099		-76.171875
2100		-82.031250
2101		-76.171875
2102		-78.125000
2103		-74.218750
2104		-76.171875
2105		-72.265625
2106		-76.171875
2107		-68.359375
2108		-74.218750
2109		-66.406250
2110		-72.265625
2111		-64.453125
2112		-72.265625
2113		-62.500000
2114		-68.359375
2115		-60.546875
2116		-66.406250
2117		-58.593750
2118		-64.453125
2119		-58.593750
2120		-60.546875
2121		-54.687500
2122		-58.593750
2123		-50.781250
2124		-56.640625
2125		-48.828125
2126		-54.687500
2127		-46.875000
2128		-52.734375
2129		-44.921875
2130		-50.781250
2131		-42.968750
2132		-46.875000
2133		-41.015625
2134		-44.921875
2135		-39.062500
2136		-41.015625
2137		-35.156250
2138		-39.062500
2139		-33.203125
2140		-37.109375
2141		-29.296875
2142		-35.156250
2143		-25.390625
2144		-33.203125
2145		-23.437500
2146		-29.296875
2147		-21.484375
2148		-25.390625
2149		-19.531250
2150		-23.437500
2151		-15.625000
2152		-19.531250
2153		-15.625000
2154		-17.578125
2155		-11.718750
2156		-15.625000
2157		-7.812500
2158		-13.671875
2159		-5.859375
2160		-11.718750
2161		-3.906250
2162		-7.812500
2163		0.000000
2164		-3.906250
2165		1.953125
2166		-3.906250
2167		5.859375
2168		0.000000
2169		5.859375
2170		3.906250
2171		9.765625
2172		7.812500
2173		13.671875
2174		7.812500
2175		17.578125
2176		9.765625
2177		19.531250
2178		13.671875
2179		21.484375
2180		15.625000
2181		23.437500
2182		17.578125
2183		25.390625
2184		21.484375
2185		27.343750
2186		25.390625
2187		29.296875
2188		27.343750
2189		33.203125
2190		29.296875
2191		37.109375
2192		31.250000
2193		39.062500
2194		33.203125
2195		41.015625
2196		35.156250
2197		42.968750
2198		39.062500
2199		44.921875
2200		39.062500
2201		48.828125
2202		42.968750
2203		48.828125
2204		46.875000
2205		50.781250
2206		48.828125
2207		54.687500
2208		48.828125
2209		56.640625
2210		52.734375
2211		58.593750
2212		52.734375
2213		60.546875
2214		56.640625
2215		62.500000
2216		56.640625
2217		64.453125
2218		60.546875
2219		66.406250
2220		64.453125
2221		68.359375
2222		64.453125
2223		70.312500
2224		66.406250
2225		74.218750
2226		66.406250
2227		74.218750
2228		68.359375
2229		76.171875
2230		70.312500
2231		78.125000
2232		72.265625
2233		78.125000
2234		74.218750
2235		82.031250
2236		76.171875
2237		80.078125
2238		78.125000
2239		82.031250
2240		78.125000
2241		85.937500
2242		80.078125
2243		85.937500
2244		80.078125
2245		87.890625
2246		82.031250
2247		89.843750
2248		83.984375
2249		89.843750
2250		83.984375
2251		91.796875
2252		85.937500
2253		91.796875
2254		87.890625
2255		91.796875
2256		87.890625
2257		93.750000
2258		89.843750
2259		95.703125
2260		89.843750
2261		95.703125
2262		89.843750
2263		97.656250
2264		89.843750
2265		97.656250
2266		91.796875
2267		99.609375
2268		91.796875
2269		99.609375
2270		93.750000
2271		99.609375
2272		95.703125
2273		99.609375
2274		93.750000
2275		101.562500
2276		93.750000
2277		101.562500
2278		95.703125
2279		101.562500
2280		95.703125
2281		101.562500
2282		93.750000
2283		103.515625
2284		95.703125
2285		101.562500
2286		97.656250
2287		99.609375
2288		97.656250
2289		99.609375
2290		95.703125
2291		101.562500
2292		95.703125
2293		101.562500
2294		93.750000
2295		101.562500
2296		95.703125
2297		101.562500
2298		93.750000
2299		101.562500
2300		93.750000
2301		101.562500
2302		93.750000
2303		99.609375
2304		95.703125
2305		97.656250
2306		93.750000
2307		97.656250
2308		91.796875
2309		99.609375
2310		91.796875
2311		97.656250
2312		91.796875
2313		99.609375
2314		89.843750
2315		97.656250
2316		89.843750
2317		95.703125
2318		87.890625
2319		95.703125
2320		89.843750
2321		93.750000
2322		87.890625
2323		91.796875
2324		85.937500
2325		91.796875
2326		85.937500
2327		91.796875
2328		83.984375
2329		91.796875
2330		82.031250
2331		89.843750
2332		82.031250
2333		87.890625
2334		80.078125
2335		85.937500
2336		80.078125
2337		83.984375
2338		78.125000
2339		82.031250
2340		76.171875
2341		80.078125
2342		74.218750
2343		80.078125
2344		72.265625
2345		80.078125
2346		70.312500
2347		76.171875
2348		68.359375
2349		76.171875
2350		66.406250
2351		72.265625
2352		66.406250
2353		72.265625
2354		64.453125
2355		68.359375
2356		62.500000
2357		66.406250
2358		60.546875
2359		66.406250
2360		56.640625
2361		64.453125
2362		56.640625
2363		60.546875
2364		52.734375
2365		60.546875
2366		50.781250
2367		58.593750
2368		48.828125
2369		56.640625
2370		46.875000
2371		52.734375
2372		44.921875
2373		50.781250
2374		42.968750
2375		48.828125
2376		41.015625
2377		46.875000
2378		39.062500
2379		42.968750
2380		35.156250
2381		41.015625
2382		33.203125
2383		41.015625
2384		31.250000
2385		37.109375
2386		29.296875
2387		35.156250
2388		25.390625
2389		31.250000
2390		23.437500
2391		29.296875
2392		21.484375
2393		25.390625
2394		19.531250
2395		23.437500
2396		15.625000
2397		21.484375
2398		11.718750
2399		17.578125
2400		9.765625
2401		15.625000
2402		7.812500
2403		15.625000
2404		5.859375
2405		9.765625
2406		1.953125
2407		7.812500
2408		0.000000
2409		5.859375
2410		-1.953125
2411		3.906250
2412		-5.859375
2413		0.000000
2414		-9.765625
2415		-1.953125
2416		-9.765625
2417		-3.906250
2418		-15.625000
2419		-7.812500
2420		-15.625000
2421		-11.718750
2422		-19.531250
2423		-13.671875
2424		-21.484375
2425		-15.625000
2426		-23.437500
2427		-19.531250
2428		-27.343750
2429		-21.484375
2430		-29.296875
2431		-23.437500
2432		-31.250000
2433		-27.343750
2434		-33.203125
2435		-29.296875
2436		-37.109375
2437		-31.250000
2438		-39.062500
2439		-35.156250
2440		-42.968750
2441		-37.109375
2442		-44.921875
2443		-39.062500
2444		-46.875000
2445		-42.968750
2446		-48.828125
2447		-44.921875
2448		-50.781250
2449		-46.875000
2450		-54.687500
2451		-48.828125
2452		-56.640625
2453		-50.781250
2454		-58.593750
2455		-52.734375
2456		-60.546875
2457		-56.640625
2458		-62.500000
2459		-58.593750
2460		-64.453125
2461		-60.546875
2462		-66.406250
2463		-62.500000
2464		-70.312500
2465		-64.453125
2466		-72.265625
2467		-66.406250
2468		-72.265625
2469		-68.359375
2470		-76.171875
2471		-70.312500
2472		-78.125000
2473		-72.265625
2474		-78.125000
2475		-74.218750
2476		-80.078125
2477		-76.171875
2478		-82.031250
2479		-78.125000
2480		-83.984375
2481		-80.078125
2482		-85.937500
2483		-82.031250
2484		-87.890625
2485		-83.984375
2486		-89.843750
2487		-83.984375
2488		-89.843750
2489		-85.937500
2490		-91.796875
2491		-87.890625
2492		-93.750000
2493		-87.890625
2494		-93.750000
2495		-89.843750
2496		-95.703125
2497		-91.796875
2498		-95.703125
2499		-91.796875
2500		-95.703125
2501		-91.796875
2502		-97.656250
2503		-93.750000
2504		-97.656250
2505		-93.750000
2506		-99.609375
2507		-95.703125
2508		-99.609375
2509		-95.703125
2510		-99.609375
2511		-95.703125
2512		-101.562500
2513		-97.656250
2514		-101.562500
2515		-97.656250
2516		-101.562500
2517		-97.656250
2518		-101.562500
2519		-97.656250
2520		-101.562500
2521		-97.656250
2522		-101.562500
2523		-99.609375
2524		-101.562500
2525		-97.656250
2526		-101.562500
2527		-97.656250
2528		-101.562500
2529		-97.656250
2530		-101.562500
2531		-97.656250
2532		-101.562500
2533		-97.656250
2534		-101.562500
2535		-97.656250
2536		-101.562500
2537		-95.703125
2538		-101.562500
2539		-95.703125
2540		-99.609375
2541		-95.703125
2542		-97.656250
2543		-93.750000
2544		-99.609375
2545		-93.750000
2546		-97.656250
2547		-93.750000
2548		-95.703125
2549		-91.796875
2550		-95.703125
2551		-91.796875
2552		-93.750000
2553		-89.843750
2554		-93.750000
2555		-89.843750
2556		-91.796875
2557		-87.890625
2558		-89.843750
2559		-85.937500
2560		-89.843750
2561		-85.937500
2562		-87.890625
2563		-83.984375
2564		-85.937500
2565		-82.031250
2566		-83.984375
2567		-80.078125
2568		-83.984375
2569		-78.125000
2570		-82.031250
2571		-76.171875
2572		-80.078125
2573		-76.171875
2574		-78.125000
2575		-74.218750
2576		-76.171875
2577		-72.265625
2578		-74.218750
2579		-70.312500
2580		-72.265625
2581		-68.359375
2582		-70.312500
2583		-66.406250
2584		-68.359375
2585		-62.500000
2586		-66.406250
2587		-62.500000
2588		-64.453125
2589		-58.593750
2590		-60.546875
2591		-56.640625
2592		-58.593750
2593		-52.734375
2594		-56.640625
2595		-52.734375
2596		-54.687500
2597		-50.781250
2598		-52.734375
2599		-46.875000
2600		-50.781250
2601		-44.921875
2602		-46.875000
2603		-42.968750
2604		-44.921875
2605		-41.015625
2606		-42.968750
2607		-37.109375
2608		-39.062500
2609		-35.156250
2610		-37.109375
2611		-31.250000
2612		-35.156250
2613		-29.296875
2614		-31.250000
2615		-27.343750
2616		-29.296875
2617		-23.437500
2618		-27.343750
2619		-21.484375
2620		-23.437500
2621		-17.578125
2622		-23.437500
2623		-15.625000
2624		-17.578125
2625		-13.671875
2626		-15.625000
2627		-11.718750
2628		-13.671875
2629		-7.812500
2630		-11.718750
2631		-5.859375
2632		-7.812500
2633		-1.953125
2634		-5.859375
2635		0.000000
2636		-1.953125
2637		1.953125
2638		0.000000
2639		3.906250
2640		1.953125
2641		7.812500
2642		5.859375
2643		9.765625
2644		5.859375
2645		13.671875
2646		11.718750
2647		15.625000
2648		13.671875
2649		17.578125
2650		15.625000
2651		21.484375
2652		17.578125
2653		23.437500
2654		21.484375
2655		27.343750
2656		23.437500
2657		29.296875
2658		25.390625
2659		31.250000
2660		29.296875
2661		33.203125
2662		31.250000
2663		35.156250
2664		33.203125
2665		39.062500
2666		37.109375
2667		41.015625
2668		39.062500
2669		42.968750
2670		41.015625
2671		44.921875
2672		42.968750
2673		46.875000
2674		44.921875
2675		50.781250
2676		46.875000
2677		52.734375
2678		48.828125
2679		54.687500
2680		52.734375
2681		56.640625
2682		52.734375
2683		58.593750
2684		56.640625
2685		60.546875
2686		58.593750
2687		62.500000
2688		60.546875
2689		64.453125
2690		62.500000
2691		66.406250
2692		64.453125
2693		68.359375
2694		64.453125
2695		70.312500
2696		66.406250
2697		72.265625
2698		68.359375
2699		74.218750
2700		72.265625
2701		76.171875
2702		72.265625
2703		76.171875
2704		74.218750
2705		78.125000
2706		76.171875
2707		80.078125
2708		78.125000
2709		82.031250
2710		78.125000
2711		82.031250
2712		80.078125
2713		83.984375
2714		82.031250
2715		85.937500
2716		83.984375
2717		87.890625
2718		83.984375
2719		87.890625
2720		85.937500
2721		89.843750
2722		85.937500
2723		89.843750
2724		87.890625
2725		91.796875
2726		87.890625
2727		91.796875
2728		89.843750
2729		93.750000
2730		89.843750
2731		93.750000
2732		91.796875
2733		95.703125
2734		91.796875
2735		95.703125
2736		93.750000
2737		97.656250
2738		93.750000
2739		97.656250
2740		93.750000
2741		97.656250
2742		95.703125
2743		97.656250
2744		95.703125
2745		99.609375
2746		95.703125
2747		99.609375
2748		95.703125
2749		99.609375
2750		97.656250
2751		99.609375
2752		95.703125
2753		99.609375
2754		97.656250
2755		99.609375
2756		97.656250
2757		101.562500
2758		97.656250
2759		99.609375
2760		97.656250
2761		99.609375
2762		97.656250
2763		101.562500
2764		97.656250
2765		99.609375
2766		95.703125
2767		101.562500
2768		95.703125
2769		99.609375
2770		95.703125
2771		99.609375
2772		95.703125
2773		99.609375
2774		95.703125
2775		97.656250
2776		95.703125
2777		97.656250
2778		93.750000
2779		97.656250
2780		93.750000
2781		97.656250
2782		93.750000
2783		97.656250
2784		93.750000
2785		95.703125
2786		91.796875
2787		95.703125
2788		89.843750
2789		93.750000
2790		89.843750
2791		93.750000
2792		89.843750
2793		91.796875
2794		87.890625
2795		91.796875
2796		87.890625
2797		89.843750
2798		85.937500
2799		89.843750
2800		85.937500
2801		87.890625
2802		83.984375
2803		87.890625
2804		82.031250
2805		85.937500
2806		80.078125
2807		85.937500
2808		80.078125
2809		83.984375
2810		78.125000
2811		82.031250
2812		76.171875
2813		80.078125
2814		74.218750
2815		78.125000
2816		72.265625
2817		76.171875
2818		72.265625
2819		74.218750
2820		70.312500
2821		74.218750
2822		68.359375
2823		72.265625
2824		66.406250
2825		72.265625
2826		64.453125
2827		68.359375
2828		62.500000
2829		66.406250
2830		58.593750
2831		64.453125
2832		58.593750
2833		62.500000
2834		56.640625
2835		60.546875
2836		54.687500
2837		58.593750
2838		50.781250
2839		56.640625
2840		48.828125
2841		54.687500
2842		46.875000
2843		50.781250
2844		44.921875
2845		48.828125
2846		42.968750
2847		48.828125
2848		41.015625
2849		44.921875
2850		37.109375
2851		42.968750
2852		35.156250
2853		41.015625
2854		33.203125
2855		37.109375
2856		31.250000
2857		35.156250
2858		27.343750
2859		33.203125
2860		25.390625
2861		29.296875
2862		23.437500
2863		27.343750
2864		21.484375
2865		25.390625
2866		17.578125
2867		23.437500
2868		15.625000
2869		19.531250
2870		11.718750
2871		17.578125
2872		9.765625
2873		15.625000
2874		7.812500
2875		11.718750
2876		3.906250
2877		9.765625
2878		1.953125
2879		5.859375
2880		-1.953125
2881		3.906250
2882		-3.906250
2883		1.953125
2884		-5.859375
2885		-1.953125
2886		-9.765625
2887		-1.953125
2888		-11.718750
2889		-5.859375
2890		-13.671875
2891		-9.765625
2892		-17.578125
2893		-11.718750
2894		-19.531250
2895		-15.625000
2896		-21.484375
2897		-17.578125
2898		-25.390625
2899		-19.531250
2900		-27.343750
2901		-23.437500
2902		-31.250000
2903		-25.390625
2904		-33.203125
2905		-27.343750
2906		-35.156250
2907		-29.296875
2908		-37.109375
2909		-33.203125
2910		-39.062500
2911		-35.156250
2912		-42.968750
2913		-37.109375
2914		-44.921875
2915		-39.062500
2916		-46.875000
2917		-42.968750
2918		-50.781250
2919		-44.921875
2920		-52.734375
2921		-48.828125
2922		-54.687500
2923		-50.781250
2924		-56.640625
2925		-52.734375
2926		-58.593750
2927		-54.687500
2928		-62.500000
2929		-56.640625
2930		-64.453125
2931		-58.593750
2932		-66.406250
2933		-60.546875
2934		-68.359375
2935		-62.500000
2936		-68.359375
2937		-66.406250
2938		-70.312500
2939		-66.406250
2940		-74.218750
2941		-70.312500
2942		-74.218750
2943		-70.312500
2944		-76.171875
2945		-74.218750
2946		-80.078125
2947		-74.218750
2948		-80.078125
2949		-76.171875
2950		-82.031250
2951		-78.125000
2952		-83.984375
2953		-80.078125
2954		-85.937500
2955		-82.031250
2956		-85.937500
2957		-83.984375
2958		-87.890625
2959		-83.984375
2960		-87.890625
2961		-85.937500
2962		-89.843750
2963		-85.937500
2964		-91.796875
2965		-87.890625
2966		-93.750000
2967		-89.843750
2968		-93.750000
2969		-89.843750
2970		-95.703125
2971		-91.796875
2972		-95.703125
2973		-91.796875
2974		-95.703125
2975		-93.750000
2976		-97.656250
2977		-93.750000
2978		-97.656250
2979		-93.750000
2980		-97.656250
2981		-93.750000
2982		-99.609375
2983		-95.703125
2984		-99.609375
2985		-95.703125
2986		-99.609375
2987		-95.703125
2988		-99.609375
2989		-95.703125
2990		-99.609375
2991		-95.703125
2992		-99.609375
2993		-95.703125
2994		-99.609375
2995		-97.656250
2996		-101.562500
2997		-95.703125
2998		-99.609375
2999		-95.703125
3000		-99.609375
3001		-95.703125
3002		-99.609375
3003		-95.703125
3004		-99.609375
3005		-95.703125
3006		-97.656250
3007		-95.703125
3008		-97.656250
3009		-95.703125
3010		-97.656250
3011		-93.750000
3012		-97.656250
3013		-91.796875
3014		-95.703125
3015		-91.796875
3016		-95.703125
3017		-91.796875
3018		-93.750000
3019		-91.796875
3020		-93.750000
3021		-89.843750
3022		-91.796875
3023		-87.890625
3024		-91.796875
3025		-85.937500
3026		-89.843750
3027		-85.937500
3028		-89.843750
3029		-85.937500
3030		-87.890625
3031		-83.984375
3032		-85.937500
3033		-82.031250
3034		-83.984375
3035		-80.078125
3036		-82.031250
3037		-80.078125
3038		-82.031250
3039		-78.125000
3040		-80.078125
3041		-76.171875
3042		-78.125000
3043		-74.218750
3044		-76.171875
3045		-72.265625
3046		-74.218750
3047		-70.312500
3048		-72.265625
3049		-68.359375
3050		-70.312500
3051		-66.406250
3052		-68.359375
3053		-64.453125
3054		-66.406250
3055		-62.500000
3056		-64.453125
3057		-60.546875
3058		-62.500000
3059		-58.593750
3060		-60.546875
3061		-56.640625
3062		-58.593750
3063		-52.734375
3064		-56.640625
3065		-50.781250
3066		-52.734375
3067		-48.828125
3068		-50.781250
3069		-46.875000
3070		-48.828125
3071		-42.968750
3072		-46.875000
3073		-41.015625
3074		-42.968750
3075		-39.062500
3076		-41.015625
3077		-37.109375
3078		-39.062500
3079		-33.203125
3080		-37.109375
3081		-31.250000
3082		-35.156250
3083		-27.343750
3084		-31.250000
3085		-25.390625
3086		-27.343750
3087		-23.437500
3088		-25.390625
3089		-21.484375
3090		-23.437500
3091		-17.578125
3092		-21.484375
3093		-15.625000
3094		-17.578125
3095		-13.671875
3096		-15.625000
3097		-9.765625
3098		-13.671875
3099		-7.812500
3100		-9.765625
3101		-5.859375
3102		-7.812500
3103		-1.953125
3104		-3.906250
3105		0.000000
3106		-1.953125
3107		3.906250
3108		0.000000
3109		5.859375
3110		3.906250
3111		7.812500
3112		5.859375
3113		11.718750
3114		9.765625
3115		13.671875
3116		11.718750
3117		15.625000
3118		13.671875
3119		19.531250
3120		15.625000
3121		21.484375
3122		19.531250
3123		23.437500
3124		21.484375
3125		25.390625
3126		23.437500
3127		29.296875
3128		27.343750
3129		31.250000
3130		29.296875
3131		35.156250
3132		31.250000
3133		37.109375
3134		33.203125
3135		39.062500
3136		37.109375
3137		41.015625
3138		39.062500
3139		44.921875
3140		41.015625
3141		46.875000
3142		42.968750
3143		48.828125
3144		46.875000
3145		50.781250
3146		48.828125
3147		52.734375
3148		50.781250
3149		54.687500
3150		52.734375
3151		56.640625
3152		54.687500
3153		58.593750
3154		56.640625
3155		60.546875
3156		58.593750
3157		62.500000
3158		60.546875
3159		64.453125
3160		62.500000
3161		66.406250
3162		64.453125
3163		68.359375
3164		66.406250
3165		70.312500
3166		68.359375
3167		72.265625
3168		70.312500
3169		74.218750
3170		72.265625
3171		76.171875
3172		74.218750
3173		78.125000
3174		74.218750
3175		80.078125
3176		76.171875
3177		82.031250
3178		78.125000
3179		82.031250
3180		80.078125
3181		83.984375
3182		80.078125
3183		85.937500
3184		82.031250
3185		85.937500
3186		83.984375
3187		87.890625
3188		85.937500
3189		87.890625
3190		85.937500
3191		89.843750
3192		87.890625
3193		91.796875
3194		89.843750
3195		91.796875
3196		89.843750
3197		93.750000
3198		89.843750
3199		95.703125
3200		91.796875
3201		95.703125
3202		91.796875
3203		95.703125
3204		93.750000
3205		97.656250
3206		93.750000
3207		97.656250
3208		95.703125
3209		99.609375
3210		95.703125
3211		99.609375
3212		95.703125
3213		99.609375
3214		95.703125
3215		101.562500
3216		97.656250
3217		101.562500
3218		97.656250
3219		101.562500
3220		97.656250
3221		101.562500
3222		97.656250
3223		101.562500
3224		97.656250
3225		101.562500
3226		97.656250
3227		103.515625
3228		99.609375
3229		101.562500
3230		99.609375
3231		101.562500
3232		99.609375
3233		103.515625
3234		97.656250
3235		101.562500
3236		99.609375
3237		101.562500
3238		97.656250
3239		101.562500
3240		97.656250
3241		101.562500
3242		97.656250
3243		101.562500
3244		97.656250
3245		101.562500
3246		97.656250
3247		99.609375
3248		95.703125
3249		99.609375
3250		95.703125
3251		99.609375
3252		95.703125
3253		99.609375
3254		95.703125
3255		97.656250
3256		93.750000
3257		97.656250
3258		93.750000
3259		97.656250
3260		91.796875
3261		95.703125
3262		91.796875
3263		95.703125
3264		89.843750
3265		93.750000
3266		89.843750
3267		93.750000
3268		87.890625
3269		91.796875
3270		87.890625
3271		91.796875
3272		85.937500
3273		89.843750
3274		85.937500
3275		87.890625
3276		83.984375
3277		87.890625
3278		82.031250
3279		87.890625
3280		80.078125
3281		85.937500
3282		80.078125
3283		83.984375
3284		78.125000
3285		82.031250
3286		76.171875
3287		80.078125
3288		74.218750
3289		78.125000
3290		72.265625
3291		76.171875
3292		70.312500
3293		76.171875
3294		70.312500
3295		74.218750
3296		68.359375
3297		72.265625
3298		66.406250
3299		70.312500
3300		62.500000
3301		68.359375
3302		60.546875
3303		66.406250
3304		60.546875
3305		64.453125
3306		56.640625
3307		62.500000
3308		54.687500
3309		60.546875
3310		52.734375
3311		58.593750
3312		50.781250
3313		54.687500
3314		48.828125
3315		52.734375
3316		46.875000
3317		50.781250
3318		44.921875
3319		48.828125
3320		41.015625
3321		46.875000
3322		39.062500
3323		44.921875
3324		37.109375
3325		42.968750
3326		35.156250
3327		39.062500
3328		33.203125
3329		37.109375
3330		29.296875
3331		35.156250
3332		25.390625
3333		31.250000
3334		25.390625
3335		29.296875
3336		21.484375
3337		27.343750
3338		19.531250
3339		25.390625
3340		15.625000
3341		21.484375
3342		13.671875
3343		19.531250
3344		11.718750
3345		15.625000
3346		9.765625
3347		13.671875
3348		5.859375
3349		11.718750
3350		3.906250
3351		9.765625
3352		0.000000
3353		5.859375
3354		-1.953125
3355		3.906250
3356		-3.906250
3357		0.000000
3358		-7.812500
3359		-1.953125
3360		-9.765625
3361		-3.906250
3362		-11.718750
3363		-5.859375
3364		-15.625000
3365		-9.765625
3366		-17.578125
3367		-13.671875
3368		-21.484375
3369		-15.625000
3370		-23.437500
3371		-17.578125
3372		-25.390625
3373		-19.531250
3374		-27.343750
3375		-23.437500
3376		-31.250000
3377		-25.390625
3378		-33.203125
3379		-27.343750
3380		-35.156250
3381		-31.250000
3382		-39.062500
3383		-33.203125
3384		-41.015625
3385		-35.156250
3386		-42.968750
3387		-39.062500
3388		-44.921875
3389		-41.015625
3390		-48.828125
3391		-42.968750
3392		-50.781250
3393		-44.921875
3394		-52.734375
3395		-48.828125
3396		-54.687500
3397		-50.781250
3398		-56.640625
3399		-52.734375
3400		-58.593750
3401		-54.687500
3402		-62.500000
3403		-56.640625
3404		-64.453125
3405		-58.593750
3406		-66.406250
3407		-60.546875
3408		-68.359375
3409		-62.500000
3410		-70.312500
3411		-64.453125
3412		-72.265625
3413		-66.406250
3414		-74.218750
3415		-70.312500
3416		-76.171875
3417		-72.265625
3418		-76.171875
3419		-74.218750
3420		-80.078125
3421		-74.218750
3422		-80.078125
3423		-76.171875
3424		-82.031250
3425		-78.125000
3426		-83.984375
3427		-80.078125
3428		-85.937500
3429		-82.031250
3430		-85.937500
3431		-82.031250
3432		-87.890625
3433		-83.984375
3434		-89.843750
3435		-83.984375
3436		-89.843750
3437		-85.937500
3438		-89.843750
3439		-87.890625
3440		-91.796875
3441		-87.890625
3442		-93.750000
3443		-89.843750
3444		-93.750000
3445		-89.843750
3446		-95.703125
3447		-91.796875
3448		-95.703125
3449		-91.796875
3450		-95.703125
3451		-91.796875
3452		-97.656250
3453		-93.750000
3454		-97.656250
3455		-93.750000
3456		-97.656250
3457		-93.750000
3458		-97.656250
3459		-93.750000
3460		-99.609375
3461		-93.750000
3462		-97.656250
3463		-93.750000
3464		-97.656250
3465		-95.703125
3466		-99.609375
3467		-95.703125
3468		-99.609375
3469		-95.703125
3470		-99.609375
3471		-95.703125
3472		-97.656250
3473		-95.703125
3474		-97.656250
3475		-95.703125
3476		-97.656250
3477		-93.750000
3478		-97.656250
3479		-93.750000
3480		-95.703125
3481		-93.750000
3482		-95.703125
3483		-91.796875
3484		-97.656250
3485		-91.796875
3486		-95.703125
3487		-89.843750
3488		-93.750000
3489		-89.843750
3490		-91.796875
3491		-89.843750
3492		-91.796875
3493		-87.890625
3494		-89.843750
3495		-87.890625
3496		-89.843750
3497		-85.937500
3498		-87.890625
3499		-83.984375
3500		-87.890625
3501		-83.984375
3502		-85.937500
3503		-82.031250
3504		-83.984375
3505		-80.078125
3506		-82.031250
3507		-80.078125
3508		-82.031250
3509		-78.125000
3510		-80.078125
3511		-76.171875
3512		-78.125000
3513		-74.218750
3514		-76.171875
3515		-72.265625
3516		-74.218750
3517		-70.312500
3518		-74.218750
3519		-68.359375
3520		-72.265625
3521		-66.406250
3522		-70.312500
3523		-64.453125
3524		-66.406250
3525		-62.500000
3526		-66.406250
3527		-60.546875
3528		-64.453125
3529		-58.593750
3530		-60.546875
3531		-56.640625
3532		-58.593750
3533		-54.687500
3534		-56.640625
3535		-52.734375
3536		-54.687500
3537		-48.828125
3538		-52.734375
3539		-46.875000
3540		-48.828125
3541		-44.921875
3542		-46.875000
3543		-42.968750
3544		-44.921875
3545		-39.062500
3546		-42.968750
3547		-37.109375
3548		-39.062500
3549		-35.156250
3550		-37.109375
3551		-31.250000
3552		-35.156250
3553		-29.296875
3554		-31.250000
3555		-27.343750
3556		-29.296875
3557		-25.390625
3558		-27.343750
3559		-21.484375
3560		-25.390625
3561		-19.531250
3562		-21.484375
3563		-15.625000
3564		-19.531250
3565		-13.671875
3566		-15.625000
3567		-11.718750
3568		-13.671875
3569		-7.812500
3570		-11.718750
3571		-5.859375
3572		-7.812500
3573		-3.906250
3574		-5.859375
3575		0.000000
3576		-1.953125
3577		1.953125
3578		0.000000
3579		3.906250
3580		1.953125
3581		7.812500
3582		5.859375
3583		9.765625
3584		7.812500
3585		13.671875
3586		9.765625
3587		15.625000
3588		13.671875
3589		17.578125
3590		15.625000
3591		19.531250
3592		17.578125
3593		23.437500
3594		21.484375
3595		25.390625
3596		23.437500
3597		29.296875
3598		25.390625
3599		31.250000
3600		29.296875
3601		33.203125
3602		31.250000
3603		35.156250
3604		33.203125
3605		39.062500
3606		35.156250
3607		41.015625
3608		37.109375
3609		42.968750
3610		41.015625
3611		44.921875
3612		42.968750
3613		46.875000
3614		44.921875
3615		48.828125
3616		46.875000
3617		50.781250
3618		48.828125
3619		54.687500
3620		52.734375
3621		56.640625
3622		52.734375
3623		58.593750
3624		56.640625
3625		62.500000
3626		58.593750
3627		62.500000
3628		58.593750
3629		64.453125
3630		62.500000
3631		66.406250
3632		64.453125
3633		68.359375
3634		66.406250
3635		72.265625
3636		68.359375
3637		72.265625
3638		70.312500
3639		74.218750
3640		72.265625
3641		76.171875
3642		74.218750
3643		78.125000
3644		74.218750
3645		80.078125
3646		76.171875
3647		82.031250
3648		78.125000
3649		82.031250
3650		80.078125
3651		83.984375
3652		82.031250
3653		85.937500
3654		82.031250
3655		85.937500
3656		83.984375
3657		87.890625
3658		85.937500
3659		89.843750
3660		85.937500
3661		89.843750
3662		87.890625
3663		91.796875
3664		87.890625
3665		91.796875
3666		89.843750
3667		93.750000
3668		91.796875
3669		93.750000
3670		91.796875
3671		95.703125
3672		91.796875
3673		95.703125
3674		93.750000
3675		97.656250
3676		93.750000
3677		97.656250
3678		95.703125
3679		99.609375
3680		95.703125
3681		99.609375
3682		97.656250
3683		99.609375
3684		97.656250
3685		101.562500
3686		95.703125
3687		101.562500
3688		97.656250
3689		101.562500
3690		97.656250
3691		101.562500
3692		99.609375
3693		101.562500
3694		99.609375
3695		101.562500
3696		99.609375
3697		101.562500
3698		99.609375
3699		103.515625
3700		99.609375
3701		103.515625
3702		99.609375
3703		103.515625
3704		99.609375
3705		103.515625
3706		99.609375
3707		103.515625
3708		99.609375
3709		101.562500
3710		99.609375
3711		103.515625
3712		99.609375
3713		101.562500
3714		97.656250
3715		101.562500
3716		97.656250
3717		101.562500
3718		97.656250
3719		101.562500
3720		97.656250
3721		101.562500
3722		95.703125
3723		99.609375
3724		95.703125
3725		99.609375
3726		95.703125
3727		97.656250
3728		93.750000
3729		97.656250
3730		93.750000
3731		97.656250
3732		91.796875
3733		95.703125
3734		91.796875
3735		95.703125
3736		91.796875
3737		95.703125
3738		89.843750
3739		93.750000
3740		87.890625
3741		93.750000
3742		87.890625
3743		91.796875
3744		85.937500
3745		89.843750
3746		83.984375
3747		89.843750
3748		83.984375
3749		87.890625
3750		82.031250
3751		85.937500
3752		80.078125
3753		83.984375
3754		80.078125
3755		83.984375
3756		78.125000
3757		82.031250
3758		76.171875
3759		80.078125
3760		74.218750
3761		78.125000
3762		72.265625
3763		76.171875
3764		70.312500
3765		76.171875
3766		68.359375
3767		74.218750
3768		68.359375
3769		72.265625
3770		64.453125
3771		70.312500
3772		64.453125
3773		68.359375
3774		62.500000
3775		66.406250
3776		58.593750
3777		64.453125
3778		56.640625
3779		62.500000
3780		54.687500
3781		58.593750
3782		52.734375
3783		58.593750
3784		50.781250
3785		54.687500
3786		48.828125
3787		52.734375
3788		46.875000
3789		50.781250
3790		42.968750
3791		48.828125
3792		41.015625
3793		46.875000
3794		39.062500
3795		44.921875
3796		35.156250
3797		42.968750
3798		35.156250
3799		39.062500
3800		31.250000
3801		37.109375
3802		29.296875
3803		35.156250
3804		27.343750
3805		33.203125
3806		23.437500
3807		29.296875
3808		21.484375
3809		27.343750
3810		19.531250
3811		23.437500
3812		15.625000
3813		21.484375
3814		13.671875
3815		17.578125
3816		11.718750
3817		15.625000
3818		7.812500
3819		13.671875
3820		5.859375
3821		11.718750
3822		3.906250
3823		7.812500
3824		0.000000
3825		5.859375
3826		-1.953125
3827		3.906250
3828		-3.906250
3829		0.000000
3830		-7.812500
3831		-1.953125
3832		-9.765625
3833		-5.859375
3834		-13.671875
3835		-7.812500
3836		-15.625000
3837		-9.765625
3838		-17.578125
3839		-13.671875
3840		-21.484375
3841		-15.625000
3842		-23.437500
3843		-17.578125
3844		-25.390625
3845		-21.484375
3846		-29.296875
3847		-23.437500
3848		-31.250000
3849		-27.343750
3850		-33.203125
3851		-29.296875
3852		-37.109375
3853		-31.250000
3854		-39.062500
3855		-33.203125
3856		-41.015625
3857		-37.109375
3858		-42.968750
3859		-39.062500
3860		-46.875000
3861		-41.015625
3862		-48.828125
3863		-42.968750
3864		-50.781250
3865		-46.875000
3866		-52.734375
3867		-48.828125
3868		-54.687500
3869		-50.781250
3870		-56.640625
3871		-52.734375
3872		-60.546875
3873		-56.640625
3874		-62.500000
3875		-56.640625
3876		-64.453125
3877		-58.593750
3878		-66.406250
3879		-62.500000
3880		-68.359375
3881		-64.453125
3882		-70.312500
3883		-66.406250
3884		-72.265625
3885		-68.359375
3886		-74.218750
3887		-70.312500
3888		-76.171875
3889		-70.312500
3890		-76.171875
3891		-72.265625
3892		-78.125000
3893		-74.218750
3894		-80.078125
3895		-76.171875
3896		-82.031250
3897		-78.125000
3898		-83.984375
3899		-80.078125
3900		-83.984375
3901		-80.078125
3902		-87.890625
3903		-82.031250
3904		-87.890625
3905		-83.984375
3906		-89.843750
3907		-83.984375
3908		-89.843750
3909		-85.937500
3910		-91.796875
3911		-87.890625
3912		-91.796875
3913		-87.890625
3914		-93.750000
3915		-89.843750
3916		-93.750000
3917		-89.843750
3918		-93.750000
3919		-91.796875
3920		-95.703125
3921		-91.796875
3922		-95.703125
3923		-91.796875
3924		-95.703125
3925		-93.750000
3926		-97.656250
3927		-93.750000
3928		-97.656250
3929		-93.750000
3930		-97.656250
3931		-93.750000
3932		-99.609375
3933		-93.750000
3934		-97.656250
3935		-95.703125
3936		-97.656250
3937		-93.750000
3938		-97.656250
3939		-93.750000
3940		-97.656250
3941		-93.750000
3942		-97.656250
3943		-93.750000
3944		-97.656250
3945		-93.750000
3946		-97.656250
3947		-93.750000
3948		-97.656250
3949		-93.750000
3950		-97.656250
3951		-91.796875
3952		-95.703125
3953		-93.750000
3954		-97.656250
3955		-91.796875
3956		-93.750000
3957		-91.796875
3958		-93.750000
3959		-89.843750
3960		-93.750000
3961		-89.843750
3962		-91.796875
3963		-87.890625
3964		-91.796875
3965		-87.890625
3966		-89.843750
3967		-85.937500
3968		-89.843750
3969		-85.937500
3970		-87.890625
3971		-83.984375
3972		-87.890625
3973		-82.031250
3974		-85.937500
3975		-82.031250
3976		-83.984375
3977		-80.078125
3978		-82.031250
3979		-78.125000
3980		-80.078125
3981		-76.171875
3982		-80.078125
3983		-74.218750
3984		-80.078125
3985		-74.218750
3986		-76.171875
3987		-72.265625
3988		-74.218750
3989		-70.312500
3990		-72.265625
3991		-68.359375
3992		-72.265625
3993		-66.406250
3994		-68.359375
3995		-62.500000
3996		-66.406250
3997		-62.500000
3998		-64.453125
3999		-58.593750
4000		-62.500000
4001		-56.640625
4002		-60.546875
4003		-54.687500
4004		-56.640625
4005		-52.734375
4006		-54.687500
4007		-50.781250
4008		-52.734375
4009		-48.828125
4010		-50.781250
4011		-46.875000
4012		-48.828125
4013		-42.968750
4014		-46.875000
4015		-41.015625
4016		-44.921875
4017		-37.109375
4018		-41.015625
4019		-37.109375
4020		-39.062500
4021		-33.203125
4022		-35.156250
4023		-31.250000
4024		-33.203125
4025		-29.296875
4026		-31.250000
4027		-25.390625
4028		-27.343750
4029		-23.437500
4030		-27.343750
4031		-21.484375
4032		-23.437500
4033		-17.578125
4034		-21.484375
4035		-15.625000
4036		-17.578125
4037		-11.718750
4038		-15.625000
4039		-7.812500
4040		-13.671875
4041		-5.859375
4042		-11.718750
4043		-3.906250
4044		-7.812500
4045		-1.953125
4046		-5.859375
4047		1.953125
4048		-1.953125
4049		3.906250
4050		0.000000
4051		5.859375
4052		3.906250
4053		7.812500
4054		5.859375
4055		11.718750
4056		9.765625
4057		15.625000
4058		9.765625
4059		17.578125
4060		13.671875
4061		19.531250
4062		15.625000
4063		21.484375
4064		19.531250
4065		25.390625
4066		21.484375
4067		27.343750
4068		23.437500
4069		29.296875
4070		27.343750
4071		33.203125
4072		29.296875
4073		35.156250
4074		31.250000
4075		37.109375
4076		33.203125
4077		39.062500
4078		35.156250
4079		42.968750
4080		37.109375
4081		44.921875
4082		41.015625
4083		46.875000
4084		42.968750
4085		48.828125
4086		46.875000
4087		50.781250
4088		48.828125
4089		54.687500
4090		48.828125
4091		56.640625
4092		52.734375
4093		58.593750
4094		54.687500
4095		60.546875
4096		56.640625
4097		62.500000
4098		58.593750
4099		64.453125
4100		60.546875
4101		66.406250
4102		62.500000
4103		68.359375
4104		64.453125
4105		70.312500
4106		66.406250
4107		72.265625
4108		68.359375
4109		72.265625
4110		70.312500
4111		74.218750
4112		72.265625
4113		76.171875
4114		74.218750
4115		78.125000
4116		76.171875
4117		80.078125
4118		78.125000
4119		82.031250
4120		78.125000
4121		82.031250
4122		80.078125
4123		83.984375
4124		82.031250
4125		85.937500
4126		83.984375
4127		87.890625
4128		83.984375
4129		87.890625
4130		85.937500
4131		89.843750
4132		87.890625
4133		89.843750
4134		87.890625
4135		93.750000
4136		89.843750
4137		93.750000
4138		89.843750
4139		93.750000
4140		91.796875
4141		95.703125
4142		91.796875
4143		95.703125
4144		93.750000
4145		95.703125
4146		93.750000
4147		97.656250
4148		93.750000
4149		97.656250
4150		95.703125
4151		99.609375
4152		95.703125
4153		99.609375
4154		97.656250
4155		99.609375
4156		95.703125
4157		101.562500
4158		97.656250
4159		101.562500
4160		97.656250
4161		101.562500
4162		99.609375
4163		101.562500
4164		99.609375
4165		101.562500
4166		99.609375
4167		103.515625
4168		99.609375
4169		101.562500
4170		99.609375
4171		103.515625
4172		99.609375
4173		103.515625
4174		99.609375
4175		103.515625
4176		99.609375
4177		103.515625
4178		99.609375
4179		103.515625
4180		99.609375
4181		103.515625
4182		99.609375
4183		103.515625
4184		99.609375
4185		101.562500
4186		97.656250
4187		101.562500
4188		97.656250
4189		101.562500
4190		97.656250
4191		101.562500
4192		97.656250
4193		99.609375
4194		97.656250
4195		99.609375
4196		95.703125
4197		99.609375
4198		95.703125
4199		97.656250
4200		93.750000
4201		97.656250
4202		93.750000
4203		97.656250
4204		91.796875
4205		95.703125
4206		89.843750
4207		97.656250
4208		87.890625
4209		97.656250
4210		87.890625
4211		95.703125
4212		87.890625
4213		95.703125
4214		87.890625
4215		91.796875
4216		85.937500
4217		89.843750
4218		83.984375
4219		87.890625
4220		83.984375
4221		87.890625
4222		82.031250
4223		85.937500
4224		78.125000
4225		87.890625
4226		78.125000
4227		85.937500
4228		74.218750
4229		83.984375
4230		76.171875
4231		80.078125
4232		74.218750
4233		78.125000
4234		72.265625
4235		76.171875
4236		70.312500
4237		74.218750
4238		68.359375
4239		74.218750
4240		64.453125
4241		74.218750
4242		62.500000
4243		72.265625
4244		60.546875
4245		70.312500
4246		60.546875
4247		64.453125
4248		58.593750
4249		64.453125
4250		56.640625
4251		60.546875
4252		54.687500
4253		58.593750
4254		52.734375
4255		56.640625
4256		48.828125
4257		56.640625
4258		44.921875
4259		56.640625
4260		42.968750
4261		52.734375
4262		42.968750
4263		50.781250
4264		41.015625
4265		44.921875
4266		39.062500
4267		42.968750
4268		37.109375
4269		41.015625
4270		33.203125
4271		39.062500
4272		31.250000
4273		35.156250
4274		25.390625
4275		37.109375
4276		23.437500
4277		33.203125
4278		21.484375
4279		31.250000
4280		21.484375
4281		25.390625
4282		19.531250
4283		23.437500
4284		15.625000
4285		21.484375
4286		13.671875
4287		17.578125
4288		11.718750
4289		15.625000
4290		5.859375
4291		15.625000
4292		1.953125
4293		13.671875
4294		0.000000
4295		9.765625
4296		0.000000
4297		7.812500
4298		-1.953125
4299		1.953125
4300		-5.859375
4301		0.000000
4302		-7.812500
4303		-3.906250
4304		-9.765625
4305		-5.859375
4306		-13.671875
4307		-7.812500
4308		-19.531250
4309		-7.812500
4310		-21.484375
4311		-11.718750
4312		-23.437500
4313		-13.671875
4314		-25.390625
4315		-19.531250
4316		-25.390625
4317		-21.484375
4318		-29.296875
4319		-23.437500
4320		-31.250000
4321		-27.343750
4322		-33.203125
4323		-29.296875
4324		-39.062500
4325		-29.296875
4326		-41.015625
4327		-31.250000
4328		-44.921875
4329		-35.156250
4330		-44.921875
4331		-39.062500
4332		-46.875000
4333		-41.015625
4334		-48.828125
4335		-44.921875
4336		-50.781250
4337		-46.875000
4338		-52.734375
4339		-48.828125
4340		-56.640625
4341		-50.781250
4342		-60.546875
4343		-50.781250
4344		-62.500000
4345		-52.734375
4346		-62.500000
4347		-54.687500
4348		-64.453125
4349		-60.546875
4350		-66.406250
4351		-62.500000
4352		-68.359375
4353		-64.453125
4354		-70.312500
4355		-66.406250
4356		-72.265625
4357		-68.359375
4358		-76.171875
4359		-66.406250
4360		-78.125000
4361		-68.359375
4362		-80.078125
4363		-70.312500
4364		-78.125000
4365		-74.218750
4366		-80.078125
4367		-76.171875
4368		-82.031250
4369		-78.125000
4370		-83.984375
4371		-80.078125
4372		-83.984375
4373		-82.031250
4374		-89.843750
4375		-80.078125
4376		-91.796875
4377		-80.078125
4378		-91.796875
4379		-82.031250
4380		-91.796875
4381		-83.984375
4382		-89.843750
4383		-87.890625
4384		-91.796875
4385		-87.890625
4386		-91.796875
4387		-89.843750
4388		-93.750000
4389		-89.843750
4390		-93.750000
4391		-91.796875
4392		-95.703125
4393		-91.796875
4394		-97.656250
4395		-89.843750
4396		-99.609375
4397		-91.796875
4398		-95.703125
4399		-93.750000
4400		-95.703125
4401		-93.750000
4402		-97.656250
4403		-93.750000
4404		-97.656250
4405		-93.750000
4406		-97.656250
4407		-93.750000
4408		-97.656250
4409		-93.750000
4410		-99.609375
4411		-91.796875
4412		-99.609375
4413		-91.796875
4414		-97.656250
4415		-93.750000
4416		-97.656250
4417		-93.750000
4418		-95.703125
4419		-93.750000
4420		-95.703125
4421		-93.750000
4422		-95.703125
4423		-93.750000
4424		-97.656250
4425		-91.796875
4426		-93.750000
4427		-89.843750
4428		-93.750000
4429		-89.843750
4430		-93.750000
4431		-87.890625
4432		-91.796875
4433		-89.843750
4434		-91.796875
4435		-87.890625
4436		-89.843750
4437		-87.890625
4438		-89.843750
4439		-85.937500
4440		-87.890625
4441		-83.984375
4442		-87.890625
4443		-83.984375
4444		-85.937500
4445		-82.031250
4446		-83.984375
4447		-80.078125
4448		-83.984375
4449		-80.078125
4450		-82.031250
4451		-78.125000
4452		-80.078125
4453		-76.171875
4454		-78.125000
4455		-74.218750
4456		-76.171875
4457		-72.265625
4458		-76.171875
4459		-70.312500
4460		-74.218750
4461		-68.359375
4462		-70.312500
4463		-66.406250
4464		-70.312500
4465		-64.453125
4466		-68.359375
4467		-62.500000
4468		-64.453125
4469		-60.546875
4470		-62.500000
4471		-58.593750
4472		-60.546875
4473		-56.640625
4474		-58.593750
4475		-54.687500
4476		-56.640625
4477		-52.734375
4478		-54.687500
4479		-50.781250
4480		-52.734375
4481		-46.875000
4482		-48.828125
4483		-44.921875
4484		-48.828125
4485		-42.968750
4486		-44.921875
4487		-41.015625
4488		-42.968750
4489		-39.062500
4490		-39.062500
4491		-35.156250
4492		-37.109375
4493		-33.203125
4494		-35.156250
4495		-31.250000
4496		-33.203125
4497		-27.343750
4498		-29.296875
4499		-25.390625
4500		-27.343750
4501		-21.484375
4502		-25.390625
4503		-19.531250
4504		-21.484375
4505		-17.578125
4506		-19.531250
4507		-15.625000
4508		-17.578125
4509		-9.765625
4510		-15.625000
4511		-9.765625
4512		-11.718750
4513		-5.859375
4514		-9.765625
4515		-3.906250
4516		-5.859375
4517		-1.953125
4518		-3.906250
4519		1.953125
4520		0.000000
4521		3.906250
4522		1.953125
4523		5.859375
4524		3.906250
4525		9.765625
4526		5.859375
4527		11.718750
4528		9.765625
4529		15.625000
4530		11.718750
4531		17.578125
4532		15.625000
4533		19.531250
4534		17.578125
4535		21.484375
4536		19.531250
4537		25.390625
4538		23.437500
4539		27.343750
4540		25.390625
4541		29.296875
4542		27.343750
4543		33.203125
4544		29.296875
4545		37.109375
4546		33.203125
4547		37.109375
4548		35.156250
4549		41.015625
4550		37.109375
4551		42.968750
4552		39.062500
4553		44.921875
4554		42.968750
4555		46.875000
4556		44.921875
4557		48.828125
4558		46.875000
4559		50.781250
4560		48.828125
4561		54.687500
4562		50.781250
4563		56.640625
4564		52.734375
4565		58.593750
4566		56.640625
4567		60.546875
4568		56.640625
4569		62.500000
4570		60.546875
4571		64.453125
4572		62.500000
4573		66.406250
4574		64.453125
4575		68.359375
4576		66.406250
4577		70.312500
4578		66.406250
4579		72.265625
4580		70.312500
4581		74.218750
4582		72.265625
4583		76.171875
4584		72.265625
4585		78.125000
4586		74.218750
4587		78.125000
4588		76.171875
4589		80.078125
4590		78.125000
4591		82.031250
4592		80.078125
4593		85.937500
4594		80.078125
4595		85.937500
4596		82.031250
4597		85.937500
4598		83.984375
4599		87.890625
4600		85.937500
4601		89.843750
4602		85.937500
4603		89.843750
4604		87.890625
4605		91.796875
4606		89.843750
4607		91.796875
4608		89.843750
4609		93.750000
4610		89.843750
4611		95.703125
4612		91.796875
4613		95.703125
4614		93.750000
4615		95.703125
4616		93.750000
4617		97.656250
4618		93.750000
4619		97.656250
4620		95.703125
4621		99.609375
4622		95.703125
4623		99.609375
4624		97.656250
4625		99.609375
4626		97.656250
4627		101.562500
4628		97.656250
4629		101.562500
4630		97.656250
4631		101.562500
4632		99.609375
4633		101.562500
4634		99.609375
4635		103.515625
4636		99.609375
4637		103.515625
4638		99.609375
4639		103.515625
4640		99.609375
4641		103.515625
4642		99.609375
4643		103.515625
4644		99.609375
4645		105.468750
4646		99.609375
4647		103.515625
4648		99.609375
4649		103.515625
4650		99.609375
4651		103.515625
4652		99.609375
4653		103.515625
4654		99.609375
4655		101.562500
4656		99.609375
4657		101.562500
4658		99.609375
4659		101.562500
4660		97.656250
4661		101.562500
4662		97.656250
4663		101.562500
4664		97.656250
4665		99.609375
4666		95.703125
4667		99.609375
4668		95.703125
4669		99.609375
4670		95.703125
4671		97.656250
4672		93.750000
4673		97.656250
4674		93.750000
4675		97.656250
4676		91.796875
4677		95.703125
4678		91.796875
4679		95.703125
4680		89.843750
4681		93.750000
4682		89.843750
4683		93.750000
4684		87.890625
4685		91.796875
4686		87.890625
4687		89.843750
4688		85.937500
4689		89.843750
4690		85.937500
4691		87.890625
4692		83.984375
4693		87.890625
4694		82.031250
4695		85.937500
4696		80.078125
4697		83.984375
4698		80.078125
4699		82.031250
4700		76.171875
4701		82.031250
4702		76.171875
4703		80.078125
4704		74.218750
4705		78.125000
4706		72.265625
4707		76.171875
4708		70.312500
4709		74.218750
4710		68.359375
4711		72.265625
4712		66.406250
4713		70.312500
4714		64.453125
4715		68.359375
4716		62.500000
4717		66.406250
4718		60.546875
4719		64.453125
4720		58.593750
4721		62.500000
4722		56.640625
4723		60.546875
4724		54.687500
4725		58.593750
4726		50.781250
4727		56.640625
4728		50.781250
4729		54.687500
4730		46.875000
4731		52.734375
4732		44.921875
4733		50.781250
4734		42.968750
4735		46.875000
4736		41.015625
4737		44.921875
4738		39.062500
4739		42.968750
4740		35.156250
4741		41.015625
4742		33.203125
4743		37.109375
4744		31.250000
4745		35.156250
4746		29.296875
4747		33.203125
4748		25.390625
4749		31.250000
4750		23.437500
4751		27.343750
4752		21.484375
4753		25.390625
4754		17.578125
4755		23.437500
4756		15.625000
4757		19.531250
4758		11.718750
4759		17.578125
4760		9.765625
4761		15.625000
4762		7.812500
4763		11.718750
4764		5.859375
4765		9.765625
4766		1.953125
4767		5.859375
4768		-1.953125
4769		3.906250
4770		-3.906250
4771		1.953125
4772		-5.859375
4773		-1.953125
4774		-7.812500
4775		-3.906250
4776		-11.718750
4777		-5.859375
4778		-13.671875
4779		-9.765625
4780		-15.625000
4781		-11.718750
4782		-19.531250
4783		-13.671875
4784		-21.484375
4785		-17.578125
4786		-23.437500
4787		-19.531250
4788		-27.343750
4789		-21.484375
4790		-29.296875
4791		-25.390625
4792		-31.250000
4793		-27.343750
4794		-35.156250
4795		-29.296875
4796		-37.109375
4797		-33.203125
4798		-39.062500
4799		-35.156250
4800		-42.968750
4801		-37.109375
4802		-44.921875
4803		-41.015625
4804		-46.875000
4805		-42.968750
4806		-48.828125
4807		-44.921875
4808		-50.781250
4809		-46.875000
4810		-54.687500
4811		-48.828125
4812		-56.640625
4813		-50.781250
4814		-58.593750
4815		-54.687500
4816		-60.546875
4817		-56.640625
4818		-62.500000
4819		-58.593750
4820		-64.453125
4821		-60.546875
4822		-66.406250
4823		-62.500000
4824		-68.359375
4825		-64.453125
4826		-70.312500
4827		-66.406250
4828		-74.218750
4829		-68.359375
4830		-74.218750
4831		-68.359375
4832		-76.171875
4833		-72.265625
4834		-78.125000
4835		-74.218750
4836		-80.078125
4837		-76.171875
4838		-80.078125
4839		-78.125000
4840		-82.031250
4841		-78.125000
4842		-83.984375
4843		-80.078125
4844		-85.937500
4845		-82.031250
4846		-87.890625
4847		-80.078125
4848		-87.890625
4849		-82.031250
4850		-87.890625
4851		-85.937500
4852		-89.843750
4853		-85.937500
4854		-91.796875
4855		-87.890625
4856		-91.796875
4857		-87.890625
4858		-93.750000
4859		-89.843750
4860		-93.750000
4861		-89.843750
4862		-95.703125
4863		-89.843750
4864		-95.703125
4865		-91.796875
4866		-95.703125
4867		-91.796875
4868		-95.703125
4869		-93.750000
4870		-95.703125
4871		-93.750000
4872		-97.656250
4873		-93.750000
4874		-97.656250
4875		-93.750000
4876		-97.656250
4877		-93.750000
4878		-99.609375
4879		-93.750000
4880		-99.609375
4881		-93.750000
4882		-99.609375
4883		-93.750000
4884		-97.656250
4885		-93.750000
4886		-97.656250
4887		-93.750000
4888		-97.656250
4889		-93.750000
4890		-95.703125
4891		-93.750000
4892		-95.703125
4893		-93.750000
4894		-95.703125
4895		-91.796875
4896		-95.703125
4897		-91.796875
4898		-95.703125
4899		-89.843750
4900		-93.750000
4901		-89.843750
4902		-93.750000
4903		-89.843750
4904		-91.796875
4905		-89.843750
4906		-91.796875
4907		-87.890625
4908		-89.843750
4909		-85.937500
4910		-89.843750
4911		-85.937500
4912		-89.843750
4913		-82.031250
4914		-87.890625
4915		-82.031250
4916		-85.937500
4917		-82.031250
4918		-83.984375
4919		-80.078125
4920		-82.031250
4921		-78.125000
4922		-82.031250
4923		-78.125000
4924		-80.078125
4925		-76.171875
4926		-78.125000
4927		-74.218750
4928		-76.171875
4929		-72.265625
4930		-76.171875
4931		-70.312500
4932		-74.218750
4933		-68.359375
4934		-70.312500
4935		-66.406250
4936		-68.359375
4937		-64.453125
4938		-66.406250
4939		-62.500000
4940		-64.453125
4941		-60.546875
4942		-62.500000
4943		-58.593750
4944		-60.546875
4945		-56.640625
4946		-58.593750
4947		-52.734375
4948		-56.640625
4949		-50.781250
4950		-54.687500
4951		-50.781250
4952		-52.734375
4953		-46.875000
4954		-48.828125
4955		-44.921875
4956		-46.875000
4957		-42.968750
4958		-44.921875
4959		-39.062500
4960		-42.968750
4961		-37.109375
4962		-39.062500
4963		-33.203125
4964		-37.109375
4965		-31.250000
4966		-35.156250
4967		-29.296875
4968		-31.250000
4969		-27.343750
4970		-29.296875
4971		-25.390625
4972		-27.343750
4973		-21.484375
4974		-23.437500
4975		-19.531250
4976		-21.484375
4977		-17.578125
4978		-19.531250
4979		-13.671875
4980		-17.578125
4981		-11.718750
4982		-13.671875
4983		-7.812500
4984		-11.718750
4985		-5.859375
4986		-7.812500
4987		-3.906250
4988		-5.859375
4989		-1.953125
4990		-3.906250
4991		1.953125
4992		0.000000
4993		3.906250
4994		1.953125
4995		7.812500
4996		3.906250
4997		11.718750
4998		5.859375
4999		13.671875
5000		9.765625
5001		15.625000
5002		13.671875
5003		17.578125
5004		15.625000
5005		19.531250
5006		17.578125
5007		23.437500
5008		21.484375
5009		25.390625
5010		23.437500
5011		27.343750
5012		25.390625
5013		31.250000
5014		27.343750
5015		33.203125
5016		31.250000
5017		35.156250
5018		33.203125
5019		39.062500
5020		35.156250
5021		41.015625
5022		39.062500
5023		42.968750
5024		41.015625
5025		44.921875
5026		42.968750
5027		46.875000
5028		44.921875
5029		48.828125
5030		46.875000
5031		52.734375
5032		48.828125
5033		54.687500
5034		52.734375
5035		56.640625
5036		54.687500
5037		58.593750
5038		56.640625
5039		60.546875
5040		58.593750
5041		62.500000
5042		60.546875
5043		64.453125
5044		62.500000
5045		66.406250
5046		64.453125
5047		70.312500
5048		66.406250
5049		70.312500
5050		68.359375
5051		72.265625
5052		70.312500
5053		74.218750
5054		72.265625
5055		76.171875
5056		74.218750
5057		78.125000
5058		74.218750
5059		78.125000
5060		76.171875
5061		80.078125
5062		78.125000
5063		82.031250
5064		80.078125
5065		83.984375
5066		82.031250
5067		85.937500
5068		82.031250
5069		85.937500
5070		83.984375
5071		87.890625
5072		85.937500
5073		89.843750
5074		85.937500
5075		89.843750
5076		87.890625
5077		91.796875
5078		89.843750
5079		93.750000
5080		89.843750
5081		93.750000
5082		91.796875
5083		95.703125
5084		91.796875
5085		95.703125
5086		93.750000
5087		97.656250
5088		93.750000
5089		97.656250
5090		95.703125
5091		97.656250
5092		95.703125
5093		99.609375
5094		97.656250
5095		99.609375
5096		97.656250
5097		99.609375
5098		97.656250
5099		101.562500
5100		97.656250
5101		101.562500
5102		99.609375
5103		101.562500
5104		99.609375
5105		101.562500
5106		99.609375
5107		103.515625
5108		99.609375
5109		103.515625
5110		99.609375
5111		103.515625
5112		99.609375
5113		103.515625
5114		99.609375
5115		103.515625
5116		101.562500
5117		103.515625
5118		99.609375
5119		103.515625
5120		99.609375
5121		103.515625
5122		99.609375
5123		103.515625
5124		99.609375
5125		103.515625
5126		99.609375
5127		103.515625
5128		99.609375
5129		103.515625
5130		99.609375
5131		101.562500
5132		99.609375
5133		101.562500
5134		97.656250
5135		101.562500
5136		97.656250
5137		101.562500
5138		97.656250
5139		99.609375
5140		95.703125
5141		99.609375
5142		95.703125
5143		99.609375
5144		93.750000
5145		97.656250
5146		93.750000
5147		97.656250
5148		93.750000
5149		95.703125
5150		91.796875
5151		95.703125
5152		91.796875
5153		95.703125
5154		89.843750
5155		93.750000
5156		89.843750
5157		91.796875
5158		87.890625
5159		91.796875
5160		85.937500
5161		89.843750
5162		85.937500
5163		87.890625
5164		83.984375
5165		87.890625
5166		82.031250
5167		85.937500
5168		80.078125
5169		83.984375
5170		80.078125
5171		83.984375
5172		78.125000
5173		82.031250
5174		76.171875
5175		80.078125
5176		74.218750
5177		78.125000
5178		72.265625
5179		76.171875
5180		70.312500
5181		74.218750
5182		68.359375
5183		74.218750
5184		66.406250
5185		72.265625
5186		64.453125
5187		70.312500
5188		62.500000
5189		68.359375
5190		60.546875
5191		64.453125
5192		58.593750
5193		64.453125
5194		56.640625
5195		60.546875
5196		54.687500
5197		58.593750
5198		52.734375
5199		56.640625
5200		50.781250
5201		54.687500
5202		48.828125
5203		52.734375
5204		46.875000
5205		50.781250
5206		42.968750
5207		48.828125
5208		41.015625
5209		44.921875
5210		39.062500
5211		42.968750
5212		37.109375
5213		41.015625
5214		33.203125
5215		39.062500
5216		31.250000
5217		37.109375
5218		29.296875
5219		33.203125
5220		25.390625
5221		31.250000
5222		23.437500
5223		29.296875
5224		21.484375
5225		25.390625
5226		17.578125
5227		23.437500
5228		15.625000
5229		21.484375
5230		13.671875
5231		17.578125
5232		11.718750
5233		15.625000
5234		7.812500
5235		13.671875
5236		5.859375
5237		9.765625
5238		1.953125
5239		7.812500
5240		0.000000
5241		5.859375
5242		-1.953125
5243		1.953125
5244		-5.859375
5245		0.000000
5246		-7.812500
5247		-3.906250
5248		-9.765625
5249		-5.859375
5250		-13.671875
5251		-7.812500
5252		-15.625000
5253		-11.718750
5254		-19.531250
5255		-13.671875
5256		-21.484375
5257		-15.625000
5258		-23.437500
5259		-19.531250
5260		-27.343750
5261		-21.484375
5262		-29.296875
5263		-23.437500
5264		-31.250000
5265		-27.343750
5266		-33.203125
5267		-29.296875
5268		-37.109375
5269		-31.250000
5270		-39.062500
5271		-35.156250
5272		-41.015625
5273		-37.109375
5274		-44.921875
5275		-39.062500
5276		-46.875000
5277		-41.015625
5278		-48.828125
5279		-42.968750
5280		-50.781250
5281		-46.875000
5282		-52.734375
5283		-48.828125
5284		-54.687500
5285		-50.781250
5286		-58.593750
5287		-52.734375
5288		-60.546875
5289		-54.687500
5290		-62.500000
5291		-58.593750
5292		-64.453125
5293		-60.546875
5294		-66.406250
5295		-62.500000
5296		-68.359375
5297		-64.453125
5298		-70.312500
5299		-66.406250
5300		-72.265625
5301		-68.359375
5302		-74.218750
5303		-70.312500
5304		-76.171875
5305		-70.312500
5306		-76.171875
5307		-72.265625
5308		-78.125000
5309		-74.218750
5310		-80.078125
5311		-76.171875
5312		-82.031250
5313		-78.125000
5314		-83.984375
5315		-80.078125
5316		-83.984375
5317		-80.078125
5318		-85.937500
5319		-82.031250
5320		-85.937500
5321		-83.984375
5322		-87.890625
5323		-83.984375
5324		-89.843750
5325		-85.937500
5326		-89.843750
5327		-85.937500
5328		-91.796875
5329		-87.890625
5330		-91.796875
5331		-87.890625
5332		-93.750000
5333		-89.843750
5334		-93.750000
5335		-89.843750
5336		-93.750000
5337		-91.796875
5338		-95.703125
5339		-91.796875
5340		-95.703125
5341		-91.796875
5342		-95.703125
5343		-91.796875
5344		-95.703125
5345		-93.750000
5346		-95.703125
5347		-93.750000
5348		-97.656250
5349		-93.750000
5350		-97.656250
5351		-93.750000
5352		-97.656250
5353		-93.750000
5354		-97.656250
5355		-93.750000
5356		-97.656250
5357		-93.750000
5358		-95.703125
5359		-93.750000
5360		-97.656250
5361		-93.750000
5362		-95.703125
5363		-93.750000
5364		-95.703125
5365		-91.796875
5366		-95.703125
5367		-91.796875
5368		-95.703125
5369		-91.796875
5370		-93.750000
5371		-89.843750
5372		-93.750000
5373		-89.843750
5374		-91.796875
5375		-89.843750
5376		-91.796875
5377		-87.890625
5378		-91.796875
5379		-87.890625
5380		-89.843750
5381		-85.937500
5382		-87.890625
5383		-85.937500
5384		-87.890625
5385		-83.984375
5386		-85.937500
5387		-82.031250
5388		-85.937500
5389		-82.031250
5390		-83.984375
5391		-80.078125
5392		-82.031250
5393		-78.125000
5394		-80.078125
5395		-76.171875
5396		-80.078125
5397		-76.171875
5398		-78.125000
5399		-74.218750
5400		-76.171875
5401		-72.265625
5402		-74.218750
5403		-70.312500
5404		-72.265625
5405		-68.359375
5406		-70.312500
5407		-66.406250
5408		-68.359375
5409		-64.453125
5410		-66.406250
5411		-62.500000
5412		-64.453125
5413		-60.546875
5414		-62.500000
5415		-58.593750
5416		-60.546875
5417		-54.687500
5418		-58.593750
5419		-54.687500
5420		-56.640625
5421		-50.781250
5422		-52.734375
5423		-48.828125
5424		-50.781250
5425		-46.875000
5426		-48.828125
5427		-44.921875
5428		-46.875000
5429		-41.015625
5430		-44.921875
5431		-39.062500
5432		-41.015625
5433		-37.109375
5434		-39.062500
5435		-35.156250
5436		-37.109375
5437		-31.250000
5438		-35.156250
5439		-29.296875
5440		-31.250000
5441		-27.343750
5442		-29.296875
5443		-23.437500
5444		-25.390625
5445		-21.484375
5446		-23.437500
5447		-19.531250
5448		-21.484375
5449		-15.625000
5450		-17.578125
5451		-13.671875
5452		-15.625000
5453		-9.765625
5454		-13.671875
5455		-7.812500
5456		-9.765625
5457		-5.859375
5458		-7.812500
5459		-3.906250
5460		-5.859375
5461		0.000000
5462		-1.953125
5463		1.953125
5464		0.000000
5465		5.859375
5466		1.953125
5467		7.812500
5468		5.859375
5469		9.765625
5470		7.812500
5471		13.671875
5472		11.718750
5473		15.625000
5474		13.671875
5475		17.578125
5476		15.625000
5477		21.484375
5478		19.531250
5479		23.437500
5480		21.484375
5481		25.390625
5482		23.437500
5483		27.343750
5484		27.343750
5485		31.250000
5486		29.296875
5487		33.203125
5488		31.250000
5489		35.156250
5490		33.203125
5491		39.062500
5492		37.109375
5493		41.015625
5494		39.062500
5495		42.968750
5496		41.015625
5497		44.921875
5498		42.968750
5499		46.875000
5500		44.921875
5501		50.781250
5502		48.828125
5503		52.734375
5504		48.828125
5505		54.687500
5506		52.734375
5507		56.640625
5508		54.687500
5509		58.593750
5510		56.640625
5511		60.546875
5512		58.593750
5513		62.500000
5514		60.546875
5515		64.453125
5516		62.500000
5517		66.406250
5518		64.453125
5519		68.359375
5520		66.406250
5521		70.312500
5522		68.359375
5523		72.265625
5524		70.312500
5525		74.218750
5526		72.265625
5527		76.171875
5528		74.218750
5529		78.125000
5530		76.171875
5531		80.078125
5532		78.125000
5533		82.031250
5534		78.125000
5535		82.031250
5536		80.078125
5537		83.984375
5538		82.031250
5539		85.937500
5540		83.984375
5541		87.890625
5542		83.984375
5543		87.890625
5544		85.937500
5545		89.843750
5546		87.890625
5547		91.796875
5548		87.890625
5549		91.796875
5550		89.843750
5551		93.750000
5552		91.796875
5553		93.750000
5554		91.796875
5555		95.703125
5556		93.750000
5557		95.703125
5558		93.750000
5559		97.656250
5560		93.750000
5561		97.656250
5562		95.703125
5563		99.609375
5564		95.703125
5565		99.609375
5566		97.656250
5567		99.609375
5568		97.656250
5569		101.562500
5570		97.656250
5571		101.562500
5572		99.609375
5573		101.562500
5574		99.609375
5575		101.562500
5576		99.609375
5577		103.515625
5578		99.609375
5579		103.515625
5580		99.609375
5581		103.515625
5582		99.609375
5583		103.515625
5584		101.562500
5585		103.515625
5586		101.562500
5587		103.515625
5588		101.562500
5589		103.515625
5590		101.562500
5591		103.515625
5592		101.562500
5593		103.515625
5594		99.609375
5595		103.515625
5596		99.609375
5597		103.515625
5598		99.609375
5599		103.515625
5600		99.609375
5601		103.515625
5602		99.609375
5603		103.515625
5604		99.609375
5605		101.562500
5606		97.656250
5607		101.562500
5608		97.656250
5609		101.562500
5610		97.656250
5611		99.609375
5612		95.703125
5613		99.609375
5614		95.703125
5615		99.609375
5616		95.703125
5617		97.656250
5618		93.750000
5619		97.656250
5620		93.750000
5621		95.703125
5622		91.796875
5623		95.703125
5624		91.796875
5625		95.703125
5626		89.843750
5627		93.750000
5628		89.843750
5629		93.750000
5630		87.890625
5631		91.796875
5632		85.937500
5633		89.843750
5634		85.937500
5635		87.890625
5636		83.984375
5637		87.890625
5638		82.031250
5639		85.937500
5640		82.031250
5641		83.984375
5642		80.078125
5643		82.031250
5644		78.125000
5645		82.031250
5646		76.171875
5647		80.078125
5648		74.218750
5649		78.125000
5650		72.265625
5651		76.171875
5652		70.312500
5653		76.171875
5654		68.359375
5655		72.265625
5656		66.406250
5657		70.312500
5658		64.453125
5659		70.312500
5660		62.500000
5661		68.359375
5662		62.500000
5663		66.406250
5664		58.593750
5665		62.500000
5666		56.640625
5667		60.546875
5668		54.687500
5669		58.593750
5670		52.734375
5671		56.640625
5672		50.781250
5673		54.687500
5674		48.828125
5675		52.734375
5676		44.921875
5677		50.781250
5678		42.968750
5679		48.828125
5680		41.015625
5681		44.921875
5682		39.062500
5683		42.968750
5684		35.156250
5685		41.015625
5686		33.203125
5687		39.062500
5688		31.250000
5689		35.156250
5690		29.296875
5691		33.203125
5692		25.390625
5693		31.250000
5694		23.437500
5695		29.296875
5696		21.484375
5697		25.390625
5698		17.578125
5699		23.437500
5700		15.625000
5701		19.531250
5702		11.718750
5703		17.578125
5704		9.765625
5705		15.625000
5706		7.812500
5707		11.718750
5708		5.859375
5709		9.765625
5710		1.953125
5711		7.812500
5712		0.000000
5713		3.906250
5714		-1.953125
5715		1.953125
5716		-5.859375
5717		0.000000
5718		-7.812500
5719		-3.906250
5720		-11.718750
5721		-5.859375
5722		-13.671875
5723		-7.812500
5724		-15.625000
5725		-11.718750
5726		-19.531250
5727		-13.671875
5728		-21.484375
5729		-17.578125
5730		-25.390625
5731		-19.531250
5732		-27.343750
5733		-21.484375
5734		-29.296875
5735		-25.390625
5736		-31.250000
5737		-27.343750
5738		-35.156250
5739		-29.296875
5740		-37.109375
5741		-31.250000
5742		-39.062500
5743		-35.156250
5744		-41.015625
5745		-37.109375
5746		-44.921875
5747		-39.062500
5748		-46.875000
5749		-41.015625
5750		-48.828125
5751		-44.921875
5752		-50.781250
5753		-46.875000
5754		-52.734375
5755		-48.828125
5756		-56.640625
5757		-50.781250
5758		-58.593750
5759		-54.687500
5760		-60.546875
5761		-56.640625
5762		-62.500000
5763		-58.593750
5764		-64.453125
5765		-60.546875
5766		-66.406250
5767		-62.500000
5768		-68.359375
5769		-64.453125
5770		-70.312500
5771		-66.406250
5772		-72.265625
5773		-68.359375
5774		-74.218750
5775		-70.312500
5776		-76.171875
5777		-72.265625
5778		-78.125000
5779		-74.218750
5780		-78.125000
5781		-74.218750
5782		-80.078125
5783		-76.171875
5784		-82.031250
5785		-78.125000
5786		-82.031250
5787		-80.078125
5788		-83.984375
5789		-80.078125
5790		-85.937500
5791		-82.031250
5792		-87.890625
5793		-83.984375
5794		-87.890625
5795		-83.984375
5796		-89.843750
5797		-85.937500
5798		-89.843750
5799		-87.890625
5800		-91.796875
5801		-87.890625
5802		-91.796875
5803		-89.843750
5804		-93.750000
5805		-89.843750
5806		-93.750000
5807		-89.843750
5808		-93.750000
5809		-91.796875
5810		-95.703125
5811		-91.796875
5812		-95.703125
5813		-91.796875
5814		-95.703125
5815		-91.796875
5816		-95.703125
5817		-93.750000
5818		-95.703125
5819		-93.750000
5820		-95.703125
5821		-93.750000
5822		-95.703125
5823		-93.750000
5824		-97.656250
5825		-93.750000
5826		-95.703125
5827		-93.750000
5828		-95.703125
5829		-93.750000
5830		-97.656250
5831		-93.750000
5832		-95.703125
5833		-93.750000
5834		-95.703125
5835		-91.796875
5836		-95.703125
5837		-91.796875
5838		-93.750000
5839		-91.796875
5840		-93.750000
5841		-91.796875
5842		-93.750000
5843		-89.843750
5844		-93.750000
5845		-89.843750
5846		-91.796875
5847		-87.890625
5848		-91.796875
5849		-87.890625
5850		-89.843750
5851		-85.937500
5852		-89.843750
5853		-85.937500
5854		-87.890625
5855		-83.984375
5856		-85.937500
5857		-83.984375
5858		-87.890625
5859		-82.031250
5860		-83.984375
5861		-80.078125
5862		-83.984375
5863		-78.125000
5864		-82.031250
5865		-78.125000
5866		-80.078125
5867		-76.171875
5868		-78.125000
5869		-74.218750
5870		-76.171875
5871		-74.218750
5872		-76.171875
5873		-72.265625
5874		-74.218750
5875		-68.359375
5876		-72.265625
5877		-68.359375
5878		-70.312500
5879		-64.453125
5880		-70.312500
5881		-62.500000
5882		-66.406250
5883		-58.593750
5884		-64.453125
5885		-60.546875
5886		-60.546875
5887		-56.640625
5888		-60.546875
5889		-54.687500
5890		-56.640625
5891		-52.734375
5892		-56.640625
5893		-50.781250
5894		-52.734375
5895		-48.828125
5896		-50.781250
5897		-46.875000
5898		-48.828125
5899		-42.968750
5900		-46.875000
5901		-41.015625
5902		-42.968750
5903		-39.062500
5904		-41.015625
5905		-35.156250
5906		-39.062500
5907		-33.203125
5908		-37.109375
5909		-31.250000
5910		-33.203125
5911		-27.343750
5912		-31.250000
5913		-25.390625
5914		-27.343750
5915		-23.437500
5916		-27.343750
5917		-19.531250
5918		-23.437500
5919		-17.578125
5920		-19.531250
5921		-15.625000
5922		-17.578125
5923		-11.718750
5924		-17.578125
5925		-7.812500
5926		-13.671875
5927		-7.812500
5928		-9.765625
5929		-3.906250
5930		-7.812500
5931		-1.953125
5932		-3.906250
5933		1.953125
5934		-1.953125
5935		3.906250
5936		1.953125
5937		5.859375
5938		3.906250
5939		9.765625
5940		3.906250
5941		13.671875
5942		7.812500
5943		13.671875
5944		11.718750
5945		15.625000
5946		11.718750
5947		23.437500
5948		13.671875
5949		23.437500
5950		19.531250
5951		25.390625
5952		21.484375
5953		27.343750
5954		25.390625
5955		29.296875
5956		25.390625
5957		33.203125
5958		29.296875
5959		35.156250
5960		31.250000
5961		37.109375
5962		33.203125
5963		39.062500
5964		35.156250
5965		44.921875
5966		37.109375
5967		44.921875
5968		41.015625
5969		46.875000
5970		44.921875
5971		48.828125
5972		46.875000
5973		52.734375
5974		46.875000
5975		54.687500
5976		48.828125
5977		54.687500
5978		52.734375
5979		56.640625
5980		52.734375
5981		62.500000
5982		56.640625
5983		62.500000
5984		56.640625
5985		66.406250
5986		62.500000
5987		66.406250
5988		64.453125
5989		68.359375
5990		64.453125
5991		72.265625
5992		66.406250
5993		72.265625
5994		68.359375
5995		74.218750
5996		70.312500
5997		78.125000
5998		70.312500
5999		78.125000
6000		74.218750
6001		82.031250
6002		76.171875
6003		80.078125
6004		78.125000
6005		82.031250
6006		78.125000
6007		83.984375
6008		78.125000
6009		87.890625
6010		82.031250
6011		85.937500
6012		83.984375
6013		87.890625
6014		82.031250
6015		91.796875
6016		85.937500
6017		93.750000
6018		87.890625
6019		91.796875
6020		89.843750
6021		93.750000
6022		87.890625
6023		93.750000
6024		89.843750
6025		97.656250
6026		91.796875
6027		97.656250
6028		93.750000
6029		95.703125
6030		93.750000
6031		99.609375
6032		91.796875
6033		101.562500
6034		93.750000
6035		101.562500
6036		97.656250
6037		99.609375
6038		97.656250
6039		101.562500
6040		95.703125
6041		103.515625
6042		95.703125
6043		105.468750
6044		99.609375
6045		103.515625
6046		99.609375
6047		103.515625
6048		97.656250
6049		105.468750
6050		97.656250
6051		107.421875
6052		101.562500
6053		103.515625
6054		101.562500
6055		103.515625
6056		99.609375
6057		105.468750
6058		97.656250
6059		107.421875
6060		99.609375
6061		105.468750
6062		101.562500
6063		103.515625
6064		97.656250
6065		107.421875
6066		97.656250
6067		105.468750
6068		97.656250
6069		105.468750
6070		99.609375
6071		103.515625
6072		99.609375
6073		103.515625
6074		95.703125
6075		105.468750
6076		97.656250
6077		103.515625
6078		99.609375
6079		101.562500
6080		97.656250
6081		101.562500
6082		95.703125
6083		103.515625
6084		95.703125
6085		103.515625
6086		95.703125
6087		99.609375
6088		95.703125
6089		99.609375
6090		93.750000
6091		99.609375
6092		91.796875
6093		99.609375
6094		93.750000
6095		95.703125
6096		89.843750
6097		95.703125
6098		85.937500
6099		95.703125
6100		87.890625
6101		93.750000
6102		87.890625
6103		91.796875
6104		85.937500
6105		89.843750
6106		83.984375
6107		87.890625
6108		82.031250
6109		89.843750
6110		80.078125
6111		87.890625
6112		80.078125
6113		83.984375
6114		76.171875
6115		85.937500
6116		74.218750
6117		83.984375
6118		74.218750
6119		82.031250
6120		74.218750
6121		78.125000
6122		72.265625
6123		76.171875
6124		70.312500
6125		76.171875
6126		68.359375
6127		76.171875
6128		68.359375
6129		72.265625
6130		64.453125
6131		70.312500
6132		62.500000
6133		68.359375
6134		58.593750
6135		66.406250
6136		58.593750
6137		62.500000
6138		56.640625
6139		60.546875
6140		54.687500
6141		58.593750
6142		50.781250
6143		58.593750
6144		50.781250
6145		56.640625
6146		48.828125
6147		52.734375
6148		44.921875
6149		50.781250
6150		42.968750
6151		46.875000
6152		41.015625
6153		44.921875
6154		39.062500
6155		42.968750
6156		37.109375
6157		41.015625
6158		33.203125
6159		37.109375
6160		31.250000
6161		37.109375
6162		27.343750
6163		33.203125
6164		25.390625
6165		31.250000
6166		23.437500
6167		27.343750
6168		21.484375
6169		25.390625
6170		17.578125
6171		21.484375
6172		15.625000
6173		19.531250
6174		13.671875
6175		17.578125
6176		9.765625
6177		15.625000
6178		7.812500
6179		11.718750
6180		5.859375
6181		9.765625
6182		1.953125
6183		7.812500
6184		0.000000
6185		3.906250
6186		-3.906250
6187		3.906250
6188		-5.859375
6189		-1.953125
6190		-7.812500
6191		-3.906250
6192		-11.718750
6193		-5.859375
6194		-13.671875
6195		-9.765625
6196		-15.625000
6197		-11.718750
6198		-19.531250
6199		-13.671875
6200		-21.484375
6201		-17.578125
6202		-23.437500
6203		-19.531250
6204		-27.343750
6205		-21.484375
6206		-29.296875
6207		-25.390625
6208		-33.203125
6209		-27.343750
6210		-35.156250
6211		-29.296875
6212		-39.062500
6213		-31.250000
6214		-39.062500
6215		-33.203125
6216		-42.968750
6217		-37.109375
6218		-44.921875
6219		-39.062500
6220		-46.875000
6221		-42.968750
6222		-48.828125
6223		-44.921875
6224		-50.781250
6225		-46.875000
6226		-54.687500
6227		-48.828125
6228		-56.640625
6229		-50.781250
6230		-58.593750
6231		-52.734375
6232		-60.546875
6233		-54.687500
6234		-62.500000
6235		-56.640625
6236		-64.453125
6237		-60.546875
6238		-66.406250
6239		-62.500000
6240		-70.312500
6241		-64.453125
6242		-72.265625
6243		-64.453125
6244		-72.265625
6245		-66.406250
6246		-76.171875
6247		-68.359375
6248		-76.171875
6249		-70.312500
6250		-78.125000
6251		-72.265625
6252		-80.078125
6253		-74.218750
6254		-80.078125
6255		-76.171875
6256		-82.031250
6257		-78.125000
6258		-83.984375
6259		-78.125000
6260		-85.937500
6261		-80.078125
6262		-87.890625
6263		-82.031250
6264		-87.890625
6265		-82.031250
6266		-89.843750
6267		-83.984375
6268		-89.843750
6269		-83.984375
6270		-91.796875
6271		-85.937500
6272		-91.796875
6273		-87.890625
6274		-91.796875
6275		-87.890625
6276		-93.750000
6277		-89.843750
6278		-93.750000
6279		-89.843750
6280		-95.703125
6281		-89.843750
6282		-95.703125
6283		-91.796875
6284		-95.703125
6285		-91.796875
6286		-95.703125
6287		-91.796875
6288		-95.703125
6289		-93.750000
6290		-95.703125
6291		-93.750000
6292		-95.703125
6293		-91.796875
6294		-95.703125
6295		-91.796875
6296		-97.656250
6297		-91.796875
6298		-97.656250
6299		-91.796875
6300		-97.656250
6301		-91.796875
6302		-95.703125
6303		-91.796875
6304		-95.703125
6305		-91.796875
6306		-95.703125
6307		-91.796875
6308		-95.703125
6309		-91.796875
6310		-95.703125
6311		-89.843750
6312		-93.750000
6313		-89.843750
6314		-95.703125
6315		-87.890625
6316		-93.750000
6317		-87.890625
6318		-91.796875
6319		-87.890625
6320		-91.796875
6321		-85.937500
6322		-89.843750
6323		-85.937500
6324		-89.843750
6325		-83.984375
6326		-87.890625
6327		-83.984375
6328		-85.937500
6329		-82.031250
6330		-85.937500
6331		-80.078125
6332		-83.984375
6333		-80.078125
6334		-82.031250
6335		-78.125000
6336		-82.031250
6337		-76.171875
6338		-80.078125
6339		-76.171875
6340		-78.125000
6341		-74.218750
6342		-76.171875
6343		-72.265625
6344		-74.218750
6345		-70.312500
6346		-72.265625
6347		-68.359375
6348		-72.265625
6349		-66.406250
6350		-70.312500
6351		-64.453125
6352		-68.359375
6353		-62.500000
6354		-66.406250
6355		-60.546875
6356		-62.500000
6357		-58.593750
6358		-60.546875
6359		-56.640625
6360		-58.593750
6361		-54.687500
6362		-56.640625
6363		-50.781250
6364		-54.687500
6365		-48.828125
6366		-52.734375
6367		-46.875000
6368		-48.828125
6369		-44.921875
6370		-46.875000
6371		-42.968750
6372		-44.921875
6373		-41.015625
6374		-41.015625
6375		-37.109375
6376		-41.015625
6377		-35.156250
6378		-37.109375
6379		-33.203125
6380		-35.156250
6381		-29.296875
6382		-35.156250
6383		-27.343750
6384		-29.296875
6385		-23.437500
6386		-27.343750
6387		-21.484375
6388		-23.437500
6389		-19.531250
6390		-21.484375
6391		-17.578125
6392		-19.531250
6393		-13.671875
6394		-15.625000
6395		-11.718750
6396		-13.671875
6397		-9.765625
6398		-11.718750
6399		-5.859375
6400		-7.812500
6401		-3.906250
6402		-5.859375
6403		0.000000
6404		-1.953125
6405		1.953125
6406		0.000000
6407		3.906250
6408		1.953125
6409		7.812500
6410		5.859375
6411		9.765625
6412		7.812500
6413		11.718750
6414		9.765625
6415		15.625000
6416		13.671875
6417		17.578125
6418		15.625000
6419		19.531250
6420		17.578125
6421		23.437500
6422		19.531250
6423		25.390625
6424		23.437500
6425		27.343750
6426		25.390625
6427		31.250000
6428		27.343750
6429		33.203125
6430		31.250000
6431		35.156250
6432		33.203125
6433		37.109375
6434		35.156250
6435		41.015625
6436		39.062500
6437		42.968750
6438		41.015625
6439		44.921875
6440		42.968750
6441		46.875000
6442		44.921875
6443		50.781250
6444		46.875000
6445		52.734375
6446		48.828125
6447		54.687500
6448		52.734375
6449		56.640625
6450		54.687500
6451		58.593750
6452		56.640625
6453		60.546875
6454		56.640625
6455		62.500000
6456		60.546875
6457		64.453125
6458		62.500000
6459		66.406250
6460		64.453125
6461		68.359375
6462		66.406250
6463		70.312500
6464		68.359375
6465		72.265625
6466		70.312500
6467		74.218750
6468		72.265625
6469		76.171875
6470		72.265625
6471		78.125000
6472		74.218750
6473		78.125000
6474		76.171875
6475		80.078125
6476		78.125000
6477		82.031250
6478		80.078125
6479		83.984375
6480		82.031250
6481		85.937500
6482		82.031250
6483		85.937500
6484		83.984375
6485		87.890625
6486		85.937500
6487		89.843750
6488		85.937500
6489		89.843750
6490		87.890625
6491		91.796875
6492		89.843750
6493		93.750000
6494		89.843750
6495		93.750000
6496		91.796875
6497		95.703125
6498		91.796875
6499		95.703125
6500		93.750000
6501		97.656250
6502		93.750000
6503		97.656250
6504		95.703125
6505		99.609375
6506		95.703125
6507		99.609375
6508		97.656250
6509		99.609375
6510		97.656250
6511		101.562500
6512		97.656250
6513		101.562500
6514		97.656250
6515		101.562500
6516		99.609375
6517		101.562500
6518		99.609375
6519		103.515625
6520		99.609375
6521		103.515625
6522		99.609375
6523		103.515625
6524		99.609375
6525		103.515625
6526		99.609375
6527		103.515625
6528		101.562500
6529		103.515625
6530		101.562500
6531		103.515625
6532		101.562500
6533		103.515625
6534		101.562500
6535		103.515625
6536		101.562500
6537		103.515625
6538		99.609375
6539		103.515625
6540		99.609375
6541		103.515625
6542		99.609375
6543		103.515625
6544		99.609375
6545		103.515625
6546		99.609375
6547		103.515625
6548		99.609375
6549		103.515625
6550		97.656250
6551		103.515625
6552		97.656250
6553		101.562500
6554		97.656250
6555		99.609375
6556		95.703125
6557		99.609375
6558		95.703125
6559		99.609375
6560		93.750000
6561		97.656250
6562		93.750000
6563		97.656250
6564		91.796875
6565		95.703125
6566		91.796875
6567		95.703125
6568		89.843750
6569		93.750000
6570		89.843750
6571		93.750000
6572		87.890625
6573		93.750000
6574		87.890625
6575		91.796875
6576		85.937500
6577		89.843750
6578		83.984375
6579		87.890625
6580		83.984375
6581		85.937500
6582		82.031250
6583		85.937500
6584		80.078125
6585		83.984375
6586		78.125000
6587		82.031250
6588		76.171875
6589		82.031250
6590		76.171875
6591		80.078125
6592		74.218750
6593		78.125000
6594		72.265625
6595		76.171875
6596		70.312500
6597		74.218750
6598		66.406250
6599		72.265625
6600		66.406250
6601		70.312500
6602		64.453125
6603		68.359375
6604		62.500000
6605		66.406250
6606		60.546875
6607		64.453125
6608		58.593750
6609		62.500000
6610		54.687500
6611		60.546875
6612		54.687500
6613		58.593750
6614		50.781250
6615		56.640625
6616		48.828125
6617		54.687500
6618		46.875000
6619		50.781250
6620		44.921875
6621		48.828125
6622		41.015625
6623		46.875000
6624		41.015625
6625		44.921875
6626		37.109375
6627		41.015625
6628		35.156250
6629		39.062500
6630		33.203125
6631		37.109375
6632		29.296875
6633		35.156250
6634		27.343750
6635		33.203125
6636		25.390625
6637		29.296875
6638		21.484375
6639		27.343750
6640		19.531250
6641		25.390625
6642		17.578125
6643		21.484375
6644		13.671875
6645		19.531250
6646		11.718750
6647		17.578125
6648		9.765625
6649		13.671875
6650		5.859375
6651		11.718750
6652		3.906250
6653		9.765625
6654		1.953125
6655		5.859375
6656		-1.953125
6657		3.906250
6658		-3.906250
6659		0.000000
6660		-7.812500
6661		-1.953125
6662		-9.765625
6663		-3.906250
6664		-11.718750
6665		-7.812500
6666		-15.625000
6667		-9.765625
6668		-17.578125
6669		-13.671875
6670		-19.531250
6671		-15.625000
6672		-23.437500
6673		-17.578125
6674		-25.390625
6675		-21.484375
6676		-27.343750
6677		-23.437500
6678		-31.250000
6679		-25.390625
6680		-33.203125
6681		-27.343750
6682		-35.156250
6683		-29.296875
6684		-39.062500
6685		-33.203125
6686		-41.015625
6687		-35.156250
6688		-42.968750
6689		-39.062500
6690		-44.921875
6691		-41.015625
6692		-46.875000
6693		-42.968750
6694		-50.781250
6695		-44.921875
6696		-52.734375
6697		-46.875000
6698		-54.687500
6699		-50.781250
6700		-56.640625
6701		-52.734375
6702		-58.593750
6703		-54.687500
6704		-60.546875
6705		-56.640625
6706		-64.453125
6707		-58.593750
6708		-64.453125
6709		-60.546875
6710		-66.406250
6711		-62.500000
6712		-68.359375
6713		-64.453125
6714		-72.265625
6715		-66.406250
6716		-74.218750
6717		-68.359375
6718		-76.171875
6719		-70.312500
6720		-76.171875
6721		-72.265625
6722		-78.125000
6723		-74.218750
6724		-80.078125
6725		-74.218750
6726		-82.031250
6727		-78.125000
6728		-82.031250
6729		-78.125000
6730		-83.984375
6731		-80.078125
6732		-85.937500
6733		-82.031250
6734		-87.890625
6735		-82.031250
6736		-87.890625
6737		-83.984375
6738		-89.843750
6739		-85.937500
6740		-89.843750
6741		-85.937500
6742		-89.843750
6743		-87.890625
6744		-93.750000
6745		-87.890625
6746		-93.750000
6747		-87.890625
6748		-93.750000
6749		-89.843750
6750		-93.750000
6751		-91.796875
6752		-95.703125
6753		-91.796875
6754		-95.703125
6755		-91.796875
6756		-97.656250
6757		-91.796875
6758		-95.703125
6759		-93.750000
6760		-95.703125
6761		-93.750000
6762		-97.656250
6763		-91.796875
6764		-97.656250
6765		-93.750000
6766		-97.656250
6767		-93.750000
6768		-97.656250
6769		-93.750000
6770		-97.656250
6771		-93.750000
6772		-97.656250
6773		-93.750000
6774		-97.656250
6775		-93.750000
6776		-95.703125
6777		-93.750000
6778		-95.703125
6779		-91.796875
6780		-95.703125
6781		-91.796875
6782		-93.750000
6783		-89.843750
6784		-93.750000
6785		-91.796875
6786		-93.750000
6787		-89.843750
6788		-91.796875
6789		-89.843750
6790		-91.796875
6791		-87.890625
6792		-89.843750
6793		-87.890625
6794		-89.843750
6795		-85.937500
6796		-89.843750
6797		-85.937500
6798		-87.890625
6799		-83.984375
6800		-87.890625
6801		-82.031250
6802		-85.937500
6803		-82.031250
6804		-83.984375
6805		-80.078125
6806		-82.031250
6807		-78.125000
6808		-80.078125
6809		-76.171875
6810		-80.078125
6811		-74.218750
6812		-78.125000
6813		-72.265625
6814		-76.171875
6815		-72.265625
6816		-74.218750
6817		-70.312500
6818		-72.265625
6819		-68.359375
6820		-70.312500
6821		-66.406250
6822		-68.359375
6823		-64.453125
6824		-66.406250
6825		-62.500000
6826		-64.453125
6827		-60.546875
6828		-62.500000
6829		-58.593750
6830		-60.546875
6831		-56.640625
6832		-58.593750
6833		-52.734375
6834		-56.640625
6835		-52.734375
6836		-52.734375
6837		-48.828125
6838		-50.781250
6839		-46.875000
6840		-48.828125
6841		-42.968750
6842		-46.875000
6843		-41.015625
6844		-44.921875
6845		-39.062500
6846		-42.968750
6847		-37.109375
6848		-39.062500
6849		-35.156250
6850		-37.109375
6851		-33.203125
6852		-35.156250
6853		-29.296875
6854		-31.250000
6855		-27.343750
6856		-29.296875
6857		-25.390625
6858		-27.343750
6859		-21.484375
6860		-23.437500
6861		-19.531250
6862		-21.484375
6863		-15.625000
6864		-19.531250
6865		-13.671875
6866		-17.578125
6867		-11.718750
6868		-13.671875
6869		-7.812500
6870		-11.718750
6871		-5.859375
6872		-7.812500
6873		-3.906250
6874		-5.859375
6875		0.000000
6876		-1.953125
6877		1.953125
6878		0.000000
6879		3.906250
6880		1.953125
6881		7.812500
6882		5.859375
6883		9.765625
6884		7.812500
6885		13.671875
6886		9.765625
6887		15.625000
6888		13.671875
6889		17.578125
6890		15.625000
6891		21.484375
6892		17.578125
6893		23.437500
6894		21.484375
6895		25.390625
6896		23.437500
6897		27.343750
6898		25.390625
6899		31.250000
6900		29.296875
6901		33.203125
6902		31.250000
6903		35.156250
6904		33.203125
6905		39.062500
6906		35.156250
6907		41.015625
6908		39.062500
6909		42.968750
6910		41.015625
6911		44.921875
6912		42.968750
6913		46.875000
6914		44.921875
6915		50.781250
6916		46.875000
6917		52.734375
6918		50.781250
6919		54.687500
6920		52.734375
6921		56.640625
6922		54.687500
6923		58.593750
6924		54.687500
6925		62.500000
6926		58.593750
6927		62.500000
6928		60.546875
6929		64.453125
6930		62.500000
6931		66.406250
6932		64.453125
6933		68.359375
6934		66.406250
6935		70.312500
6936		68.359375
6937		72.265625
6938		70.312500
6939		74.218750
6940		72.265625
6941		76.171875
6942		74.218750
6943		78.125000
6944		76.171875
6945		80.078125
6946		78.125000
6947		82.031250
6948		78.125000
6949		82.031250
6950		80.078125
6951		83.984375
6952		82.031250
6953		85.937500
6954		83.984375
6955		87.890625
6956		83.984375
6957		87.890625
6958		85.937500
6959		89.843750
6960		87.890625
6961		91.796875
6962		87.890625
6963		91.796875
6964		89.843750
6965		93.750000
6966		89.843750
6967		93.750000
6968		91.796875
6969		95.703125
6970		93.750000
6971		95.703125
6972		93.750000
6973		97.656250
6974		93.750000
6975		97.656250
6976		93.750000
6977		99.609375
6978		95.703125
6979		99.609375
6980		97.656250
6981		101.562500
6982		97.656250
6983		101.562500
6984		97.656250
6985		101.562500
6986		97.656250
6987		101.562500
6988		99.609375
6989		103.515625
6990		97.656250
6991		103.515625
6992		99.609375
6993		103.515625
6994		99.609375
6995		103.515625
6996		99.609375
6997		103.515625
6998		99.609375
6999		103.515625
7000		101.562500
7001		103.515625
7002		101.562500
7003		103.515625
7004		101.562500
7005		103.515625
7006		99.609375
7007		105.468750
7008		99.609375
7009		103.515625
7010		99.609375
7011		105.468750
7012		99.609375
7013		103.515625
7014		99.609375
7015		103.515625
7016		99.609375
7017		103.515625
7018		99.609375
7019		103.515625
7020		97.656250
7021		103.515625
7022		97.656250
7023		101.562500
7024		97.656250
7025		101.562500
7026		97.656250
7027		99.609375
7028		95.703125
7029		99.609375
7030		95.703125
7031		99.609375
7032		93.750000
7033		99.609375
7034		93.750000
7035		97.656250
7036		93.750000
7037		95.703125
7038		91.796875
7039		95.703125
7040		89.843750
7041		95.703125
7042		89.843750
7043		93.750000
7044		87.890625
7045		91.796875
7046		87.890625
7047		91.796875
7048		85.937500
7049		89.843750
7050		83.984375
7051		87.890625
7052		83.984375
7053		85.937500
7054		82.031250
7055		85.937500
7056		80.078125
7057		83.984375
7058		78.125000
7059		82.031250
7060		76.171875
7061		80.078125
7062		74.218750
7063		78.125000
7064		72.265625
7065		78.125000
7066		70.312500
7067		76.171875
7068		70.312500
7069		74.218750
7070		68.359375
7071		72.265625
7072		66.406250
7073		70.312500
7074		64.453125
7075		68.359375
7076		62.500000
7077		66.406250
7078		60.546875
7079		64.453125
7080		56.640625
7081		62.500000
7082		54.687500
7083		60.546875
7084		52.734375
7085		58.593750
7086		50.781250
7087		54.687500
7088		48.828125
7089		52.734375
7090		46.875000
7091		50.781250
7092		44.921875
7093		48.828125
7094		41.015625
7095		46.875000
7096		39.062500
7097		42.968750
7098		37.109375
7099		41.015625
7100		33.203125
7101		39.062500
7102		31.250000
7103		37.109375
7104		29.296875
7105		33.203125
7106		27.343750
7107		31.250000
7108		23.437500
7109		29.296875
7110		21.484375
7111		25.390625
7112		19.531250
7113		23.437500
7114		15.625000
7115		21.484375
7116		13.671875
7117		19.531250
7118		11.718750
7119		15.625000
7120		7.812500
7121		13.671875
7122		5.859375
7123		9.765625
7124		3.906250
7125		7.812500
7126		0.000000
7127		5.859375
7128		-1.953125
7129		1.953125
7130		-3.906250
7131		0.000000
7132		-7.812500
7133		-1.953125
7134		-9.765625
7135		-5.859375
7136		-13.671875
7137		-7.812500
7138		-15.625000
7139		-9.765625
7140		-17.578125
7141		-13.671875
7142		-21.484375
7143		-15.625000
7144		-23.437500
7145		-17.578125
7146		-25.390625
7147		-21.484375
7148		-29.296875
7149		-23.437500
7150		-31.250000
7151		-27.343750
7152		-33.203125
7153		-29.296875
7154		-35.156250
7155		-31.250000
7156		-39.062500
7157		-33.203125
7158		-41.015625
7159		-37.109375
7160		-42.968750
7161		-39.062500
7162		-46.875000
7163		-41.015625
7164		-48.828125
7165		-42.968750
7166		-50.781250
7167		-44.921875
7168		-52.734375
7169		-48.828125
7170		-54.687500
7171		-50.781250
7172		-58.593750
7173		-52.734375
7174		-60.546875
7175		-54.687500
7176		-62.500000
7177		-56.640625
7178		-64.453125
7179		-58.593750
7180		-66.406250
7181		-62.500000
7182		-68.359375
7183		-64.453125
7184		-70.312500
7185		-66.406250
7186		-72.265625
7187		-68.359375
7188		-74.218750
7189		-70.312500
7190		-74.218750
7191		-72.265625
7192		-76.171875
7193		-72.265625
7194		-78.125000
7195		-74.218750
7196		-80.078125
7197		-76.171875
7198		-82.031250
7199		-78.125000
7200		-83.984375
7201		-80.078125
7202		-83.984375
7203		-80.078125
7204		-85.937500
7205		-82.031250
7206		-87.890625
7207		-83.984375
7208		-89.843750
7209		-83.984375
7210		-89.843750
7211		-85.937500
7212		-89.843750
7213		-87.890625
7214		-91.796875
7215		-87.890625
7216		-91.796875
7217		-87.890625
7218		-93.750000
7219		-89.843750
7220		-93.750000
7221		-89.843750
7222		-95.703125
7223		-89.843750
7224		-95.703125
7225		-91.796875
7226		-95.703125
7227		-91.796875
7228		-95.703125
7229		-91.796875
7230		-95.703125
7231		-93.750000
7232		-97.656250
7233		-93.750000
7234		-97.656250
7235		-93.750000
7236		-97.656250
7237		-93.750000
7238		-97.656250
7239		-93.750000
7240		-97.656250
7241		-93.750000
7242		-97.656250
7243		-93.750000
7244		-97.656250
7245		-93.750000
7246		-95.703125
7247		-93.750000
7248		-95.703125
7249		-93.750000
7250		-95.703125
7251		-91.796875
7252		-95.703125
7253		-91.796875
7254		-95.703125
7255		-91.796875
7256		-93.750000
7257		-91.796875
7258		-93.750000
7259		-89.843750
7260		-93.750000
7261		-89.843750
7262		-91.796875
7263		-87.890625
7264		-89.843750
7265		-87.890625
7266		-89.843750
7267		-85.937500
7268		-87.890625
7269		-85.937500
7270		-87.890625
7271		-83.984375
7272		-85.937500
7273		-82.031250
7274		-85.937500
7275		-82.031250
7276		-83.984375
7277		-80.078125
7278		-82.031250
7279		-78.125000
7280		-80.078125
7281		-78.125000
7282		-80.078125
7283		-74.218750
7284		-78.125000
7285		-74.218750
7286		-76.171875
7287		-72.265625
7288		-74.218750
7289		-70.312500
7290		-72.265625
7291		-68.359375
7292		-70.312500
7293		-66.406250
7294		-68.359375
7295		-64.453125
7296		-66.406250
7297		-62.500000
7298		-64.453125
7299		-60.546875
7300		-62.500000
7301		-58.593750
7302		-60.546875
7303		-56.640625
7304		-58.593750
7305		-54.687500
7306		-56.640625
7307		-50.781250
7308		-52.734375
7309		-48.828125
7310		-50.781250
7311		-46.875000
7312		-48.828125
7313		-44.921875
7314		-46.875000
7315		-42.968750
7316		-44.921875
7317		-39.062500
7318		-42.968750
7319		-37.109375
7320		-39.062500
7321		-35.156250
7322		-37.109375
7323		-31.250000
7324		-35.156250
7325		-29.296875
7326		-31.250000
7327		-27.343750
7328		-29.296875
7329		-23.437500
7330		-27.343750
7331		-21.484375
7332		-23.437500
7333		-19.531250
7334		-21.484375
7335		-15.625000
7336		-19.531250
7337		-13.671875
7338		-15.625000
7339		-11.718750
7340		-13.671875
7341		-7.812500
7342		-11.718750
7343		-5.859375
7344		-9.765625
7345		-3.906250
7346		-5.859375
7347		0.000000
7348		-1.953125
7349		1.953125
7350		0.000000
7351		5.859375
7352		1.953125
7353		7.812500
7354		3.906250
7355		9.765625
7356		7.812500
7357		13.671875
7358		11.718750
7359		15.625000
7360		13.671875
7361		19.531250
7362		15.625000
7363		21.484375
7364		19.531250
7365		23.437500
7366		21.484375
7367		27.343750
7368		23.437500
7369		29.296875
7370		27.343750
7371		31.250000
7372		29.296875
7373		33.203125
7374		31.250000
7375		35.156250
7376		33.203125
7377		39.062500
7378		37.109375
7379		41.015625
7380		39.062500
7381		42.968750
7382		41.015625
7383		44.921875
7384		42.968750
7385		46.875000
7386		44.921875
7387		50.781250
7388		46.875000
7389		52.734375
7390		50.781250
7391		54.687500
7392		52.734375
7393		56.640625
7394		54.687500
7395		58.593750
7396		56.640625
7397		60.546875
7398		58.593750
7399		62.500000
7400		60.546875
7401		64.453125
7402		62.500000
7403		68.359375
7404		64.453125
7405		68.359375
7406		66.406250
7407		70.312500
7408		68.359375
7409		72.265625
7410		70.312500
7411		74.218750
7412		70.312500
7413		78.125000
7414		74.218750
7415		78.125000
7416		76.171875
7417		80.078125
7418		76.171875
7419		80.078125
7420		78.125000
7421		82.031250
7422		80.078125
7423		83.984375
7424		82.031250
7425		85.937500
7426		82.031250
7427		85.937500
7428		83.984375
7429		87.890625
7430		85.937500
7431		89.843750
7432		87.890625
7433		91.796875
7434		87.890625
7435		91.796875
7436		89.843750
7437		93.750000
7438		89.843750
7439		93.750000
7440		91.796875
7441		95.703125
7442		91.796875
7443		95.703125
7444		93.750000
7445		97.656250
7446		93.750000
7447		97.656250
7448		95.703125
7449		97.656250
7450		95.703125
7451		99.609375
7452		95.703125
7453		99.609375
7454		97.656250
7455		99.609375
7456		97.656250
7457		101.562500
7458		97.656250
7459		101.562500
7460		97.656250
7461		101.562500
7462		97.656250
7463		103.515625
7464		99.609375
7465		101.562500
7466		99.609375
7467		103.515625
7468		99.609375
7469		103.515625
7470		99.609375
7471		103.515625
7472		99.609375
7473		103.515625
7474		99.609375
7475		103.515625
7476		99.609375
7477		103.515625
7478		99.609375
7479		103.515625
7480		99.609375
7481		103.515625
7482		99.609375
7483		103.515625
7484		97.656250
7485		103.515625
7486		99.609375
7487		103.515625
7488		97.656250
7489		101.562500
7490		97.656250
7491		101.562500
7492		97.656250
7493		101.562500
7494		97.656250
7495		99.609375
7496		95.703125
7497		101.562500
7498		95.703125
7499		99.609375
7500		95.703125
7501		97.656250
7502		93.750000
7503		97.656250
7504		93.750000
7505		97.656250
7506		93.750000
7507		95.703125
7508		91.796875
7509		95.703125
7510		89.843750
7511		93.750000
7512		89.843750
7513		93.750000
7514		87.890625
7515		91.796875
7516		87.890625
7517		91.796875
7518		85.937500
7519		89.843750
7520		83.984375
7521		89.843750
7522		83.984375
7523		85.937500
7524		82.031250
7525		85.937500
7526		80.078125
7527		83.984375
7528		78.125000
7529		82.031250
7530		76.171875
7531		80.078125
7532		76.171875
7533		80.078125
7534		74.218750
7535		78.125000
7536		72.265625
7537		76.171875
7538		70.312500
7539		74.218750
7540		68.359375
7541		72.265625
7542		66.406250
7543		70.312500
7544		64.453125
7545		68.359375
7546		60.546875
7547		66.406250
7548		60.546875
7549		64.453125
7550		58.593750
7551		62.500000
7552		56.640625
7553		60.546875
7554		52.734375
7555		58.593750
7556		52.734375
7557		56.640625
7558		50.781250
7559		54.687500
7560		46.875000
7561		52.734375
7562		44.921875
7563		50.781250
7564		42.968750
7565		48.828125
7566		41.015625
7567		44.921875
7568		37.109375
7569		42.968750
7570		35.156250
7571		41.015625
7572		33.203125
7573		37.109375
7574		29.296875
7575		35.156250
7576		27.343750
7577		33.203125
7578		25.390625
7579		29.296875
7580		21.484375
7581		27.343750
7582		19.531250
7583		25.390625
7584		17.578125
7585		21.484375
7586		15.625000
7587		19.531250
7588		11.718750
7589		17.578125
7590		9.765625
7591		15.625000
7592		7.812500
7593		11.718750
7594		3.906250
7595		9.765625
7596		0.000000
7597		5.859375
7598		0.000000
7599		3.906250
7600		-3.906250
7601		1.953125
7602		-7.812500
7603		-1.953125
7604		-9.765625
7605		-3.906250
7606		-11.718750
7607		-7.812500
7608		-13.671875
7609		-9.765625
7610		-17.578125
7611		-11.718750
7612		-19.531250
7613		-15.625000
7614		-21.484375
7615		-17.578125
7616		-25.390625
7617		-19.531250
7618		-27.343750
7619		-23.437500
7620		-31.250000
7621		-25.390625
7622		-33.203125
7623		-27.343750
7624		-35.156250
7625		-31.250000
7626		-39.062500
7627		-33.203125
7628		-41.015625
7629		-35.156250
7630		-42.968750
7631		-39.062500
7632		-44.921875
7633		-41.015625
7634		-46.875000
7635		-42.968750
7636		-50.781250
7637		-44.921875
7638		-52.734375
7639		-48.828125
7640		-54.687500
7641		-50.781250
7642		-56.640625
7643		-52.734375
7644		-58.593750
7645		-54.687500
7646		-60.546875
7647		-56.640625
7648		-64.453125
7649		-58.593750
7650		-66.406250
7651		-60.546875
7652		-68.359375
7653		-64.453125
7654		-70.312500
7655		-64.453125
7656		-72.265625
7657		-66.406250
7658		-74.218750
7659		-70.312500
7660		-74.218750
7661		-70.312500
7662		-76.171875
7663		-72.265625
7664		-80.078125
7665		-74.218750
7666		-80.078125
7667		-76.171875
7668		-82.031250
7669		-78.125000
7670		-83.984375
7671		-80.078125
7672		-83.984375
7673		-82.031250
7674		-85.937500
7675		-82.031250
7676		-87.890625
7677		-83.984375
7678		-89.843750
7679		-83.984375
7680		-89.843750
7681		-85.937500
7682		-91.796875
7683		-87.890625
7684		-91.796875
7685		-87.890625
7686		-93.750000
7687		-89.843750
7688		-93.750000
7689		-89.843750
7690		-95.703125
7691		-91.796875
7692		-95.703125
7693		-91.796875
7694		-95.703125
7695		-91.796875
7696		-95.703125
7697		-93.750000
7698		-97.656250
7699		-93.750000
7700		-97.656250
7701		-93.750000
7702		-97.656250
7703		-93.750000
7704		-97.656250
7705		-93.750000
7706		-97.656250
7707		-95.703125
7708		-99.609375
7709		-95.703125
7710		-97.656250
7711		-93.750000
7712		-99.609375
7713		-93.750000
7714		-97.656250
7715		-95.703125
7716		-97.656250
7717		-95.703125
7718		-97.656250
7719		-93.750000
7720		-99.609375
7721		-91.796875
7722		-97.656250
7723		-91.796875
7724		-97.656250
7725		-91.796875
7726		-95.703125
7727		-91.796875
7728		-95.703125
7729		-89.843750
7730		-95.703125
7731		-91.796875
7732		-93.750000
7733		-89.843750
7734		-91.796875
7735		-89.843750
7736		-91.796875
7737		-87.890625
7738		-91.796875
7739		-85.937500
7740		-91.796875
7741		-83.984375
7742		-87.890625
7743		-83.984375
7744		-87.890625
7745		-82.031250
7746		-85.937500
7747		-82.031250
7748		-83.984375
7749		-80.078125
7750		-82.031250
7751		-80.078125
7752		-82.031250
7753		-78.125000
7754		-80.078125
7755		-74.218750
7756		-80.078125
7757		-72.265625
7758		-78.125000
7759		-72.265625
7760		-74.218750
7761		-70.312500
7762		-74.218750
7763		-68.359375
7764		-72.265625
7765		-66.406250
7766		-68.359375
7767		-64.453125
7768		-66.406250
7769		-62.500000
7770		-66.406250
7771		-58.593750
7772		-64.453125
7773		-56.640625
7774		-62.500000
7775		-54.687500
7776		-60.546875
7777		-54.687500
7778		-56.640625
7779		-50.781250
7780		-54.687500
7781		-48.828125
7782		-52.734375
7783		-46.875000
7784		-48.828125
7785		-44.921875
7786		-46.875000
7787		-41.015625
7788		-44.921875
7789		-37.109375
7790		-42.968750
7791		-35.156250
7792		-41.015625
7793		-31.250000
7794		-39.062500
7795		-31.250000
7796		-33.203125
7797		-29.296875
7798		-35.156250
7799		-25.390625
7800		-31.250000
7801		-25.390625
7802		-27.343750
7803		-21.484375
7804		-25.390625
7805		-17.578125
7806		-21.484375
7807		-15.625000
7808		-21.484375
7809		-11.718750
7810		-17.578125
7811		-9.765625
7812		-13.671875
7813		-7.812500
7814		-9.765625
7815		-3.906250
7816		-7.812500
7817		-3.906250
7818		-5.859375
7819		0.000000
7820		-1.953125
7821		3.906250
7822		-1.953125
7823		5.859375
7824		1.953125
7825		9.765625
7826		3.906250
7827		11.718750
7828		7.812500
7829		15.625000
7830		9.765625
7831		17.578125
7832		11.718750
7833		19.531250
7834		15.625000
7835		21.484375
7836		19.531250
7837		23.437500
7838		19.531250
7839		27.343750
7840		21.484375
7841		31.250000
7842		25.390625
7843		31.250000
7844		27.343750
7845		35.156250
7846		29.296875
7847		39.062500
7848		31.250000
7849		39.062500
7850		35.156250
7851		41.015625
7852		39.062500
7853		42.968750
7854		41.015625
7855		46.875000
7856		42.968750
7857		50.781250
7858		42.968750
7859		50.781250
7860		46.875000
7861		52.734375
7862		48.828125
7863		56.640625
7864		50.781250
7865		58.593750
7866		52.734375
7867		58.593750
7868		56.640625
7869		60.546875
7870		58.593750
7871		62.500000
7872		58.593750
7873		66.406250
7874		60.546875
7875		68.359375
7876		62.500000
7877		70.312500
7878		66.406250
7879		72.265625
7880		66.406250
7881		72.265625
7882		68.359375
7883		76.171875
7884		70.312500
7885		76.171875
7886		74.218750
7887		78.125000
7888		76.171875
7889		80.078125
7890		74.218750
7891		82.031250
7892		78.125000
7893		83.984375
7894		78.125000
7895		83.984375
7896		82.031250
7897		85.937500
7898		82.031250
7899		85.937500
7900		83.984375
7901		87.890625
7902		85.937500
7903		89.843750
7904		85.937500
7905		89.843750
7906		85.937500
7907		93.750000
7908		85.937500
7909		93.750000
7910		87.890625
7911		95.703125
7912		89.843750
7913		95.703125
7914		89.843750
7915		97.656250
7916		91.796875
7917		99.609375
7918		93.750000
7919		97.656250
7920		95.703125
7921		97.656250
7922		93.750000
7923		101.562500
7924		93.750000
7925		101.562500
7926		95.703125
7927		103.515625
7928		95.703125
7929		101.562500
7930		95.703125
7931		103.515625
7932		95.703125
7933		103.515625
7934		97.656250
7935		103.515625
7936		99.609375
7937		101.562500
7938		97.656250
7939		105.468750
7940		97.656250
7941		105.468750
7942		97.656250
7943		105.468750
7944		97.656250
7945		103.515625
7946		97.656250
7947		105.468750
7948		97.656250
7949		105.468750
7950		97.656250
7951		105.468750
7952		99.609375
7953		101.562500
7954		99.609375
7955		101.562500
7956		97.656250
7957		103.515625
7958		97.656250
7959		103.515625
7960		95.703125
7961		103.515625
7962		95.703125
7963		103.515625
7964		93.750000
7965		103.515625
7966		93.750000
7967		103.515625
7968		95.703125
7969		99.609375
7970		95.703125
7971		97.656250
7972		91.796875
7973		99.609375
7974		91.796875
7975		99.609375
7976		89.843750
7977		97.656250
7978		89.843750
7979		95.703125
7980		87.890625
7981		95.703125
7982		87.890625
7983		93.750000
7984		87.890625
7985		93.750000
7986		87.890625
7987		89.843750
7988		83.984375
7989		89.843750
7990		82.031250
7991		89.843750
7992		82.031250
7993		89.843750
7994		80.078125
7995		87.890625
7996		78.125000
7997		85.937500
7998		76.171875
7999		83.984375
8000		76.171875
8001		82.031250
8002		76.171875
8003		80.078125
8004		74.218750
8005		78.125000
8006		70.312500
8007		76.171875
8008		68.359375
8009		76.171875
8010		66.406250
8011		74.218750
8012		64.453125
8013		72.265625
8014		62.500000
8015		70.312500
8016		62.500000
8017		68.359375
8018		60.546875
8019		66.406250
8020		58.593750
8021		62.500000
8022		54.687500
8023		62.500000
8024		50.781250
8025		60.546875
8026		50.781250
8027		58.593750
8028		48.828125
8029		56.640625
8030		44.921875
8031		52.734375
8032		42.968750
8033		50.781250
8034		41.015625
8035		48.828125
8036		41.015625
8037		44.921875
8038		39.062500
8039		42.968750
8040		35.156250
8041		42.968750
8042		31.250000
8043		41.015625
8044		29.296875
8045		37.109375
8046		27.343750
8047		35.156250
8048		23.437500
8049		33.203125
8050		21.484375
8051		31.250000
8052		21.484375
8053		25.390625
8054		17.578125
8055		23.437500
8056		13.671875
8057		19.531250
8058		9.765625
8059		19.531250
8060		9.765625
8061		17.578125
8062		5.859375
8063		13.671875
8064		3.906250
8065		11.718750
8066		0.000000
8067		7.812500
8068		-1.953125
8069		5.859375
8070		-1.953125
8071		1.953125
8072		-5.859375
8073		-1.953125
8074		-9.765625
8075		-1.953125
8076		-13.671875
8077		-3.906250
8078		-15.625000
8079		-7.812500
8080		-17.578125
8081		-9.765625
8082		-21.484375
8083		-13.671875
8084		-23.437500
8085		-15.625000
8086		-23.437500
8087		-19.531250
8088		-27.343750
8089		-21.484375
8090		-31.250000
8091		-25.390625
8092		-35.156250
8093		-25.390625
8094		-37.109375
8095		-29.296875
8096		-39.062500
8097		-31.250000
8098		-41.015625
8099		-33.203125
8100		-42.968750
8101		-37.109375
8102		-44.921875
8103		-39.062500
8104		-46.875000
8105		-42.968750
8106		-50.781250
8107		-44.921875
8108		-52.734375
8109		-46.875000
8110		-56.640625
8111		-46.875000
8112		-58.593750
8113		-50.781250
8114		-60.546875
8115		-52.734375
8116		-62.500000
8117		-54.687500
8118		-64.453125
8119		-56.640625
8120		-64.453125
8121		-60.546875
8122		-66.406250
8123		-62.500000
8124		-70.312500
8125		-62.500000
8126		-72.265625
8127		-64.453125
8128		-76.171875
8129		-66.406250
8130		-76.171875
8131		-70.312500
8132		-78.125000
8133		-70.312500
8134		-80.078125
8135		-72.265625
8136		-80.078125
8137		-76.171875
8138		-82.031250
8139		-78.125000
8140		-85.937500
8141		-78.125000
8142		-85.937500
8143		-80.078125
8144		-87.890625
8145		-80.078125
8146		-89.843750
8147		-82.031250
8148		-89.843750
8149		-82.031250
8150		-91.796875
8151		-83.984375
8152		-93.750000
8153		-85.937500
8154		-91.796875
8155		-87.890625
8156		-91.796875
8157		-89.843750
8158		-95.703125
8159		-87.890625
8160		-97.656250
8161		-89.843750
8162		-97.656250
8163		-91.796875
8164		-97.656250
8165		-91.796875
8166		-99.609375
8167		-91.796875
8168		-99.609375
8169		-91.796875
8170		-97.656250
8171		-93.750000
8172		-97.656250
8173		-95.703125
8174		-101.562500
8175		-93.750000
8176		-101.562500
8177		-93.750000
8178		-101.562500
8179		-93.750000
8180		-101.562500
8181		-93.750000
8182		-101.562500
8183		-93.750000
8184		-101.562500
8185		-93.750000
8186		-101.562500
8187		-93.750000
8188		-97.656250
8189		-95.703125
8190		-99.609375
8191		-93.750000
8192		-99.609375
8193		-93.750000
8194		-99.609375
8195		-91.796875
8196		-99.609375
8197		-91.796875
8198		-99.609375
8199		-91.796875
8200		-97.656250
8201		-89.843750
8202		-97.656250
8203		-89.843750
8204		-93.750000
8205		-89.843750
8206		-93.750000
8207		-89.843750
8208		-93.750000
8209		-87.890625
8210		-93.750000
8211		-85.937500
8212		-91.796875
8213		-83.984375
8214		-89.843750
8215		-83.984375
8216		-87.890625
8217		-82.031250
8218		-87.890625
8219		-80.078125
8220		-85.937500
8221		-82.031250
8222		-83.984375
8223		-80.078125
8224		-82.031250
8225		-76.171875
8226		-82.031250
8227		-74.218750
8228		-80.078125
8229		-72.265625
8230		-80.078125
8231		-72.265625
8232		-76.171875
8233		-68.359375
8234		-74.218750
8235		-66.406250
8236		-72.265625
8237		-66.406250
8238		-68.359375
8239		-64.453125
8240		-66.406250
8241		-62.500000
8242		-66.406250
8243		-58.593750
8244		-64.453125
8245		-56.640625
8246		-62.500000
8247		-54.687500
8248		-60.546875
8249		-52.734375
8250		-58.593750
8251		-48.828125
8252		-56.640625
8253		-48.828125
8254		-52.734375
8255		-46.875000
8256		-48.828125
8257		-44.921875
8258		-48.828125
8259		-41.015625
8260		-46.875000
8261		-39.062500
8262		-42.968750
8263		-35.156250
8264		-41.015625
8265		-33.203125
8266		-37.109375
8267		-29.296875
8268		-35.156250
8269		-27.343750
8270		-33.203125
8271		-27.343750
8272		-29.296875
8273		-23.437500
8274		-25.390625
8275		-19.531250
8276		-25.390625
8277		-17.578125
8278		-21.484375
8279		-15.625000
8280		-19.531250
8281		-11.718750
8282		-17.578125
8283		-9.765625
8284		-15.625000
8285		-7.812500
8286		-11.718750
8287		-5.859375
8288		-7.812500
8289		-1.953125
8290		-5.859375
8291		0.000000
8292		-3.906250
8293		3.906250
8294		-1.953125
8295		7.812500
8296		1.953125
8297		9.765625
8298		3.906250
8299		11.718750
8300		5.859375
8301		13.671875
8302		9.765625
8303		17.578125
8304		13.671875
8305		17.578125
8306		15.625000
8307		21.484375
8308		17.578125
8309		25.390625
8310		19.531250
8311		27.343750
8312		23.437500
8313		29.296875
8314		25.390625
8315		33.203125
8316		27.343750
8317		35.156250
8318		29.296875
8319		37.109375
8320		33.203125
8321		39.062500
8322		37.109375
8323		41.015625
8324		39.062500
8325		42.968750
8326		39.062500
8327		46.875000
8328		41.015625
8329		48.828125
8330		42.968750
8331		52.734375
8332		46.875000
8333		54.687500
8334		48.828125
8335		56.640625
8336		50.781250
8337		58.593750
8338		54.687500
8339		58.593750
8340		56.640625
8341		60.546875
8342		56.640625
8343		64.453125
8344		58.593750
8345		66.406250
8346		60.546875
8347		68.359375
8348		62.500000
8349		70.312500
8350		64.453125
8351		72.265625
8352		66.406250
8353		74.218750
8354		68.359375
8355		74.218750
8356		72.265625
8357		76.171875
8358		72.265625
8359		78.125000
8360		74.218750
8361		82.031250
8362		74.218750
8363		82.031250
8364		76.171875
8365		83.984375
8366		78.125000
8367		83.984375
8368		78.125000
8369		85.937500
8370		80.078125
8371		87.890625
8372		83.984375
8373		87.890625
8374		85.937500
8375		87.890625
8376		83.984375
8377		91.796875
8378		85.937500
8379		93.750000
8380		85.937500
8381		93.750000
8382		87.890625
8383		93.750000
8384		87.890625
8385		95.703125
8386		89.843750
8387		95.703125
8388		91.796875
8389		97.656250
8390		93.750000
8391		95.703125
8392		93.750000
8393		99.609375
8394		91.796875
8395		99.609375
8396		93.750000
8397		101.562500
8398		93.750000
8399		101.562500
8400		93.750000
8401		101.562500
8402		93.750000
8403		101.562500
8404		95.703125
8405		101.562500
8406		97.656250
8407		101.562500
8408		97.656250
8409		101.562500
8410		97.656250
8411		103.515625
8412		95.703125
8413		103.515625
8414		95.703125
8415		103.515625
8416		95.703125
8417		103.515625
8418		95.703125
8419		103.515625
8420		95.703125
8421		103.515625
8422		97.656250
8423		101.562500
8424		97.656250
8425		101.562500
8426		95.703125
8427		103.515625
8428		95.703125
8429		103.515625
8430		95.703125
8431		101.562500
8432		93.750000
8433		101.562500
8434		93.750000
8435		101.562500
8436		93.750000
8437		101.562500
8438		93.750000
8439		99.609375
8440		95.703125
8441		97.656250
8442		93.750000
8443		97.656250
8444		89.843750
8445		99.609375
8446		89.843750
8447		97.656250
8448		89.843750
8449		97.656250
8450		87.890625
8451		95.703125
8452		87.890625
8453		95.703125
8454		85.937500
8455		93.750000
8456		87.890625
8457		89.843750
8458		85.937500
8459		89.843750
8460		82.031250
8461		89.843750
8462		82.031250
8463		87.890625
8464		80.078125
8465		85.937500
8466		78.125000
8467		87.890625
8468		76.171875
8469		83.984375
8470		76.171875
8471		82.031250
8472		76.171875
8473		82.031250
8474		74.218750
8475		78.125000
8476		70.312500
8477		76.171875
8478		70.312500
8479		76.171875
8480		66.406250
8481		74.218750
8482		66.406250
8483		72.265625
8484		62.500000
8485		70.312500
8486		60.546875
8487		68.359375
8488		60.546875
8489		66.406250
8490		58.593750
8491		62.500000
8492		56.640625
8493		60.546875
8494		52.734375
8495		60.546875
8496		50.781250
8497		58.593750
8498		48.828125
8499		56.640625
8500		46.875000
8501		56.640625
8502		44.921875
8503		52.734375
8504		42.968750
8505		50.781250
8506		41.015625
8507		46.875000
8508		39.062500
8509		42.968750
8510		35.156250
8511		41.015625
8512		33.203125
8513		41.015625
8514		29.296875
8515		39.062500
8516		27.343750
8517		35.156250
8518		25.390625
8519		33.203125
8520		23.437500
8521		29.296875
8522		21.484375
8523		27.343750
8524		19.531250
8525		23.437500
8526		15.625000
8527		21.484375
8528		11.718750
8529		19.531250
8530		9.765625
8531		17.578125
8532		5.859375
8533		13.671875
8534		3.906250
8535		11.718750
8536		1.953125
8537		9.765625
8538		0.000000
8539		5.859375
8540		-1.953125
8541		1.953125
8542		-3.906250
8543		0.000000
8544		-9.765625
8545		-1.953125
8546		-11.718750
8547		-3.906250
8548		-13.671875
8549		-5.859375
8550		-15.625000
8551		-9.765625
8552		-21.484375
8553		-11.718750
8554		-23.437500
8555		-13.671875
8556		-23.437500
8557		-17.578125
8558		-25.390625
8559		-21.484375
8560		-31.250000
8561		-23.437500
8562		-33.203125
8563		-25.390625
8564		-37.109375
8565		-27.343750
8566		-39.062500
8567		-29.296875
8568		-41.015625
8569		-33.203125
8570		-42.968750
8571		-35.156250
8572		-44.921875
8573		-39.062500
8574		-46.875000
8575		-41.015625
8576		-48.828125
8577		-44.921875
8578		-54.687500
8579		-46.875000
8580		-54.687500
8581		-48.828125
8582		-58.593750
8583		-50.781250
8584		-58.593750
8585		-52.734375
8586		-62.500000
8587		-54.687500
8588		-64.453125
8589		-56.640625
8590		-64.453125
8591		-58.593750
8592		-66.406250
8593		-62.500000
8594		-72.265625
8595		-62.500000
8596		-72.265625
8597		-64.453125
8598		-76.171875
8599		-68.359375
8600		-76.171875
8601		-70.312500
8602		-78.125000
8603		-70.312500
8604		-80.078125
8605		-72.265625
8606		-80.078125
8607		-74.218750
8608		-82.031250
8609		-78.125000
8610		-83.984375
8611		-78.125000
8612		-87.890625
8613		-80.078125
8614		-87.890625
8615		-80.078125
8616		-89.843750
8617		-82.031250
8618		-89.843750
8619		-83.984375
8620		-91.796875
8621		-83.984375
8622		-93.750000
8623		-85.937500
8624		-91.796875
8625		-87.890625
8626		-93.750000
8627		-89.843750
8628		-95.703125
8629		-89.843750
8630		-97.656250
8631		-89.843750
8632		-97.656250
8633		-89.843750
8634		-97.656250
8635		-91.796875
8636		-99.609375
8637		-91.796875
8638		-99.609375
8639		-91.796875
8640		-99.609375
8641		-93.750000
8642		-99.609375
8643		-95.703125
8644		-101.562500
8645		-95.703125
8646		-101.562500
8647		-95.703125
8648		-101.562500
8649		-93.750000
8650		-101.562500
8651		-95.703125
8652		-101.562500
8653		-95.703125
8654		-101.562500
8655		-95.703125
8656		-101.562500
8657		-95.703125
8658		-99.609375
8659		-97.656250
8660		-99.609375
8661		-95.703125
8662		-101.562500
8663		-93.750000
8664		-101.562500
8665		-93.750000
8666		-101.562500
8667		-93.750000
8668		-99.609375
8669		-93.750000
8670		-99.609375
8671		-91.796875
8672		-97.656250
8673		-91.796875
8674		-95.703125
8675		-91.796875
8676		-93.750000
8677		-91.796875
8678		-95.703125
8679		-89.843750
8680		-95.703125
8681		-87.890625
8682		-93.750000
8683		-85.937500
8684		-93.750000
8685		-83.984375
8686		-91.796875
8687		-83.984375
8688		-89.843750
8689		-82.031250
8690		-87.890625
8691		-82.031250
8692		-85.937500
8693		-82.031250
8694		-83.984375
8695		-80.078125
8696		-83.984375
8697		-76.171875
8698		-82.031250
8699		-74.218750
8700		-80.078125
8701		-74.218750
8702		-78.125000
8703		-72.265625
8704		-76.171875
8705		-70.312500
8706		-74.218750
8707		-66.406250
8708		-70.312500
8709		-66.406250
8710		-70.312500
8711		-64.453125
8712		-68.359375
8713		-60.546875
8714		-66.406250
8715		-58.593750
8716		-64.453125
8717		-58.593750
8718		-62.500000
8719		-54.687500
8720		-60.546875
8721		-52.734375
8722		-58.593750
8723		-50.781250
8724		-54.687500
8725		-48.828125
8726		-50.781250
8727		-46.875000
8728		-48.828125
8729		-44.921875
8730		-48.828125
8731		-41.015625
8732		-44.921875
8733		-39.062500
8734		-42.968750
8735		-37.109375
8736		-39.062500
8737		-33.203125
8738		-37.109375
8739		-31.250000
8740		-35.156250
8741		-29.296875
8742		-31.250000
8743		-27.343750
8744		-29.296875
8745		-23.437500
8746		-27.343750
8747		-21.484375
8748		-27.343750
8749		-17.578125
8750		-23.437500
8751		-13.671875
8752		-19.531250
8753		-11.718750
8754		-15.625000
8755		-9.765625
8756		-15.625000
8757		-5.859375
8758		-9.765625
8759		-5.859375
8760		-7.812500
8761		-3.906250
8762		-5.859375
8763		1.953125
8764		-5.859375
8765		3.906250
8766		0.000000
8767		7.812500
8768		1.953125
8769		9.765625
8770		3.906250
8771		11.718750
8772		7.812500
8773		13.671875
8774		9.765625
8775		15.625000
8776		13.671875
8777		17.578125
8778		17.578125
8779		21.484375
8780		17.578125
8781		25.390625
8782		19.531250
8783		27.343750
8784		21.484375
8785		29.296875
8786		25.390625
8787		33.203125
8788		27.343750
8789		35.156250
8790		29.296875
8791		37.109375
8792		33.203125
8793		39.062500
8794		37.109375
8795		41.015625
8796		37.109375
8797		44.921875
8798		39.062500
8799		46.875000
8800		41.015625
8801		48.828125
8802		42.968750
8803		52.734375
8804		46.875000
8805		52.734375
8806		48.828125
8807		54.687500
8808		50.781250
8809		56.640625
8810		54.687500
8811		58.593750
8812		56.640625
8813		62.500000
8814		56.640625
8815		64.453125
8816		58.593750
8817		66.406250
8818		60.546875
8819		68.359375
8820		62.500000
8821		70.312500
8822		64.453125
8823		72.265625
8824		66.406250
8825		74.218750
8826		70.312500
8827		74.218750
8828		72.265625
8829		76.171875
8830		72.265625
8831		78.125000
8832		72.265625
8833		80.078125
8834		74.218750
8835		82.031250
8836		76.171875
8837		83.984375
8838		76.171875
8839		85.937500
8840		80.078125
8841		87.890625
8842		80.078125
8843		85.937500
8844		83.984375
8845		87.890625
8846		83.984375
8847		89.843750
8848		83.984375
8849		91.796875
8850		85.937500
8851		93.750000
8852		85.937500
8853		93.750000
8854		87.890625
8855		93.750000
8856		87.890625
8857		95.703125
8858		89.843750
8859		97.656250
8860		91.796875
8861		95.703125
8862		93.750000
8863		95.703125
8864		91.796875
8865		99.609375
8866		91.796875
8867		99.609375
8868		93.750000
8869		99.609375
8870		93.750000
8871		101.562500
8872		93.750000
8873		101.562500
8874		95.703125
8875		101.562500
8876		95.703125
8877		101.562500
8878		97.656250
8879		101.562500
8880		95.703125
8881		103.515625
8882		95.703125
8883		103.515625
8884		95.703125
8885		103.515625
8886		95.703125
8887		103.515625
8888		95.703125
8889		103.515625
8890		97.656250
8891		103.515625
8892		95.703125
8893		103.515625
8894		97.656250
8895		101.562500
8896		97.656250
8897		101.562500
8898		95.703125
8899		101.562500
8900		95.703125
8901		101.562500
8902		95.703125
8903		101.562500
8904		93.750000
8905		101.562500
8906		93.750000
8907		101.562500
8908		93.750000
8909		99.609375
8910		95.703125
8911		97.656250
8912		93.750000
8913		97.656250
8914		91.796875
8915		97.656250
8916		89.843750
8917		97.656250
8918		89.843750
8919		97.656250
8920		89.843750
8921		95.703125
8922		87.890625
8923		95.703125
8924		87.890625
8925		93.750000
8926		85.937500
8927		93.750000
8928		87.890625
8929		89.843750
8930		83.984375
8931		89.843750
8932		82.031250
8933		89.843750
8934		80.078125
8935		87.890625
8936		80.078125
8937		87.890625
8938		78.125000
8939		85.937500
8940		76.171875
8941		83.984375
8942		74.218750
8943		82.031250
8944		76.171875
8945		80.078125
8946		74.218750
8947		78.125000
8948		70.312500
8949		78.125000
8950		68.359375
8951		76.171875
8952		66.406250
8953		74.218750
8954		66.406250
8955		72.265625
8956		62.500000
8957		70.312500
8958		60.546875
8959		68.359375
8960		60.546875
8961		66.406250
8962		58.593750
8963		62.500000
8964		54.687500
8965		60.546875
8966		52.734375
8967		60.546875
8968		50.781250
8969		56.640625
8970		48.828125
8971		54.687500
8972		46.875000
8973		54.687500
8974		42.968750
8975		50.781250
8976		42.968750
8977		50.781250
8978		41.015625
8979		44.921875
8980		37.109375
8981		42.968750
8982		35.156250
8983		42.968750
8984		31.250000
8985		41.015625
8986		29.296875
8987		37.109375
8988		27.343750
8989		35.156250
8990		25.390625
8991		31.250000
8992		21.484375
8993		29.296875
8994		21.484375
8995		25.390625
8996		17.578125
8997		23.437500
8998		15.625000
8999		21.484375
9000		11.718750
9001		19.531250
9002		7.812500
9003		15.625000
9004		5.859375
9005		13.671875
9006		1.953125
9007		11.718750
9008		0.000000
9009		7.812500
9010		0.000000
9011		5.859375
9012		-1.953125
9013		1.953125
9014		-7.812500
9015		0.000000
9016		-9.765625
9017		-3.906250
9018		-13.671875
9019		-5.859375
9020		-15.625000
9021		-7.812500
9022		-19.531250
9023		-9.765625
9024		-21.484375
9025		-13.671875
9026		-21.484375
9027		-15.625000
9028		-25.390625
9029		-19.531250
9030		-27.343750
9031		-21.484375
9032		-31.250000
9033		-23.437500
9034		-33.203125
9035		-25.390625
9036		-37.109375
9037		-29.296875
9038		-39.062500
9039		-31.250000
9040		-41.015625
9041		-33.203125
9042		-44.921875
9043		-37.109375
9044		-44.921875
9045		-39.062500
9046		-46.875000
9047		-42.968750
9048		-52.734375
9049		-44.921875
9050		-54.687500
9051		-44.921875
9052		-56.640625
9053		-48.828125
9054		-58.593750
9055		-50.781250
9056		-62.500000
9057		-52.734375
9058		-64.453125
9059		-54.687500
9060		-64.453125
9061		-58.593750
9062		-64.453125
9063		-60.546875
9064		-70.312500
9065		-62.500000
9066		-72.265625
9067		-64.453125
9068		-74.218750
9069		-66.406250
9070		-76.171875
9071		-68.359375
9072		-76.171875
9073		-70.312500
9074		-78.125000
9075		-70.312500
9076		-80.078125
9077		-74.218750
9078		-80.078125
9079		-76.171875
9080		-82.031250
9081		-78.125000
9082		-85.937500
9083		-78.125000
9084		-87.890625
9085		-80.078125
9086		-89.843750
9087		-82.031250
9088		-89.843750
9089		-82.031250
9090		-91.796875
9091		-83.984375
9092		-93.750000
9093		-85.937500
9094		-93.750000
9095		-87.890625
9096		-93.750000
9097		-89.843750
9098		-95.703125
9099		-89.843750
9100		-97.656250
9101		-89.843750
9102		-97.656250
9103		-91.796875
9104		-97.656250
9105		-91.796875
9106		-99.609375
9107		-91.796875
9108		-99.609375
9109		-93.750000
9110		-99.609375
9111		-93.750000
9112		-99.609375
9113		-95.703125
9114		-99.609375
9115		-95.703125
9116		-101.562500
9117		-95.703125
9118		-103.515625
9119		-95.703125
9120		-103.515625
9121		-95.703125
9122		-103.515625
9123		-95.703125
9124		-103.515625
9125		-95.703125
9126		-103.515625
9127		-95.703125
9128		-101.562500
9129		-95.703125
9130		-99.609375
9131		-97.656250
9132		-101.562500
9133		-95.703125
9134		-101.562500
9135		-95.703125
9136		-101.562500
9137		-93.750000
9138		-101.562500
9139		-93.750000
9140		-99.609375
9141		-93.750000
9142		-99.609375
9143		-93.750000
9144		-99.609375
9145		-91.796875
9146		-95.703125
9147		-91.796875
9148		-95.703125
9149		-91.796875
9150		-97.656250
9151		-89.843750
9152		-95.703125
9153		-87.890625
9154		-93.750000
9155		-87.890625
9156		-93.750000
9157		-85.937500
9158		-91.796875
9159		-83.984375
9160		-89.843750
9161		-83.984375
9162		-87.890625
9163		-82.031250
9164		-85.937500
9165		-82.031250
9166		-85.937500
9167		-78.125000
9168		-83.984375
9169		-78.125000
9170		-83.984375
9171		-76.171875
9172		-80.078125
9173		-74.218750
9174		-80.078125
9175		-72.265625
9176		-78.125000
9177		-70.312500
9178		-76.171875
9179		-68.359375
9180		-72.265625
9181		-68.359375
9182		-70.312500
9183		-64.453125
9184		-70.312500
9185		-62.500000
9186		-68.359375
9187		-60.546875
9188		-66.406250
9189		-56.640625
9190		-62.500000
9191		-54.687500
9192		-60.546875
9193		-52.734375
9194		-58.593750
9195		-50.781250
9196		-54.687500
9197		-50.781250
9198		-52.734375
9199		-46.875000
9200		-50.781250
9201		-42.968750
9202		-48.828125
9203		-41.015625
9204		-48.828125
9205		-39.062500
9206		-42.968750
9207		-35.156250
9208		-41.015625
9209		-33.203125
9210		-39.062500
9211		-31.250000
9212		-37.109375
9213		-29.296875
9214		-31.250000
9215		-27.343750
9216		-29.296875
9217		-23.437500
9218		-27.343750
9219		-21.484375
9220		-27.343750
9221		-17.578125
9222		-23.437500
9223		-15.625000
9224		-19.531250
9225		-11.718750
9226		-17.578125
9227		-9.765625
9228		-13.671875
9229		-7.812500
9230		-9.765625
9231		-5.859375
9232		-7.812500
9233		-1.953125
9234		-5.859375
9235		1.953125
9236		-3.906250
9237		3.906250
9238		-1.953125
9239		5.859375
9240		1.953125
9241		9.765625
9242		3.906250
9243		11.718750
9244		5.859375
9245		13.671875
9246		9.765625
9247		15.625000
9248		13.671875
9249		17.578125
9250		15.625000
9251		23.437500
9252		17.578125
9253		25.390625
9254		19.531250
9255		27.343750
9256		21.484375
9257		29.296875
9258		23.437500
9259		33.203125
9260		27.343750
9261		35.156250
9262		29.296875
9263		35.156250
9264		33.203125
9265		39.062500
9266		37.109375
9267		41.015625
9268		37.109375
9269		44.921875
9270		39.062500
9271		46.875000
9272		42.968750
9273		48.828125
9274		42.968750
9275		50.781250
9276		44.921875
9277		52.734375
9278		48.828125
9279		54.687500
9280		52.734375
9281		56.640625
9282		54.687500
9283		58.593750
9284		54.687500
9285		62.500000
9286		56.640625
9287		64.453125
9288		58.593750
9289		66.406250
9290		60.546875
9291		68.359375
9292		62.500000
9293		70.312500
9294		64.453125
9295		72.265625
9296		66.406250
9297		72.265625
9298		70.312500
9299		74.218750
9300		72.265625
9301		76.171875
9302		70.312500
9303		80.078125
9304		72.265625
9305		80.078125
9306		74.218750
9307		82.031250
9308		76.171875
9309		83.984375
9310		78.125000
9311		83.984375
9312		78.125000
9313		85.937500
9314		82.031250
9315		85.937500
9316		83.984375
9317		87.890625
9318		82.031250
9319		91.796875
9320		83.984375
9321		91.796875
9322		85.937500
9323		93.750000
9324		85.937500
9325		93.750000
9326		87.890625
9327		93.750000
9328		87.890625
9329		95.703125
9330		91.796875
9331		93.750000
9332		91.796875
9333		95.703125
9334		91.796875
9335		97.656250
9336		91.796875
9337		99.609375
9338		93.750000
9339		99.609375
9340		93.750000
9341		99.609375
9342		93.750000
9343		101.562500
9344		93.750000
9345		101.562500
9346		95.703125
9347		101.562500
9348		97.656250
9349		99.609375
9350		95.703125
9351		101.562500
9352		95.703125
9353		103.515625
9354		95.703125
9355		103.515625
9356		95.703125
9357		103.515625
9358		95.703125
9359		103.515625
9360		95.703125
9361		103.515625
9362		95.703125
9363		103.515625
9364		97.656250
9365		101.562500
9366		97.656250
9367		101.562500
9368		95.703125
9369		103.515625
9370		95.703125
9371		101.562500
9372		95.703125
9373		101.562500
9374		93.750000
9375		101.562500
9376		93.750000
9377		101.562500
9378		93.750000
9379		101.562500
9380		93.750000
9381		99.609375
9382		93.750000
9383		97.656250
9384		93.750000
9385		97.656250
9386		91.796875
9387		97.656250
9388		89.843750
9389		97.656250
9390		89.843750
9391		95.703125
9392		87.890625
9393		93.750000
9394		87.890625
9395		93.750000
9396		87.890625
9397		93.750000
9398		87.890625
9399		89.843750
9400		85.937500
9401		89.843750
9402		82.031250
9403		89.843750
9404		82.031250
9405		87.890625
9406		80.078125
9407		87.890625
9408		78.125000
9409		85.937500
9410		78.125000
9411		83.984375
9412		76.171875
9413		82.031250
9414		76.171875
9415		80.078125
9416		74.218750
9417		78.125000
9418		72.265625
9419		78.125000
9420		70.312500
9421		76.171875
9422		66.406250
9423		74.218750
9424		66.406250
9425		72.265625
9426		64.453125
9427		70.312500
9428		62.500000
9429		70.312500
9430		60.546875
9431		66.406250
9432		58.593750
9433		64.453125
9434		54.687500
9435		62.500000
9436		54.687500
9437		62.500000
9438		50.781250
9439		58.593750
9440		50.781250
9441		56.640625
9442		46.875000
9443		54.687500
9444		44.921875
9445		52.734375
9446		42.968750
9447		50.781250
9448		41.015625
9449		46.875000
9450		39.062500
9451		42.968750
9452		35.156250
9453		42.968750
9454		33.203125
9455		41.015625
9456		31.250000
9457		37.109375
9458		27.343750
9459		35.156250
9460		25.390625
9461		33.203125
9462		23.437500
9463		31.250000
9464		21.484375
9465		29.296875
9466		19.531250
9467		25.390625
9468		13.671875
9469		21.484375
9470		11.718750
9471		21.484375
9472		9.765625
9473		17.578125
9474		7.812500
9475		15.625000
9476		3.906250
9477		13.671875
9478		1.953125
9479		9.765625
9480		0.000000
9481		7.812500
9482		-1.953125
9483		3.906250
9484		-3.906250
9485		0.000000
9486		-9.765625
9487		-1.953125
9488		-11.718750
9489		-3.906250
9490		-13.671875
9491		-5.859375
9492		-15.625000
9493		-9.765625
9494		-19.531250
9495		-11.718750
9496		-21.484375
9497		-13.671875
9498		-23.437500
9499		-17.578125
9500		-25.390625
9501		-21.484375
9502		-29.296875
9503		-23.437500
9504		-33.203125
9505		-25.390625
9506		-35.156250
9507		-27.343750
9508		-39.062500
9509		-31.250000
9510		-41.015625
9511		-33.203125
9512		-42.968750
9513		-35.156250
9514		-44.921875
9515		-37.109375
9516		-46.875000
9517		-41.015625
9518		-50.781250
9519		-44.921875
9520		-52.734375
9521		-44.921875
9522		-54.687500
9523		-46.875000
9524		-58.593750
9525		-50.781250
9526		-60.546875
9527		-50.781250
9528		-62.500000
9529		-54.687500
9530		-64.453125
9531		-56.640625
9532		-64.453125
9533		-60.546875
9534		-66.406250
9535		-62.500000
9536		-72.265625
9537		-64.453125
9538		-74.218750
9539		-64.453125
9540		-74.218750
9541		-68.359375
9542		-76.171875
9543		-68.359375
9544		-78.125000
9545		-72.265625
9546		-80.078125
9547		-72.265625
9548		-80.078125
9549		-74.218750
9550		-82.031250
9551		-78.125000
9552		-85.937500
9553		-80.078125
9554		-87.890625
9555		-80.078125
9556		-87.890625
9557		-80.078125
9558		-89.843750
9559		-82.031250
9560		-89.843750
9561		-83.984375
9562		-93.750000
9563		-85.937500
9564		-93.750000
9565		-85.937500
9566		-93.750000
9567		-89.843750
9568		-93.750000
9569		-91.796875
9570		-97.656250
9571		-89.843750
9572		-99.609375
9573		-91.796875
9574		-99.609375
9575		-93.750000
9576		-99.609375
9577		-91.796875
9578		-101.562500
9579		-93.750000
9580		-101.562500
9581		-93.750000
9582		-99.609375
9583		-95.703125
9584		-99.609375
9585		-97.656250
9586		-103.515625
9587		-95.703125
9588		-103.515625
9589		-95.703125
9590		-103.515625
9591		-95.703125
9592		-103.515625
9593		-97.656250
9594		-103.515625
9595		-97.656250
9596		-103.515625
9597		-97.656250
9598		-103.515625
9599		-97.656250
9600		-101.562500
9601		-97.656250
9602		-103.515625
9603		-97.656250
9604		-103.515625
9605		-95.703125
9606		-103.515625
9607		-95.703125
9608		-101.562500
9609		-95.703125
9610		-101.562500
9611		-95.703125
9612		-101.562500
9613		-93.750000
9614		-99.609375
9615		-93.750000
9616		-97.656250
9617		-93.750000
9618		-95.703125
9619		-93.750000
9620		-97.656250
9621		-89.843750
9622		-97.656250
9623		-89.843750
9624		-95.703125
9625		-87.890625
9626		-95.703125
9627		-85.937500
9628		-93.750000
9629		-85.937500
9630		-91.796875
9631		-85.937500
9632		-91.796875
9633		-83.984375
9634		-87.890625
9635		-83.984375
9636		-87.890625
9637		-80.078125
9638		-85.937500
9639		-80.078125
9640		-83.984375
9641		-78.125000
9642		-83.984375
9643		-76.171875
9644		-82.031250
9645		-72.265625
9646		-78.125000
9647		-72.265625
9648		-78.125000
9649		-70.312500
9650		-74.218750
9651		-70.312500
9652		-72.265625
9653		-68.359375
9654		-72.265625
9655		-64.453125
9656		-70.312500
9657		-62.500000
9658		-66.406250
9659		-60.546875
9660		-64.453125
9661		-58.593750
9662		-64.453125
9663		-54.687500
9664		-60.546875
9665		-52.734375
9666		-58.593750
9667		-52.734375
9668		-54.687500
9669		-50.781250
9670		-52.734375
9671		-46.875000
9672		-50.781250
9673		-42.968750
9674		-48.828125
9675		-41.015625
9676		-46.875000
9677		-39.062500
9678		-42.968750
9679		-35.156250
9680		-41.015625
9681		-33.203125
9682		-39.062500
9683		-33.203125
9684		-33.203125
9685		-29.296875
9686		-31.250000
9687		-25.390625
9688		-31.250000
9689		-23.437500
9690		-29.296875
9691		-21.484375
9692		-25.390625
9693		-17.578125
9694		-21.484375
9695		-15.625000
9696		-19.531250
9697		-11.718750
9698		-17.578125
9699		-9.765625
9700		-13.671875
9701		-7.812500
9702		-9.765625
9703		-5.859375
9704		-7.812500
9705		0.000000
9706		-5.859375
9707		0.000000
9708		-3.906250
9709		3.906250
9710		-1.953125
9711		7.812500
9712		1.953125
9713		9.765625
9714		3.906250
9715		11.718750
9716		5.859375
9717		13.671875
9718		11.718750
9719		15.625000
9720		13.671875
9721		19.531250
9722		15.625000
9723		23.437500
9724		17.578125
9725		25.390625
9726		19.531250
9727		27.343750
9728		21.484375
9729		31.250000
9730		25.390625
9731		33.203125
9732		27.343750
9733		35.156250
9734		31.250000
9735		35.156250
9736		33.203125
9737		39.062500
9738		35.156250
9739		42.968750
9740		37.109375
9741		44.921875
9742		39.062500
9743		46.875000
9744		41.015625
9745		48.828125
9746		44.921875
9747		52.734375
9748		46.875000
9749		52.734375
9750		48.828125
9751		54.687500
9752		52.734375
9753		56.640625
9754		52.734375
9755		60.546875
9756		54.687500
9757		62.500000
9758		56.640625
9759		64.453125
9760		58.593750
9761		66.406250
9762		60.546875
9763		68.359375
9764		62.500000
9765		70.312500
9766		64.453125
9767		70.312500
9768		68.359375
9769		72.265625
9770		70.312500
9771		76.171875
9772		70.312500
9773		76.171875
9774		72.265625
9775		78.125000
9776		72.265625
9777		80.078125
9778		74.218750
9779		82.031250
9780		76.171875
9781		83.984375
9782		78.125000
9783		83.984375
9784		80.078125
9785		83.984375
9786		82.031250
9787		85.937500
9788		82.031250
9789		87.890625
9790		83.984375
9791		91.796875
9792		83.984375
9793		91.796875
9794		85.937500
9795		91.796875
9796		85.937500
9797		91.796875
9798		85.937500
9799		93.750000
9800		87.890625
9801		93.750000
9802		91.796875
9803		93.750000
9804		91.796875
9805		95.703125
9806		89.843750
9807		97.656250
9808		91.796875
9809		97.656250
9810		91.796875
9811		99.609375
9812		93.750000
9813		99.609375
9814		93.750000
9815		99.609375
9816		93.750000
9817		101.562500
9818		95.703125
9819		99.609375
9820		95.703125
9821		99.609375
9822		95.703125
9823		101.562500
9824		95.703125
9825		101.562500
9826		93.750000
9827		103.515625
9828		95.703125
9829		101.562500
9830		95.703125
9831		101.562500
9832		95.703125
9833		101.562500
9834		95.703125
9835		101.562500
9836		97.656250
9837		99.609375
9838		95.703125
9839		101.562500
9840		95.703125
9841		101.562500
9842		95.703125
9843		101.562500
9844		93.750000
9845		101.562500
9846		93.750000
9847		99.609375
9848		93.750000
9849		99.609375
9850		93.750000
9851		99.609375
9852		93.750000
9853		97.656250
9854		93.750000
9855		97.656250
9856		91.796875
9857		97.656250
9858		89.843750
9859		97.656250
9860		89.843750
9861		95.703125
9862		87.890625
9863		95.703125
9864		87.890625
9865		93.750000
9866		85.937500
9867		93.750000
9868		87.890625
9869		91.796875
9870		85.937500
9871		89.843750
9872		83.984375
9873		89.843750
9874		82.031250
9875		87.890625
9876		80.078125
9877		87.890625
9878		80.078125
9879		85.937500
9880		78.125000
9881		83.984375
9882		76.171875
9883		83.984375
9884		76.171875
9885		82.031250
9886		74.218750
9887		78.125000
9888		72.265625
9889		76.171875
9890		68.359375
9891		78.125000
9892		68.359375
9893		76.171875
9894		66.406250
9895		74.218750
9896		64.453125
9897		72.265625
9898		62.500000
9899		70.312500
9900		60.546875
9901		68.359375
9902		60.546875
9903		64.453125
9904		58.593750
9905		62.500000
9906		52.734375
9907		60.546875
9908		52.734375
9909		60.546875
9910		50.781250
9911		58.593750
9912		46.875000
9913		54.687500
9914		46.875000
9915		52.734375
9916		42.968750
9917		52.734375
9918		42.968750
9919		48.828125
9920		41.015625
9921		44.921875
9922		35.156250
9923		42.968750
9924		33.203125
9925		41.015625
9926		31.250000
9927		39.062500
9928		27.343750
9929		37.109375
9930		25.390625
9931		33.203125
9932		23.437500
9933		33.203125
9934		21.484375
9935		29.296875
9936		21.484375
9937		25.390625
9938		17.578125
9939		23.437500
9940		13.671875
9941		21.484375
9942		11.718750
9943		19.531250
9944		7.812500
9945		15.625000
9946		5.859375
9947		13.671875
9948		3.906250
9949		11.718750
9950		0.000000
9951		7.812500
9952		0.000000
9953		3.906250
9954		-3.906250
9955		1.953125
9956		-7.812500
9957		-1.953125
9958		-9.765625
9959		-1.953125
9960		-13.671875
9961		-5.859375
9962		-15.625000
9963		-7.812500
9964		-19.531250
9965		-9.765625
9966		-21.484375
9967		-13.671875
9968		-23.437500
9969		-15.625000
9970		-23.437500
9971		-19.531250
9972		-27.343750
9973		-23.437500
9974		-33.203125
9975		-23.437500
9976		-35.156250
9977		-27.343750
9978		-37.109375
9979		-29.296875
9980		-39.062500
9981		-31.250000
9982		-42.968750
9983		-33.203125
9984		-42.968750
9985		-37.109375
9986		-44.921875
9987		-39.062500
9988		-46.875000
9989		-42.968750
9990		-52.734375
9991		-44.921875
9992		-52.734375
9993		-46.875000
9994		-56.640625
9995		-48.828125
9996		-58.593750
9997		-50.781250
9998		-60.546875
9999		-52.734375
10000		-62.500000
