Channel              :		CH1
Frequency            :		1.060kHz
Period               :		0.944ms
PK-PK                :		216.8mV
Probe attenuation    :		1X
Voltage per ADC value:		0.122070mV
Time interval        :		2.00000us

index		CH1_Voltage(mV)
1		74.218750
2		74.218750
3		82.031250
4		74.218750
5		80.078125
6		70.312500
7		78.125000
8		68.359375
9		76.171875
10		68.359375
11		74.218750
12		66.406250
13		70.312500
14		64.453125
15		68.359375
16		60.546875
17		66.406250
18		58.593750
19		64.453125
20		56.640625
21		62.500000
22		54.687500
23		60.546875
24		52.734375
25		58.593750
26		48.828125
27		56.640625
28		48.828125
29		52.734375
30		44.921875
31		50.781250
32		41.015625
33		46.875000
34		39.062500
35		46.875000
36		35.156250
37		42.968750
38		33.203125
39		41.015625
40		31.250000
41		39.062500
42		27.343750
43		37.109375
44		25.390625
45		33.203125
46		23.437500
47		29.296875
48		21.484375
49		27.343750
50		17.578125
51		25.390625
52		13.671875
53		23.437500
54		11.718750
55		19.531250
56		9.765625
57		17.578125
58		7.812500
59		13.671875
60		3.906250
61		11.718750
62		1.953125
63		7.812500
64		0.000000
65		3.906250
66		-3.906250
67		1.953125
68		-7.812500
69		0.000000
70		-9.765625
71		-1.953125
72		-13.671875
73		-5.859375
74		-15.625000
75		-7.812500
76		-17.578125
77		-11.718750
78		-19.531250
79		-13.671875
80		-23.437500
81		-17.578125
82		-25.390625
83		-19.531250
84		-29.296875
85		-21.484375
86		-33.203125
87		-25.390625
88		-35.156250
89		-27.343750
90		-37.109375
91		-29.296875
92		-39.062500
93		-31.250000
94		-42.968750
95		-35.156250
96		-42.968750
97		-37.109375
98		-46.875000
99		-41.015625
100		-50.781250
101		-42.968750
102		-52.734375
103		-44.921875
104		-54.687500
105		-46.875000
106		-56.640625
107		-48.828125
108		-58.593750
109		-52.734375
110		-62.500000
111		-54.687500
112		-62.500000
113		-56.640625
114		-64.453125
115		-60.546875
116		-68.359375
117		-62.500000
118		-70.312500
119		-62.500000
120		-72.265625
121		-64.453125
122		-74.218750
123		-66.406250
124		-76.171875
125		-68.359375
126		-78.125000
127		-70.312500
128		-78.125000
129		-72.265625
130		-80.078125
131		-76.171875
132		-80.078125
133		-76.171875
134		-83.984375
135		-78.125000
136		-85.937500
137		-78.125000
138		-87.890625
139		-80.078125
140		-87.890625
141		-82.031250
142		-89.843750
143		-82.031250
144		-91.796875
145		-83.984375
146		-91.796875
147		-85.937500
148		-91.796875
149		-87.890625
150		-93.750000
151		-87.890625
152		-95.703125
153		-87.890625
154		-95.703125
155		-87.890625
156		-97.656250
157		-89.843750
158		-97.656250
159		-89.843750
160		-97.656250
161		-89.843750
162		-97.656250
163		-91.796875
164		-97.656250
165		-93.750000
166		-97.656250
167		-93.750000
168		-97.656250
169		-91.796875
170		-99.609375
171		-93.750000
172		-99.609375
173		-91.796875
174		-99.609375
175		-93.750000
176		-99.609375
177		-93.750000
178		-99.609375
179		-93.750000
180		-99.609375
181		-91.796875
182		-97.656250
183		-93.750000
184		-97.656250
185		-91.796875
186		-97.656250
187		-91.796875
188		-97.656250
189		-89.843750
190		-95.703125
191		-89.843750
192		-95.703125
193		-89.843750
194		-95.703125
195		-87.890625
196		-93.750000
197		-87.890625
198		-91.796875
199		-87.890625
200		-89.843750
201		-83.984375
202		-91.796875
203		-83.984375
204		-89.843750
205		-82.031250
206		-87.890625
207		-82.031250
208		-87.890625
209		-80.078125
210		-85.937500
211		-78.125000
212		-83.984375
213		-76.171875
214		-80.078125
215		-76.171875
216		-80.078125
217		-76.171875
218		-80.078125
219		-72.265625
220		-78.125000
221		-70.312500
222		-76.171875
223		-68.359375
224		-74.218750
225		-66.406250
226		-72.265625
227		-64.453125
228		-68.359375
229		-62.500000
230		-68.359375
231		-60.546875
232		-64.453125
233		-58.593750
234		-62.500000
235		-56.640625
236		-60.546875
237		-52.734375
238		-58.593750
239		-50.781250
240		-56.640625
241		-48.828125
242		-54.687500
243		-46.875000
244		-52.734375
245		-42.968750
246		-48.828125
247		-42.968750
248		-44.921875
249		-41.015625
250		-42.968750
251		-37.109375
252		-41.015625
253		-33.203125
254		-39.062500
255		-31.250000
256		-35.156250
257		-27.343750
258		-35.156250
259		-25.390625
260		-31.250000
261		-23.437500
262		-27.343750
263		-21.484375
264		-25.390625
265		-19.531250
266		-21.484375
267		-15.625000
268		-19.531250
269		-11.718750
270		-17.578125
271		-9.765625
272		-13.671875
273		-7.812500
274		-9.765625
275		-3.906250
276		-9.765625
277		-1.953125
278		-5.859375
279		1.953125
280		-3.906250
281		3.906250
282		1.953125
283		5.859375
284		3.906250
285		9.765625
286		5.859375
287		11.718750
288		7.812500
289		15.625000
290		11.718750
291		19.531250
292		13.671875
293		21.484375
294		15.625000
295		23.437500
296		19.531250
297		25.390625
298		23.437500
299		27.343750
300		25.390625
301		31.250000
302		27.343750
303		35.156250
304		29.296875
305		39.062500
306		33.203125
307		39.062500
308		35.156250
309		42.968750
310		37.109375
311		44.921875
312		39.062500
313		46.875000
314		42.968750
315		48.828125
316		46.875000
317		50.781250
318		48.828125
319		54.687500
320		50.781250
321		56.640625
322		52.734375
323		58.593750
324		54.687500
325		62.500000
326		56.640625
327		64.453125
328		58.593750
329		66.406250
330		60.546875
331		68.359375
332		64.453125
333		70.312500
334		66.406250
335		72.265625
336		68.359375
337		74.218750
338		70.312500
339		76.171875
340		72.265625
341		80.078125
342		74.218750
343		80.078125
344		74.218750
345		83.984375
346		76.171875
347		83.984375
348		80.078125
349		83.984375
350		82.031250
351		85.937500
352		83.984375
353		89.843750
354		83.984375
355		89.843750
356		85.937500
357		93.750000
358		87.890625
359		93.750000
360		89.843750
361		95.703125
362		89.843750
363		97.656250
364		91.796875
365		97.656250
366		95.703125
367		97.656250
368		95.703125
369		101.562500
370		93.750000
371		101.562500
372		95.703125
373		103.515625
374		97.656250
375		105.468750
376		99.609375
377		105.468750
378		97.656250
379		105.468750
380		99.609375
381		107.421875
382		103.515625
383		105.468750
384		103.515625
385		107.421875
386		103.515625
387		109.375000
388		103.515625
389		109.375000
390		103.515625
391		111.328125
392		103.515625
393		111.328125
394		105.468750
395		111.328125
396		103.515625
397		111.328125
398		105.468750
399		111.328125
400		107.421875
401		111.328125
402		107.421875
403		113.281250
404		107.421875
405		113.281250
406		105.468750
407		113.281250
408		105.468750
409		113.281250
410		105.468750
411		113.281250
412		105.468750
413		113.281250
414		105.468750
415		113.281250
416		107.421875
417		111.328125
418		107.421875
419		111.328125
420		105.468750
421		111.328125
422		105.468750
423		111.328125
424		105.468750
425		111.328125
426		103.515625
427		111.328125
428		103.515625
429		111.328125
430		103.515625
431		109.375000
432		103.515625
433		109.375000
434		103.515625
435		107.421875
436		101.562500
437		107.421875
438		99.609375
439		107.421875
440		99.609375
441		105.468750
442		97.656250
443		105.468750
444		97.656250
445		103.515625
446		95.703125
447		103.515625
448		95.703125
449		101.562500
450		95.703125
451		99.609375
452		91.796875
453		97.656250
454		89.843750
455		97.656250
456		89.843750
457		95.703125
458		87.890625
459		95.703125
460		87.890625
461		93.750000
462		85.937500
463		91.796875
464		83.984375
465		89.843750
466		83.984375
467		87.890625
468		82.031250
469		85.937500
470		78.125000
471		83.984375
472		76.171875
473		83.984375
474		74.218750
475		82.031250
476		72.265625
477		80.078125
478		70.312500
479		78.125000
480		68.359375
481		76.171875
482		66.406250
483		72.265625
484		64.453125
485		70.312500
486		62.500000
487		68.359375
488		58.593750
489		66.406250
490		56.640625
491		66.406250
492		54.687500
493		62.500000
494		52.734375
495		58.593750
496		50.781250
497		56.640625
498		48.828125
499		54.687500
500		46.875000
501		50.781250
502		42.968750
503		48.828125
504		41.015625
505		46.875000
506		39.062500
507		44.921875
508		35.156250
509		42.968750
510		31.250000
511		39.062500
512		29.296875
513		39.062500
514		27.343750
515		35.156250
516		25.390625
517		31.250000
518		23.437500
519		27.343750
520		19.531250
521		25.390625
522		17.578125
523		23.437500
524		13.671875
525		21.484375
526		9.765625
527		19.531250
528		7.812500
529		15.625000
530		3.906250
531		13.671875
532		3.906250
533		9.765625
534		1.953125
535		5.859375
536		-3.906250
537		3.906250
538		-5.859375
539		1.953125
540		-7.812500
541		-1.953125
542		-11.718750
543		-3.906250
544		-15.625000
545		-5.859375
546		-17.578125
547		-7.812500
548		-19.531250
549		-11.718750
550		-21.484375
551		-15.625000
552		-23.437500
553		-19.531250
554		-27.343750
555		-21.484375
556		-31.250000
557		-23.437500
558		-33.203125
559		-25.390625
560		-35.156250
561		-29.296875
562		-39.062500
563		-31.250000
564		-41.015625
565		-33.203125
566		-42.968750
567		-35.156250
568		-44.921875
569		-39.062500
570		-50.781250
571		-42.968750
572		-50.781250
573		-42.968750
574		-52.734375
575		-46.875000
576		-54.687500
577		-48.828125
578		-58.593750
579		-50.781250
580		-60.546875
581		-52.734375
582		-62.500000
583		-54.687500
584		-62.500000
585		-58.593750
586		-64.453125
587		-60.546875
588		-70.312500
589		-62.500000
590		-70.312500
591		-64.453125
592		-72.265625
593		-64.453125
594		-76.171875
595		-66.406250
596		-76.171875
597		-70.312500
598		-78.125000
599		-70.312500
600		-78.125000
601		-74.218750
602		-80.078125
603		-76.171875
604		-82.031250
605		-78.125000
606		-83.984375
607		-78.125000
608		-87.890625
609		-80.078125
610		-87.890625
611		-80.078125
612		-89.843750
613		-82.031250
614		-89.843750
615		-83.984375
616		-89.843750
617		-83.984375
618		-89.843750
619		-87.890625
620		-91.796875
621		-87.890625
622		-93.750000
623		-87.890625
624		-93.750000
625		-87.890625
626		-95.703125
627		-89.843750
628		-95.703125
629		-89.843750
630		-97.656250
631		-89.843750
632		-97.656250
633		-91.796875
634		-95.703125
635		-93.750000
636		-97.656250
637		-91.796875
638		-99.609375
639		-91.796875
640		-99.609375
641		-91.796875
642		-99.609375
643		-91.796875
644		-99.609375
645		-91.796875
646		-99.609375
647		-91.796875
648		-99.609375
649		-91.796875
650		-97.656250
651		-91.796875
652		-95.703125
653		-93.750000
654		-97.656250
655		-91.796875
656		-97.656250
657		-89.843750
658		-95.703125
659		-89.843750
660		-97.656250
661		-89.843750
662		-95.703125
663		-89.843750
664		-95.703125
665		-87.890625
666		-93.750000
667		-87.890625
668		-91.796875
669		-87.890625
670		-91.796875
671		-87.890625
672		-89.843750
673		-83.984375
674		-89.843750
675		-82.031250
676		-87.890625
677		-82.031250
678		-87.890625
679		-80.078125
680		-85.937500
681		-78.125000
682		-83.984375
683		-78.125000
684		-82.031250
685		-76.171875
686		-80.078125
687		-76.171875
688		-78.125000
689		-72.265625
690		-78.125000
691		-70.312500
692		-76.171875
693		-68.359375
694		-74.218750
695		-66.406250
696		-72.265625
697		-64.453125
698		-70.312500
699		-62.500000
700		-70.312500
701		-60.546875
702		-64.453125
703		-60.546875
704		-62.500000
705		-58.593750
706		-62.500000
707		-54.687500
708		-58.593750
709		-52.734375
710		-56.640625
711		-48.828125
712		-54.687500
713		-46.875000
714		-52.734375
715		-44.921875
716		-50.781250
717		-42.968750
718		-46.875000
719		-41.015625
720		-42.968750
721		-39.062500
722		-41.015625
723		-35.156250
724		-41.015625
725		-33.203125
726		-37.109375
727		-29.296875
728		-35.156250
729		-25.390625
730		-33.203125
731		-23.437500
732		-29.296875
733		-21.484375
734		-27.343750
735		-19.531250
736		-21.484375
737		-17.578125
738		-21.484375
739		-11.718750
740		-17.578125
741		-9.765625
742		-15.625000
743		-7.812500
744		-13.671875
745		-5.859375
746		-9.765625
747		-3.906250
748		-7.812500
749		0.000000
750		-5.859375
751		1.953125
752		0.000000
753		3.906250
754		1.953125
755		7.812500
756		5.859375
757		11.718750
758		5.859375
759		13.671875
760		9.765625
761		15.625000
762		11.718750
763		19.531250
764		15.625000
765		23.437500
766		17.578125
767		25.390625
768		19.531250
769		27.343750
770		25.390625
771		29.296875
772		27.343750
773		33.203125
774		27.343750
775		37.109375
776		31.250000
777		39.062500
778		33.203125
779		41.015625
780		37.109375
781		42.968750
782		39.062500
783		44.921875
784		41.015625
785		48.828125
786		44.921875
787		50.781250
788		48.828125
789		52.734375
790		46.875000
791		56.640625
792		50.781250
793		58.593750
794		52.734375
795		62.500000
796		56.640625
797		62.500000
798		56.640625
799		66.406250
800		60.546875
801		66.406250
802		62.500000
803		68.359375
804		66.406250
805		70.312500
806		68.359375
807		74.218750
808		68.359375
809		76.171875
810		70.312500
811		78.125000
812		72.265625
813		80.078125
814		74.218750
815		82.031250
816		76.171875
817		83.984375
818		78.125000
819		85.937500
820		82.031250
821		85.937500
822		83.984375
823		87.890625
824		83.984375
825		89.843750
826		85.937500
827		91.796875
828		85.937500
829		93.750000
830		87.890625
831		95.703125
832		89.843750
833		97.656250
834		91.796875
835		97.656250
836		93.750000
837		97.656250
838		95.703125
839		99.609375
840		93.750000
841		101.562500
842		95.703125
843		103.515625
844		97.656250
845		103.515625
846		97.656250
847		105.468750
848		99.609375
849		105.468750
850		101.562500
851		107.421875
852		101.562500
853		107.421875
854		103.515625
855		107.421875
856		103.515625
857		109.375000
858		103.515625
859		109.375000
860		103.515625
861		111.328125
862		105.468750
863		111.328125
864		105.468750
865		111.328125
866		105.468750
867		113.281250
868		105.468750
869		111.328125
870		107.421875
871		111.328125
872		107.421875
873		111.328125
874		107.421875
875		113.281250
876		107.421875
877		113.281250
878		107.421875
879		113.281250
880		107.421875
881		115.234375
882		107.421875
883		113.281250
884		105.468750
885		113.281250
886		107.421875
887		113.281250
888		109.375000
889		111.328125
890		107.421875
891		113.281250
892		105.468750
893		113.281250
894		105.468750
895		113.281250
896		105.468750
897		111.328125
898		105.468750
899		111.328125
900		103.515625
901		111.328125
902		103.515625
903		109.375000
904		103.515625
905		107.421875
906		103.515625
907		107.421875
908		101.562500
909		107.421875
910		99.609375
911		107.421875
912		97.656250
913		105.468750
914		97.656250
915		105.468750
916		97.656250
917		103.515625
918		95.703125
919		103.515625
920		95.703125
921		99.609375
922		95.703125
923		99.609375
924		91.796875
925		97.656250
926		89.843750
927		97.656250
928		87.890625
929		95.703125
930		87.890625
931		93.750000
932		85.937500
933		93.750000
934		83.984375
935		91.796875
936		83.984375
937		89.843750
938		83.984375
939		87.890625
940		80.078125
941		85.937500
942		78.125000
943		83.984375
944		76.171875
945		82.031250
946		74.218750
947		80.078125
948		72.265625
949		80.078125
950		70.312500
951		78.125000
952		68.359375
953		74.218750
954		68.359375
955		72.265625
956		64.453125
957		70.312500
958		62.500000
959		70.312500
960		60.546875
961		66.406250
962		56.640625
963		64.453125
964		54.687500
965		60.546875
966		50.781250
967		60.546875
968		48.828125
969		58.593750
970		48.828125
971		54.687500
972		46.875000
973		50.781250
974		42.968750
975		48.828125
976		41.015625
977		46.875000
978		37.109375
979		44.921875
980		35.156250
981		41.015625
982		33.203125
983		39.062500
984		29.296875
985		37.109375
986		27.343750
987		35.156250
988		25.390625
989		31.250000
990		21.484375
991		27.343750
992		17.578125
993		25.390625
994		15.625000
995		23.437500
996		11.718750
997		21.484375
998		11.718750
999		17.578125
1000		7.812500
1001		15.625000
1002		5.859375
1003		13.671875
1004		3.906250
1005		7.812500
1006		1.953125
1007		5.859375
1008		-3.906250
1009		3.906250
1010		-5.859375
1011		1.953125
1012		-9.765625
1013		0.000000
1014		-11.718750
1015		-3.906250
1016		-15.625000
1017		-7.812500
1018		-15.625000
1019		-9.765625
1020		-19.531250
1021		-11.718750
1022		-21.484375
1023		-15.625000
1024		-25.390625
1025		-19.531250
1026		-27.343750
1027		-21.484375
1028		-31.250000
1029		-23.437500
1030		-33.203125
1031		-25.390625
1032		-35.156250
1033		-29.296875
1034		-39.062500
1035		-31.250000
1036		-41.015625
1037		-33.203125
1038		-42.968750
1039		-37.109375
1040		-44.921875
1041		-39.062500
1042		-48.828125
1043		-41.015625
1044		-50.781250
1045		-42.968750
1046		-54.687500
1047		-46.875000
1048		-56.640625
1049		-48.828125
1050		-58.593750
1051		-50.781250
1052		-60.546875
1053		-52.734375
1054		-60.546875
1055		-54.687500
1056		-62.500000
1057		-58.593750
1058		-66.406250
1059		-60.546875
1060		-68.359375
1061		-62.500000
1062		-72.265625
1063		-62.500000
1064		-72.265625
1065		-64.453125
1066		-74.218750
1067		-66.406250
1068		-76.171875
1069		-70.312500
1070		-76.171875
1071		-70.312500
1072		-78.125000
1073		-74.218750
1074		-80.078125
1075		-76.171875
1076		-83.984375
1077		-76.171875
1078		-83.984375
1079		-76.171875
1080		-85.937500
1081		-78.125000
1082		-87.890625
1083		-80.078125
1084		-89.843750
1085		-82.031250
1086		-89.843750
1087		-82.031250
1088		-87.890625
1089		-85.937500
1090		-89.843750
1091		-85.937500
1092		-91.796875
1093		-85.937500
1094		-93.750000
1095		-85.937500
1096		-95.703125
1097		-87.890625
1098		-95.703125
1099		-87.890625
1100		-95.703125
1101		-89.843750
1102		-95.703125
1103		-89.843750
1104		-95.703125
1105		-89.843750
1106		-95.703125
1107		-91.796875
1108		-97.656250
1109		-91.796875
1110		-97.656250
1111		-91.796875
1112		-97.656250
1113		-91.796875
1114		-97.656250
1115		-91.796875
1116		-97.656250
1117		-91.796875
1118		-97.656250
1119		-91.796875
1120		-97.656250
1121		-91.796875
1122		-95.703125
1123		-91.796875
1124		-95.703125
1125		-91.796875
1126		-95.703125
1127		-89.843750
1128		-95.703125
1129		-89.843750
1130		-95.703125
1131		-89.843750
1132		-95.703125
1133		-87.890625
1134		-93.750000
1135		-87.890625
1136		-93.750000
1137		-85.937500
1138		-91.796875
1139		-87.890625
1140		-89.843750
1141		-85.937500
1142		-89.843750
1143		-83.984375
1144		-89.843750
1145		-83.984375
1146		-87.890625
1147		-82.031250
1148		-87.890625
1149		-80.078125
1150		-85.937500
1151		-78.125000
1152		-83.984375
1153		-76.171875
1154		-83.984375
1155		-76.171875
1156		-80.078125
1157		-76.171875
1158		-78.125000
1159		-74.218750
1160		-78.125000
1161		-70.312500
1162		-76.171875
1163		-68.359375
1164		-74.218750
1165		-68.359375
1166		-72.265625
1167		-64.453125
1168		-70.312500
1169		-64.453125
1170		-68.359375
1171		-60.546875
1172		-64.453125
1173		-60.546875
1174		-62.500000
1175		-58.593750
1176		-62.500000
1177		-54.687500
1178		-60.546875
1179		-52.734375
1180		-56.640625
1181		-48.828125
1182		-54.687500
1183		-46.875000
1184		-52.734375
1185		-44.921875
1186		-50.781250
1187		-42.968750
1188		-48.828125
1189		-41.015625
1190		-44.921875
1191		-39.062500
1192		-41.015625
1193		-35.156250
1194		-41.015625
1195		-33.203125
1196		-39.062500
1197		-29.296875
1198		-35.156250
1199		-27.343750
1200		-33.203125
1201		-25.390625
1202		-29.296875
1203		-23.437500
1204		-27.343750
1205		-21.484375
1206		-23.437500
1207		-17.578125
1208		-19.531250
1209		-15.625000
1210		-17.578125
1211		-11.718750
1212		-15.625000
1213		-7.812500
1214		-13.671875
1215		-5.859375
1216		-11.718750
1217		-1.953125
1218		-7.812500
1219		0.000000
1220		-5.859375
1221		3.906250
1222		-1.953125
1223		3.906250
1224		1.953125
1225		7.812500
1226		3.906250
1227		11.718750
1228		5.859375
1229		13.671875
1230		9.765625
1231		15.625000
1232		11.718750
1233		19.531250
1234		15.625000
1235		21.484375
1236		15.625000
1237		25.390625
1238		19.531250
1239		25.390625
1240		23.437500
1241		29.296875
1242		27.343750
1243		31.250000
1244		27.343750
1245		35.156250
1246		31.250000
1247		37.109375
1248		33.203125
1249		41.015625
1250		37.109375
1251		42.968750
1252		39.062500
1253		44.921875
1254		41.015625
1255		48.828125
1256		44.921875
1257		50.781250
1258		46.875000
1259		52.734375
1260		48.828125
1261		54.687500
1262		50.781250
1263		58.593750
1264		52.734375
1265		60.546875
1266		54.687500
1267		62.500000
1268		58.593750
1269		66.406250
1270		60.546875
1271		66.406250
1272		62.500000
1273		68.359375
1274		66.406250
1275		70.312500
1276		68.359375
1277		74.218750
1278		68.359375
1279		76.171875
1280		70.312500
1281		78.125000
1282		72.265625
1283		80.078125
1284		74.218750
1285		82.031250
1286		76.171875
1287		83.984375
1288		78.125000
1289		83.984375
1290		82.031250
1291		85.937500
1292		83.984375
1293		87.890625
1294		83.984375
1295		89.843750
1296		83.984375
1297		91.796875
1298		85.937500
1299		93.750000
1300		87.890625
1301		95.703125
1302		89.843750
1303		95.703125
1304		91.796875
1305		97.656250
1306		93.750000
1307		97.656250
1308		95.703125
1309		99.609375
1310		95.703125
1311		101.562500
1312		95.703125
1313		103.515625
1314		97.656250
1315		103.515625
1316		97.656250
1317		105.468750
1318		99.609375
1319		105.468750
1320		99.609375
1321		107.421875
1322		101.562500
1323		107.421875
1324		103.515625
1325		107.421875
1326		105.468750
1327		107.421875
1328		103.515625
1329		111.328125
1330		103.515625
1331		111.328125
1332		105.468750
1333		111.328125
1334		105.468750
1335		113.281250
1336		105.468750
1337		113.281250
1338		105.468750
1339		113.281250
1340		107.421875
1341		111.328125
1342		109.375000
1343		111.328125
1344		107.421875
1345		113.281250
1346		107.421875
1347		113.281250
1348		107.421875
1349		115.234375
1350		107.421875
1351		115.234375
1352		107.421875
1353		113.281250
1354		107.421875
1355		115.234375
1356		107.421875
1357		113.281250
1358		109.375000
1359		111.328125
1360		107.421875
1361		113.281250
1362		107.421875
1363		113.281250
1364		107.421875
1365		113.281250
1366		105.468750
1367		113.281250
1368		105.468750
1369		111.328125
1370		105.468750
1371		111.328125
1372		105.468750
1373		111.328125
1374		105.468750
1375		109.375000
1376		105.468750
1377		107.421875
1378		103.515625
1379		109.375000
1380		101.562500
1381		107.421875
1382		99.609375
1383		107.421875
1384		99.609375
1385		107.421875
1386		97.656250
1387		105.468750
1388		97.656250
1389		103.515625
1390		95.703125
1391		103.515625
1392		97.656250
1393		99.609375
1394		93.750000
1395		99.609375
1396		93.750000
1397		99.609375
1398		91.796875
1399		99.609375
1400		89.843750
1401		97.656250
1402		87.890625
1403		95.703125
1404		85.937500
1405		93.750000
1406		85.937500
1407		93.750000
1408		85.937500
1409		89.843750
1410		82.031250
1411		87.890625
1412		80.078125
1413		85.937500
1414		78.125000
1415		85.937500
1416		76.171875
1417		82.031250
1418		74.218750
1419		82.031250
1420		72.265625
1421		80.078125
1422		70.312500
1423		78.125000
1424		70.312500
1425		74.218750
1426		68.359375
1427		72.265625
1428		62.500000
1429		70.312500
1430		60.546875
1431		68.359375
1432		58.593750
1433		66.406250
1434		56.640625
1435		64.453125
1436		54.687500
1437		62.500000
1438		50.781250
1439		60.546875
1440		50.781250
1441		56.640625
1442		48.828125
1443		52.734375
1444		44.921875
1445		50.781250
1446		42.968750
1447		48.828125
1448		39.062500
1449		46.875000
1450		37.109375
1451		44.921875
1452		33.203125
1453		42.968750
1454		33.203125
1455		39.062500
1456		29.296875
1457		37.109375
1458		29.296875
1459		33.203125
1460		25.390625
1461		31.250000
1462		21.484375
1463		29.296875
1464		17.578125
1465		27.343750
1466		15.625000
1467		23.437500
1468		11.718750
1469		21.484375
1470		9.765625
1471		17.578125
1472		7.812500
1473		15.625000
1474		5.859375
1475		11.718750
1476		3.906250
1477		7.812500
1478		0.000000
1479		5.859375
1480		-3.906250
1481		3.906250
1482		-5.859375
1483		0.000000
1484		-9.765625
1485		-1.953125
1486		-11.718750
1487		-3.906250
1488		-15.625000
1489		-7.812500
1490		-17.578125
1491		-9.765625
1492		-19.531250
1493		-13.671875
1494		-23.437500
1495		-15.625000
1496		-25.390625
1497		-17.578125
1498		-29.296875
1499		-21.484375
1500		-31.250000
1501		-23.437500
1502		-33.203125
1503		-25.390625
1504		-37.109375
1505		-27.343750
1506		-39.062500
1507		-31.250000
1508		-39.062500
1509		-33.203125
1510		-42.968750
1511		-37.109375
1512		-44.921875
1513		-39.062500
1514		-50.781250
1515		-41.015625
1516		-50.781250
1517		-44.921875
1518		-52.734375
1519		-44.921875
1520		-56.640625
1521		-48.828125
1522		-58.593750
1523		-50.781250
1524		-60.546875
1525		-52.734375
1526		-60.546875
1527		-56.640625
1528		-64.453125
1529		-58.593750
1530		-66.406250
1531		-60.546875
1532		-68.359375
1533		-60.546875
1534		-70.312500
1535		-62.500000
1536		-72.265625
1537		-64.453125
1538		-74.218750
1539		-66.406250
1540		-76.171875
1541		-68.359375
1542		-76.171875
1543		-72.265625
1544		-78.125000
1545		-74.218750
1546		-82.031250
1547		-74.218750
1548		-82.031250
1549		-76.171875
1550		-83.984375
1551		-76.171875
1552		-85.937500
1553		-78.125000
1554		-87.890625
1555		-80.078125
1556		-87.890625
1557		-82.031250
1558		-87.890625
1559		-82.031250
1560		-89.843750
1561		-85.937500
1562		-89.843750
1563		-85.937500
1564		-91.796875
1565		-85.937500
1566		-93.750000
1567		-85.937500
1568		-93.750000
1569		-87.890625
1570		-95.703125
1571		-87.890625
1572		-95.703125
1573		-87.890625
1574		-95.703125
1575		-89.843750
1576		-95.703125
1577		-91.796875
1578		-95.703125
1579		-91.796875
1580		-97.656250
1581		-89.843750
1582		-97.656250
1583		-89.843750
1584		-97.656250
1585		-89.843750
1586		-97.656250
1587		-91.796875
1588		-97.656250
1589		-89.843750
1590		-97.656250
1591		-89.843750
1592		-97.656250
1593		-91.796875
1594		-95.703125
1595		-91.796875
1596		-97.656250
1597		-89.843750
1598		-95.703125
1599		-89.843750
1600		-95.703125
1601		-87.890625
1602		-95.703125
1603		-87.890625
1604		-95.703125
1605		-87.890625
1606		-93.750000
1607		-87.890625
1608		-93.750000
1609		-85.937500
1610		-89.843750
1611		-85.937500
1612		-89.843750
1613		-85.937500
1614		-89.843750
1615		-83.984375
1616		-89.843750
1617		-82.031250
1618		-87.890625
1619		-80.078125
1620		-85.937500
1621		-78.125000
1622		-85.937500
1623		-78.125000
1624		-83.984375
1625		-76.171875
1626		-80.078125
1627		-76.171875
1628		-78.125000
1629		-74.218750
1630		-78.125000
1631		-72.265625
1632		-76.171875
1633		-68.359375
1634		-76.171875
1635		-68.359375
1636		-72.265625
1637		-66.406250
1638		-72.265625
1639		-64.453125
1640		-70.312500
1641		-62.500000
1642		-68.359375
1643		-60.546875
1644		-64.453125
1645		-58.593750
1646		-62.500000
1647		-56.640625
1648		-60.546875
1649		-52.734375
1650		-58.593750
1651		-50.781250
1652		-56.640625
1653		-48.828125
1654		-54.687500
1655		-46.875000
1656		-50.781250
1657		-44.921875
1658		-50.781250
1659		-41.015625
1660		-44.921875
1661		-41.015625
1662		-42.968750
1663		-39.062500
1664		-41.015625
1665		-35.156250
1666		-41.015625
1667		-31.250000
1668		-37.109375
1669		-29.296875
1670		-33.203125
1671		-27.343750
1672		-31.250000
1673		-23.437500
1674		-29.296875
1675		-21.484375
1676		-27.343750
1677		-19.531250
1678		-21.484375
1679		-17.578125
1680		-19.531250
1681		-13.671875
1682		-17.578125
1683		-9.765625
1684		-15.625000
1685		-7.812500
1686		-13.671875
1687		-3.906250
1688		-9.765625
1689		-1.953125
1690		-5.859375
1691		1.953125
1692		-3.906250
1693		1.953125
1694		0.000000
1695		5.859375
1696		3.906250
1697		7.812500
1698		5.859375
1699		11.718750
1700		7.812500
1701		13.671875
1702		9.765625
1703		17.578125
1704		13.671875
1705		19.531250
1706		15.625000
1707		23.437500
1708		17.578125
1709		25.390625
1710		23.437500
1711		27.343750
1712		25.390625
1713		29.296875
1714		27.343750
1715		33.203125
1716		27.343750
1717		37.109375
1718		31.250000
1719		39.062500
1720		35.156250
1721		41.015625
1722		37.109375
1723		44.921875
1724		39.062500
1725		46.875000
1726		42.968750
1727		48.828125
1728		44.921875
1729		50.781250
1730		48.828125
1731		52.734375
1732		48.828125
1733		56.640625
1734		50.781250
1735		58.593750
1736		54.687500
1737		60.546875
1738		54.687500
1739		62.500000
1740		58.593750
1741		66.406250
1742		60.546875
1743		68.359375
1744		64.453125
1745		68.359375
1746		66.406250
1747		72.265625
1748		68.359375
1749		74.218750
1750		68.359375
1751		76.171875
1752		70.312500
1753		80.078125
1754		74.218750
1755		80.078125
1756		74.218750
1757		82.031250
1758		78.125000
1759		85.937500
1760		78.125000
1761		83.984375
1762		82.031250
1763		85.937500
1764		82.031250
1765		89.843750
1766		83.984375
1767		91.796875
1768		83.984375
1769		93.750000
1770		85.937500
1771		95.703125
1772		87.890625
1773		95.703125
1774		89.843750
1775		95.703125
1776		91.796875
1777		97.656250
1778		93.750000
1779		97.656250
1780		95.703125
1781		99.609375
1782		95.703125
1783		101.562500
1784		95.703125
1785		103.515625
1786		97.656250
1787		105.468750
1788		99.609375
1789		105.468750
1790		99.609375
1791		107.421875
1792		99.609375
1793		107.421875
1794		103.515625
1795		107.421875
1796		103.515625
1797		107.421875
1798		103.515625
1799		109.375000
1800		103.515625
1801		111.328125
1802		105.468750
1803		111.328125
1804		105.468750
1805		111.328125
1806		105.468750
1807		113.281250
1808		105.468750
1809		113.281250
1810		107.421875
1811		111.328125
1812		109.375000
1813		111.328125
1814		109.375000
1815		113.281250
1816		107.421875
1817		113.281250
1818		107.421875
1819		115.234375
1820		107.421875
1821		115.234375
1822		107.421875
1823		115.234375
1824		107.421875
1825		115.234375
1826		107.421875
1827		113.281250
1828		109.375000
1829		113.281250
1830		109.375000
1831		113.281250
1832		107.421875
1833		113.281250
1834		107.421875
1835		113.281250
1836		107.421875
1837		113.281250
1838		105.468750
1839		113.281250
1840		105.468750
1841		113.281250
1842		105.468750
1843		111.328125
1844		105.468750
1845		111.328125
1846		105.468750
1847		109.375000
1848		101.562500
1849		109.375000
1850		101.562500
1851		109.375000
1852		101.562500
1853		109.375000
1854		99.609375
1855		107.421875
1856		99.609375
1857		105.468750
1858		97.656250
1859		105.468750
1860		97.656250
1861		103.515625
1862		97.656250
1863		101.562500
1864		97.656250
1865		99.609375
1866		93.750000
1867		99.609375
1868		91.796875
1869		99.609375
1870		89.843750
1871		99.609375
1872		89.843750
1873		95.703125
1874		87.890625
1875		95.703125
1876		85.937500
1877		93.750000
1878		85.937500
1879		89.843750
1880		83.984375
1881		87.890625
1882		82.031250
1883		85.937500
1884		78.125000
1885		85.937500
1886		78.125000
1887		83.984375
1888		76.171875
1889		82.031250
1890		74.218750
1891		82.031250
1892		72.265625
1893		78.125000
1894		70.312500
1895		76.171875
1896		68.359375
1897		72.265625
1898		66.406250
1899		72.265625
1900		62.500000
1901		70.312500
1902		60.546875
1903		68.359375
1904		58.593750
1905		66.406250
1906		54.687500
1907		64.453125
1908		54.687500
1909		62.500000
1910		52.734375
1911		58.593750
1912		50.781250
1913		54.687500
1914		48.828125
1915		52.734375
1916		44.921875
1917		50.781250
1918		42.968750
1919		48.828125
1920		39.062500
1921		46.875000
1922		35.156250
1923		44.921875
1924		33.203125
1925		41.015625
1926		31.250000
1927		39.062500
1928		29.296875
1929		37.109375
1930		27.343750
1931		33.203125
1932		23.437500
1933		29.296875
1934		21.484375
1935		27.343750
1936		17.578125
1937		25.390625
1938		15.625000
1939		21.484375
1940		11.718750
1941		19.531250
1942		9.765625
1943		17.578125
1944		7.812500
1945		15.625000
1946		5.859375
1947		9.765625
1948		1.953125
1949		7.812500
1950		-1.953125
1951		5.859375
1952		-5.859375
1953		1.953125
1954		-7.812500
1955		0.000000
1956		-9.765625
1957		-3.906250
1958		-11.718750
1959		-5.859375
1960		-15.625000
1961		-7.812500
1962		-17.578125
1963		-11.718750
1964		-19.531250
1965		-15.625000
1966		-23.437500
1967		-17.578125
1968		-27.343750
1969		-17.578125
1970		-29.296875
1971		-21.484375
1972		-31.250000
1973		-23.437500
1974		-33.203125
1975		-27.343750
1976		-37.109375
1977		-29.296875
1978		-39.062500
1979		-33.203125
1980		-41.015625
1981		-35.156250
1982		-42.968750
1983		-39.062500
1984		-48.828125
1985		-39.062500
1986		-48.828125
1987		-42.968750
1988		-52.734375
1989		-44.921875
1990		-54.687500
1991		-46.875000
1992		-56.640625
1993		-48.828125
1994		-58.593750
1995		-50.781250
1996		-58.593750
1997		-54.687500
1998		-62.500000
1999		-56.640625
2000		-64.453125
2001		-58.593750
2002		-66.406250
2003		-58.593750
2004		-68.359375
2005		-62.500000
2006		-72.265625
2007		-64.453125
2008		-72.265625
2009		-64.453125
2010		-74.218750
2011		-68.359375
2012		-74.218750
2013		-70.312500
2014		-76.171875
2015		-72.265625
2016		-80.078125
2017		-74.218750
2018		-82.031250
2019		-74.218750
2020		-83.984375
2021		-76.171875
2022		-83.984375
2023		-78.125000
2024		-85.937500
2025		-78.125000
2026		-87.890625
2027		-80.078125
2028		-87.890625
2029		-80.078125
2030		-87.890625
2031		-83.984375
2032		-87.890625
2033		-85.937500
2034		-91.796875
2035		-85.937500
2036		-93.750000
2037		-85.937500
2038		-93.750000
2039		-87.890625
2040		-93.750000
2041		-87.890625
2042		-95.703125
2043		-87.890625
2044		-95.703125
2045		-87.890625
2046		-93.750000
2047		-89.843750
2048		-93.750000
2049		-91.796875
2050		-97.656250
2051		-89.843750
2052		-97.656250
2053		-89.843750
2054		-97.656250
2055		-89.843750
2056		-97.656250
2057		-91.796875
2058		-97.656250
2059		-91.796875
2060		-97.656250
2061		-89.843750
2062		-95.703125
2063		-91.796875
2064		-95.703125
2065		-91.796875
2066		-95.703125
2067		-91.796875
2068		-95.703125
2069		-89.843750
2070		-95.703125
2071		-89.843750
2072		-95.703125
2073		-87.890625
2074		-93.750000
2075		-87.890625
2076		-93.750000
2077		-87.890625
2078		-93.750000
2079		-87.890625
2080		-89.843750
2081		-87.890625
2082		-89.843750
2083		-85.937500
2084		-89.843750
2085		-83.984375
2086		-89.843750
2087		-82.031250
2088		-87.890625
2089		-80.078125
2090		-85.937500
2091		-80.078125
2092		-85.937500
2093		-78.125000
2094		-83.984375
2095		-78.125000
2096		-82.031250
2097		-76.171875
2098		-80.078125
2099		-76.171875
2100		-78.125000
2101		-72.265625
2102		-78.125000
2103		-70.312500
2104		-76.171875
2105		-68.359375
2106		-74.218750
2107		-66.406250
2108		-72.265625
2109		-64.453125
2110		-70.312500
2111		-62.500000
2112		-68.359375
2113		-60.546875
2114		-64.453125
2115		-60.546875
2116		-62.500000
2117		-58.593750
2118		-62.500000
2119		-54.687500
2120		-60.546875
2121		-52.734375
2122		-56.640625
2123		-50.781250
2124		-54.687500
2125		-46.875000
2126		-52.734375
2127		-44.921875
2128		-48.828125
2129		-42.968750
2130		-46.875000
2131		-41.015625
2132		-44.921875
2133		-39.062500
2134		-41.015625
2135		-35.156250
2136		-39.062500
2137		-33.203125
2138		-37.109375
2139		-31.250000
2140		-35.156250
2141		-27.343750
2142		-33.203125
2143		-25.390625
2144		-29.296875
2145		-21.484375
2146		-27.343750
2147		-21.484375
2148		-23.437500
2149		-17.578125
2150		-19.531250
2151		-15.625000
2152		-17.578125
2153		-11.718750
2154		-17.578125
2155		-7.812500
2156		-13.671875
2157		-5.859375
2158		-9.765625
2159		-3.906250
2160		-7.812500
2161		0.000000
2162		-5.859375
2163		1.953125
2164		-1.953125
2165		3.906250
2166		1.953125
2167		5.859375
2168		3.906250
2169		9.765625
2170		5.859375
2171		13.671875
2172		7.812500
2173		15.625000
2174		11.718750
2175		19.531250
2176		13.671875
2177		21.484375
2178		15.625000
2179		23.437500
2180		19.531250
2181		25.390625
2182		23.437500
2183		29.296875
2184		25.390625
2185		31.250000
2186		27.343750
2187		35.156250
2188		29.296875
2189		39.062500
2190		33.203125
2191		41.015625
2192		35.156250
2193		42.968750
2194		37.109375
2195		44.921875
2196		41.015625
2197		48.828125
2198		44.921875
2199		48.828125
2200		46.875000
2201		50.781250
2202		48.828125
2203		54.687500
2204		50.781250
2205		56.640625
2206		52.734375
2207		60.546875
2208		54.687500
2209		62.500000
2210		56.640625
2211		64.453125
2212		58.593750
2213		68.359375
2214		62.500000
2215		68.359375
2216		66.406250
2217		70.312500
2218		68.359375
2219		74.218750
2220		68.359375
2221		74.218750
2222		70.312500
2223		78.125000
2224		72.265625
2225		78.125000
2226		74.218750
2227		80.078125
2228		76.171875
2229		82.031250
2230		78.125000
2231		83.984375
2232		82.031250
2233		85.937500
2234		83.984375
2235		87.890625
2236		83.984375
2237		89.843750
2238		83.984375
2239		93.750000
2240		85.937500
2241		91.796875
2242		87.890625
2243		93.750000
2244		89.843750
2245		95.703125
2246		89.843750
2247		97.656250
2248		93.750000
2249		97.656250
2250		95.703125
2251		99.609375
2252		95.703125
2253		101.562500
2254		95.703125
2255		103.515625
2256		97.656250
2257		103.515625
2258		97.656250
2259		105.468750
2260		99.609375
2261		105.468750
2262		99.609375
2263		107.421875
2264		99.609375
2265		107.421875
2266		103.515625
2267		107.421875
2268		103.515625
2269		107.421875
2270		103.515625
2271		109.375000
2272		103.515625
2273		109.375000
2274		103.515625
2275		111.328125
2276		105.468750
2277		111.328125
2278		105.468750
2279		113.281250
2280		105.468750
2281		113.281250
2282		109.375000
2283		111.328125
2284		109.375000
2285		111.328125
2286		107.421875
2287		115.234375
2288		107.421875
2289		113.281250
2290		107.421875
2291		115.234375
2292		107.421875
2293		115.234375
2294		107.421875
2295		115.234375
2296		107.421875
2297		113.281250
2298		107.421875
2299		115.234375
2300		109.375000
2301		111.328125
2302		107.421875
2303		113.281250
2304		105.468750
2305		113.281250
2306		107.421875
2307		113.281250
2308		105.468750
2309		113.281250
2310		105.468750
2311		111.328125
2312		105.468750
2313		111.328125
2314		105.468750
2315		111.328125
2316		105.468750
2317		109.375000
2318		105.468750
2319		107.421875
2320		101.562500
2321		109.375000
2322		101.562500
2323		109.375000
2324		99.609375
2325		107.421875
2326		99.609375
2327		107.421875
2328		97.656250
2329		105.468750
2330		97.656250
2331		103.515625
2332		97.656250
2333		101.562500
2334		97.656250
2335		99.609375
2336		93.750000
2337		99.609375
2338		91.796875
2339		99.609375
2340		91.796875
2341		97.656250
2342		89.843750
2343		97.656250
2344		87.890625
2345		95.703125
2346		85.937500
2347		93.750000
2348		85.937500
2349		91.796875
2350		85.937500
2351		89.843750
2352		82.031250
2353		87.890625
2354		80.078125
2355		87.890625
2356		78.125000
2357		85.937500
2358		76.171875
2359		82.031250
2360		74.218750
2361		82.031250
2362		72.265625
2363		80.078125
2364		70.312500
2365		78.125000
2366		70.312500
2367		74.218750
2368		68.359375
2369		72.265625
2370		62.500000
2371		70.312500
2372		60.546875
2373		68.359375
2374		58.593750
2375		66.406250
2376		56.640625
2377		64.453125
2378		54.687500
2379		62.500000
2380		52.734375
2381		60.546875
2382		50.781250
2383		58.593750
2384		48.828125
2385		52.734375
2386		44.921875
2387		50.781250
2388		42.968750
2389		50.781250
2390		41.015625
2391		48.828125
2392		37.109375
2393		44.921875
2394		35.156250
2395		41.015625
2396		33.203125
2397		39.062500
2398		31.250000
2399		37.109375
2400		29.296875
2401		33.203125
2402		25.390625
2403		31.250000
2404		21.484375
2405		29.296875
2406		19.531250
2407		27.343750
2408		15.625000
2409		23.437500
2410		11.718750
2411		19.531250
2412		11.718750
2413		19.531250
2414		7.812500
2415		15.625000
2416		5.859375
2417		11.718750
2418		3.906250
2419		7.812500
2420		0.000000
2421		5.859375
2422		-3.906250
2423		3.906250
2424		-5.859375
2425		1.953125
2426		-7.812500
2427		-1.953125
2428		-11.718750
2429		-3.906250
2430		-15.625000
2431		-5.859375
2432		-15.625000
2433		-7.812500
2434		-17.578125
2435		-13.671875
2436		-21.484375
2437		-15.625000
2438		-25.390625
2439		-17.578125
2440		-29.296875
2441		-21.484375
2442		-29.296875
2443		-23.437500
2444		-33.203125
2445		-23.437500
2446		-35.156250
2447		-29.296875
2448		-39.062500
2449		-31.250000
2450		-39.062500
2451		-35.156250
2452		-42.968750
2453		-37.109375
2454		-46.875000
2455		-39.062500
2456		-48.828125
2457		-41.015625
2458		-50.781250
2459		-42.968750
2460		-54.687500
2461		-44.921875
2462		-56.640625
2463		-48.828125
2464		-56.640625
2465		-50.781250
2466		-58.593750
2467		-52.734375
2468		-60.546875
2469		-56.640625
2470		-64.453125
2471		-58.593750
2472		-66.406250
2473		-60.546875
2474		-68.359375
2475		-62.500000
2476		-70.312500
2477		-62.500000
2478		-74.218750
2479		-66.406250
2480		-74.218750
2481		-66.406250
2482		-76.171875
2483		-70.312500
2484		-76.171875
2485		-72.265625
2486		-78.125000
2487		-74.218750
2488		-82.031250
2489		-74.218750
2490		-82.031250
2491		-76.171875
2492		-83.984375
2493		-78.125000
2494		-85.937500
2495		-80.078125
2496		-87.890625
2497		-80.078125
2498		-87.890625
2499		-82.031250
2500		-87.890625
2501		-83.984375
2502		-87.890625
2503		-85.937500
2504		-91.796875
2505		-85.937500
2506		-93.750000
2507		-85.937500
2508		-93.750000
2509		-87.890625
2510		-93.750000
2511		-87.890625
2512		-93.750000
2513		-89.843750
2514		-93.750000
2515		-89.843750
2516		-95.703125
2517		-89.843750
2518		-95.703125
2519		-91.796875
2520		-95.703125
2521		-91.796875
2522		-97.656250
2523		-91.796875
2524		-97.656250
2525		-89.843750
2526		-97.656250
2527		-91.796875
2528		-99.609375
2529		-91.796875
2530		-97.656250
2531		-91.796875
2532		-97.656250
2533		-93.750000
2534		-95.703125
2535		-93.750000
2536		-95.703125
2537		-93.750000
2538		-97.656250
2539		-91.796875
2540		-95.703125
2541		-91.796875
2542		-95.703125
2543		-89.843750
2544		-93.750000
2545		-89.843750
2546		-93.750000
2547		-89.843750
2548		-91.796875
2549		-89.843750
2550		-91.796875
2551		-87.890625
2552		-91.796875
2553		-87.890625
2554		-89.843750
2555		-85.937500
2556		-89.843750
2557		-83.984375
2558		-89.843750
2559		-82.031250
2560		-85.937500
2561		-82.031250
2562		-85.937500
2563		-80.078125
2564		-83.984375
2565		-80.078125
2566		-82.031250
2567		-78.125000
2568		-82.031250
2569		-78.125000
2570		-80.078125
2571		-76.171875
2572		-78.125000
2573		-74.218750
2574		-78.125000
2575		-72.265625
2576		-74.218750
2577		-70.312500
2578		-72.265625
2579		-68.359375
2580		-70.312500
2581		-66.406250
2582		-68.359375
2583		-64.453125
2584		-68.359375
2585		-62.500000
2586		-64.453125
2587		-60.546875
2588		-62.500000
2589		-58.593750
2590		-60.546875
2591		-54.687500
2592		-58.593750
2593		-54.687500
2594		-56.640625
2595		-50.781250
2596		-54.687500
2597		-48.828125
2598		-52.734375
2599		-46.875000
2600		-48.828125
2601		-44.921875
2602		-46.875000
2603		-41.015625
2604		-44.921875
2605		-39.062500
2606		-42.968750
2607		-37.109375
2608		-39.062500
2609		-35.156250
2610		-37.109375
2611		-31.250000
2612		-33.203125
2613		-29.296875
2614		-31.250000
2615		-25.390625
2616		-29.296875
2617		-23.437500
2618		-25.390625
2619		-21.484375
2620		-23.437500
2621		-17.578125
2622		-19.531250
2623		-15.625000
2624		-17.578125
2625		-13.671875
2626		-15.625000
2627		-9.765625
2628		-11.718750
2629		-7.812500
2630		-9.765625
2631		-3.906250
2632		-5.859375
2633		-1.953125
2634		-3.906250
2635		1.953125
2636		-1.953125
2637		3.906250
2638		1.953125
2639		7.812500
2640		3.906250
2641		9.765625
2642		7.812500
2643		11.718750
2644		9.765625
2645		15.625000
2646		13.671875
2647		17.578125
2648		15.625000
2649		21.484375
2650		17.578125
2651		23.437500
2652		21.484375
2653		25.390625
2654		23.437500
2655		29.296875
2656		25.390625
2657		31.250000
2658		29.296875
2659		35.156250
2660		31.250000
2661		37.109375
2662		33.203125
2663		39.062500
2664		37.109375
2665		42.968750
2666		39.062500
2667		44.921875
2668		41.015625
2669		46.875000
2670		44.921875
2671		50.781250
2672		46.875000
2673		52.734375
2674		50.781250
2675		54.687500
2676		52.734375
2677		56.640625
2678		54.687500
2679		60.546875
2680		56.640625
2681		60.546875
2682		58.593750
2683		62.500000
2684		60.546875
2685		66.406250
2686		64.453125
2687		68.359375
2688		66.406250
2689		70.312500
2690		68.359375
2691		72.265625
2692		70.312500
2693		74.218750
2694		72.265625
2695		76.171875
2696		74.218750
2697		78.125000
2698		76.171875
2699		80.078125
2700		78.125000
2701		82.031250
2702		80.078125
2703		83.984375
2704		82.031250
2705		85.937500
2706		83.984375
2707		87.890625
2708		83.984375
2709		89.843750
2710		85.937500
2711		89.843750
2712		87.890625
2713		91.796875
2714		89.843750
2715		93.750000
2716		91.796875
2717		95.703125
2718		91.796875
2719		95.703125
2720		93.750000
2721		97.656250
2722		95.703125
2723		99.609375
2724		95.703125
2725		101.562500
2726		97.656250
2727		101.562500
2728		99.609375
2729		101.562500
2730		99.609375
2731		103.515625
2732		101.562500
2733		105.468750
2734		101.562500
2735		105.468750
2736		103.515625
2737		107.421875
2738		103.515625
2739		107.421875
2740		103.515625
2741		107.421875
2742		105.468750
2743		109.375000
2744		105.468750
2745		109.375000
2746		107.421875
2747		109.375000
2748		107.421875
2749		111.328125
2750		107.421875
2751		111.328125
2752		107.421875
2753		111.328125
2754		109.375000
2755		111.328125
2756		107.421875
2757		111.328125
2758		109.375000
2759		111.328125
2760		109.375000
2761		111.328125
2762		109.375000
2763		111.328125
2764		109.375000
2765		113.281250
2766		109.375000
2767		113.281250
2768		109.375000
2769		111.328125
2770		109.375000
2771		111.328125
2772		109.375000
2773		113.281250
2774		107.421875
2775		111.328125
2776		107.421875
2777		111.328125
2778		107.421875
2779		111.328125
2780		107.421875
2781		109.375000
2782		107.421875
2783		109.375000
2784		105.468750
2785		109.375000
2786		105.468750
2787		109.375000
2788		105.468750
2789		107.421875
2790		103.515625
2791		109.375000
2792		103.515625
2793		107.421875
2794		101.562500
2795		105.468750
2796		101.562500
2797		105.468750
2798		99.609375
2799		103.515625
2800		99.609375
2801		103.515625
2802		97.656250
2803		101.562500
2804		97.656250
2805		101.562500
2806		95.703125
2807		99.609375
2808		93.750000
2809		97.656250
2810		93.750000
2811		97.656250
2812		91.796875
2813		95.703125
2814		89.843750
2815		93.750000
2816		87.890625
2817		91.796875
2818		85.937500
2819		91.796875
2820		85.937500
2821		89.843750
2822		83.984375
2823		87.890625
2824		82.031250
2825		85.937500
2826		80.078125
2827		83.984375
2828		78.125000
2829		82.031250
2830		76.171875
2831		80.078125
2832		74.218750
2833		80.078125
2834		72.265625
2835		76.171875
2836		70.312500
2837		76.171875
2838		68.359375
2839		72.265625
2840		66.406250
2841		70.312500
2842		64.453125
2843		68.359375
2844		62.500000
2845		66.406250
2846		58.593750
2847		64.453125
2848		56.640625
2849		62.500000
2850		54.687500
2851		60.546875
2852		52.734375
2853		56.640625
2854		48.828125
2855		54.687500
2856		46.875000
2857		52.734375
2858		44.921875
2859		50.781250
2860		42.968750
2861		46.875000
2862		39.062500
2863		44.921875
2864		37.109375
2865		42.968750
2866		35.156250
2867		39.062500
2868		31.250000
2869		37.109375
2870		29.296875
2871		35.156250
2872		27.343750
2873		31.250000
2874		23.437500
2875		29.296875
2876		21.484375
2877		27.343750
2878		19.531250
2879		23.437500
2880		15.625000
2881		19.531250
2882		11.718750
2883		17.578125
2884		9.765625
2885		15.625000
2886		7.812500
2887		13.671875
2888		3.906250
2889		9.765625
2890		1.953125
2891		7.812500
2892		-1.953125
2893		3.906250
2894		-3.906250
2895		1.953125
2896		-5.859375
2897		-1.953125
2898		-9.765625
2899		-3.906250
2900		-11.718750
2901		-7.812500
2902		-13.671875
2903		-9.765625
2904		-17.578125
2905		-11.718750
2906		-19.531250
2907		-15.625000
2908		-23.437500
2909		-17.578125
2910		-25.390625
2911		-19.531250
2912		-27.343750
2913		-23.437500
2914		-31.250000
2915		-25.390625
2916		-33.203125
2917		-29.296875
2918		-35.156250
2919		-31.250000
2920		-39.062500
2921		-33.203125
2922		-41.015625
2923		-37.109375
2924		-42.968750
2925		-39.062500
2926		-46.875000
2927		-41.015625
2928		-48.828125
2929		-42.968750
2930		-50.781250
2931		-44.921875
2932		-52.734375
2933		-48.828125
2934		-54.687500
2935		-50.781250
2936		-58.593750
2937		-52.734375
2938		-60.546875
2939		-54.687500
2940		-62.500000
2941		-58.593750
2942		-64.453125
2943		-58.593750
2944		-66.406250
2945		-62.500000
2946		-68.359375
2947		-64.453125
2948		-70.312500
2949		-66.406250
2950		-72.265625
2951		-68.359375
2952		-76.171875
2953		-68.359375
2954		-76.171875
2955		-72.265625
2956		-78.125000
2957		-74.218750
2958		-80.078125
2959		-74.218750
2960		-80.078125
2961		-76.171875
2962		-82.031250
2963		-78.125000
2964		-83.984375
2965		-80.078125
2966		-85.937500
2967		-82.031250
2968		-85.937500
2969		-82.031250
2970		-87.890625
2971		-83.984375
2972		-87.890625
2973		-83.984375
2974		-89.843750
2975		-85.937500
2976		-89.843750
2977		-85.937500
2978		-91.796875
2979		-87.890625
2980		-91.796875
2981		-89.843750
2982		-93.750000
2983		-89.843750
2984		-93.750000
2985		-89.843750
2986		-95.703125
2987		-91.796875
2988		-93.750000
2989		-91.796875
2990		-95.703125
2991		-91.796875
2992		-95.703125
2993		-91.796875
2994		-95.703125
2995		-91.796875
2996		-95.703125
2997		-93.750000
2998		-95.703125
2999		-93.750000
3000		-95.703125
3001		-93.750000
3002		-95.703125
3003		-93.750000
3004		-97.656250
3005		-91.796875
3006		-95.703125
3007		-93.750000
3008		-95.703125
3009		-91.796875
3010		-95.703125
3011		-91.796875
3012		-95.703125
3013		-91.796875
3014		-93.750000
3015		-91.796875
3016		-93.750000
3017		-89.843750
3018		-93.750000
3019		-89.843750
3020		-91.796875
3021		-89.843750
3022		-91.796875
3023		-87.890625
3024		-89.843750
3025		-87.890625
3026		-89.843750
3027		-85.937500
3028		-89.843750
3029		-83.984375
3030		-87.890625
3031		-83.984375
3032		-85.937500
3033		-82.031250
3034		-85.937500
3035		-82.031250
3036		-83.984375
3037		-78.125000
3038		-82.031250
3039		-78.125000
3040		-80.078125
3041		-76.171875
3042		-80.078125
3043		-74.218750
3044		-78.125000
3045		-72.265625
3046		-76.171875
3047		-72.265625
3048		-74.218750
3049		-70.312500
3050		-72.265625
3051		-68.359375
3052		-70.312500
3053		-66.406250
3054		-68.359375
3055		-64.453125
3056		-66.406250
3057		-62.500000
3058		-64.453125
3059		-58.593750
3060		-62.500000
3061		-56.640625
3062		-60.546875
3063		-54.687500
3064		-58.593750
3065		-52.734375
3066		-54.687500
3067		-50.781250
3068		-52.734375
3069		-48.828125
3070		-50.781250
3071		-44.921875
3072		-48.828125
3073		-42.968750
3074		-44.921875
3075		-41.015625
3076		-42.968750
3077		-39.062500
3078		-41.015625
3079		-35.156250
3080		-39.062500
3081		-33.203125
3082		-35.156250
3083		-29.296875
3084		-33.203125
3085		-27.343750
3086		-31.250000
3087		-23.437500
3088		-29.296875
3089		-23.437500
3090		-25.390625
3091		-19.531250
3092		-21.484375
3093		-17.578125
3094		-19.531250
3095		-15.625000
3096		-17.578125
3097		-11.718750
3098		-13.671875
3099		-9.765625
3100		-11.718750
3101		-5.859375
3102		-7.812500
3103		-3.906250
3104		-5.859375
3105		0.000000
3106		-1.953125
3107		1.953125
3108		0.000000
3109		5.859375
3110		1.953125
3111		7.812500
3112		5.859375
3113		11.718750
3114		7.812500
3115		13.671875
3116		11.718750
3117		15.625000
3118		13.671875
3119		19.531250
3120		17.578125
3121		21.484375
3122		19.531250
3123		23.437500
3124		21.484375
3125		27.343750
3126		25.390625
3127		29.296875
3128		27.343750
3129		31.250000
3130		29.296875
3131		35.156250
3132		33.203125
3133		37.109375
3134		35.156250
3135		41.015625
3136		39.062500
3137		42.968750
3138		41.015625
3139		44.921875
3140		42.968750
3141		48.828125
3142		44.921875
3143		50.781250
3144		48.828125
3145		52.734375
3146		50.781250
3147		54.687500
3148		52.734375
3149		56.640625
3150		54.687500
3151		60.546875
3152		58.593750
3153		62.500000
3154		60.546875
3155		64.453125
3156		62.500000
3157		66.406250
3158		64.453125
3159		68.359375
3160		66.406250
3161		70.312500
3162		68.359375
3163		72.265625
3164		70.312500
3165		76.171875
3166		72.265625
3167		76.171875
3168		74.218750
3169		80.078125
3170		76.171875
3171		80.078125
3172		78.125000
3173		82.031250
3174		80.078125
3175		83.984375
3176		82.031250
3177		85.937500
3178		83.984375
3179		87.890625
3180		83.984375
3181		89.843750
3182		85.937500
3183		91.796875
3184		87.890625
3185		91.796875
3186		89.843750
3187		93.750000
3188		91.796875
3189		95.703125
3190		93.750000
3191		97.656250
3192		93.750000
3193		97.656250
3194		93.750000
3195		99.609375
3196		97.656250
3197		101.562500
3198		97.656250
3199		101.562500
3200		99.609375
3201		103.515625
3202		99.609375
3203		103.515625
3204		101.562500
3205		105.468750
3206		101.562500
3207		105.468750
3208		103.515625
3209		107.421875
3210		103.515625
3211		107.421875
3212		105.468750
3213		107.421875
3214		105.468750
3215		109.375000
3216		105.468750
3217		109.375000
3218		107.421875
3219		109.375000
3220		107.421875
3221		109.375000
3222		107.421875
3223		111.328125
3224		107.421875
3225		111.328125
3226		107.421875
3227		111.328125
3228		107.421875
3229		111.328125
3230		109.375000
3231		111.328125
3232		109.375000
3233		111.328125
3234		109.375000
3235		111.328125
3236		109.375000
3237		111.328125
3238		109.375000
3239		113.281250
3240		109.375000
3241		111.328125
3242		109.375000
3243		111.328125
3244		107.421875
3245		111.328125
3246		107.421875
3247		111.328125
3248		107.421875
3249		111.328125
3250		107.421875
3251		111.328125
3252		107.421875
3253		109.375000
3254		105.468750
3255		109.375000
3256		105.468750
3257		109.375000
3258		105.468750
3259		109.375000
3260		103.515625
3261		107.421875
3262		103.515625
3263		107.421875
3264		101.562500
3265		105.468750
3266		101.562500
3267		105.468750
3268		99.609375
3269		105.468750
3270		99.609375
3271		103.515625
3272		99.609375
3273		101.562500
3274		97.656250
3275		101.562500
3276		95.703125
3277		99.609375
3278		95.703125
3279		99.609375
3280		93.750000
3281		97.656250
3282		91.796875
3283		95.703125
3284		89.843750
3285		95.703125
3286		89.843750
3287		93.750000
3288		87.890625
3289		91.796875
3290		85.937500
3291		91.796875
3292		83.984375
3293		87.890625
3294		82.031250
3295		87.890625
3296		80.078125
3297		85.937500
3298		80.078125
3299		83.984375
3300		76.171875
3301		82.031250
3302		76.171875
3303		80.078125
3304		74.218750
3305		78.125000
3306		72.265625
3307		76.171875
3308		70.312500
3309		74.218750
3310		66.406250
3311		72.265625
3312		64.453125
3313		70.312500
3314		62.500000
3315		68.359375
3316		60.546875
3317		64.453125
3318		58.593750
3319		62.500000
3320		56.640625
3321		60.546875
3322		52.734375
3323		58.593750
3324		50.781250
3325		56.640625
3326		48.828125
3327		52.734375
3328		44.921875
3329		50.781250
3330		42.968750
3331		48.828125
3332		41.015625
3333		46.875000
3334		39.062500
3335		42.968750
3336		35.156250
3337		41.015625
3338		33.203125
3339		39.062500
3340		31.250000
3341		35.156250
3342		27.343750
3343		33.203125
3344		25.390625
3345		29.296875
3346		23.437500
3347		27.343750
3348		19.531250
3349		25.390625
3350		17.578125
3351		21.484375
3352		13.671875
3353		19.531250
3354		11.718750
3355		15.625000
3356		7.812500
3357		13.671875
3358		5.859375
3359		11.718750
3360		3.906250
3361		7.812500
3362		0.000000
3363		5.859375
3364		-1.953125
3365		1.953125
3366		-5.859375
3367		0.000000
3368		-7.812500
3369		-1.953125
3370		-9.765625
3371		-5.859375
3372		-13.671875
3373		-7.812500
3374		-15.625000
3375		-9.765625
3376		-19.531250
3377		-13.671875
3378		-21.484375
3379		-17.578125
3380		-23.437500
3381		-19.531250
3382		-27.343750
3383		-21.484375
3384		-29.296875
3385		-25.390625
3386		-31.250000
3387		-27.343750
3388		-35.156250
3389		-29.296875
3390		-37.109375
3391		-33.203125
3392		-41.015625
3393		-35.156250
3394		-42.968750
3395		-39.062500
3396		-44.921875
3397		-41.015625
3398		-46.875000
3399		-42.968750
3400		-50.781250
3401		-44.921875
3402		-52.734375
3403		-46.875000
3404		-54.687500
3405		-50.781250
3406		-58.593750
3407		-52.734375
3408		-58.593750
3409		-54.687500
3410		-62.500000
3411		-56.640625
3412		-64.453125
3413		-58.593750
3414		-66.406250
3415		-60.546875
3416		-68.359375
3417		-62.500000
3418		-70.312500
3419		-66.406250
3420		-72.265625
3421		-66.406250
3422		-74.218750
3423		-68.359375
3424		-76.171875
3425		-70.312500
3426		-76.171875
3427		-72.265625
3428		-78.125000
3429		-74.218750
3430		-80.078125
3431		-76.171875
3432		-82.031250
3433		-78.125000
3434		-83.984375
3435		-80.078125
3436		-85.937500
3437		-80.078125
3438		-85.937500
3439		-82.031250
3440		-87.890625
3441		-83.984375
3442		-87.890625
3443		-83.984375
3444		-89.843750
3445		-85.937500
3446		-91.796875
3447		-87.890625
3448		-91.796875
3449		-87.890625
3450		-93.750000
3451		-87.890625
3452		-93.750000
3453		-89.843750
3454		-93.750000
3455		-91.796875
3456		-95.703125
3457		-91.796875
3458		-95.703125
3459		-91.796875
3460		-95.703125
3461		-91.796875
3462		-97.656250
3463		-93.750000
3464		-97.656250
3465		-93.750000
3466		-95.703125
3467		-93.750000
3468		-97.656250
3469		-93.750000
3470		-97.656250
3471		-93.750000
3472		-97.656250
3473		-93.750000
3474		-97.656250
3475		-93.750000
3476		-97.656250
3477		-93.750000
3478		-97.656250
3479		-91.796875
3480		-97.656250
3481		-91.796875
3482		-95.703125
3483		-91.796875
3484		-95.703125
3485		-91.796875
3486		-95.703125
3487		-91.796875
3488		-93.750000
3489		-91.796875
3490		-93.750000
3491		-89.843750
3492		-91.796875
3493		-89.843750
3494		-91.796875
3495		-87.890625
3496		-89.843750
3497		-87.890625
3498		-89.843750
3499		-85.937500
3500		-89.843750
3501		-85.937500
3502		-87.890625
3503		-83.984375
3504		-85.937500
3505		-82.031250
3506		-85.937500
3507		-82.031250
3508		-83.984375
3509		-80.078125
3510		-82.031250
3511		-78.125000
3512		-80.078125
3513		-76.171875
3514		-80.078125
3515		-74.218750
3516		-78.125000
3517		-74.218750
3518		-76.171875
3519		-72.265625
3520		-74.218750
3521		-70.312500
3522		-72.265625
3523		-68.359375
3524		-70.312500
3525		-64.453125
3526		-68.359375
3527		-64.453125
3528		-66.406250
3529		-62.500000
3530		-64.453125
3531		-60.546875
3532		-62.500000
3533		-56.640625
3534		-60.546875
3535		-54.687500
3536		-58.593750
3537		-52.734375
3538		-54.687500
3539		-50.781250
3540		-52.734375
3541		-48.828125
3542		-50.781250
3543		-44.921875
3544		-46.875000
3545		-42.968750
3546		-44.921875
3547		-41.015625
3548		-42.968750
3549		-37.109375
3550		-41.015625
3551		-35.156250
3552		-39.062500
3553		-33.203125
3554		-35.156250
3555		-29.296875
3556		-33.203125
3557		-27.343750
3558		-29.296875
3559		-25.390625
3560		-27.343750
3561		-23.437500
3562		-23.437500
3563		-19.531250
3564		-21.484375
3565		-15.625000
3566		-19.531250
3567		-13.671875
3568		-15.625000
3569		-11.718750
3570		-13.671875
3571		-7.812500
3572		-9.765625
3573		-5.859375
3574		-7.812500
3575		-1.953125
3576		-5.859375
3577		0.000000
3578		-1.953125
3579		1.953125
3580		0.000000
3581		5.859375
3582		3.906250
3583		7.812500
3584		5.859375
3585		11.718750
3586		7.812500
3587		13.671875
3588		11.718750
3589		17.578125
3590		13.671875
3591		19.531250
3592		17.578125
3593		21.484375
3594		19.531250
3595		25.390625
3596		21.484375
3597		27.343750
3598		25.390625
3599		31.250000
3600		27.343750
3601		33.203125
3602		31.250000
3603		35.156250
3604		33.203125
3605		39.062500
3606		35.156250
3607		41.015625
3608		39.062500
3609		42.968750
3610		41.015625
3611		44.921875
3612		42.968750
3613		48.828125
3614		44.921875
3615		50.781250
3616		48.828125
3617		52.734375
3618		50.781250
3619		56.640625
3620		52.734375
3621		58.593750
3622		54.687500
3623		60.546875
3624		58.593750
3625		62.500000
3626		58.593750
3627		64.453125
3628		62.500000
3629		66.406250
3630		64.453125
3631		68.359375
3632		66.406250
3633		70.312500
3634		68.359375
3635		72.265625
3636		70.312500
3637		76.171875
3638		72.265625
3639		76.171875
3640		74.218750
3641		80.078125
3642		76.171875
3643		80.078125
3644		78.125000
3645		82.031250
3646		80.078125
3647		83.984375
3648		82.031250
3649		85.937500
3650		82.031250
3651		87.890625
3652		85.937500
3653		89.843750
3654		85.937500
3655		89.843750
3656		87.890625
3657		91.796875
3658		89.843750
3659		93.750000
3660		91.796875
3661		95.703125
3662		93.750000
3663		95.703125
3664		93.750000
3665		97.656250
3666		95.703125
3667		99.609375
3668		95.703125
3669		99.609375
3670		97.656250
3671		101.562500
3672		99.609375
3673		103.515625
3674		99.609375
3675		103.515625
3676		101.562500
3677		103.515625
3678		101.562500
3679		105.468750
3680		101.562500
3681		107.421875
3682		103.515625
3683		107.421875
3684		103.515625
3685		107.421875
3686		103.515625
3687		107.421875
3688		105.468750
3689		109.375000
3690		105.468750
3691		109.375000
3692		105.468750
3693		111.328125
3694		107.421875
3695		111.328125
3696		107.421875
3697		111.328125
3698		107.421875
3699		111.328125
3700		107.421875
3701		111.328125
3702		107.421875
3703		111.328125
3704		107.421875
3705		111.328125
3706		107.421875
3707		111.328125
3708		107.421875
3709		111.328125
3710		107.421875
3711		111.328125
3712		107.421875
3713		111.328125
3714		107.421875
3715		111.328125
3716		107.421875
3717		111.328125
3718		107.421875
3719		111.328125
3720		107.421875
3721		109.375000
3722		105.468750
3723		109.375000
3724		105.468750
3725		109.375000
3726		103.515625
3727		109.375000
3728		105.468750
3729		109.375000
3730		105.468750
3731		107.421875
3732		103.515625
3733		107.421875
3734		101.562500
3735		105.468750
3736		101.562500
3737		105.468750
3738		99.609375
3739		103.515625
3740		99.609375
3741		103.515625
3742		99.609375
3743		103.515625
3744		97.656250
3745		101.562500
3746		95.703125
3747		99.609375
3748		95.703125
3749		99.609375
3750		93.750000
3751		97.656250
3752		91.796875
3753		97.656250
3754		91.796875
3755		95.703125
3756		89.843750
3757		93.750000
3758		87.890625
3759		91.796875
3760		85.937500
3761		89.843750
3762		85.937500
3763		89.843750
3764		82.031250
3765		87.890625
3766		82.031250
3767		85.937500
3768		80.078125
3769		83.984375
3770		78.125000
3771		82.031250
3772		76.171875
3773		80.078125
3774		74.218750
3775		78.125000
3776		72.265625
3777		78.125000
3778		70.312500
3779		74.218750
3780		68.359375
3781		72.265625
3782		66.406250
3783		70.312500
3784		64.453125
3785		68.359375
3786		60.546875
3787		66.406250
3788		58.593750
3789		64.453125
3790		56.640625
3791		62.500000
3792		54.687500
3793		60.546875
3794		52.734375
3795		56.640625
3796		48.828125
3797		54.687500
3798		46.875000
3799		50.781250
3800		44.921875
3801		48.828125
3802		42.968750
3803		46.875000
3804		39.062500
3805		44.921875
3806		37.109375
3807		42.968750
3808		35.156250
3809		39.062500
3810		31.250000
3811		37.109375
3812		29.296875
3813		33.203125
3814		27.343750
3815		31.250000
3816		23.437500
3817		29.296875
3818		19.531250
3819		25.390625
3820		17.578125
3821		23.437500
3822		15.625000
3823		21.484375
3824		11.718750
3825		17.578125
3826		9.765625
3827		15.625000
3828		7.812500
3829		13.671875
3830		3.906250
3831		9.765625
3832		1.953125
3833		7.812500
3834		-1.953125
3835		3.906250
3836		-3.906250
3837		1.953125
3838		-7.812500
3839		-1.953125
3840		-9.765625
3841		-3.906250
3842		-11.718750
3843		-7.812500
3844		-15.625000
3845		-9.765625
3846		-17.578125
3847		-13.671875
3848		-19.531250
3849		-15.625000
3850		-23.437500
3851		-17.578125
3852		-25.390625
3853		-21.484375
3854		-27.343750
3855		-23.437500
3856		-31.250000
3857		-25.390625
3858		-35.156250
3859		-29.296875
3860		-37.109375
3861		-31.250000
3862		-39.062500
3863		-35.156250
3864		-41.015625
3865		-37.109375
3866		-42.968750
3867		-39.062500
3868		-46.875000
3869		-41.015625
3870		-48.828125
3871		-44.921875
3872		-50.781250
3873		-46.875000
3874		-54.687500
3875		-48.828125
3876		-56.640625
3877		-50.781250
3878		-58.593750
3879		-52.734375
3880		-60.546875
3881		-56.640625
3882		-62.500000
3883		-58.593750
3884		-64.453125
3885		-60.546875
3886		-66.406250
3887		-62.500000
3888		-70.312500
3889		-64.453125
3890		-70.312500
3891		-66.406250
3892		-74.218750
3893		-68.359375
3894		-74.218750
3895		-70.312500
3896		-76.171875
3897		-72.265625
3898		-78.125000
3899		-74.218750
3900		-80.078125
3901		-76.171875
3902		-82.031250
3903		-78.125000
3904		-83.984375
3905		-80.078125
3906		-83.984375
3907		-80.078125
3908		-85.937500
3909		-82.031250
3910		-87.890625
3911		-83.984375
3912		-87.890625
3913		-83.984375
3914		-89.843750
3915		-85.937500
3916		-91.796875
3917		-87.890625
3918		-91.796875
3919		-87.890625
3920		-91.796875
3921		-89.843750
3922		-93.750000
3923		-89.843750
3924		-93.750000
3925		-91.796875
3926		-95.703125
3927		-91.796875
3928		-95.703125
3929		-91.796875
3930		-95.703125
3931		-93.750000
3932		-97.656250
3933		-93.750000
3934		-97.656250
3935		-93.750000
3936		-97.656250
3937		-93.750000
3938		-97.656250
3939		-93.750000
3940		-99.609375
3941		-93.750000
3942		-97.656250
3943		-95.703125
3944		-97.656250
3945		-93.750000
3946		-97.656250
3947		-95.703125
3948		-97.656250
3949		-95.703125
3950		-99.609375
3951		-93.750000
3952		-97.656250
3953		-93.750000
3954		-97.656250
3955		-93.750000
3956		-95.703125
3957		-93.750000
3958		-95.703125
3959		-91.796875
3960		-95.703125
3961		-91.796875
3962		-95.703125
3963		-91.796875
3964		-93.750000
3965		-89.843750
3966		-93.750000
3967		-87.890625
3968		-91.796875
3969		-87.890625
3970		-91.796875
3971		-87.890625
3972		-89.843750
3973		-85.937500
3974		-87.890625
3975		-83.984375
3976		-87.890625
3977		-83.984375
3978		-85.937500
3979		-82.031250
3980		-83.984375
3981		-80.078125
3982		-82.031250
3983		-78.125000
3984		-82.031250
3985		-78.125000
3986		-80.078125
3987		-74.218750
3988		-78.125000
3989		-74.218750
3990		-76.171875
3991		-72.265625
3992		-74.218750
3993		-70.312500
3994		-72.265625
3995		-68.359375
3996		-70.312500
3997		-66.406250
3998		-68.359375
3999		-64.453125
4000		-68.359375
4001		-60.546875
4002		-64.453125
4003		-60.546875
4004		-62.500000
4005		-58.593750
4006		-60.546875
4007		-54.687500
4008		-56.640625
4009		-52.734375
4010		-54.687500
4011		-50.781250
4012		-52.734375
4013		-46.875000
4014		-50.781250
4015		-44.921875
4016		-48.828125
4017		-42.968750
4018		-44.921875
4019		-41.015625
4020		-42.968750
4021		-37.109375
4022		-41.015625
4023		-35.156250
4024		-37.109375
4025		-33.203125
4026		-35.156250
4027		-29.296875
4028		-33.203125
4029		-27.343750
4030		-29.296875
4031		-25.390625
4032		-27.343750
4033		-21.484375
4034		-23.437500
4035		-19.531250
4036		-21.484375
4037		-17.578125
4038		-19.531250
4039		-13.671875
4040		-15.625000
4041		-11.718750
4042		-13.671875
4043		-7.812500
4044		-11.718750
4045		-5.859375
4046		-7.812500
4047		-1.953125
4048		-5.859375
4049		0.000000
4050		-1.953125
4051		3.906250
4052		0.000000
4053		5.859375
4054		3.906250
4055		7.812500
4056		5.859375
4057		11.718750
4058		9.765625
4059		13.671875
4060		11.718750
4061		17.578125
4062		13.671875
4063		19.531250
4064		17.578125
4065		21.484375
4066		19.531250
4067		25.390625
4068		21.484375
4069		27.343750
4070		25.390625
4071		31.250000
4072		27.343750
4073		33.203125
4074		31.250000
4075		35.156250
4076		33.203125
4077		37.109375
4078		35.156250
4079		41.015625
4080		39.062500
4081		42.968750
4082		41.015625
4083		44.921875
4084		42.968750
4085		48.828125
4086		46.875000
4087		50.781250
4088		48.828125
4089		52.734375
4090		50.781250
4091		54.687500
4092		52.734375
4093		58.593750
4094		54.687500
4095		60.546875
4096		58.593750
4097		62.500000
4098		60.546875
4099		64.453125
4100		62.500000
4101		66.406250
4102		64.453125
4103		68.359375
4104		66.406250
4105		72.265625
4106		68.359375
4107		74.218750
4108		70.312500
4109		76.171875
4110		72.265625
4111		78.125000
4112		74.218750
4113		80.078125
4114		76.171875
4115		80.078125
4116		78.125000
4117		82.031250
4118		80.078125
4119		83.984375
4120		82.031250
4121		85.937500
4122		83.984375
4123		87.890625
4124		85.937500
4125		89.843750
4126		85.937500
4127		91.796875
4128		87.890625
4129		91.796875
4130		89.843750
4131		93.750000
4132		91.796875
4133		95.703125
4134		93.750000
4135		97.656250
4136		93.750000
4137		97.656250
4138		95.703125
4139		99.609375
4140		95.703125
4141		99.609375
4142		97.656250
4143		101.562500
4144		97.656250
4145		101.562500
4146		99.609375
4147		103.515625
4148		101.562500
4149		103.515625
4150		101.562500
4151		105.468750
4152		101.562500
4153		107.421875
4154		101.562500
4155		107.421875
4156		103.515625
4157		107.421875
4158		103.515625
4159		109.375000
4160		103.515625
4161		109.375000
4162		105.468750
4163		109.375000
4164		105.468750
4165		109.375000
4166		107.421875
4167		109.375000
4168		105.468750
4169		111.328125
4170		105.468750
4171		111.328125
4172		105.468750
4173		111.328125
4174		107.421875
4175		111.328125
4176		107.421875
4177		111.328125
4178		107.421875
4179		111.328125
4180		105.468750
4181		111.328125
4182		107.421875
4183		111.328125
4184		107.421875
4185		111.328125
4186		105.468750
4187		111.328125
4188		105.468750
4189		111.328125
4190		105.468750
4191		111.328125
4192		105.468750
4193		111.328125
4194		105.468750
4195		109.375000
4196		103.515625
4197		109.375000
4198		105.468750
4199		107.421875
4200		103.515625
4201		107.421875
4202		103.515625
4203		107.421875
4204		101.562500
4205		107.421875
4206		101.562500
4207		105.468750
4208		99.609375
4209		105.468750
4210		99.609375
4211		105.468750
4212		97.656250
4213		103.515625
4214		97.656250
4215		103.515625
4216		95.703125
4217		99.609375
4218		95.703125
4219		99.609375
4220		93.750000
4221		97.656250
4222		93.750000
4223		97.656250
4224		91.796875
4225		95.703125
4226		89.843750
4227		93.750000
4228		87.890625
4229		91.796875
4230		85.937500
4231		91.796875
4232		85.937500
4233		89.843750
4234		83.984375
4235		87.890625
4236		82.031250
4237		85.937500
4238		80.078125
4239		83.984375
4240		78.125000
4241		82.031250
4242		76.171875
4243		82.031250
4244		74.218750
4245		78.125000
4246		72.265625
4247		76.171875
4248		70.312500
4249		76.171875
4250		68.359375
4251		72.265625
4252		66.406250
4253		70.312500
4254		64.453125
4255		70.312500
4256		62.500000
4257		66.406250
4258		60.546875
4259		64.453125
4260		58.593750
4261		62.500000
4262		54.687500
4263		60.546875
4264		52.734375
4265		58.593750
4266		50.781250
4267		54.687500
4268		48.828125
4269		52.734375
4270		44.921875
4271		50.781250
4272		42.968750
4273		46.875000
4274		41.015625
4275		44.921875
4276		37.109375
4277		42.968750
4278		35.156250
4279		41.015625
4280		33.203125
4281		37.109375
4282		29.296875
4283		35.156250
4284		27.343750
4285		31.250000
4286		23.437500
4287		29.296875
4288		21.484375
4289		27.343750
4290		19.531250
4291		23.437500
4292		15.625000
4293		21.484375
4294		13.671875
4295		19.531250
4296		11.718750
4297		15.625000
4298		7.812500
4299		13.671875
4300		3.906250
4301		11.718750
4302		1.953125
4303		7.812500
4304		0.000000
4305		3.906250
4306		-3.906250
4307		1.953125
4308		-5.859375
4309		0.000000
4310		-7.812500
4311		-3.906250
4312		-11.718750
4313		-5.859375
4314		-13.671875
4315		-9.765625
4316		-17.578125
4317		-11.718750
4318		-19.531250
4319		-15.625000
4320		-23.437500
4321		-15.625000
4322		-27.343750
4323		-17.578125
4324		-29.296875
4325		-19.531250
4326		-31.250000
4327		-25.390625
4328		-33.203125
4329		-29.296875
4330		-35.156250
4331		-31.250000
4332		-39.062500
4333		-33.203125
4334		-41.015625
4335		-37.109375
4336		-46.875000
4337		-39.062500
4338		-48.828125
4339		-39.062500
4340		-50.781250
4341		-41.015625
4342		-50.781250
4343		-42.968750
4344		-52.734375
4345		-48.828125
4346		-54.687500
4347		-50.781250
4348		-58.593750
4349		-52.734375
4350		-60.546875
4351		-54.687500
4352		-62.500000
4353		-58.593750
4354		-68.359375
4355		-58.593750
4356		-68.359375
4357		-58.593750
4358		-70.312500
4359		-62.500000
4360		-72.265625
4361		-66.406250
4362		-72.265625
4363		-68.359375
4364		-74.218750
4365		-70.312500
4366		-76.171875
4367		-72.265625
4368		-78.125000
4369		-74.218750
4370		-83.984375
4371		-74.218750
4372		-83.984375
4373		-74.218750
4374		-85.937500
4375		-76.171875
4376		-83.984375
4377		-80.078125
4378		-85.937500
4379		-82.031250
4380		-87.890625
4381		-83.984375
4382		-87.890625
4383		-83.984375
4384		-89.843750
4385		-85.937500
4386		-95.703125
4387		-83.984375
4388		-93.750000
4389		-83.984375
4390		-95.703125
4391		-87.890625
4392		-95.703125
4393		-87.890625
4394		-95.703125
4395		-91.796875
4396		-95.703125
4397		-91.796875
4398		-95.703125
4399		-91.796875
4400		-97.656250
4401		-93.750000
4402		-97.656250
4403		-93.750000
4404		-99.609375
4405		-91.796875
4406		-101.562500
4407		-91.796875
4408		-101.562500
4409		-91.796875
4410		-99.609375
4411		-95.703125
4412		-99.609375
4413		-95.703125
4414		-99.609375
4415		-95.703125
4416		-97.656250
4417		-95.703125
4418		-97.656250
4419		-95.703125
4420		-99.609375
4421		-91.796875
4422		-99.609375
4423		-91.796875
4424		-99.609375
4425		-91.796875
4426		-99.609375
4427		-91.796875
4428		-95.703125
4429		-93.750000
4430		-95.703125
4431		-91.796875
4432		-95.703125
4433		-91.796875
4434		-95.703125
4435		-89.843750
4436		-93.750000
4437		-89.843750
4438		-95.703125
4439		-87.890625
4440		-93.750000
4441		-85.937500
4442		-93.750000
4443		-83.984375
4444		-89.843750
4445		-85.937500
4446		-87.890625
4447		-83.984375
4448		-87.890625
4449		-83.984375
4450		-85.937500
4451		-82.031250
4452		-83.984375
4453		-80.078125
4454		-83.984375
4455		-76.171875
4456		-83.984375
4457		-74.218750
4458		-82.031250
4459		-72.265625
4460		-78.125000
4461		-74.218750
4462		-76.171875
4463		-72.265625
4464		-74.218750
4465		-70.312500
4466		-72.265625
4467		-68.359375
4468		-70.312500
4469		-66.406250
4470		-68.359375
4471		-60.546875
4472		-68.359375
4473		-58.593750
4474		-66.406250
4475		-56.640625
4476		-64.453125
4477		-56.640625
4478		-60.546875
4479		-54.687500
4480		-56.640625
4481		-52.734375
4482		-54.687500
4483		-50.781250
4484		-52.734375
4485		-46.875000
4486		-50.781250
4487		-44.921875
4488		-50.781250
4489		-41.015625
4490		-46.875000
4491		-37.109375
4492		-44.921875
4493		-35.156250
4494		-39.062500
4495		-35.156250
4496		-37.109375
4497		-31.250000
4498		-35.156250
4499		-29.296875
4500		-31.250000
4501		-27.343750
4502		-29.296875
4503		-23.437500
4504		-27.343750
4505		-21.484375
4506		-23.437500
4507		-17.578125
4508		-23.437500
4509		-15.625000
4510		-17.578125
4511		-13.671875
4512		-15.625000
4513		-9.765625
4514		-11.718750
4515		-7.812500
4516		-9.765625
4517		-3.906250
4518		-7.812500
4519		-1.953125
4520		-3.906250
4521		0.000000
4522		-1.953125
4523		3.906250
4524		0.000000
4525		7.812500
4526		1.953125
4527		9.765625
4528		7.812500
4529		11.718750
4530		9.765625
4531		15.625000
4532		11.718750
4533		17.578125
4534		15.625000
4535		19.531250
4536		17.578125
4537		23.437500
4538		21.484375
4539		25.390625
4540		21.484375
4541		29.296875
4542		25.390625
4543		31.250000
4544		29.296875
4545		33.203125
4546		31.250000
4547		35.156250
4548		33.203125
4549		39.062500
4550		37.109375
4551		41.015625
4552		39.062500
4553		44.921875
4554		41.015625
4555		46.875000
4556		44.921875
4557		48.828125
4558		46.875000
4559		50.781250
4560		48.828125
4561		54.687500
4562		50.781250
4563		56.640625
4564		52.734375
4565		58.593750
4566		56.640625
4567		60.546875
4568		58.593750
4569		62.500000
4570		60.546875
4571		66.406250
4572		62.500000
4573		66.406250
4574		64.453125
4575		70.312500
4576		66.406250
4577		72.265625
4578		68.359375
4579		74.218750
4580		70.312500
4581		76.171875
4582		74.218750
4583		78.125000
4584		76.171875
4585		80.078125
4586		76.171875
4587		82.031250
4588		78.125000
4589		82.031250
4590		80.078125
4591		83.984375
4592		82.031250
4593		85.937500
4594		83.984375
4595		87.890625
4596		85.937500
4597		89.843750
4598		87.890625
4599		91.796875
4600		87.890625
4601		93.750000
4602		89.843750
4603		93.750000
4604		91.796875
4605		95.703125
4606		91.796875
4607		97.656250
4608		93.750000
4609		97.656250
4610		95.703125
4611		99.609375
4612		95.703125
4613		101.562500
4614		97.656250
4615		101.562500
4616		97.656250
4617		101.562500
4618		99.609375
4619		103.515625
4620		101.562500
4621		103.515625
4622		101.562500
4623		105.468750
4624		101.562500
4625		105.468750
4626		103.515625
4627		107.421875
4628		103.515625
4629		107.421875
4630		103.515625
4631		107.421875
4632		105.468750
4633		107.421875
4634		105.468750
4635		109.375000
4636		105.468750
4637		109.375000
4638		105.468750
4639		111.328125
4640		105.468750
4641		109.375000
4642		107.421875
4643		111.328125
4644		107.421875
4645		111.328125
4646		107.421875
4647		111.328125
4648		107.421875
4649		111.328125
4650		107.421875
4651		111.328125
4652		107.421875
4653		111.328125
4654		107.421875
4655		111.328125
4656		107.421875
4657		113.281250
4658		105.468750
4659		111.328125
4660		107.421875
4661		109.375000
4662		105.468750
4663		109.375000
4664		105.468750
4665		109.375000
4666		105.468750
4667		109.375000
4668		105.468750
4669		107.421875
4670		103.515625
4671		107.421875
4672		101.562500
4673		107.421875
4674		101.562500
4675		107.421875
4676		101.562500
4677		105.468750
4678		101.562500
4679		105.468750
4680		99.609375
4681		103.515625
4682		99.609375
4683		101.562500
4684		97.656250
4685		101.562500
4686		97.656250
4687		99.609375
4688		95.703125
4689		99.609375
4690		93.750000
4691		99.609375
4692		93.750000
4693		97.656250
4694		91.796875
4695		95.703125
4696		89.843750
4697		93.750000
4698		89.843750
4699		93.750000
4700		87.890625
4701		91.796875
4702		85.937500
4703		89.843750
4704		83.984375
4705		87.890625
4706		82.031250
4707		87.890625
4708		80.078125
4709		85.937500
4710		80.078125
4711		83.984375
4712		76.171875
4713		82.031250
4714		76.171875
4715		80.078125
4716		74.218750
4717		78.125000
4718		72.265625
4719		76.171875
4720		68.359375
4721		74.218750
4722		66.406250
4723		72.265625
4724		64.453125
4725		70.312500
4726		62.500000
4727		68.359375
4728		60.546875
4729		64.453125
4730		58.593750
4731		62.500000
4732		56.640625
4733		60.546875
4734		54.687500
4735		58.593750
4736		50.781250
4737		56.640625
4738		48.828125
4739		54.687500
4740		46.875000
4741		52.734375
4742		44.921875
4743		48.828125
4744		41.015625
4745		46.875000
4746		39.062500
4747		42.968750
4748		37.109375
4749		41.015625
4750		33.203125
4751		39.062500
4752		31.250000
4753		35.156250
4754		29.296875
4755		33.203125
4756		25.390625
4757		31.250000
4758		23.437500
4759		27.343750
4760		21.484375
4761		25.390625
4762		17.578125
4763		21.484375
4764		13.671875
4765		19.531250
4766		11.718750
4767		17.578125
4768		9.765625
4769		13.671875
4770		5.859375
4771		11.718750
4772		3.906250
4773		7.812500
4774		0.000000
4775		7.812500
4776		-1.953125
4777		3.906250
4778		-3.906250
4779		0.000000
4780		-7.812500
4781		-1.953125
4782		-9.765625
4783		-5.859375
4784		-13.671875
4785		-7.812500
4786		-15.625000
4787		-11.718750
4788		-19.531250
4789		-13.671875
4790		-21.484375
4791		-15.625000
4792		-23.437500
4793		-19.531250
4794		-27.343750
4795		-21.484375
4796		-29.296875
4797		-25.390625
4798		-31.250000
4799		-27.343750
4800		-35.156250
4801		-29.296875
4802		-37.109375
4803		-33.203125
4804		-41.015625
4805		-35.156250
4806		-42.968750
4807		-37.109375
4808		-44.921875
4809		-41.015625
4810		-48.828125
4811		-42.968750
4812		-50.781250
4813		-44.921875
4814		-52.734375
4815		-48.828125
4816		-54.687500
4817		-50.781250
4818		-56.640625
4819		-52.734375
4820		-58.593750
4821		-54.687500
4822		-62.500000
4823		-56.640625
4824		-64.453125
4825		-58.593750
4826		-66.406250
4827		-62.500000
4828		-68.359375
4829		-64.453125
4830		-70.312500
4831		-66.406250
4832		-72.265625
4833		-68.359375
4834		-74.218750
4835		-70.312500
4836		-76.171875
4837		-72.265625
4838		-78.125000
4839		-74.218750
4840		-80.078125
4841		-76.171875
4842		-82.031250
4843		-76.171875
4844		-82.031250
4845		-80.078125
4846		-83.984375
4847		-80.078125
4848		-85.937500
4849		-82.031250
4850		-87.890625
4851		-83.984375
4852		-87.890625
4853		-83.984375
4854		-89.843750
4855		-85.937500
4856		-91.796875
4857		-87.890625
4858		-91.796875
4859		-87.890625
4860		-91.796875
4861		-89.843750
4862		-93.750000
4863		-89.843750
4864		-93.750000
4865		-91.796875
4866		-95.703125
4867		-91.796875
4868		-95.703125
4869		-93.750000
4870		-97.656250
4871		-93.750000
4872		-97.656250
4873		-93.750000
4874		-97.656250
4875		-93.750000
4876		-97.656250
4877		-95.703125
4878		-97.656250
4879		-95.703125
4880		-97.656250
4881		-95.703125
4882		-99.609375
4883		-95.703125
4884		-99.609375
4885		-95.703125
4886		-99.609375
4887		-95.703125
4888		-99.609375
4889		-95.703125
4890		-99.609375
4891		-95.703125
4892		-97.656250
4893		-95.703125
4894		-97.656250
4895		-95.703125
4896		-97.656250
4897		-95.703125
4898		-97.656250
4899		-93.750000
4900		-97.656250
4901		-93.750000
4902		-95.703125
4903		-91.796875
4904		-95.703125
4905		-91.796875
4906		-95.703125
4907		-89.843750
4908		-93.750000
4909		-89.843750
4910		-93.750000
4911		-89.843750
4912		-91.796875
4913		-87.890625
4914		-89.843750
4915		-87.890625
4916		-89.843750
4917		-85.937500
4918		-87.890625
4919		-83.984375
4920		-85.937500
4921		-83.984375
4922		-85.937500
4923		-82.031250
4924		-83.984375
4925		-80.078125
4926		-82.031250
4927		-78.125000
4928		-82.031250
4929		-76.171875
4930		-80.078125
4931		-74.218750
4932		-78.125000
4933		-72.265625
4934		-76.171875
4935		-70.312500
4936		-74.218750
4937		-70.312500
4938		-72.265625
4939		-68.359375
4940		-70.312500
4941		-64.453125
4942		-68.359375
4943		-62.500000
4944		-66.406250
4945		-60.546875
4946		-62.500000
4947		-58.593750
4948		-60.546875
4949		-56.640625
4950		-58.593750
4951		-54.687500
4952		-56.640625
4953		-52.734375
4954		-54.687500
4955		-48.828125
4956		-52.734375
4957		-46.875000
4958		-50.781250
4959		-42.968750
4960		-46.875000
4961		-41.015625
4962		-44.921875
4963		-39.062500
4964		-41.015625
4965		-37.109375
4966		-39.062500
4967		-35.156250
4968		-37.109375
4969		-31.250000
4970		-33.203125
4971		-29.296875
4972		-31.250000
4973		-27.343750
4974		-29.296875
4975		-21.484375
4976		-27.343750
4977		-19.531250
4978		-23.437500
4979		-17.578125
4980		-19.531250
4981		-15.625000
4982		-17.578125
4983		-11.718750
4984		-15.625000
4985		-9.765625
4986		-11.718750
4987		-7.812500
4988		-9.765625
4989		-3.906250
4990		-5.859375
4991		-1.953125
4992		-3.906250
4993		1.953125
4994		-1.953125
4995		3.906250
4996		1.953125
4997		7.812500
4998		5.859375
4999		9.765625
5000		7.812500
5001		13.671875
5002		9.765625
5003		15.625000
5004		13.671875
5005		17.578125
5006		15.625000
5007		21.484375
5008		19.531250
5009		25.390625
5010		19.531250
5011		27.343750
5012		23.437500
5013		29.296875
5014		27.343750
5015		31.250000
5016		29.296875
5017		35.156250
5018		31.250000
5019		37.109375
5020		35.156250
5021		39.062500
5022		37.109375
5023		41.015625
5024		41.015625
5025		44.921875
5026		41.015625
5027		46.875000
5028		42.968750
5029		48.828125
5030		46.875000
5031		52.734375
5032		48.828125
5033		54.687500
5034		52.734375
5035		56.640625
5036		54.687500
5037		58.593750
5038		56.640625
5039		60.546875
5040		58.593750
5041		64.453125
5042		60.546875
5043		66.406250
5044		62.500000
5045		68.359375
5046		64.453125
5047		70.312500
5048		68.359375
5049		72.265625
5050		70.312500
5051		74.218750
5052		72.265625
5053		76.171875
5054		74.218750
5055		78.125000
5056		76.171875
5057		80.078125
5058		78.125000
5059		82.031250
5060		78.125000
5061		83.984375
5062		80.078125
5063		85.937500
5064		82.031250
5065		85.937500
5066		83.984375
5067		87.890625
5068		85.937500
5069		89.843750
5070		87.890625
5071		91.796875
5072		89.843750
5073		91.796875
5074		89.843750
5075		93.750000
5076		89.843750
5077		97.656250
5078		91.796875
5079		97.656250
5080		95.703125
5081		97.656250
5082		95.703125
5083		99.609375
5084		97.656250
5085		99.609375
5086		97.656250
5087		101.562500
5088		99.609375
5089		101.562500
5090		99.609375
5091		103.515625
5092		99.609375
5093		105.468750
5094		101.562500
5095		105.468750
5096		103.515625
5097		105.468750
5098		103.515625
5099		107.421875
5100		103.515625
5101		107.421875
5102		103.515625
5103		107.421875
5104		105.468750
5105		107.421875
5106		105.468750
5107		109.375000
5108		105.468750
5109		109.375000
5110		105.468750
5111		111.328125
5112		105.468750
5113		111.328125
5114		107.421875
5115		109.375000
5116		107.421875
5117		109.375000
5118		107.421875
5119		109.375000
5120		107.421875
5121		111.328125
5122		107.421875
5123		111.328125
5124		107.421875
5125		109.375000
5126		107.421875
5127		111.328125
5128		107.421875
5129		109.375000
5130		107.421875
5131		109.375000
5132		107.421875
5133		109.375000
5134		105.468750
5135		109.375000
5136		105.468750
5137		109.375000
5138		105.468750
5139		107.421875
5140		105.468750
5141		107.421875
5142		103.515625
5143		107.421875
5144		103.515625
5145		107.421875
5146		101.562500
5147		105.468750
5148		101.562500
5149		105.468750
5150		101.562500
5151		103.515625
5152		99.609375
5153		103.515625
5154		99.609375
5155		101.562500
5156		97.656250
5157		101.562500
5158		97.656250
5159		99.609375
5160		95.703125
5161		99.609375
5162		93.750000
5163		97.656250
5164		93.750000
5165		97.656250
5166		91.796875
5167		95.703125
5168		89.843750
5169		93.750000
5170		87.890625
5171		91.796875
5172		85.937500
5173		91.796875
5174		85.937500
5175		89.843750
5176		83.984375
5177		87.890625
5178		82.031250
5179		85.937500
5180		80.078125
5181		83.984375
5182		78.125000
5183		82.031250
5184		76.171875
5185		80.078125
5186		74.218750
5187		78.125000
5188		72.265625
5189		76.171875
5190		70.312500
5191		74.218750
5192		68.359375
5193		72.265625
5194		66.406250
5195		70.312500
5196		64.453125
5197		68.359375
5198		62.500000
5199		66.406250
5200		60.546875
5201		64.453125
5202		58.593750
5203		62.500000
5204		54.687500
5205		58.593750
5206		52.734375
5207		58.593750
5208		50.781250
5209		54.687500
5210		48.828125
5211		52.734375
5212		44.921875
5213		50.781250
5214		42.968750
5215		46.875000
5216		41.015625
5217		44.921875
5218		37.109375
5219		42.968750
5220		35.156250
5221		41.015625
5222		33.203125
5223		37.109375
5224		29.296875
5225		35.156250
5226		27.343750
5227		33.203125
5228		25.390625
5229		29.296875
5230		21.484375
5231		27.343750
5232		19.531250
5233		23.437500
5234		15.625000
5235		21.484375
5236		13.671875
5237		17.578125
5238		11.718750
5239		15.625000
5240		7.812500
5241		13.671875
5242		5.859375
5243		9.765625
5244		1.953125
5245		7.812500
5246		0.000000
5247		3.906250
5248		-1.953125
5249		1.953125
5250		-5.859375
5251		-1.953125
5252		-7.812500
5253		-3.906250
5254		-11.718750
5255		-5.859375
5256		-13.671875
5257		-9.765625
5258		-17.578125
5259		-11.718750
5260		-19.531250
5261		-15.625000
5262		-21.484375
5263		-17.578125
5264		-25.390625
5265		-19.531250
5266		-27.343750
5267		-23.437500
5268		-31.250000
5269		-25.390625
5270		-33.203125
5271		-27.343750
5272		-35.156250
5273		-31.250000
5274		-39.062500
5275		-33.203125
5276		-41.015625
5277		-37.109375
5278		-42.968750
5279		-39.062500
5280		-46.875000
5281		-41.015625
5282		-48.828125
5283		-44.921875
5284		-50.781250
5285		-46.875000
5286		-52.734375
5287		-48.828125
5288		-56.640625
5289		-50.781250
5290		-58.593750
5291		-52.734375
5292		-60.546875
5293		-56.640625
5294		-62.500000
5295		-58.593750
5296		-64.453125
5297		-60.546875
5298		-66.406250
5299		-62.500000
5300		-68.359375
5301		-64.453125
5302		-70.312500
5303		-66.406250
5304		-72.265625
5305		-68.359375
5306		-74.218750
5307		-70.312500
5308		-76.171875
5309		-72.265625
5310		-78.125000
5311		-74.218750
5312		-80.078125
5313		-76.171875
5314		-82.031250
5315		-78.125000
5316		-82.031250
5317		-80.078125
5318		-83.984375
5319		-80.078125
5320		-85.937500
5321		-82.031250
5322		-87.890625
5323		-83.984375
5324		-87.890625
5325		-83.984375
5326		-89.843750
5327		-85.937500
5328		-91.796875
5329		-87.890625
5330		-91.796875
5331		-87.890625
5332		-93.750000
5333		-89.843750
5334		-93.750000
5335		-89.843750
5336		-95.703125
5337		-91.796875
5338		-95.703125
5339		-91.796875
5340		-95.703125
5341		-93.750000
5342		-97.656250
5343		-93.750000
5344		-97.656250
5345		-93.750000
5346		-97.656250
5347		-95.703125
5348		-97.656250
5349		-95.703125
5350		-97.656250
5351		-95.703125
5352		-99.609375
5353		-95.703125
5354		-99.609375
5355		-95.703125
5356		-99.609375
5357		-95.703125
5358		-99.609375
5359		-95.703125
5360		-99.609375
5361		-95.703125
5362		-99.609375
5363		-95.703125
5364		-97.656250
5365		-95.703125
5366		-97.656250
5367		-95.703125
5368		-97.656250
5369		-93.750000
5370		-97.656250
5371		-93.750000
5372		-95.703125
5373		-93.750000
5374		-95.703125
5375		-91.796875
5376		-95.703125
5377		-91.796875
5378		-93.750000
5379		-91.796875
5380		-93.750000
5381		-89.843750
5382		-91.796875
5383		-89.843750
5384		-91.796875
5385		-87.890625
5386		-89.843750
5387		-85.937500
5388		-87.890625
5389		-83.984375
5390		-87.890625
5391		-83.984375
5392		-85.937500
5393		-82.031250
5394		-83.984375
5395		-80.078125
5396		-82.031250
5397		-78.125000
5398		-82.031250
5399		-78.125000
5400		-80.078125
5401		-76.171875
5402		-78.125000
5403		-74.218750
5404		-76.171875
5405		-72.265625
5406		-74.218750
5407		-70.312500
5408		-72.265625
5409		-68.359375
5410		-70.312500
5411		-66.406250
5412		-68.359375
5413		-64.453125
5414		-66.406250
5415		-62.500000
5416		-64.453125
5417		-60.546875
5418		-62.500000
5419		-58.593750
5420		-58.593750
5421		-54.687500
5422		-58.593750
5423		-52.734375
5424		-54.687500
5425		-50.781250
5426		-52.734375
5427		-48.828125
5428		-50.781250
5429		-44.921875
5430		-46.875000
5431		-42.968750
5432		-44.921875
5433		-41.015625
5434		-42.968750
5435		-39.062500
5436		-39.062500
5437		-35.156250
5438		-37.109375
5439		-33.203125
5440		-35.156250
5441		-29.296875
5442		-31.250000
5443		-27.343750
5444		-29.296875
5445		-25.390625
5446		-27.343750
5447		-21.484375
5448		-23.437500
5449		-19.531250
5450		-21.484375
5451		-15.625000
5452		-17.578125
5453		-13.671875
5454		-15.625000
5455		-11.718750
5456		-13.671875
5457		-7.812500
5458		-9.765625
5459		-5.859375
5460		-7.812500
5461		-1.953125
5462		-3.906250
5463		0.000000
5464		-1.953125
5465		1.953125
5466		0.000000
5467		5.859375
5468		3.906250
5469		7.812500
5470		5.859375
5471		11.718750
5472		9.765625
5473		13.671875
5474		11.718750
5475		17.578125
5476		15.625000
5477		19.531250
5478		17.578125
5479		23.437500
5480		19.531250
5481		25.390625
5482		23.437500
5483		27.343750
5484		25.390625
5485		31.250000
5486		27.343750
5487		33.203125
5488		31.250000
5489		35.156250
5490		33.203125
5491		39.062500
5492		37.109375
5493		41.015625
5494		39.062500
5495		42.968750
5496		41.015625
5497		46.875000
5498		44.921875
5499		48.828125
5500		46.875000
5501		50.781250
5502		48.828125
5503		52.734375
5504		50.781250
5505		54.687500
5506		52.734375
5507		58.593750
5508		54.687500
5509		60.546875
5510		58.593750
5511		62.500000
5512		60.546875
5513		64.453125
5514		62.500000
5515		66.406250
5516		64.453125
5517		68.359375
5518		66.406250
5519		70.312500
5520		68.359375
5521		72.265625
5522		70.312500
5523		76.171875
5524		72.265625
5525		78.125000
5526		74.218750
5527		80.078125
5528		76.171875
5529		80.078125
5530		78.125000
5531		82.031250
5532		80.078125
5533		83.984375
5534		82.031250
5535		85.937500
5536		83.984375
5537		87.890625
5538		85.937500
5539		89.843750
5540		87.890625
5541		89.843750
5542		87.890625
5543		91.796875
5544		89.843750
5545		93.750000
5546		91.796875
5547		95.703125
5548		93.750000
5549		95.703125
5550		93.750000
5551		97.656250
5552		95.703125
5553		99.609375
5554		95.703125
5555		99.609375
5556		97.656250
5557		101.562500
5558		97.656250
5559		101.562500
5560		99.609375
5561		103.515625
5562		101.562500
5563		103.515625
5564		101.562500
5565		105.468750
5566		101.562500
5567		105.468750
5568		103.515625
5569		107.421875
5570		103.515625
5571		107.421875
5572		103.515625
5573		107.421875
5574		105.468750
5575		109.375000
5576		105.468750
5577		109.375000
5578		105.468750
5579		109.375000
5580		107.421875
5581		109.375000
5582		107.421875
5583		109.375000
5584		107.421875
5585		111.328125
5586		107.421875
5587		111.328125
5588		107.421875
5589		111.328125
5590		107.421875
5591		111.328125
5592		107.421875
5593		111.328125
5594		107.421875
5595		111.328125
5596		107.421875
5597		111.328125
5598		107.421875
5599		111.328125
5600		107.421875
5601		111.328125
5602		107.421875
5603		109.375000
5604		107.421875
5605		109.375000
5606		105.468750
5607		109.375000
5608		105.468750
5609		109.375000
5610		105.468750
5611		109.375000
5612		105.468750
5613		107.421875
5614		103.515625
5615		107.421875
5616		103.515625
5617		107.421875
5618		101.562500
5619		105.468750
5620		101.562500
5621		105.468750
5622		101.562500
5623		103.515625
5624		99.609375
5625		103.515625
5626		99.609375
5627		101.562500
5628		97.656250
5629		101.562500
5630		95.703125
5631		99.609375
5632		95.703125
5633		99.609375
5634		93.750000
5635		97.656250
5636		91.796875
5637		95.703125
5638		91.796875
5639		95.703125
5640		89.843750
5641		93.750000
5642		87.890625
5643		93.750000
5644		85.937500
5645		89.843750
5646		85.937500
5647		89.843750
5648		83.984375
5649		87.890625
5650		82.031250
5651		85.937500
5652		80.078125
5653		83.984375
5654		78.125000
5655		82.031250
5656		76.171875
5657		80.078125
5658		74.218750
5659		80.078125
5660		72.265625
5661		76.171875
5662		70.312500
5663		74.218750
5664		68.359375
5665		72.265625
5666		66.406250
5667		70.312500
5668		64.453125
5669		68.359375
5670		62.500000
5671		66.406250
5672		58.593750
5673		64.453125
5674		56.640625
5675		62.500000
5676		54.687500
5677		60.546875
5678		52.734375
5679		56.640625
5680		50.781250
5681		54.687500
5682		46.875000
5683		52.734375
5684		44.921875
5685		50.781250
5686		42.968750
5687		46.875000
5688		41.015625
5689		44.921875
5690		37.109375
5691		42.968750
5692		35.156250
5693		39.062500
5694		33.203125
5695		37.109375
5696		29.296875
5697		35.156250
5698		27.343750
5699		31.250000
5700		23.437500
5701		29.296875
5702		21.484375
5703		25.390625
5704		19.531250
5705		23.437500
5706		15.625000
5707		21.484375
5708		13.671875
5709		17.578125
5710		9.765625
5711		15.625000
5712		7.812500
5713		13.671875
5714		3.906250
5715		9.765625
5716		1.953125
5717		7.812500
5718		0.000000
5719		3.906250
5720		-3.906250
5721		1.953125
5722		-5.859375
5723		-1.953125
5724		-9.765625
5725		-3.906250
5726		-11.718750
5727		-5.859375
5728		-15.625000
5729		-9.765625
5730		-17.578125
5731		-11.718750
5732		-19.531250
5733		-15.625000
5734		-23.437500
5735		-17.578125
5736		-25.390625
5737		-21.484375
5738		-27.343750
5739		-23.437500
5740		-31.250000
5741		-25.390625
5742		-33.203125
5743		-29.296875
5744		-37.109375
5745		-31.250000
5746		-39.062500
5747		-33.203125
5748		-41.015625
5749		-37.109375
5750		-42.968750
5751		-39.062500
5752		-46.875000
5753		-41.015625
5754		-48.828125
5755		-44.921875
5756		-50.781250
5757		-46.875000
5758		-52.734375
5759		-48.828125
5760		-56.640625
5761		-50.781250
5762		-58.593750
5763		-52.734375
5764		-60.546875
5765		-56.640625
5766		-62.500000
5767		-58.593750
5768		-64.453125
5769		-60.546875
5770		-66.406250
5771		-62.500000
5772		-68.359375
5773		-64.453125
5774		-70.312500
5775		-66.406250
5776		-72.265625
5777		-68.359375
5778		-74.218750
5779		-70.312500
5780		-76.171875
5781		-72.265625
5782		-78.125000
5783		-74.218750
5784		-80.078125
5785		-76.171875
5786		-82.031250
5787		-78.125000
5788		-83.984375
5789		-80.078125
5790		-83.984375
5791		-80.078125
5792		-85.937500
5793		-82.031250
5794		-87.890625
5795		-83.984375
5796		-87.890625
5797		-83.984375
5798		-89.843750
5799		-85.937500
5800		-91.796875
5801		-87.890625
5802		-91.796875
5803		-87.890625
5804		-93.750000
5805		-89.843750
5806		-93.750000
5807		-89.843750
5808		-93.750000
5809		-91.796875
5810		-95.703125
5811		-91.796875
5812		-95.703125
5813		-93.750000
5814		-95.703125
5815		-93.750000
5816		-97.656250
5817		-93.750000
5818		-97.656250
5819		-93.750000
5820		-97.656250
5821		-95.703125
5822		-97.656250
5823		-95.703125
5824		-97.656250
5825		-95.703125
5826		-99.609375
5827		-95.703125
5828		-99.609375
5829		-93.750000
5830		-97.656250
5831		-95.703125
5832		-97.656250
5833		-95.703125
5834		-97.656250
5835		-95.703125
5836		-97.656250
5837		-95.703125
5838		-97.656250
5839		-93.750000
5840		-97.656250
5841		-93.750000
5842		-95.703125
5843		-93.750000
5844		-95.703125
5845		-91.796875
5846		-95.703125
5847		-91.796875
5848		-93.750000
5849		-91.796875
5850		-93.750000
5851		-89.843750
5852		-93.750000
5853		-89.843750
5854		-91.796875
5855		-87.890625
5856		-89.843750
5857		-87.890625
5858		-89.843750
5859		-85.937500
5860		-87.890625
5861		-83.984375
5862		-87.890625
5863		-83.984375
5864		-85.937500
5865		-82.031250
5866		-83.984375
5867		-80.078125
5868		-82.031250
5869		-78.125000
5870		-80.078125
5871		-76.171875
5872		-80.078125
5873		-76.171875
5874		-78.125000
5875		-74.218750
5876		-76.171875
5877		-72.265625
5878		-74.218750
5879		-70.312500
5880		-72.265625
5881		-68.359375
5882		-70.312500
5883		-66.406250
5884		-68.359375
5885		-62.500000
5886		-66.406250
5887		-60.546875
5888		-64.453125
5889		-58.593750
5890		-60.546875
5891		-56.640625
5892		-58.593750
5893		-54.687500
5894		-56.640625
5895		-52.734375
5896		-54.687500
5897		-48.828125
5898		-52.734375
5899		-46.875000
5900		-48.828125
5901		-44.921875
5902		-46.875000
5903		-42.968750
5904		-44.921875
5905		-39.062500
5906		-42.968750
5907		-37.109375
5908		-39.062500
5909		-35.156250
5910		-37.109375
5911		-31.250000
5912		-35.156250
5913		-29.296875
5914		-31.250000
5915		-25.390625
5916		-29.296875
5917		-23.437500
5918		-25.390625
5919		-21.484375
5920		-23.437500
5921		-17.578125
5922		-21.484375
5923		-15.625000
5924		-17.578125
5925		-13.671875
5926		-15.625000
5927		-9.765625
5928		-11.718750
5929		-7.812500
5930		-9.765625
5931		-3.906250
5932		-5.859375
5933		-1.953125
5934		-3.906250
5935		1.953125
5936		-1.953125
5937		3.906250
5938		1.953125
5939		7.812500
5940		3.906250
5941		9.765625
5942		7.812500
5943		11.718750
5944		9.765625
5945		15.625000
5946		13.671875
5947		17.578125
5948		15.625000
5949		21.484375
5950		17.578125
5951		23.437500
5952		21.484375
5953		25.390625
5954		23.437500
5955		29.296875
5956		27.343750
5957		31.250000
5958		29.296875
5959		33.203125
5960		31.250000
5961		37.109375
5962		35.156250
5963		39.062500
5964		37.109375
5965		41.015625
5966		39.062500
5967		44.921875
5968		42.968750
5969		46.875000
5970		44.921875
5971		50.781250
5972		46.875000
5973		50.781250
5974		48.828125
5975		54.687500
5976		50.781250
5977		56.640625
5978		54.687500
5979		58.593750
5980		56.640625
5981		60.546875
5982		58.593750
5983		62.500000
5984		60.546875
5985		64.453125
5986		62.500000
5987		68.359375
5988		64.453125
5989		70.312500
5990		66.406250
5991		72.265625
5992		68.359375
5993		74.218750
5994		72.265625
5995		76.171875
5996		72.265625
5997		78.125000
5998		76.171875
5999		80.078125
6000		76.171875
6001		82.031250
6002		78.125000
6003		83.984375
6004		80.078125
6005		85.937500
6006		82.031250
6007		87.890625
6008		83.984375
6009		89.843750
6010		85.937500
6011		89.843750
6012		85.937500
6013		93.750000
6014		89.843750
6015		91.796875
6016		89.843750
6017		93.750000
6018		89.843750
6019		97.656250
6020		93.750000
6021		97.656250
6022		93.750000
6023		97.656250
6024		95.703125
6025		99.609375
6026		95.703125
6027		99.609375
6028		97.656250
6029		103.515625
6030		97.656250
6031		101.562500
6032		99.609375
6033		103.515625
6034		99.609375
6035		105.468750
6036		101.562500
6037		107.421875
6038		101.562500
6039		105.468750
6040		103.515625
6041		107.421875
6042		103.515625
6043		107.421875
6044		105.468750
6045		107.421875
6046		103.515625
6047		109.375000
6048		105.468750
6049		109.375000
6050		105.468750
6051		109.375000
6052		105.468750
6053		111.328125
6054		105.468750
6055		113.281250
6056		105.468750
6057		111.328125
6058		107.421875
6059		111.328125
6060		105.468750
6061		113.281250
6062		103.515625
6063		113.281250
6064		107.421875
6065		111.328125
6066		107.421875
6067		111.328125
6068		105.468750
6069		111.328125
6070		105.468750
6071		113.281250
6072		105.468750
6073		111.328125
6074		107.421875
6075		109.375000
6076		103.515625
6077		113.281250
6078		103.515625
6079		111.328125
6080		103.515625
6081		111.328125
6082		105.468750
6083		109.375000
6084		103.515625
6085		107.421875
6086		101.562500
6087		109.375000
6088		101.562500
6089		109.375000
6090		101.562500
6091		105.468750
6092		99.609375
6093		105.468750
6094		99.609375
6095		107.421875
6096		95.703125
6097		105.468750
6098		97.656250
6099		101.562500
6100		97.656250
6101		99.609375
6102		93.750000
6103		99.609375
6104		93.750000
6105		101.562500
6106		93.750000
6107		97.656250
6108		91.796875
6109		95.703125
6110		87.890625
6111		95.703125
6112		87.890625
6113		93.750000
6114		87.890625
6115		93.750000
6116		85.937500
6117		89.843750
6118		83.984375
6119		87.890625
6120		80.078125
6121		87.890625
6122		80.078125
6123		85.937500
6124		78.125000
6125		83.984375
6126		74.218750
6127		82.031250
6128		74.218750
6129		82.031250
6130		70.312500
6131		78.125000
6132		70.312500
6133		76.171875
6134		68.359375
6135		74.218750
6136		66.406250
6137		72.265625
6138		62.500000
6139		72.265625
6140		62.500000
6141		66.406250
6142		60.546875
6143		64.453125
6144		56.640625
6145		64.453125
6146		54.687500
6147		60.546875
6148		54.687500
6149		58.593750
6150		50.781250
6151		56.640625
6152		48.828125
6153		54.687500
6154		44.921875
6155		52.734375
6156		42.968750
6157		50.781250
6158		41.015625
6159		44.921875
6160		37.109375
6161		44.921875
6162		35.156250
6163		44.921875
6164		33.203125
6165		41.015625
6166		31.250000
6167		35.156250
6168		27.343750
6169		33.203125
6170		23.437500
6171		31.250000
6172		21.484375
6173		31.250000
6174		19.531250
6175		25.390625
6176		15.625000
6177		21.484375
6178		13.671875
6179		21.484375
6180		11.718750
6181		15.625000
6182		7.812500
6183		13.671875
6184		5.859375
6185		11.718750
6186		1.953125
6187		7.812500
6188		-1.953125
6189		7.812500
6190		-1.953125
6191		3.906250
6192		-5.859375
6193		0.000000
6194		-9.765625
6195		-1.953125
6196		-9.765625
6197		-5.859375
6198		-13.671875
6199		-5.859375
6200		-15.625000
6201		-11.718750
6202		-19.531250
6203		-13.671875
6204		-23.437500
6205		-15.625000
6206		-25.390625
6207		-19.531250
6208		-27.343750
6209		-21.484375
6210		-31.250000
6211		-23.437500
6212		-33.203125
6213		-23.437500
6214		-37.109375
6215		-29.296875
6216		-37.109375
6217		-33.203125
6218		-41.015625
6219		-35.156250
6220		-44.921875
6221		-37.109375
6222		-46.875000
6223		-39.062500
6224		-48.828125
6225		-42.968750
6226		-50.781250
6227		-44.921875
6228		-54.687500
6229		-46.875000
6230		-56.640625
6231		-48.828125
6232		-56.640625
6233		-52.734375
6234		-60.546875
6235		-54.687500
6236		-62.500000
6237		-56.640625
6238		-66.406250
6239		-56.640625
6240		-66.406250
6241		-62.500000
6242		-68.359375
6243		-64.453125
6244		-72.265625
6245		-64.453125
6246		-72.265625
6247		-68.359375
6248		-76.171875
6249		-68.359375
6250		-76.171875
6251		-72.265625
6252		-78.125000
6253		-74.218750
6254		-80.078125
6255		-76.171875
6256		-83.984375
6257		-76.171875
6258		-82.031250
6259		-78.125000
6260		-85.937500
6261		-80.078125
6262		-87.890625
6263		-80.078125
6264		-87.890625
6265		-83.984375
6266		-87.890625
6267		-83.984375
6268		-89.843750
6269		-85.937500
6270		-91.796875
6271		-87.890625
6272		-91.796875
6273		-87.890625
6274		-93.750000
6275		-87.890625
6276		-93.750000
6277		-89.843750
6278		-95.703125
6279		-89.843750
6280		-95.703125
6281		-91.796875
6282		-95.703125
6283		-93.750000
6284		-97.656250
6285		-93.750000
6286		-97.656250
6287		-93.750000
6288		-97.656250
6289		-95.703125
6290		-97.656250
6291		-95.703125
6292		-97.656250
6293		-95.703125
6294		-99.609375
6295		-95.703125
6296		-99.609375
6297		-95.703125
6298		-99.609375
6299		-95.703125
6300		-99.609375
6301		-95.703125
6302		-99.609375
6303		-95.703125
6304		-99.609375
6305		-95.703125
6306		-97.656250
6307		-95.703125
6308		-97.656250
6309		-95.703125
6310		-99.609375
6311		-93.750000
6312		-97.656250
6313		-93.750000
6314		-97.656250
6315		-93.750000
6316		-95.703125
6317		-91.796875
6318		-95.703125
6319		-91.796875
6320		-95.703125
6321		-89.843750
6322		-93.750000
6323		-89.843750
6324		-93.750000
6325		-87.890625
6326		-91.796875
6327		-87.890625
6328		-89.843750
6329		-85.937500
6330		-89.843750
6331		-83.984375
6332		-89.843750
6333		-83.984375
6334		-85.937500
6335		-82.031250
6336		-85.937500
6337		-80.078125
6338		-83.984375
6339		-78.125000
6340		-82.031250
6341		-78.125000
6342		-82.031250
6343		-74.218750
6344		-80.078125
6345		-74.218750
6346		-78.125000
6347		-72.265625
6348		-74.218750
6349		-70.312500
6350		-74.218750
6351		-68.359375
6352		-70.312500
6353		-66.406250
6354		-68.359375
6355		-64.453125
6356		-68.359375
6357		-62.500000
6358		-64.453125
6359		-60.546875
6360		-64.453125
6361		-58.593750
6362		-62.500000
6363		-54.687500
6364		-58.593750
6365		-52.734375
6366		-56.640625
6367		-50.781250
6368		-52.734375
6369		-48.828125
6370		-50.781250
6371		-44.921875
6372		-48.828125
6373		-42.968750
6374		-46.875000
6375		-41.015625
6376		-44.921875
6377		-39.062500
6378		-41.015625
6379		-35.156250
6380		-39.062500
6381		-31.250000
6382		-37.109375
6383		-31.250000
6384		-33.203125
6385		-27.343750
6386		-29.296875
6387		-25.390625
6388		-29.296875
6389		-21.484375
6390		-25.390625
6391		-19.531250
6392		-21.484375
6393		-17.578125
6394		-21.484375
6395		-13.671875
6396		-17.578125
6397		-11.718750
6398		-13.671875
6399		-7.812500
6400		-11.718750
6401		-5.859375
6402		-7.812500
6403		-3.906250
6404		-5.859375
6405		0.000000
6406		-3.906250
6407		3.906250
6408		0.000000
6409		5.859375
6410		1.953125
6411		7.812500
6412		5.859375
6413		11.718750
6414		7.812500
6415		13.671875
6416		11.718750
6417		15.625000
6418		13.671875
6419		19.531250
6420		17.578125
6421		21.484375
6422		19.531250
6423		25.390625
6424		21.484375
6425		27.343750
6426		25.390625
6427		31.250000
6428		27.343750
6429		33.203125
6430		29.296875
6431		35.156250
6432		33.203125
6433		39.062500
6434		35.156250
6435		41.015625
6436		39.062500
6437		42.968750
6438		41.015625
6439		44.921875
6440		42.968750
6441		48.828125
6442		44.921875
6443		50.781250
6444		46.875000
6445		52.734375
6446		50.781250
6447		56.640625
6448		52.734375
6449		58.593750
6450		54.687500
6451		60.546875
6452		56.640625
6453		62.500000
6454		60.546875
6455		64.453125
6456		62.500000
6457		66.406250
6458		64.453125
6459		68.359375
6460		66.406250
6461		72.265625
6462		68.359375
6463		72.265625
6464		70.312500
6465		74.218750
6466		72.265625
6467		76.171875
6468		74.218750
6469		78.125000
6470		76.171875
6471		80.078125
6472		76.171875
6473		82.031250
6474		80.078125
6475		83.984375
6476		82.031250
6477		85.937500
6478		82.031250
6479		87.890625
6480		83.984375
6481		87.890625
6482		85.937500
6483		89.843750
6484		85.937500
6485		91.796875
6486		89.843750
6487		93.750000
6488		91.796875
6489		95.703125
6490		91.796875
6491		95.703125
6492		93.750000
6493		97.656250
6494		93.750000
6495		99.609375
6496		95.703125
6497		99.609375
6498		97.656250
6499		101.562500
6500		97.656250
6501		101.562500
6502		99.609375
6503		103.515625
6504		99.609375
6505		103.515625
6506		101.562500
6507		103.515625
6508		101.562500
6509		105.468750
6510		101.562500
6511		107.421875
6512		101.562500
6513		107.421875
6514		103.515625
6515		107.421875
6516		105.468750
6517		107.421875
6518		105.468750
6519		109.375000
6520		105.468750
6521		109.375000
6522		105.468750
6523		109.375000
6524		105.468750
6525		109.375000
6526		107.421875
6527		109.375000
6528		105.468750
6529		111.328125
6530		107.421875
6531		111.328125
6532		107.421875
6533		111.328125
6534		107.421875
6535		111.328125
6536		107.421875
6537		111.328125
6538		107.421875
6539		111.328125
6540		107.421875
6541		111.328125
6542		105.468750
6543		109.375000
6544		105.468750
6545		111.328125
6546		105.468750
6547		109.375000
6548		105.468750
6549		109.375000
6550		105.468750
6551		109.375000
6552		105.468750
6553		109.375000
6554		103.515625
6555		107.421875
6556		103.515625
6557		109.375000
6558		103.515625
6559		107.421875
6560		101.562500
6561		105.468750
6562		99.609375
6563		107.421875
6564		99.609375
6565		105.468750
6566		99.609375
6567		103.515625
6568		97.656250
6569		103.515625
6570		97.656250
6571		101.562500
6572		95.703125
6573		99.609375
6574		95.703125
6575		99.609375
6576		93.750000
6577		97.656250
6578		91.796875
6579		95.703125
6580		91.796875
6581		95.703125
6582		89.843750
6583		93.750000
6584		87.890625
6585		91.796875
6586		85.937500
6587		89.843750
6588		83.984375
6589		89.843750
6590		82.031250
6591		87.890625
6592		82.031250
6593		85.937500
6594		80.078125
6595		83.984375
6596		78.125000
6597		82.031250
6598		76.171875
6599		82.031250
6600		74.218750
6601		78.125000
6602		72.265625
6603		76.171875
6604		70.312500
6605		74.218750
6606		68.359375
6607		72.265625
6608		66.406250
6609		70.312500
6610		64.453125
6611		68.359375
6612		62.500000
6613		66.406250
6614		60.546875
6615		64.453125
6616		56.640625
6617		62.500000
6618		54.687500
6619		60.546875
6620		52.734375
6621		56.640625
6622		50.781250
6623		54.687500
6624		48.828125
6625		52.734375
6626		44.921875
6627		50.781250
6628		42.968750
6629		46.875000
6630		41.015625
6631		44.921875
6632		37.109375
6633		42.968750
6634		35.156250
6635		41.015625
6636		33.203125
6637		37.109375
6638		29.296875
6639		35.156250
6640		27.343750
6641		33.203125
6642		23.437500
6643		29.296875
6644		21.484375
6645		27.343750
6646		19.531250
6647		25.390625
6648		15.625000
6649		21.484375
6650		13.671875
6651		17.578125
6652		9.765625
6653		15.625000
6654		7.812500
6655		13.671875
6656		3.906250
6657		9.765625
6658		1.953125
6659		7.812500
6660		0.000000
6661		3.906250
6662		-3.906250
6663		1.953125
6664		-5.859375
6665		-1.953125
6666		-9.765625
6667		-3.906250
6668		-11.718750
6669		-5.859375
6670		-13.671875
6671		-9.765625
6672		-17.578125
6673		-11.718750
6674		-19.531250
6675		-15.625000
6676		-23.437500
6677		-17.578125
6678		-25.390625
6679		-19.531250
6680		-27.343750
6681		-23.437500
6682		-31.250000
6683		-25.390625
6684		-35.156250
6685		-29.296875
6686		-37.109375
6687		-31.250000
6688		-39.062500
6689		-33.203125
6690		-41.015625
6691		-37.109375
6692		-44.921875
6693		-39.062500
6694		-46.875000
6695		-41.015625
6696		-48.828125
6697		-44.921875
6698		-52.734375
6699		-46.875000
6700		-54.687500
6701		-48.828125
6702		-56.640625
6703		-50.781250
6704		-58.593750
6705		-54.687500
6706		-60.546875
6707		-56.640625
6708		-62.500000
6709		-58.593750
6710		-64.453125
6711		-60.546875
6712		-66.406250
6713		-62.500000
6714		-70.312500
6715		-64.453125
6716		-72.265625
6717		-66.406250
6718		-74.218750
6719		-68.359375
6720		-74.218750
6721		-70.312500
6722		-76.171875
6723		-72.265625
6724		-78.125000
6725		-74.218750
6726		-80.078125
6727		-76.171875
6728		-82.031250
6729		-78.125000
6730		-83.984375
6731		-80.078125
6732		-85.937500
6733		-82.031250
6734		-85.937500
6735		-82.031250
6736		-87.890625
6737		-83.984375
6738		-89.843750
6739		-85.937500
6740		-91.796875
6741		-85.937500
6742		-91.796875
6743		-87.890625
6744		-93.750000
6745		-89.843750
6746		-93.750000
6747		-89.843750
6748		-93.750000
6749		-91.796875
6750		-95.703125
6751		-91.796875
6752		-95.703125
6753		-91.796875
6754		-97.656250
6755		-93.750000
6756		-97.656250
6757		-93.750000
6758		-97.656250
6759		-93.750000
6760		-97.656250
6761		-95.703125
6762		-99.609375
6763		-95.703125
6764		-99.609375
6765		-95.703125
6766		-99.609375
6767		-95.703125
6768		-99.609375
6769		-95.703125
6770		-99.609375
6771		-95.703125
6772		-99.609375
6773		-95.703125
6774		-99.609375
6775		-95.703125
6776		-99.609375
6777		-95.703125
6778		-97.656250
6779		-95.703125
6780		-97.656250
6781		-95.703125
6782		-97.656250
6783		-93.750000
6784		-97.656250
6785		-93.750000
6786		-97.656250
6787		-93.750000
6788		-95.703125
6789		-91.796875
6790		-95.703125
6791		-91.796875
6792		-93.750000
6793		-91.796875
6794		-93.750000
6795		-89.843750
6796		-93.750000
6797		-87.890625
6798		-91.796875
6799		-87.890625
6800		-89.843750
6801		-85.937500
6802		-89.843750
6803		-85.937500
6804		-87.890625
6805		-83.984375
6806		-85.937500
6807		-82.031250
6808		-85.937500
6809		-80.078125
6810		-83.984375
6811		-80.078125
6812		-82.031250
6813		-78.125000
6814		-80.078125
6815		-76.171875
6816		-78.125000
6817		-74.218750
6818		-76.171875
6819		-72.265625
6820		-74.218750
6821		-70.312500
6822		-72.265625
6823		-68.359375
6824		-70.312500
6825		-66.406250
6826		-68.359375
6827		-64.453125
6828		-66.406250
6829		-62.500000
6830		-64.453125
6831		-60.546875
6832		-62.500000
6833		-56.640625
6834		-60.546875
6835		-54.687500
6836		-58.593750
6837		-52.734375
6838		-54.687500
6839		-50.781250
6840		-52.734375
6841		-46.875000
6842		-50.781250
6843		-44.921875
6844		-48.828125
6845		-42.968750
6846		-44.921875
6847		-41.015625
6848		-42.968750
6849		-37.109375
6850		-39.062500
6851		-35.156250
6852		-37.109375
6853		-33.203125
6854		-35.156250
6855		-29.296875
6856		-31.250000
6857		-27.343750
6858		-29.296875
6859		-25.390625
6860		-27.343750
6861		-21.484375
6862		-23.437500
6863		-19.531250
6864		-21.484375
6865		-15.625000
6866		-17.578125
6867		-13.671875
6868		-15.625000
6869		-9.765625
6870		-13.671875
6871		-7.812500
6872		-9.765625
6873		-3.906250
6874		-7.812500
6875		-1.953125
6876		-5.859375
6877		0.000000
6878		-1.953125
6879		3.906250
6880		0.000000
6881		5.859375
6882		3.906250
6883		9.765625
6884		5.859375
6885		11.718750
6886		9.765625
6887		15.625000
6888		11.718750
6889		17.578125
6890		15.625000
6891		19.531250
6892		17.578125
6893		23.437500
6894		19.531250
6895		25.390625
6896		23.437500
6897		27.343750
6898		25.390625
6899		31.250000
6900		29.296875
6901		33.203125
6902		31.250000
6903		37.109375
6904		33.203125
6905		39.062500
6906		37.109375
6907		41.015625
6908		39.062500
6909		42.968750
6910		41.015625
6911		46.875000
6912		44.921875
6913		48.828125
6914		46.875000
6915		50.781250
6916		48.828125
6917		52.734375
6918		50.781250
6919		56.640625
6920		52.734375
6921		58.593750
6922		56.640625
6923		60.546875
6924		58.593750
6925		62.500000
6926		60.546875
6927		64.453125
6928		62.500000
6929		68.359375
6930		64.453125
6931		68.359375
6932		66.406250
6933		72.265625
6934		68.359375
6935		74.218750
6936		70.312500
6937		76.171875
6938		72.265625
6939		78.125000
6940		74.218750
6941		80.078125
6942		76.171875
6943		82.031250
6944		78.125000
6945		83.984375
6946		80.078125
6947		83.984375
6948		82.031250
6949		85.937500
6950		83.984375
6951		87.890625
6952		83.984375
6953		89.843750
6954		87.890625
6955		91.796875
6956		87.890625
6957		91.796875
6958		89.843750
6959		93.750000
6960		91.796875
6961		95.703125
6962		91.796875
6963		97.656250
6964		93.750000
6965		97.656250
6966		95.703125
6967		99.609375
6968		95.703125
6969		99.609375
6970		97.656250
6971		101.562500
6972		99.609375
6973		101.562500
6974		99.609375
6975		103.515625
6976		99.609375
6977		103.515625
6978		101.562500
6979		105.468750
6980		101.562500
6981		105.468750
6982		103.515625
6983		107.421875
6984		103.515625
6985		107.421875
6986		103.515625
6987		107.421875
6988		103.515625
6989		109.375000
6990		105.468750
6991		109.375000
6992		105.468750
6993		109.375000
6994		105.468750
6995		109.375000
6996		107.421875
6997		109.375000
6998		107.421875
6999		109.375000
7000		107.421875
7001		111.328125
7002		107.421875
7003		111.328125
7004		107.421875
7005		111.328125
7006		107.421875
7007		111.328125
7008		107.421875
7009		111.328125
7010		105.468750
7011		111.328125
7012		107.421875
7013		111.328125
7014		105.468750
7015		111.328125
7016		107.421875
7017		109.375000
7018		105.468750
7019		109.375000
7020		105.468750
7021		109.375000
7022		105.468750
7023		109.375000
7024		105.468750
7025		107.421875
7026		103.515625
7027		107.421875
7028		103.515625
7029		107.421875
7030		101.562500
7031		107.421875
7032		101.562500
7033		105.468750
7034		101.562500
7035		103.515625
7036		99.609375
7037		103.515625
7038		99.609375
7039		103.515625
7040		97.656250
7041		101.562500
7042		97.656250
7043		101.562500
7044		95.703125
7045		99.609375
7046		93.750000
7047		97.656250
7048		93.750000
7049		97.656250
7050		91.796875
7051		95.703125
7052		89.843750
7053		93.750000
7054		87.890625
7055		93.750000
7056		87.890625
7057		91.796875
7058		85.937500
7059		89.843750
7060		83.984375
7061		87.890625
7062		82.031250
7063		87.890625
7064		82.031250
7065		85.937500
7066		78.125000
7067		83.984375
7068		76.171875
7069		82.031250
7070		76.171875
7071		80.078125
7072		74.218750
7073		78.125000
7074		70.312500
7075		76.171875
7076		68.359375
7077		74.218750
7078		68.359375
7079		72.265625
7080		64.453125
7081		70.312500
7082		62.500000
7083		68.359375
7084		60.546875
7085		66.406250
7086		58.593750
7087		62.500000
7088		56.640625
7089		60.546875
7090		52.734375
7091		58.593750
7092		50.781250
7093		56.640625
7094		48.828125
7095		54.687500
7096		46.875000
7097		50.781250
7098		42.968750
7099		48.828125
7100		41.015625
7101		46.875000
7102		39.062500
7103		42.968750
7104		37.109375
7105		41.015625
7106		33.203125
7107		39.062500
7108		31.250000
7109		35.156250
7110		29.296875
7111		33.203125
7112		25.390625
7113		31.250000
7114		23.437500
7115		27.343750
7116		19.531250
7117		25.390625
7118		17.578125
7119		21.484375
7120		13.671875
7121		19.531250
7122		11.718750
7123		17.578125
7124		9.765625
7125		13.671875
7126		5.859375
7127		11.718750
7128		3.906250
7129		7.812500
7130		0.000000
7131		5.859375
7132		-1.953125
7133		3.906250
7134		-3.906250
7135		0.000000
7136		-7.812500
7137		-1.953125
7138		-11.718750
7139		-5.859375
7140		-13.671875
7141		-7.812500
7142		-15.625000
7143		-11.718750
7144		-19.531250
7145		-13.671875
7146		-21.484375
7147		-15.625000
7148		-25.390625
7149		-19.531250
7150		-27.343750
7151		-21.484375
7152		-29.296875
7153		-23.437500
7154		-33.203125
7155		-27.343750
7156		-35.156250
7157		-29.296875
7158		-37.109375
7159		-31.250000
7160		-39.062500
7161		-35.156250
7162		-42.968750
7163		-37.109375
7164		-44.921875
7165		-41.015625
7166		-46.875000
7167		-42.968750
7168		-50.781250
7169		-44.921875
7170		-52.734375
7171		-46.875000
7172		-54.687500
7173		-50.781250
7174		-56.640625
7175		-52.734375
7176		-58.593750
7177		-54.687500
7178		-62.500000
7179		-56.640625
7180		-64.453125
7181		-58.593750
7182		-66.406250
7183		-62.500000
7184		-68.359375
7185		-62.500000
7186		-70.312500
7187		-66.406250
7188		-72.265625
7189		-68.359375
7190		-74.218750
7191		-70.312500
7192		-76.171875
7193		-72.265625
7194		-78.125000
7195		-74.218750
7196		-80.078125
7197		-74.218750
7198		-80.078125
7199		-78.125000
7200		-82.031250
7201		-78.125000
7202		-85.937500
7203		-80.078125
7204		-85.937500
7205		-82.031250
7206		-87.890625
7207		-83.984375
7208		-87.890625
7209		-83.984375
7210		-89.843750
7211		-85.937500
7212		-91.796875
7213		-85.937500
7214		-91.796875
7215		-87.890625
7216		-93.750000
7217		-89.843750
7218		-93.750000
7219		-89.843750
7220		-95.703125
7221		-91.796875
7222		-95.703125
7223		-91.796875
7224		-95.703125
7225		-93.750000
7226		-97.656250
7227		-93.750000
7228		-97.656250
7229		-93.750000
7230		-99.609375
7231		-93.750000
7232		-99.609375
7233		-95.703125
7234		-97.656250
7235		-95.703125
7236		-99.609375
7237		-95.703125
7238		-99.609375
7239		-95.703125
7240		-99.609375
7241		-95.703125
7242		-99.609375
7243		-95.703125
7244		-99.609375
7245		-95.703125
7246		-99.609375
7247		-95.703125
7248		-99.609375
7249		-95.703125
7250		-97.656250
7251		-95.703125
7252		-97.656250
7253		-93.750000
7254		-97.656250
7255		-93.750000
7256		-97.656250
7257		-91.796875
7258		-95.703125
7259		-91.796875
7260		-95.703125
7261		-91.796875
7262		-95.703125
7263		-91.796875
7264		-93.750000
7265		-89.843750
7266		-93.750000
7267		-87.890625
7268		-91.796875
7269		-87.890625
7270		-91.796875
7271		-87.890625
7272		-89.843750
7273		-85.937500
7274		-87.890625
7275		-83.984375
7276		-87.890625
7277		-83.984375
7278		-85.937500
7279		-82.031250
7280		-83.984375
7281		-80.078125
7282		-83.984375
7283		-78.125000
7284		-80.078125
7285		-76.171875
7286		-80.078125
7287		-74.218750
7288		-78.125000
7289		-72.265625
7290		-76.171875
7291		-70.312500
7292		-74.218750
7293		-68.359375
7294		-72.265625
7295		-66.406250
7296		-70.312500
7297		-64.453125
7298		-68.359375
7299		-62.500000
7300		-66.406250
7301		-60.546875
7302		-62.500000
7303		-58.593750
7304		-60.546875
7305		-56.640625
7306		-58.593750
7307		-52.734375
7308		-56.640625
7309		-52.734375
7310		-54.687500
7311		-48.828125
7312		-52.734375
7313		-46.875000
7314		-48.828125
7315		-42.968750
7316		-46.875000
7317		-41.015625
7318		-44.921875
7319		-39.062500
7320		-41.015625
7321		-37.109375
7322		-39.062500
7323		-33.203125
7324		-37.109375
7325		-31.250000
7326		-33.203125
7327		-29.296875
7328		-31.250000
7329		-25.390625
7330		-27.343750
7331		-23.437500
7332		-25.390625
7333		-19.531250
7334		-23.437500
7335		-17.578125
7336		-21.484375
7337		-15.625000
7338		-17.578125
7339		-11.718750
7340		-13.671875
7341		-9.765625
7342		-11.718750
7343		-5.859375
7344		-9.765625
7345		-3.906250
7346		-5.859375
7347		-1.953125
7348		-3.906250
7349		1.953125
7350		0.000000
7351		3.906250
7352		1.953125
7353		7.812500
7354		5.859375
7355		9.765625
7356		7.812500
7357		13.671875
7358		9.765625
7359		15.625000
7360		13.671875
7361		17.578125
7362		15.625000
7363		21.484375
7364		19.531250
7365		23.437500
7366		21.484375
7367		27.343750
7368		25.390625
7369		29.296875
7370		27.343750
7371		31.250000
7372		29.296875
7373		35.156250
7374		33.203125
7375		37.109375
7376		35.156250
7377		39.062500
7378		37.109375
7379		42.968750
7380		39.062500
7381		44.921875
7382		42.968750
7383		46.875000
7384		44.921875
7385		50.781250
7386		46.875000
7387		52.734375
7388		50.781250
7389		54.687500
7390		52.734375
7391		56.640625
7392		54.687500
7393		58.593750
7394		56.640625
7395		60.546875
7396		58.593750
7397		64.453125
7398		60.546875
7399		66.406250
7400		64.453125
7401		68.359375
7402		64.453125
7403		70.312500
7404		68.359375
7405		72.265625
7406		70.312500
7407		74.218750
7408		72.265625
7409		76.171875
7410		74.218750
7411		78.125000
7412		76.171875
7413		80.078125
7414		78.125000
7415		82.031250
7416		78.125000
7417		83.984375
7418		82.031250
7419		85.937500
7420		82.031250
7421		87.890625
7422		83.984375
7423		87.890625
7424		85.937500
7425		89.843750
7426		87.890625
7427		91.796875
7428		89.843750
7429		93.750000
7430		89.843750
7431		93.750000
7432		91.796875
7433		95.703125
7434		93.750000
7435		95.703125
7436		93.750000
7437		97.656250
7438		95.703125
7439		99.609375
7440		97.656250
7441		101.562500
7442		97.656250
7443		101.562500
7444		99.609375
7445		101.562500
7446		99.609375
7447		103.515625
7448		99.609375
7449		103.515625
7450		101.562500
7451		105.468750
7452		101.562500
7453		105.468750
7454		103.515625
7455		107.421875
7456		103.515625
7457		107.421875
7458		103.515625
7459		107.421875
7460		105.468750
7461		107.421875
7462		105.468750
7463		109.375000
7464		105.468750
7465		109.375000
7466		105.468750
7467		109.375000
7468		107.421875
7469		109.375000
7470		105.468750
7471		111.328125
7472		107.421875
7473		109.375000
7474		107.421875
7475		111.328125
7476		105.468750
7477		111.328125
7478		107.421875
7479		111.328125
7480		107.421875
7481		109.375000
7482		107.421875
7483		109.375000
7484		107.421875
7485		109.375000
7486		107.421875
7487		109.375000
7488		105.468750
7489		109.375000
7490		105.468750
7491		109.375000
7492		105.468750
7493		109.375000
7494		105.468750
7495		107.421875
7496		103.515625
7497		107.421875
7498		103.515625
7499		107.421875
7500		103.515625
7501		107.421875
7502		101.562500
7503		105.468750
7504		101.562500
7505		105.468750
7506		99.609375
7507		103.515625
7508		99.609375
7509		103.515625
7510		99.609375
7511		101.562500
7512		97.656250
7513		101.562500
7514		95.703125
7515		101.562500
7516		95.703125
7517		99.609375
7518		93.750000
7519		97.656250
7520		91.796875
7521		95.703125
7522		91.796875
7523		95.703125
7524		89.843750
7525		93.750000
7526		87.890625
7527		91.796875
7528		87.890625
7529		91.796875
7530		85.937500
7531		89.843750
7532		83.984375
7533		87.890625
7534		82.031250
7535		85.937500
7536		80.078125
7537		83.984375
7538		78.125000
7539		83.984375
7540		76.171875
7541		82.031250
7542		74.218750
7543		78.125000
7544		72.265625
7545		76.171875
7546		70.312500
7547		74.218750
7548		68.359375
7549		74.218750
7550		66.406250
7551		70.312500
7552		64.453125
7553		68.359375
7554		62.500000
7555		66.406250
7556		60.546875
7557		64.453125
7558		56.640625
7559		62.500000
7560		54.687500
7561		60.546875
7562		52.734375
7563		56.640625
7564		50.781250
7565		54.687500
7566		48.828125
7567		52.734375
7568		44.921875
7569		50.781250
7570		42.968750
7571		48.828125
7572		41.015625
7573		44.921875
7574		37.109375
7575		42.968750
7576		35.156250
7577		41.015625
7578		33.203125
7579		37.109375
7580		29.296875
7581		35.156250
7582		27.343750
7583		33.203125
7584		25.390625
7585		29.296875
7586		21.484375
7587		27.343750
7588		19.531250
7589		23.437500
7590		15.625000
7591		21.484375
7592		13.671875
7593		19.531250
7594		11.718750
7595		15.625000
7596		7.812500
7597		13.671875
7598		5.859375
7599		9.765625
7600		1.953125
7601		7.812500
7602		-1.953125
7603		5.859375
7604		-1.953125
7605		1.953125
7606		-5.859375
7607		-1.953125
7608		-7.812500
7609		-3.906250
7610		-11.718750
7611		-5.859375
7612		-13.671875
7613		-9.765625
7614		-17.578125
7615		-11.718750
7616		-19.531250
7617		-15.625000
7618		-23.437500
7619		-17.578125
7620		-25.390625
7621		-19.531250
7622		-27.343750
7623		-23.437500
7624		-31.250000
7625		-25.390625
7626		-33.203125
7627		-27.343750
7628		-35.156250
7629		-31.250000
7630		-39.062500
7631		-33.203125
7632		-41.015625
7633		-35.156250
7634		-42.968750
7635		-39.062500
7636		-46.875000
7637		-41.015625
7638		-48.828125
7639		-44.921875
7640		-50.781250
7641		-46.875000
7642		-52.734375
7643		-46.875000
7644		-56.640625
7645		-50.781250
7646		-58.593750
7647		-54.687500
7648		-60.546875
7649		-56.640625
7650		-64.453125
7651		-58.593750
7652		-64.453125
7653		-60.546875
7654		-66.406250
7655		-62.500000
7656		-68.359375
7657		-64.453125
7658		-70.312500
7659		-66.406250
7660		-72.265625
7661		-68.359375
7662		-74.218750
7663		-70.312500
7664		-78.125000
7665		-72.265625
7666		-80.078125
7667		-74.218750
7668		-80.078125
7669		-76.171875
7670		-82.031250
7671		-78.125000
7672		-83.984375
7673		-78.125000
7674		-83.984375
7675		-82.031250
7676		-85.937500
7677		-82.031250
7678		-87.890625
7679		-83.984375
7680		-89.843750
7681		-85.937500
7682		-89.843750
7683		-85.937500
7684		-91.796875
7685		-87.890625
7686		-91.796875
7687		-87.890625
7688		-93.750000
7689		-89.843750
7690		-93.750000
7691		-89.843750
7692		-95.703125
7693		-91.796875
7694		-95.703125
7695		-91.796875
7696		-97.656250
7697		-93.750000
7698		-97.656250
7699		-93.750000
7700		-97.656250
7701		-95.703125
7702		-97.656250
7703		-95.703125
7704		-99.609375
7705		-95.703125
7706		-99.609375
7707		-95.703125
7708		-99.609375
7709		-95.703125
7710		-99.609375
7711		-95.703125
7712		-99.609375
7713		-95.703125
7714		-99.609375
7715		-95.703125
7716		-101.562500
7717		-95.703125
7718		-99.609375
7719		-95.703125
7720		-99.609375
7721		-93.750000
7722		-99.609375
7723		-95.703125
7724		-97.656250
7725		-95.703125
7726		-97.656250
7727		-93.750000
7728		-97.656250
7729		-93.750000
7730		-95.703125
7731		-93.750000
7732		-95.703125
7733		-89.843750
7734		-95.703125
7735		-91.796875
7736		-93.750000
7737		-89.843750
7738		-93.750000
7739		-89.843750
7740		-91.796875
7741		-87.890625
7742		-89.843750
7743		-85.937500
7744		-89.843750
7745		-85.937500
7746		-87.890625
7747		-83.984375
7748		-85.937500
7749		-82.031250
7750		-83.984375
7751		-82.031250
7752		-83.984375
7753		-80.078125
7754		-82.031250
7755		-78.125000
7756		-80.078125
7757		-76.171875
7758		-78.125000
7759		-74.218750
7760		-76.171875
7761		-72.265625
7762		-74.218750
7763		-70.312500
7764		-72.265625
7765		-68.359375
7766		-70.312500
7767		-66.406250
7768		-68.359375
7769		-64.453125
7770		-66.406250
7771		-62.500000
7772		-64.453125
7773		-60.546875
7774		-64.453125
7775		-58.593750
7776		-60.546875
7777		-54.687500
7778		-60.546875
7779		-52.734375
7780		-56.640625
7781		-50.781250
7782		-52.734375
7783		-48.828125
7784		-50.781250
7785		-46.875000
7786		-48.828125
7787		-42.968750
7788		-46.875000
7789		-41.015625
7790		-42.968750
7791		-37.109375
7792		-41.015625
7793		-35.156250
7794		-39.062500
7795		-33.203125
7796		-35.156250
7797		-31.250000
7798		-33.203125
7799		-27.343750
7800		-31.250000
7801		-25.390625
7802		-29.296875
7803		-21.484375
7804		-25.390625
7805		-17.578125
7806		-23.437500
7807		-15.625000
7808		-19.531250
7809		-13.671875
7810		-17.578125
7811		-9.765625
7812		-13.671875
7813		-9.765625
7814		-11.718750
7815		-5.859375
7816		-7.812500
7817		0.000000
7818		-7.812500
7819		1.953125
7820		-3.906250
7821		3.906250
7822		-1.953125
7823		5.859375
7824		1.953125
7825		9.765625
7826		3.906250
7827		11.718750
7828		7.812500
7829		13.671875
7830		11.718750
7831		15.625000
7832		13.671875
7833		19.531250
7834		15.625000
7835		23.437500
7836		19.531250
7837		25.390625
7838		21.484375
7839		29.296875
7840		23.437500
7841		31.250000
7842		27.343750
7843		33.203125
7844		27.343750
7845		35.156250
7846		33.203125
7847		37.109375
7848		35.156250
7849		41.015625
7850		37.109375
7851		44.921875
7852		39.062500
7853		46.875000
7854		42.968750
7855		48.828125
7856		44.921875
7857		52.734375
7858		46.875000
7859		54.687500
7860		48.828125
7861		56.640625
7862		50.781250
7863		58.593750
7864		54.687500
7865		60.546875
7866		56.640625
7867		64.453125
7868		58.593750
7869		64.453125
7870		60.546875
7871		68.359375
7872		62.500000
7873		70.312500
7874		66.406250
7875		72.265625
7876		66.406250
7877		74.218750
7878		68.359375
7879		76.171875
7880		72.265625
7881		76.171875
7882		74.218750
7883		78.125000
7884		74.218750
7885		82.031250
7886		76.171875
7887		83.984375
7888		78.125000
7889		85.937500
7890		80.078125
7891		87.890625
7892		82.031250
7893		89.843750
7894		83.984375
7895		89.843750
7896		85.937500
7897		89.843750
7898		87.890625
7899		91.796875
7900		87.890625
7901		93.750000
7902		89.843750
7903		97.656250
7904		91.796875
7905		99.609375
7906		91.796875
7907		99.609375
7908		91.796875
7909		99.609375
7910		93.750000
7911		101.562500
7912		95.703125
7913		101.562500
7914		97.656250
7915		101.562500
7916		99.609375
7917		103.515625
7918		97.656250
7919		105.468750
7920		99.609375
7921		105.468750
7922		99.609375
7923		107.421875
7924		101.562500
7925		109.375000
7926		101.562500
7927		109.375000
7928		101.562500
7929		109.375000
7930		105.468750
7931		107.421875
7932		105.468750
7933		107.421875
7934		103.515625
7935		111.328125
7936		103.515625
7937		111.328125
7938		105.468750
7939		111.328125
7940		103.515625
7941		111.328125
7942		105.468750
7943		111.328125
7944		105.468750
7945		111.328125
7946		105.468750
7947		111.328125
7948		107.421875
7949		111.328125
7950		107.421875
7951		111.328125
7952		105.468750
7953		111.328125
7954		105.468750
7955		111.328125
7956		105.468750
7957		111.328125
7958		105.468750
7959		111.328125
7960		103.515625
7961		111.328125
7962		105.468750
7963		111.328125
7964		105.468750
7965		107.421875
7966		105.468750
7967		107.421875
7968		103.515625
7969		109.375000
7970		101.562500
7971		109.375000
7972		101.562500
7973		107.421875
7974		99.609375
7975		107.421875
7976		99.609375
7977		105.468750
7978		97.656250
7979		105.468750
7980		99.609375
7981		103.515625
7982		97.656250
7983		101.562500
7984		95.703125
7985		101.562500
7986		93.750000
7987		101.562500
7988		93.750000
7989		99.609375
7990		91.796875
7991		99.609375
7992		89.843750
7993		97.656250
7994		87.890625
7995		95.703125
7996		89.843750
7997		95.703125
7998		87.890625
7999		91.796875
8000		85.937500
8001		89.843750
8002		83.984375
8003		89.843750
8004		82.031250
8005		87.890625
8006		82.031250
8007		85.937500
8008		78.125000
8009		85.937500
8010		76.171875
8011		83.984375
8012		76.171875
8013		80.078125
8014		74.218750
8015		80.078125
8016		72.265625
8017		76.171875
8018		68.359375
8019		74.218750
8020		66.406250
8021		74.218750
8022		64.453125
8023		72.265625
8024		62.500000
8025		70.312500
8026		58.593750
8027		66.406250
8028		58.593750
8029		64.453125
8030		56.640625
8031		62.500000
8032		54.687500
8033		58.593750
8034		50.781250
8035		56.640625
8036		48.828125
8037		54.687500
8038		44.921875
8039		52.734375
8040		42.968750
8041		50.781250
8042		41.015625
8043		46.875000
8044		37.109375
8045		46.875000
8046		35.156250
8047		42.968750
8048		33.203125
8049		39.062500
8050		31.250000
8051		37.109375
8052		27.343750
8053		35.156250
8054		25.390625
8055		31.250000
8056		21.484375
8057		29.296875
8058		17.578125
8059		27.343750
8060		15.625000
8061		25.390625
8062		13.671875
8063		21.484375
8064		11.718750
8065		17.578125
8066		9.765625
8067		15.625000
8068		3.906250
8069		11.718750
8070		1.953125
8071		9.765625
8072		-1.953125
8073		7.812500
8074		-3.906250
8075		3.906250
8076		-5.859375
8077		1.953125
8078		-9.765625
8079		-1.953125
8080		-9.765625
8081		-3.906250
8082		-13.671875
8083		-7.812500
8084		-15.625000
8085		-9.765625
8086		-21.484375
8087		-11.718750
8088		-23.437500
8089		-15.625000
8090		-25.390625
8091		-17.578125
8092		-27.343750
8093		-19.531250
8094		-31.250000
8095		-23.437500
8096		-33.203125
8097		-25.390625
8098		-35.156250
8099		-29.296875
8100		-37.109375
8101		-33.203125
8102		-41.015625
8103		-35.156250
8104		-42.968750
8105		-35.156250
8106		-46.875000
8107		-39.062500
8108		-48.828125
8109		-41.015625
8110		-52.734375
8111		-42.968750
8112		-52.734375
8113		-46.875000
8114		-54.687500
8115		-48.828125
8116		-56.640625
8117		-52.734375
8118		-60.546875
8119		-54.687500
8120		-62.500000
8121		-54.687500
8122		-66.406250
8123		-56.640625
8124		-68.359375
8125		-60.546875
8126		-70.312500
8127		-62.500000
8128		-70.312500
8129		-64.453125
8130		-72.265625
8131		-66.406250
8132		-74.218750
8133		-70.312500
8134		-76.171875
8135		-70.312500
8136		-78.125000
8137		-72.265625
8138		-82.031250
8139		-72.265625
8140		-82.031250
8141		-76.171875
8142		-83.984375
8143		-78.125000
8144		-85.937500
8145		-78.125000
8146		-87.890625
8147		-80.078125
8148		-87.890625
8149		-82.031250
8150		-87.890625
8151		-83.984375
8152		-91.796875
8153		-85.937500
8154		-91.796875
8155		-83.984375
8156		-93.750000
8157		-85.937500
8158		-93.750000
8159		-87.890625
8160		-95.703125
8161		-87.890625
8162		-95.703125
8163		-89.843750
8164		-97.656250
8165		-89.843750
8166		-95.703125
8167		-91.796875
8168		-95.703125
8169		-93.750000
8170		-99.609375
8171		-91.796875
8172		-99.609375
8173		-93.750000
8174		-99.609375
8175		-93.750000
8176		-101.562500
8177		-93.750000
8178		-101.562500
8179		-93.750000
8180		-99.609375
8181		-93.750000
8182		-99.609375
8183		-95.703125
8184		-99.609375
8185		-95.703125
8186		-101.562500
8187		-93.750000
8188		-101.562500
8189		-93.750000
8190		-99.609375
8191		-93.750000
8192		-99.609375
8193		-93.750000
8194		-99.609375
8195		-93.750000
8196		-99.609375
8197		-91.796875
8198		-97.656250
8199		-91.796875
8200		-95.703125
8201		-91.796875
8202		-95.703125
8203		-89.843750
8204		-95.703125
8205		-89.843750
8206		-95.703125
8207		-87.890625
8208		-93.750000
8209		-87.890625
8210		-93.750000
8211		-87.890625
8212		-93.750000
8213		-85.937500
8214		-91.796875
8215		-85.937500
8216		-87.890625
8217		-83.984375
8218		-85.937500
8219		-82.031250
8220		-85.937500
8221		-80.078125
8222		-85.937500
8223		-78.125000
8224		-83.984375
8225		-78.125000
8226		-82.031250
8227		-74.218750
8228		-80.078125
8229		-74.218750
8230		-78.125000
8231		-72.265625
8232		-76.171875
8233		-70.312500
8234		-74.218750
8235		-70.312500
8236		-72.265625
8237		-66.406250
8238		-72.265625
8239		-64.453125
8240		-68.359375
8241		-62.500000
8242		-68.359375
8243		-58.593750
8244		-64.453125
8245		-56.640625
8246		-62.500000
8247		-54.687500
8248		-60.546875
8249		-54.687500
8250		-56.640625
8251		-52.734375
8252		-54.687500
8253		-48.828125
8254		-52.734375
8255		-44.921875
8256		-50.781250
8257		-42.968750
8258		-48.828125
8259		-41.015625
8260		-44.921875
8261		-39.062500
8262		-42.968750
8263		-35.156250
8264		-41.015625
8265		-33.203125
8266		-37.109375
8267		-31.250000
8268		-33.203125
8269		-29.296875
8270		-31.250000
8271		-25.390625
8272		-29.296875
8273		-21.484375
8274		-27.343750
8275		-19.531250
8276		-23.437500
8277		-17.578125
8278		-23.437500
8279		-13.671875
8280		-19.531250
8281		-11.718750
8282		-15.625000
8283		-9.765625
8284		-11.718750
8285		-7.812500
8286		-9.765625
8287		-3.906250
8288		-7.812500
8289		0.000000
8290		-3.906250
8291		3.906250
8292		-1.953125
8293		5.859375
8294		0.000000
8295		7.812500
8296		3.906250
8297		11.718750
8298		5.859375
8299		13.671875
8300		9.765625
8301		15.625000
8302		13.671875
8303		17.578125
8304		15.625000
8305		23.437500
8306		17.578125
8307		25.390625
8308		19.531250
8309		27.343750
8310		23.437500
8311		31.250000
8312		25.390625
8313		33.203125
8314		27.343750
8315		35.156250
8316		31.250000
8317		37.109375
8318		35.156250
8319		39.062500
8320		37.109375
8321		42.968750
8322		39.062500
8323		46.875000
8324		41.015625
8325		48.828125
8326		42.968750
8327		50.781250
8328		46.875000
8329		52.734375
8330		48.828125
8331		56.640625
8332		50.781250
8333		56.640625
8334		54.687500
8335		58.593750
8336		56.640625
8337		62.500000
8338		56.640625
8339		66.406250
8340		58.593750
8341		68.359375
8342		62.500000
8343		68.359375
8344		64.453125
8345		70.312500
8346		66.406250
8347		74.218750
8348		68.359375
8349		76.171875
8350		70.312500
8351		76.171875
8352		74.218750
8353		78.125000
8354		74.218750
8355		80.078125
8356		76.171875
8357		82.031250
8358		78.125000
8359		85.937500
8360		80.078125
8361		85.937500
8362		80.078125
8363		87.890625
8364		82.031250
8365		89.843750
8366		83.984375
8367		91.796875
8368		87.890625
8369		91.796875
8370		89.843750
8371		93.750000
8372		89.843750
8373		97.656250
8374		89.843750
8375		97.656250
8376		91.796875
8377		99.609375
8378		91.796875
8379		99.609375
8380		93.750000
8381		101.562500
8382		95.703125
8383		103.515625
8384		97.656250
8385		101.562500
8386		99.609375
8387		103.515625
8388		99.609375
8389		105.468750
8390		99.609375
8391		105.468750
8392		99.609375
8393		107.421875
8394		101.562500
8395		107.421875
8396		101.562500
8397		109.375000
8398		103.515625
8399		109.375000
8400		105.468750
8401		109.375000
8402		105.468750
8403		109.375000
8404		103.515625
8405		111.328125
8406		105.468750
8407		111.328125
8408		105.468750
8409		111.328125
8410		105.468750
8411		111.328125
8412		105.468750
8413		111.328125
8414		105.468750
8415		111.328125
8416		107.421875
8417		113.281250
8418		107.421875
8419		111.328125
8420		107.421875
8421		111.328125
8422		105.468750
8423		113.281250
8424		105.468750
8425		113.281250
8426		105.468750
8427		113.281250
8428		105.468750
8429		113.281250
8430		105.468750
8431		111.328125
8432		105.468750
8433		111.328125
8434		105.468750
8435		109.375000
8436		105.468750
8437		109.375000
8438		103.515625
8439		111.328125
8440		103.515625
8441		109.375000
8442		101.562500
8443		109.375000
8444		101.562500
8445		109.375000
8446		101.562500
8447		107.421875
8448		99.609375
8449		105.468750
8450		99.609375
8451		105.468750
8452		99.609375
8453		103.515625
8454		97.656250
8455		101.562500
8456		95.703125
8457		101.562500
8458		95.703125
8459		101.562500
8460		93.750000
8461		101.562500
8462		91.796875
8463		99.609375
8464		91.796875
8465		97.656250
8466		89.843750
8467		95.703125
8468		89.843750
8469		93.750000
8470		87.890625
8471		91.796875
8472		85.937500
8473		91.796875
8474		83.984375
8475		91.796875
8476		82.031250
8477		89.843750
8478		80.078125
8479		87.890625
8480		78.125000
8481		83.984375
8482		76.171875
8483		82.031250
8484		76.171875
8485		82.031250
8486		74.218750
8487		78.125000
8488		70.312500
8489		76.171875
8490		68.359375
8491		76.171875
8492		66.406250
8493		72.265625
8494		62.500000
8495		70.312500
8496		62.500000
8497		68.359375
8498		58.593750
8499		66.406250
8500		58.593750
8501		64.453125
8502		56.640625
8503		60.546875
8504		54.687500
8505		58.593750
8506		50.781250
8507		58.593750
8508		46.875000
8509		56.640625
8510		44.921875
8511		52.734375
8512		42.968750
8513		50.781250
8514		41.015625
8515		48.828125
8516		37.109375
8517		46.875000
8518		37.109375
8519		41.015625
8520		35.156250
8521		39.062500
8522		31.250000
8523		37.109375
8524		27.343750
8525		35.156250
8526		23.437500
8527		33.203125
8528		21.484375
8529		31.250000
8530		19.531250
8531		27.343750
8532		15.625000
8533		23.437500
8534		15.625000
8535		21.484375
8536		11.718750
8537		17.578125
8538		9.765625
8539		15.625000
8540		3.906250
8541		13.671875
8542		1.953125
8543		11.718750
8544		0.000000
8545		7.812500
8546		-1.953125
8547		5.859375
8548		-5.859375
8549		1.953125
8550		-7.812500
8551		0.000000
8552		-9.765625
8553		-3.906250
8554		-11.718750
8555		-7.812500
8556		-17.578125
8557		-9.765625
8558		-19.531250
8559		-11.718750
8560		-23.437500
8561		-13.671875
8562		-25.390625
8563		-17.578125
8564		-27.343750
8565		-19.531250
8566		-31.250000
8567		-23.437500
8568		-31.250000
8569		-25.390625
8570		-35.156250
8571		-29.296875
8572		-39.062500
8573		-31.250000
8574		-41.015625
8575		-33.203125
8576		-42.968750
8577		-35.156250
8578		-46.875000
8579		-39.062500
8580		-48.828125
8581		-41.015625
8582		-50.781250
8583		-42.968750
8584		-52.734375
8585		-44.921875
8586		-54.687500
8587		-48.828125
8588		-56.640625
8589		-52.734375
8590		-60.546875
8591		-52.734375
8592		-62.500000
8593		-54.687500
8594		-66.406250
8595		-56.640625
8596		-66.406250
8597		-60.546875
8598		-70.312500
8599		-62.500000
8600		-70.312500
8601		-62.500000
8602		-72.265625
8603		-66.406250
8604		-74.218750
8605		-68.359375
8606		-76.171875
8607		-70.312500
8608		-78.125000
8609		-70.312500
8610		-80.078125
8611		-72.265625
8612		-82.031250
8613		-76.171875
8614		-83.984375
8615		-76.171875
8616		-85.937500
8617		-80.078125
8618		-85.937500
8619		-80.078125
8620		-85.937500
8621		-82.031250
8622		-87.890625
8623		-83.984375
8624		-91.796875
8625		-83.984375
8626		-91.796875
8627		-85.937500
8628		-93.750000
8629		-85.937500
8630		-93.750000
8631		-87.890625
8632		-95.703125
8633		-87.890625
8634		-95.703125
8635		-89.843750
8636		-95.703125
8637		-91.796875
8638		-95.703125
8639		-91.796875
8640		-97.656250
8641		-91.796875
8642		-97.656250
8643		-91.796875
8644		-97.656250
8645		-91.796875
8646		-99.609375
8647		-91.796875
8648		-99.609375
8649		-93.750000
8650		-99.609375
8651		-93.750000
8652		-99.609375
8653		-93.750000
8654		-97.656250
8655		-95.703125
8656		-97.656250
8657		-93.750000
8658		-99.609375
8659		-93.750000
8660		-99.609375
8661		-93.750000
8662		-99.609375
8663		-91.796875
8664		-99.609375
8665		-91.796875
8666		-97.656250
8667		-91.796875
8668		-97.656250
8669		-91.796875
8670		-95.703125
8671		-91.796875
8672		-95.703125
8673		-91.796875
8674		-95.703125
8675		-89.843750
8676		-95.703125
8677		-87.890625
8678		-93.750000
8679		-87.890625
8680		-95.703125
8681		-85.937500
8682		-91.796875
8683		-85.937500
8684		-91.796875
8685		-83.984375
8686		-87.890625
8687		-83.984375
8688		-87.890625
8689		-82.031250
8690		-85.937500
8691		-80.078125
8692		-85.937500
8693		-78.125000
8694		-83.984375
8695		-76.171875
8696		-82.031250
8697		-76.171875
8698		-82.031250
8699		-74.218750
8700		-80.078125
8701		-72.265625
8702		-78.125000
8703		-72.265625
8704		-74.218750
8705		-70.312500
8706		-72.265625
8707		-68.359375
8708		-72.265625
8709		-64.453125
8710		-70.312500
8711		-62.500000
8712		-68.359375
8713		-60.546875
8714		-66.406250
8715		-58.593750
8716		-64.453125
8717		-56.640625
8718		-60.546875
8719		-54.687500
8720		-58.593750
8721		-52.734375
8722		-54.687500
8723		-50.781250
8724		-52.734375
8725		-46.875000
8726		-52.734375
8727		-44.921875
8728		-50.781250
8729		-41.015625
8730		-46.875000
8731		-39.062500
8732		-44.921875
8733		-37.109375
8734		-42.968750
8735		-35.156250
8736		-39.062500
8737		-33.203125
8738		-35.156250
8739		-29.296875
8740		-33.203125
8741		-27.343750
8742		-31.250000
8743		-23.437500
8744		-29.296875
8745		-19.531250
8746		-25.390625
8747		-17.578125
8748		-23.437500
8749		-13.671875
8750		-21.484375
8751		-13.671875
8752		-17.578125
8753		-9.765625
8754		-13.671875
8755		-7.812500
8756		-9.765625
8757		-5.859375
8758		-7.812500
8759		-1.953125
8760		-5.859375
8761		1.953125
8762		-3.906250
8763		3.906250
8764		0.000000
8765		7.812500
8766		0.000000
8767		9.765625
8768		5.859375
8769		11.718750
8770		7.812500
8771		13.671875
8772		11.718750
8773		17.578125
8774		13.671875
8775		19.531250
8776		15.625000
8777		23.437500
8778		19.531250
8779		25.390625
8780		21.484375
8781		29.296875
8782		23.437500
8783		31.250000
8784		27.343750
8785		35.156250
8786		29.296875
8787		37.109375
8788		33.203125
8789		39.062500
8790		35.156250
8791		41.015625
8792		37.109375
8793		44.921875
8794		39.062500
8795		46.875000
8796		42.968750
8797		50.781250
8798		44.921875
8799		52.734375
8800		46.875000
8801		54.687500
8802		50.781250
8803		58.593750
8804		50.781250
8805		58.593750
8806		56.640625
8807		60.546875
8808		56.640625
8809		64.453125
8810		60.546875
8811		66.406250
8812		60.546875
8813		68.359375
8814		62.500000
8815		70.312500
8816		64.453125
8817		72.265625
8818		66.406250
8819		74.218750
8820		68.359375
8821		76.171875
8822		72.265625
8823		78.125000
8824		74.218750
8825		80.078125
8826		74.218750
8827		82.031250
8828		78.125000
8829		83.984375
8830		78.125000
8831		85.937500
8832		80.078125
8833		87.890625
8834		82.031250
8835		87.890625
8836		83.984375
8837		91.796875
8838		87.890625
8839		91.796875
8840		87.890625
8841		91.796875
8842		89.843750
8843		93.750000
8844		89.843750
8845		95.703125
8846		91.796875
8847		97.656250
8848		93.750000
8849		97.656250
8850		93.750000
8851		99.609375
8852		95.703125
8853		101.562500
8854		95.703125
8855		101.562500
8856		99.609375
8857		101.562500
8858		97.656250
8859		103.515625
8860		99.609375
8861		105.468750
8862		99.609375
8863		105.468750
8864		99.609375
8865		107.421875
8866		101.562500
8867		107.421875
8868		101.562500
8869		109.375000
8870		103.515625
8871		109.375000
8872		105.468750
8873		109.375000
8874		105.468750
8875		109.375000
8876		103.515625
8877		111.328125
8878		105.468750
8879		111.328125
8880		105.468750
8881		111.328125
8882		105.468750
8883		111.328125
8884		105.468750
8885		113.281250
8886		105.468750
8887		111.328125
8888		107.421875
8889		111.328125
8890		107.421875
8891		111.328125
8892		107.421875
8893		111.328125
8894		105.468750
8895		113.281250
8896		105.468750
8897		113.281250
8898		105.468750
8899		113.281250
8900		105.468750
8901		111.328125
8902		105.468750
8903		111.328125
8904		105.468750
8905		111.328125
8906		105.468750
8907		109.375000
8908		103.515625
8909		109.375000
8910		103.515625
8911		109.375000
8912		101.562500
8913		109.375000
8914		101.562500
8915		109.375000
8916		101.562500
8917		107.421875
8918		99.609375
8919		107.421875
8920		99.609375
8921		105.468750
8922		99.609375
8923		103.515625
8924		99.609375
8925		101.562500
8926		95.703125
8927		103.515625
8928		95.703125
8929		101.562500
8930		93.750000
8931		101.562500
8932		93.750000
8933		99.609375
8934		91.796875
8935		97.656250
8936		89.843750
8937		97.656250
8938		89.843750
8939		95.703125
8940		87.890625
8941		91.796875
8942		85.937500
8943		91.796875
8944		83.984375
8945		89.843750
8946		83.984375
8947		89.843750
8948		80.078125
8949		87.890625
8950		78.125000
8951		85.937500
8952		76.171875
8953		83.984375
8954		76.171875
8955		82.031250
8956		74.218750
8957		80.078125
8958		72.265625
8959		78.125000
8960		70.312500
8961		76.171875
8962		68.359375
8963		76.171875
8964		64.453125
8965		74.218750
8966		62.500000
8967		70.312500
8968		60.546875
8969		68.359375
8970		56.640625
8971		66.406250
8972		58.593750
8973		64.453125
8974		54.687500
8975		60.546875
8976		50.781250
8977		58.593750
8978		48.828125
8979		56.640625
8980		46.875000
8981		54.687500
8982		44.921875
8983		52.734375
8984		42.968750
8985		48.828125
8986		39.062500
8987		46.875000
8988		39.062500
8989		44.921875
8990		35.156250
8991		41.015625
8992		33.203125
8993		37.109375
8994		27.343750
8995		37.109375
8996		25.390625
8997		35.156250
8998		23.437500
8999		31.250000
9000		21.484375
9001		29.296875
9002		17.578125
9003		25.390625
9004		15.625000
9005		23.437500
9006		13.671875
9007		19.531250
9008		11.718750
9009		15.625000
9010		7.812500
9011		13.671875
9012		3.906250
9013		11.718750
9014		1.953125
9015		9.765625
9016		-1.953125
9017		5.859375
9018		-3.906250
9019		3.906250
9020		-7.812500
9021		0.000000
9022		-7.812500
9023		-1.953125
9024		-11.718750
9025		-5.859375
9026		-13.671875
9027		-9.765625
9028		-17.578125
9029		-9.765625
9030		-19.531250
9031		-13.671875
9032		-23.437500
9033		-15.625000
9034		-25.390625
9035		-17.578125
9036		-29.296875
9037		-21.484375
9038		-31.250000
9039		-23.437500
9040		-33.203125
9041		-29.296875
9042		-35.156250
9043		-31.250000
9044		-39.062500
9045		-33.203125
9046		-41.015625
9047		-35.156250
9048		-42.968750
9049		-37.109375
9050		-46.875000
9051		-41.015625
9052		-48.828125
9053		-42.968750
9054		-52.734375
9055		-44.921875
9056		-52.734375
9057		-46.875000
9058		-56.640625
9059		-50.781250
9060		-58.593750
9061		-52.734375
9062		-62.500000
9063		-54.687500
9064		-64.453125
9065		-56.640625
9066		-66.406250
9067		-58.593750
9068		-66.406250
9069		-60.546875
9070		-70.312500
9071		-62.500000
9072		-72.265625
9073		-64.453125
9074		-72.265625
9075		-68.359375
9076		-74.218750
9077		-70.312500
9078		-78.125000
9079		-70.312500
9080		-78.125000
9081		-72.265625
9082		-82.031250
9083		-74.218750
9084		-82.031250
9085		-76.171875
9086		-83.984375
9087		-78.125000
9088		-85.937500
9089		-80.078125
9090		-85.937500
9091		-82.031250
9092		-87.890625
9093		-83.984375
9094		-89.843750
9095		-83.984375
9096		-91.796875
9097		-83.984375
9098		-91.796875
9099		-85.937500
9100		-93.750000
9101		-87.890625
9102		-93.750000
9103		-87.890625
9104		-95.703125
9105		-89.843750
9106		-95.703125
9107		-89.843750
9108		-95.703125
9109		-91.796875
9110		-95.703125
9111		-91.796875
9112		-97.656250
9113		-91.796875
9114		-99.609375
9115		-91.796875
9116		-99.609375
9117		-93.750000
9118		-99.609375
9119		-93.750000
9120		-99.609375
9121		-93.750000
9122		-99.609375
9123		-93.750000
9124		-97.656250
9125		-95.703125
9126		-97.656250
9127		-95.703125
9128		-99.609375
9129		-93.750000
9130		-99.609375
9131		-93.750000
9132		-99.609375
9133		-93.750000
9134		-99.609375
9135		-93.750000
9136		-99.609375
9137		-91.796875
9138		-99.609375
9139		-91.796875
9140		-97.656250
9141		-91.796875
9142		-95.703125
9143		-91.796875
9144		-97.656250
9145		-89.843750
9146		-95.703125
9147		-87.890625
9148		-95.703125
9149		-87.890625
9150		-93.750000
9151		-87.890625
9152		-93.750000
9153		-85.937500
9154		-91.796875
9155		-85.937500
9156		-91.796875
9157		-83.984375
9158		-87.890625
9159		-83.984375
9160		-85.937500
9161		-82.031250
9162		-85.937500
9163		-80.078125
9164		-85.937500
9165		-78.125000
9166		-83.984375
9167		-76.171875
9168		-83.984375
9169		-76.171875
9170		-80.078125
9171		-74.218750
9172		-80.078125
9173		-72.265625
9174		-76.171875
9175		-70.312500
9176		-74.218750
9177		-70.312500
9178		-72.265625
9179		-66.406250
9180		-70.312500
9181		-62.500000
9182		-68.359375
9183		-62.500000
9184		-66.406250
9185		-58.593750
9186		-64.453125
9187		-56.640625
9188		-64.453125
9189		-54.687500
9190		-60.546875
9191		-54.687500
9192		-56.640625
9193		-52.734375
9194		-54.687500
9195		-48.828125
9196		-52.734375
9197		-44.921875
9198		-50.781250
9199		-42.968750
9200		-46.875000
9201		-41.015625
9202		-44.921875
9203		-39.062500
9204		-42.968750
9205		-37.109375
9206		-41.015625
9207		-33.203125
9208		-37.109375
9209		-31.250000
9210		-33.203125
9211		-29.296875
9212		-33.203125
9213		-25.390625
9214		-31.250000
9215		-23.437500
9216		-27.343750
9217		-19.531250
9218		-23.437500
9219		-15.625000
9220		-21.484375
9221		-13.671875
9222		-19.531250
9223		-9.765625
9224		-15.625000
9225		-9.765625
9226		-11.718750
9227		-5.859375
9228		-9.765625
9229		-1.953125
9230		-7.812500
9231		0.000000
9232		-3.906250
9233		3.906250
9234		-3.906250
9235		5.859375
9236		0.000000
9237		7.812500
9238		3.906250
9239		11.718750
9240		5.859375
9241		13.671875
9242		9.765625
9243		15.625000
9244		13.671875
9245		17.578125
9246		15.625000
9247		21.484375
9248		17.578125
9249		25.390625
9250		19.531250
9251		27.343750
9252		21.484375
9253		31.250000
9254		25.390625
9255		33.203125
9256		29.296875
9257		37.109375
9258		31.250000
9259		37.109375
9260		35.156250
9261		39.062500
9262		37.109375
9263		44.921875
9264		39.062500
9265		44.921875
9266		41.015625
9267		48.828125
9268		42.968750
9269		50.781250
9270		44.921875
9271		52.734375
9272		48.828125
9273		54.687500
9274		50.781250
9275		56.640625
9276		54.687500
9277		58.593750
9278		56.640625
9279		64.453125
9280		56.640625
9281		66.406250
9282		60.546875
9283		68.359375
9284		62.500000
9285		70.312500
9286		64.453125
9287		72.265625
9288		66.406250
9289		74.218750
9290		68.359375
9291		76.171875
9292		72.265625
9293		76.171875
9294		74.218750
9295		78.125000
9296		74.218750
9297		82.031250
9298		76.171875
9299		83.984375
9300		78.125000
9301		85.937500
9302		80.078125
9303		87.890625
9304		82.031250
9305		87.890625
9306		83.984375
9307		89.843750
9308		83.984375
9309		91.796875
9310		87.890625
9311		91.796875
9312		89.843750
9313		95.703125
9314		89.843750
9315		97.656250
9316		89.843750
9317		97.656250
9318		91.796875
9319		97.656250
9320		93.750000
9321		101.562500
9322		95.703125
9323		101.562500
9324		95.703125
9325		101.562500
9326		97.656250
9327		103.515625
9328		99.609375
9329		103.515625
9330		97.656250
9331		105.468750
9332		99.609375
9333		107.421875
9334		101.562500
9335		107.421875
9336		101.562500
9337		107.421875
9338		103.515625
9339		109.375000
9340		103.515625
9341		109.375000
9342		103.515625
9343		109.375000
9344		105.468750
9345		109.375000
9346		105.468750
9347		111.328125
9348		105.468750
9349		111.328125
9350		105.468750
9351		113.281250
9352		105.468750
9353		113.281250
9354		107.421875
9355		113.281250
9356		105.468750
9357		113.281250
9358		107.421875
9359		113.281250
9360		107.421875
9361		111.328125
9362		107.421875
9363		113.281250
9364		107.421875
9365		113.281250
9366		105.468750
9367		113.281250
9368		105.468750
9369		113.281250
9370		107.421875
9371		113.281250
9372		105.468750
9373		113.281250
9374		105.468750
9375		111.328125
9376		107.421875
9377		109.375000
9378		107.421875
9379		109.375000
9380		105.468750
9381		111.328125
9382		103.515625
9383		111.328125
9384		103.515625
9385		109.375000
9386		103.515625
9387		109.375000
9388		101.562500
9389		109.375000
9390		101.562500
9391		107.421875
9392		101.562500
9393		107.421875
9394		99.609375
9395		103.515625
9396		97.656250
9397		103.515625
9398		95.703125
9399		103.515625
9400		95.703125
9401		101.562500
9402		95.703125
9403		101.562500
9404		93.750000
9405		99.609375
9406		91.796875
9407		97.656250
9408		91.796875
9409		97.656250
9410		89.843750
9411		93.750000
9412		89.843750
9413		93.750000
9414		85.937500
9415		91.796875
9416		83.984375
9417		91.796875
9418		83.984375
9419		89.843750
9420		80.078125
9421		87.890625
9422		80.078125
9423		85.937500
9424		78.125000
9425		83.984375
9426		76.171875
9427		82.031250
9428		74.218750
9429		80.078125
9430		72.265625
9431		78.125000
9432		70.312500
9433		76.171875
9434		66.406250
9435		74.218750
9436		64.453125
9437		74.218750
9438		62.500000
9439		70.312500
9440		60.546875
9441		68.359375
9442		58.593750
9443		64.453125
9444		58.593750
9445		62.500000
9446		54.687500
9447		60.546875
9448		52.734375
9449		58.593750
9450		48.828125
9451		56.640625
9452		46.875000
9453		54.687500
9454		42.968750
9455		52.734375
9456		41.015625
9457		48.828125
9458		39.062500
9459		46.875000
9460		37.109375
9461		42.968750
9462		35.156250
9463		41.015625
9464		31.250000
9465		37.109375
9466		29.296875
9467		37.109375
9468		27.343750
9469		33.203125
9470		21.484375
9471		31.250000
9472		19.531250
9473		29.296875
9474		17.578125
9475		25.390625
9476		15.625000
9477		23.437500
9478		13.671875
9479		19.531250
9480		9.765625
9481		15.625000
9482		5.859375
9483		13.671875
9484		3.906250
9485		13.671875
9486		1.953125
9487		7.812500
9488		-1.953125
9489		5.859375
9490		-3.906250
9491		3.906250
9492		-5.859375
9493		0.000000
9494		-7.812500
9495		-3.906250
9496		-11.718750
9497		-5.859375
9498		-15.625000
9499		-7.812500
9500		-17.578125
9501		-9.765625
9502		-21.484375
9503		-13.671875
9504		-23.437500
9505		-15.625000
9506		-25.390625
9507		-19.531250
9508		-29.296875
9509		-21.484375
9510		-31.250000
9511		-23.437500
9512		-33.203125
9513		-27.343750
9514		-37.109375
9515		-31.250000
9516		-39.062500
9517		-31.250000
9518		-42.968750
9519		-35.156250
9520		-44.921875
9521		-37.109375
9522		-46.875000
9523		-39.062500
9524		-48.828125
9525		-42.968750
9526		-50.781250
9527		-44.921875
9528		-52.734375
9529		-48.828125
9530		-56.640625
9531		-50.781250
9532		-58.593750
9533		-52.734375
9534		-60.546875
9535		-54.687500
9536		-64.453125
9537		-54.687500
9538		-66.406250
9539		-58.593750
9540		-68.359375
9541		-60.546875
9542		-70.312500
9543		-62.500000
9544		-70.312500
9545		-66.406250
9546		-72.265625
9547		-68.359375
9548		-76.171875
9549		-68.359375
9550		-78.125000
9551		-70.312500
9552		-80.078125
9553		-72.265625
9554		-82.031250
9555		-74.218750
9556		-83.984375
9557		-74.218750
9558		-83.984375
9559		-76.171875
9560		-83.984375
9561		-80.078125
9562		-85.937500
9563		-82.031250
9564		-87.890625
9565		-82.031250
9566		-89.843750
9567		-83.984375
9568		-91.796875
9569		-83.984375
9570		-91.796875
9571		-85.937500
9572		-93.750000
9573		-85.937500
9574		-93.750000
9575		-87.890625
9576		-95.703125
9577		-87.890625
9578		-93.750000
9579		-91.796875
9580		-95.703125
9581		-91.796875
9582		-97.656250
9583		-89.843750
9584		-97.656250
9585		-91.796875
9586		-99.609375
9587		-91.796875
9588		-99.609375
9589		-91.796875
9590		-99.609375
9591		-91.796875
9592		-99.609375
9593		-91.796875
9594		-99.609375
9595		-93.750000
9596		-97.656250
9597		-93.750000
9598		-99.609375
9599		-93.750000
9600		-99.609375
9601		-93.750000
9602		-99.609375
9603		-91.796875
9604		-99.609375
9605		-91.796875
9606		-99.609375
9607		-91.796875
9608		-99.609375
9609		-91.796875
9610		-97.656250
9611		-91.796875
9612		-95.703125
9613		-91.796875
9614		-95.703125
9615		-91.796875
9616		-95.703125
9617		-89.843750
9618		-95.703125
9619		-89.843750
9620		-95.703125
9621		-87.890625
9622		-93.750000
9623		-85.937500
9624		-91.796875
9625		-85.937500
9626		-91.796875
9627		-83.984375
9628		-87.890625
9629		-83.984375
9630		-87.890625
9631		-83.984375
9632		-87.890625
9633		-80.078125
9634		-85.937500
9635		-80.078125
9636		-83.984375
9637		-78.125000
9638		-82.031250
9639		-76.171875
9640		-82.031250
9641		-74.218750
9642		-80.078125
9643		-72.265625
9644		-78.125000
9645		-72.265625
9646		-74.218750
9647		-70.312500
9648		-72.265625
9649		-66.406250
9650		-72.265625
9651		-64.453125
9652		-70.312500
9653		-62.500000
9654		-68.359375
9655		-60.546875
9656		-66.406250
9657		-58.593750
9658		-64.453125
9659		-56.640625
9660		-60.546875
9661		-54.687500
9662		-58.593750
9663		-52.734375
9664		-54.687500
9665		-50.781250
9666		-54.687500
9667		-46.875000
9668		-50.781250
9669		-44.921875
9670		-50.781250
9671		-42.968750
9672		-46.875000
9673		-39.062500
9674		-44.921875
9675		-37.109375
9676		-42.968750
9677		-35.156250
9678		-39.062500
9679		-33.203125
9680		-35.156250
9681		-31.250000
9682		-33.203125
9683		-25.390625
9684		-31.250000
9685		-23.437500
9686		-29.296875
9687		-21.484375
9688		-25.390625
9689		-17.578125
9690		-23.437500
9691		-15.625000
9692		-21.484375
9693		-13.671875
9694		-17.578125
9695		-11.718750
9696		-13.671875
9697		-7.812500
9698		-11.718750
9699		-5.859375
9700		-9.765625
9701		-1.953125
9702		-5.859375
9703		1.953125
9704		-3.906250
9705		3.906250
9706		0.000000
9707		7.812500
9708		1.953125
9709		9.765625
9710		3.906250
9711		11.718750
9712		9.765625
9713		13.671875
9714		11.718750
9715		15.625000
9716		13.671875
9717		21.484375
9718		15.625000
9719		23.437500
9720		17.578125
9721		25.390625
9722		21.484375
9723		29.296875
9724		23.437500
9725		31.250000
9726		25.390625
9727		33.203125
9728		29.296875
9729		35.156250
9730		33.203125
9731		37.109375
9732		35.156250
9733		41.015625
9734		37.109375
9735		44.921875
9736		39.062500
9737		46.875000
9738		41.015625
9739		48.828125
9740		44.921875
9741		52.734375
9742		46.875000
9743		54.687500
9744		48.828125
9745		56.640625
9746		52.734375
9747		58.593750
9748		56.640625
9749		60.546875
9750		56.640625
9751		64.453125
9752		58.593750
9753		66.406250
9754		60.546875
9755		68.359375
9756		62.500000
9757		70.312500
9758		66.406250
9759		72.265625
9760		68.359375
9761		74.218750
9762		70.312500
9763		74.218750
9764		72.265625
9765		78.125000
9766		74.218750
9767		80.078125
9768		74.218750
9769		82.031250
9770		76.171875
9771		85.937500
9772		78.125000
9773		85.937500
9774		80.078125
9775		87.890625
9776		82.031250
9777		89.843750
9778		83.984375
9779		89.843750
9780		87.890625
9781		91.796875
9782		87.890625
9783		91.796875
9784		87.890625
9785		95.703125
9786		89.843750
9787		97.656250
9788		91.796875
9789		97.656250
9790		91.796875
9791		99.609375
9792		93.750000
9793		101.562500
9794		93.750000
9795		101.562500
9796		97.656250
9797		101.562500
9798		99.609375
9799		103.515625
9800		99.609375
9801		105.468750
9802		97.656250
9803		105.468750
9804		99.609375
9805		107.421875
9806		101.562500
9807		107.421875
9808		101.562500
9809		109.375000
9810		101.562500
9811		109.375000
9812		103.515625
9813		109.375000
9814		105.468750
9815		109.375000
9816		105.468750
9817		111.328125
9818		103.515625
9819		111.328125
9820		105.468750
9821		111.328125
9822		105.468750
9823		113.281250
9824		105.468750
9825		113.281250
9826		105.468750
9827		113.281250
9828		107.421875
9829		113.281250
9830		107.421875
9831		111.328125
9832		107.421875
9833		111.328125
9834		107.421875
9835		113.281250
9836		107.421875
9837		113.281250
9838		105.468750
9839		113.281250
9840		105.468750
9841		113.281250
9842		105.468750
9843		111.328125
9844		105.468750
9845		111.328125
9846		105.468750
9847		111.328125
9848		107.421875
9849		109.375000
9850		105.468750
9851		111.328125
9852		103.515625
9853		111.328125
9854		103.515625
9855		109.375000
9856		101.562500
9857		109.375000
9858		101.562500
9859		109.375000
9860		101.562500
9861		107.421875
9862		99.609375
9863		105.468750
9864		101.562500
9865		105.468750
9866		99.609375
9867		103.515625
9868		95.703125
9869		103.515625
9870		95.703125
9871		101.562500
9872		95.703125
9873		101.562500
9874		93.750000
9875		101.562500
9876		91.796875
9877		97.656250
9878		89.843750
9879		97.656250
9880		91.796875
9881		95.703125
9882		89.843750
9883		93.750000
9884		85.937500
9885		93.750000
9886		83.984375
9887		91.796875
9888		82.031250
9889		89.843750
9890		82.031250
9891		87.890625
9892		80.078125
9893		87.890625
9894		76.171875
9895		85.937500
9896		78.125000
9897		83.984375
9898		76.171875
9899		80.078125
9900		72.265625
9901		78.125000
9902		70.312500
9903		78.125000
9904		68.359375
9905		76.171875
9906		66.406250
9907		74.218750
9908		64.453125
9909		70.312500
9910		62.500000
9911		68.359375
9912		60.546875
9913		66.406250
9914		58.593750
9915		62.500000
9916		56.640625
9917		60.546875
9918		50.781250
9919		60.546875
9920		48.828125
9921		56.640625
9922		46.875000
9923		54.687500
9924		44.921875
9925		52.734375
9926		42.968750
9927		48.828125
9928		41.015625
9929		46.875000
9930		39.062500
9931		44.921875
9932		37.109375
9933		41.015625
9934		33.203125
9935		39.062500
9936		31.250000
9937		37.109375
9938		27.343750
9939		35.156250
9940		23.437500
9941		31.250000
9942		21.484375
9943		29.296875
9944		19.531250
9945		27.343750
9946		15.625000
9947		23.437500
9948		15.625000
9949		19.531250
9950		11.718750
9951		17.578125
9952		7.812500
9953		13.671875
9954		5.859375
9955		11.718750
9956		1.953125
9957		9.765625
9958		-1.953125
9959		5.859375
9960		-3.906250
9961		5.859375
9962		-5.859375
9963		0.000000
9964		-7.812500
9965		-1.953125
9966		-9.765625
9967		-5.859375
9968		-15.625000
9969		-7.812500
9970		-17.578125
9971		-9.765625
9972		-19.531250
9973		-11.718750
9974		-23.437500
9975		-15.625000
9976		-25.390625
9977		-17.578125
9978		-27.343750
9979		-21.484375
9980		-29.296875
9981		-23.437500
9982		-31.250000
9983		-27.343750
9984		-37.109375
9985		-29.296875
9986		-39.062500
9987		-31.250000
9988		-41.015625
9989		-33.203125
9990		-42.968750
9991		-35.156250
9992		-46.875000
9993		-39.062500
9994		-48.828125
9995		-42.968750
9996		-50.781250
9997		-44.921875
9998		-52.734375
9999		-46.875000
10000		-54.687500
