Channel              :		CH1
Frequency            :		1.062kHz
Period               :		0.941ms
PK-PK                :		191.4mV
Probe attenuation    :		1X
Voltage per ADC value:		0.122070mV
Time interval        :		2.00000us

index		CH1_Voltage(mV)
1		76.171875
2		76.171875
3		66.406250
4		74.218750
5		66.406250
6		70.312500
7		64.453125
8		68.359375
9		60.546875
10		68.359375
11		60.546875
12		66.406250
13		56.640625
14		64.453125
15		56.640625
16		62.500000
17		54.687500
18		60.546875
19		52.734375
20		58.593750
21		50.781250
22		58.593750
23		48.828125
24		52.734375
25		44.921875
26		52.734375
27		42.968750
28		50.781250
29		41.015625
30		48.828125
31		39.062500
32		46.875000
33		37.109375
34		42.968750
35		35.156250
36		42.968750
37		33.203125
38		39.062500
39		31.250000
40		37.109375
41		29.296875
42		33.203125
43		25.390625
44		33.203125
45		23.437500
46		31.250000
47		19.531250
48		27.343750
49		19.531250
50		27.343750
51		15.625000
52		23.437500
53		13.671875
54		21.484375
55		13.671875
56		17.578125
57		9.765625
58		15.625000
59		5.859375
60		11.718750
61		3.906250
62		11.718750
63		0.000000
64		9.765625
65		0.000000
66		5.859375
67		-3.906250
68		3.906250
69		-5.859375
70		1.953125
71		-5.859375
72		0.000000
73		-9.765625
74		-3.906250
75		-13.671875
76		-7.812500
77		-15.625000
78		-7.812500
79		-17.578125
80		-9.765625
81		-19.531250
82		-13.671875
83		-23.437500
84		-15.625000
85		-25.390625
86		-17.578125
87		-27.343750
88		-19.531250
89		-27.343750
90		-23.437500
91		-31.250000
92		-25.390625
93		-35.156250
94		-27.343750
95		-37.109375
96		-29.296875
97		-39.062500
98		-31.250000
99		-41.015625
100		-33.203125
101		-42.968750
102		-35.156250
103		-44.921875
104		-37.109375
105		-44.921875
106		-39.062500
107		-48.828125
108		-42.968750
109		-52.734375
110		-44.921875
111		-54.687500
112		-46.875000
113		-54.687500
114		-48.828125
115		-56.640625
116		-50.781250
117		-58.593750
118		-52.734375
119		-60.546875
120		-54.687500
121		-60.546875
122		-54.687500
123		-62.500000
124		-58.593750
125		-64.453125
126		-60.546875
127		-68.359375
128		-60.546875
129		-68.359375
130		-62.500000
131		-70.312500
132		-64.453125
133		-72.265625
134		-64.453125
135		-72.265625
136		-66.406250
137		-74.218750
138		-68.359375
139		-74.218750
140		-70.312500
141		-76.171875
142		-72.265625
143		-78.125000
144		-72.265625
145		-78.125000
146		-72.265625
147		-80.078125
148		-74.218750
149		-82.031250
150		-74.218750
151		-82.031250
152		-76.171875
153		-82.031250
154		-76.171875
155		-83.984375
156		-76.171875
157		-82.031250
158		-80.078125
159		-82.031250
160		-80.078125
161		-85.937500
162		-78.125000
163		-85.937500
164		-80.078125
165		-85.937500
166		-80.078125
167		-85.937500
168		-80.078125
169		-87.890625
170		-80.078125
171		-85.937500
172		-80.078125
173		-85.937500
174		-82.031250
175		-85.937500
176		-82.031250
177		-85.937500
178		-82.031250
179		-85.937500
180		-80.078125
181		-85.937500
182		-82.031250
183		-85.937500
184		-80.078125
185		-85.937500
186		-80.078125
187		-85.937500
188		-80.078125
189		-83.984375
190		-80.078125
191		-82.031250
192		-80.078125
193		-83.984375
194		-76.171875
195		-83.984375
196		-76.171875
197		-82.031250
198		-76.171875
199		-82.031250
200		-74.218750
201		-80.078125
202		-74.218750
203		-80.078125
204		-74.218750
205		-78.125000
206		-72.265625
207		-76.171875
208		-72.265625
209		-74.218750
210		-72.265625
211		-74.218750
212		-68.359375
213		-74.218750
214		-66.406250
215		-72.265625
216		-64.453125
217		-70.312500
218		-64.453125
219		-70.312500
220		-62.500000
221		-68.359375
222		-60.546875
223		-66.406250
224		-60.546875
225		-64.453125
226		-60.546875
227		-62.500000
228		-56.640625
229		-62.500000
230		-54.687500
231		-60.546875
232		-52.734375
233		-58.593750
234		-50.781250
235		-56.640625
236		-48.828125
237		-54.687500
238		-46.875000
239		-52.734375
240		-44.921875
241		-48.828125
242		-44.921875
243		-46.875000
244		-42.968750
245		-46.875000
246		-39.062500
247		-44.921875
248		-37.109375
249		-42.968750
250		-35.156250
251		-39.062500
252		-33.203125
253		-37.109375
254		-29.296875
255		-35.156250
256		-27.343750
257		-31.250000
258		-27.343750
259		-29.296875
260		-25.390625
261		-27.343750
262		-21.484375
263		-25.390625
264		-17.578125
265		-23.437500
266		-15.625000
267		-21.484375
268		-13.671875
269		-19.531250
270		-11.718750
271		-15.625000
272		-9.765625
273		-13.671875
274		-7.812500
275		-9.765625
276		-5.859375
277		-7.812500
278		-1.953125
279		-5.859375
280		1.953125
281		-5.859375
282		3.906250
283		-1.953125
284		5.859375
285		0.000000
286		7.812500
287		1.953125
288		9.765625
289		5.859375
290		13.671875
291		9.765625
292		13.671875
293		11.718750
294		15.625000
295		11.718750
296		19.531250
297		13.671875
298		21.484375
299		17.578125
300		25.390625
301		21.484375
302		27.343750
303		21.484375
304		29.296875
305		25.390625
306		33.203125
307		27.343750
308		33.203125
309		31.250000
310		35.156250
311		33.203125
312		39.062500
313		33.203125
314		41.015625
315		35.156250
316		42.968750
317		39.062500
318		44.921875
319		39.062500
320		46.875000
321		42.968750
322		50.781250
323		44.921875
324		50.781250
325		48.828125
326		52.734375
327		50.781250
328		54.687500
329		50.781250
330		58.593750
331		52.734375
332		60.546875
333		52.734375
334		60.546875
335		54.687500
336		62.500000
337		58.593750
338		66.406250
339		58.593750
340		68.359375
341		62.500000
342		68.359375
343		64.453125
344		68.359375
345		66.406250
346		74.218750
347		66.406250
348		74.218750
349		68.359375
350		74.218750
351		68.359375
352		76.171875
353		72.265625
354		78.125000
355		72.265625
356		80.078125
357		74.218750
358		80.078125
359		78.125000
360		82.031250
361		78.125000
362		83.984375
363		78.125000
364		83.984375
365		80.078125
366		85.937500
367		80.078125
368		87.890625
369		82.031250
370		87.890625
371		83.984375
372		89.843750
373		83.984375
374		91.796875
375		85.937500
376		89.843750
377		87.890625
378		91.796875
379		87.890625
380		93.750000
381		87.890625
382		95.703125
383		87.890625
384		95.703125
385		89.843750
386		95.703125
387		89.843750
388		95.703125
389		89.843750
390		97.656250
391		91.796875
392		97.656250
393		93.750000
394		95.703125
395		91.796875
396		97.656250
397		91.796875
398		99.609375
399		93.750000
400		97.656250
401		93.750000
402		99.609375
403		93.750000
404		99.609375
405		93.750000
406		99.609375
407		93.750000
408		99.609375
409		95.703125
410		97.656250
411		95.703125
412		97.656250
413		93.750000
414		99.609375
415		93.750000
416		99.609375
417		91.796875
418		99.609375
419		93.750000
420		99.609375
421		91.796875
422		99.609375
423		91.796875
424		99.609375
425		93.750000
426		97.656250
427		93.750000
428		95.703125
429		91.796875
430		97.656250
431		89.843750
432		97.656250
433		89.843750
434		95.703125
435		89.843750
436		95.703125
437		87.890625
438		95.703125
439		87.890625
440		93.750000
441		87.890625
442		93.750000
443		87.890625
444		91.796875
445		85.937500
446		91.796875
447		83.984375
448		91.796875
449		83.984375
450		89.843750
451		82.031250
452		87.890625
453		82.031250
454		87.890625
455		80.078125
456		85.937500
457		78.125000
458		85.937500
459		78.125000
460		83.984375
461		78.125000
462		82.031250
463		74.218750
464		80.078125
465		72.265625
466		80.078125
467		72.265625
468		78.125000
469		70.312500
470		78.125000
471		70.312500
472		76.171875
473		66.406250
474		74.218750
475		66.406250
476		72.265625
477		66.406250
478		68.359375
479		62.500000
480		68.359375
481		58.593750
482		68.359375
483		58.593750
484		66.406250
485		56.640625
486		64.453125
487		54.687500
488		62.500000
489		52.734375
490		58.593750
491		50.781250
492		58.593750
493		50.781250
494		54.687500
495		48.828125
496		52.734375
497		44.921875
498		52.734375
499		42.968750
500		50.781250
501		41.015625
502		46.875000
503		37.109375
504		44.921875
505		35.156250
506		42.968750
507		35.156250
508		41.015625
509		33.203125
510		39.062500
511		31.250000
512		35.156250
513		27.343750
514		33.203125
515		25.390625
516		31.250000
517		21.484375
518		29.296875
519		19.531250
520		27.343750
521		17.578125
522		25.390625
523		15.625000
524		21.484375
525		13.671875
526		19.531250
527		11.718750
528		15.625000
529		7.812500
530		13.671875
531		3.906250
532		11.718750
533		3.906250
534		9.765625
535		0.000000
536		7.812500
537		-1.953125
538		5.859375
539		-3.906250
540		1.953125
541		-5.859375
542		0.000000
543		-7.812500
544		-3.906250
545		-9.765625
546		-5.859375
547		-13.671875
548		-7.812500
549		-15.625000
550		-9.765625
551		-19.531250
552		-11.718750
553		-21.484375
554		-13.671875
555		-23.437500
556		-15.625000
557		-27.343750
558		-19.531250
559		-27.343750
560		-21.484375
561		-29.296875
562		-25.390625
563		-33.203125
564		-27.343750
565		-35.156250
566		-29.296875
567		-37.109375
568		-29.296875
569		-41.015625
570		-33.203125
571		-41.015625
572		-35.156250
573		-44.921875
574		-37.109375
575		-46.875000
576		-39.062500
577		-46.875000
578		-42.968750
579		-48.828125
580		-44.921875
581		-52.734375
582		-44.921875
583		-54.687500
584		-46.875000
585		-56.640625
586		-48.828125
587		-58.593750
588		-50.781250
589		-58.593750
590		-52.734375
591		-60.546875
592		-54.687500
593		-62.500000
594		-56.640625
595		-62.500000
596		-58.593750
597		-66.406250
598		-60.546875
599		-68.359375
600		-62.500000
601		-70.312500
602		-62.500000
603		-70.312500
604		-64.453125
605		-72.265625
606		-66.406250
607		-74.218750
608		-68.359375
609		-74.218750
610		-68.359375
611		-74.218750
612		-70.312500
613		-76.171875
614		-72.265625
615		-78.125000
616		-72.265625
617		-80.078125
618		-72.265625
619		-80.078125
620		-74.218750
621		-82.031250
622		-74.218750
623		-82.031250
624		-76.171875
625		-83.984375
626		-76.171875
627		-82.031250
628		-78.125000
629		-82.031250
630		-80.078125
631		-85.937500
632		-78.125000
633		-85.937500
634		-80.078125
635		-85.937500
636		-80.078125
637		-85.937500
638		-80.078125
639		-87.890625
640		-80.078125
641		-85.937500
642		-80.078125
643		-87.890625
644		-82.031250
645		-85.937500
646		-82.031250
647		-87.890625
648		-80.078125
649		-87.890625
650		-80.078125
651		-85.937500
652		-80.078125
653		-85.937500
654		-80.078125
655		-85.937500
656		-80.078125
657		-85.937500
658		-78.125000
659		-85.937500
660		-78.125000
661		-82.031250
662		-80.078125
663		-82.031250
664		-80.078125
665		-83.984375
666		-76.171875
667		-82.031250
668		-76.171875
669		-82.031250
670		-76.171875
671		-82.031250
672		-74.218750
673		-80.078125
674		-74.218750
675		-80.078125
676		-72.265625
677		-78.125000
678		-72.265625
679		-76.171875
680		-72.265625
681		-76.171875
682		-70.312500
683		-76.171875
684		-68.359375
685		-74.218750
686		-66.406250
687		-70.312500
688		-64.453125
689		-70.312500
690		-64.453125
691		-68.359375
692		-62.500000
693		-68.359375
694		-62.500000
695		-64.453125
696		-60.546875
697		-62.500000
698		-58.593750
699		-62.500000
700		-56.640625
701		-60.546875
702		-52.734375
703		-58.593750
704		-52.734375
705		-56.640625
706		-50.781250
707		-54.687500
708		-46.875000
709		-52.734375
710		-46.875000
711		-50.781250
712		-44.921875
713		-46.875000
714		-42.968750
715		-46.875000
716		-39.062500
717		-44.921875
718		-39.062500
719		-44.921875
720		-35.156250
721		-41.015625
722		-33.203125
723		-39.062500
724		-31.250000
725		-35.156250
726		-29.296875
727		-33.203125
728		-27.343750
729		-29.296875
730		-25.390625
731		-27.343750
732		-21.484375
733		-27.343750
734		-19.531250
735		-25.390625
736		-17.578125
737		-21.484375
738		-15.625000
739		-19.531250
740		-11.718750
741		-17.578125
742		-9.765625
743		-13.671875
744		-7.812500
745		-11.718750
746		-5.859375
747		-7.812500
748		-3.906250
749		-7.812500
750		0.000000
751		-3.906250
752		1.953125
753		-1.953125
754		3.906250
755		0.000000
756		5.859375
757		1.953125
758		9.765625
759		3.906250
760		11.718750
761		5.859375
762		13.671875
763		11.718750
764		15.625000
765		11.718750
766		19.531250
767		13.671875
768		21.484375
769		15.625000
770		23.437500
771		19.531250
772		25.390625
773		21.484375
774		27.343750
775		23.437500
776		31.250000
777		25.390625
778		31.250000
779		29.296875
780		33.203125
781		31.250000
782		37.109375
783		33.203125
784		41.015625
785		35.156250
786		42.968750
787		37.109375
788		44.921875
789		39.062500
790		46.875000
791		41.015625
792		48.828125
793		42.968750
794		50.781250
795		46.875000
796		50.781250
797		48.828125
798		54.687500
799		50.781250
800		56.640625
801		50.781250
802		58.593750
803		52.734375
804		60.546875
805		56.640625
806		62.500000
807		56.640625
808		64.453125
809		58.593750
810		66.406250
811		60.546875
812		66.406250
813		64.453125
814		68.359375
815		64.453125
816		70.312500
817		66.406250
818		74.218750
819		66.406250
820		74.218750
821		68.359375
822		76.171875
823		70.312500
824		78.125000
825		72.265625
826		78.125000
827		74.218750
828		80.078125
829		76.171875
830		80.078125
831		78.125000
832		82.031250
833		78.125000
834		83.984375
835		80.078125
836		85.937500
837		80.078125
838		87.890625
839		82.031250
840		87.890625
841		82.031250
842		87.890625
843		83.984375
844		89.843750
845		85.937500
846		89.843750
847		87.890625
848		89.843750
849		85.937500
850		93.750000
851		87.890625
852		93.750000
853		87.890625
854		93.750000
855		87.890625
856		95.703125
857		89.843750
858		95.703125
859		89.843750
860		97.656250
861		91.796875
862		95.703125
863		93.750000
864		95.703125
865		93.750000
866		97.656250
867		91.796875
868		97.656250
869		91.796875
870		99.609375
871		91.796875
872		99.609375
873		93.750000
874		99.609375
875		93.750000
876		99.609375
877		93.750000
878		99.609375
879		95.703125
880		97.656250
881		95.703125
882		99.609375
883		93.750000
884		99.609375
885		93.750000
886		99.609375
887		93.750000
888		99.609375
889		93.750000
890		99.609375
891		91.796875
892		99.609375
893		91.796875
894		99.609375
895		93.750000
896		97.656250
897		93.750000
898		97.656250
899		91.796875
900		97.656250
901		91.796875
902		97.656250
903		91.796875
904		97.656250
905		89.843750
906		95.703125
907		87.890625
908		95.703125
909		87.890625
910		95.703125
911		87.890625
912		93.750000
913		87.890625
914		91.796875
915		87.890625
916		91.796875
917		85.937500
918		91.796875
919		83.984375
920		89.843750
921		83.984375
922		89.843750
923		82.031250
924		89.843750
925		80.078125
926		87.890625
927		80.078125
928		85.937500
929		80.078125
930		83.984375
931		78.125000
932		82.031250
933		76.171875
934		82.031250
935		74.218750
936		82.031250
937		74.218750
938		80.078125
939		70.312500
940		78.125000
941		70.312500
942		78.125000
943		68.359375
944		74.218750
945		66.406250
946		74.218750
947		66.406250
948		70.312500
949		64.453125
950		68.359375
951		60.546875
952		68.359375
953		60.546875
954		66.406250
955		56.640625
956		64.453125
957		54.687500
958		62.500000
959		54.687500
960		60.546875
961		52.734375
962		58.593750
963		50.781250
964		56.640625
965		48.828125
966		52.734375
967		44.921875
968		52.734375
969		42.968750
970		50.781250
971		41.015625
972		48.828125
973		39.062500
974		46.875000
975		37.109375
976		44.921875
977		33.203125
978		42.968750
979		33.203125
980		39.062500
981		31.250000
982		35.156250
983		29.296875
984		35.156250
985		25.390625
986		33.203125
987		23.437500
988		31.250000
989		21.484375
990		27.343750
991		19.531250
992		27.343750
993		15.625000
994		23.437500
995		13.671875
996		21.484375
997		13.671875
998		17.578125
999		9.765625
1000		15.625000
1001		5.859375
1002		13.671875
1003		3.906250
1004		11.718750
1005		1.953125
1006		7.812500
1007		-1.953125
1008		7.812500
1009		-3.906250
1010		3.906250
1011		-5.859375
1012		1.953125
1013		-7.812500
1014		0.000000
1015		-9.765625
1016		-3.906250
1017		-11.718750
1018		-5.859375
1019		-15.625000
1020		-7.812500
1021		-17.578125
1022		-11.718750
1023		-21.484375
1024		-11.718750
1025		-23.437500
1026		-15.625000
1027		-25.390625
1028		-17.578125
1029		-27.343750
1030		-19.531250
1031		-27.343750
1032		-23.437500
1033		-31.250000
1034		-25.390625
1035		-35.156250
1036		-27.343750
1037		-37.109375
1038		-29.296875
1039		-39.062500
1040		-31.250000
1041		-41.015625
1042		-33.203125
1043		-42.968750
1044		-35.156250
1045		-46.875000
1046		-37.109375
1047		-44.921875
1048		-41.015625
1049		-46.875000
1050		-42.968750
1051		-50.781250
1052		-44.921875
1053		-54.687500
1054		-46.875000
1055		-54.687500
1056		-48.828125
1057		-58.593750
1058		-48.828125
1059		-58.593750
1060		-50.781250
1061		-60.546875
1062		-54.687500
1063		-62.500000
1064		-54.687500
1065		-62.500000
1066		-58.593750
1067		-64.453125
1068		-60.546875
1069		-68.359375
1070		-60.546875
1071		-68.359375
1072		-62.500000
1073		-70.312500
1074		-64.453125
1075		-72.265625
1076		-64.453125
1077		-74.218750
1078		-66.406250
1079		-74.218750
1080		-66.406250
1081		-74.218750
1082		-70.312500
1083		-76.171875
1084		-72.265625
1085		-78.125000
1086		-72.265625
1087		-78.125000
1088		-72.265625
1089		-80.078125
1090		-74.218750
1091		-82.031250
1092		-74.218750
1093		-82.031250
1094		-76.171875
1095		-82.031250
1096		-76.171875
1097		-83.984375
1098		-76.171875
1099		-82.031250
1100		-80.078125
1101		-83.984375
1102		-80.078125
1103		-85.937500
1104		-78.125000
1105		-85.937500
1106		-78.125000
1107		-85.937500
1108		-80.078125
1109		-85.937500
1110		-80.078125
1111		-87.890625
1112		-80.078125
1113		-85.937500
1114		-80.078125
1115		-83.984375
1116		-82.031250
1117		-83.984375
1118		-82.031250
1119		-87.890625
1120		-80.078125
1121		-85.937500
1122		-80.078125
1123		-85.937500
1124		-80.078125
1125		-85.937500
1126		-80.078125
1127		-85.937500
1128		-78.125000
1129		-85.937500
1130		-78.125000
1131		-83.984375
1132		-80.078125
1133		-82.031250
1134		-80.078125
1135		-83.984375
1136		-76.171875
1137		-83.984375
1138		-76.171875
1139		-82.031250
1140		-76.171875
1141		-82.031250
1142		-74.218750
1143		-80.078125
1144		-74.218750
1145		-80.078125
1146		-72.265625
1147		-78.125000
1148		-72.265625
1149		-76.171875
1150		-72.265625
1151		-76.171875
1152		-70.312500
1153		-76.171875
1154		-68.359375
1155		-74.218750
1156		-66.406250
1157		-72.265625
1158		-66.406250
1159		-70.312500
1160		-64.453125
1161		-70.312500
1162		-62.500000
1163		-68.359375
1164		-62.500000
1165		-64.453125
1166		-60.546875
1167		-62.500000
1168		-58.593750
1169		-62.500000
1170		-54.687500
1171		-62.500000
1172		-54.687500
1173		-60.546875
1174		-52.734375
1175		-58.593750
1176		-50.781250
1177		-56.640625
1178		-48.828125
1179		-54.687500
1180		-46.875000
1181		-52.734375
1182		-46.875000
1183		-48.828125
1184		-44.921875
1185		-46.875000
1186		-41.015625
1187		-46.875000
1188		-39.062500
1189		-44.921875
1190		-37.109375
1191		-41.015625
1192		-35.156250
1193		-39.062500
1194		-31.250000
1195		-37.109375
1196		-29.296875
1197		-35.156250
1198		-27.343750
1199		-31.250000
1200		-27.343750
1201		-29.296875
1202		-25.390625
1203		-27.343750
1204		-19.531250
1205		-27.343750
1206		-17.578125
1207		-23.437500
1208		-15.625000
1209		-21.484375
1210		-13.671875
1211		-19.531250
1212		-11.718750
1213		-17.578125
1214		-9.765625
1215		-13.671875
1216		-7.812500
1217		-9.765625
1218		-5.859375
1219		-7.812500
1220		0.000000
1221		-7.812500
1222		0.000000
1223		-3.906250
1224		3.906250
1225		-1.953125
1226		5.859375
1227		0.000000
1228		7.812500
1229		3.906250
1230		9.765625
1231		5.859375
1232		11.718750
1233		9.765625
1234		13.671875
1235		11.718750
1236		17.578125
1237		11.718750
1238		19.531250
1239		15.625000
1240		23.437500
1241		17.578125
1242		25.390625
1243		19.531250
1244		27.343750
1245		23.437500
1246		29.296875
1247		25.390625
1248		31.250000
1249		29.296875
1250		33.203125
1251		31.250000
1252		35.156250
1253		31.250000
1254		39.062500
1255		33.203125
1256		41.015625
1257		35.156250
1258		42.968750
1259		39.062500
1260		44.921875
1261		39.062500
1262		46.875000
1263		42.968750
1264		48.828125
1265		44.921875
1266		50.781250
1267		48.828125
1268		52.734375
1269		50.781250
1270		56.640625
1271		50.781250
1272		56.640625
1273		52.734375
1274		60.546875
1275		54.687500
1276		60.546875
1277		56.640625
1278		64.453125
1279		56.640625
1280		64.453125
1281		60.546875
1282		66.406250
1283		62.500000
1284		68.359375
1285		64.453125
1286		68.359375
1287		66.406250
1288		72.265625
1289		66.406250
1290		74.218750
1291		68.359375
1292		76.171875
1293		70.312500
1294		76.171875
1295		72.265625
1296		78.125000
1297		72.265625
1298		80.078125
1299		74.218750
1300		80.078125
1301		78.125000
1302		82.031250
1303		76.171875
1304		83.984375
1305		78.125000
1306		85.937500
1307		78.125000
1308		85.937500
1309		80.078125
1310		87.890625
1311		82.031250
1312		89.843750
1313		82.031250
1314		89.843750
1315		83.984375
1316		89.843750
1317		85.937500
1318		89.843750
1319		87.890625
1320		91.796875
1321		87.890625
1322		93.750000
1323		87.890625
1324		93.750000
1325		87.890625
1326		95.703125
1327		89.843750
1328		95.703125
1329		89.843750
1330		97.656250
1331		89.843750
1332		97.656250
1333		93.750000
1334		95.703125
1335		93.750000
1336		95.703125
1337		91.796875
1338		99.609375
1339		91.796875
1340		99.609375
1341		91.796875
1342		99.609375
1343		91.796875
1344		99.609375
1345		93.750000
1346		99.609375
1347		91.796875
1348		99.609375
1349		93.750000
1350		99.609375
1351		95.703125
1352		97.656250
1353		95.703125
1354		99.609375
1355		93.750000
1356		99.609375
1357		93.750000
1358		99.609375
1359		93.750000
1360		99.609375
1361		93.750000
1362		99.609375
1363		93.750000
1364		99.609375
1365		91.796875
1366		97.656250
1367		93.750000
1368		97.656250
1369		93.750000
1370		95.703125
1371		91.796875
1372		97.656250
1373		89.843750
1374		97.656250
1375		89.843750
1376		97.656250
1377		89.843750
1378		95.703125
1379		87.890625
1380		95.703125
1381		87.890625
1382		93.750000
1383		87.890625
1384		93.750000
1385		87.890625
1386		91.796875
1387		85.937500
1388		91.796875
1389		85.937500
1390		91.796875
1391		83.984375
1392		89.843750
1393		82.031250
1394		89.843750
1395		82.031250
1396		87.890625
1397		80.078125
1398		85.937500
1399		78.125000
1400		85.937500
1401		80.078125
1402		83.984375
1403		78.125000
1404		82.031250
1405		74.218750
1406		82.031250
1407		72.265625
1408		80.078125
1409		70.312500
1410		80.078125
1411		70.312500
1412		76.171875
1413		68.359375
1414		76.171875
1415		66.406250
1416		74.218750
1417		66.406250
1418		72.265625
1419		66.406250
1420		70.312500
1421		60.546875
1422		68.359375
1423		60.546875
1424		68.359375
1425		58.593750
1426		64.453125
1427		56.640625
1428		62.500000
1429		54.687500
1430		62.500000
1431		52.734375
1432		58.593750
1433		50.781250
1434		56.640625
1435		50.781250
1436		54.687500
1437		46.875000
1438		52.734375
1439		44.921875
1440		50.781250
1441		42.968750
1442		48.828125
1443		41.015625
1444		46.875000
1445		37.109375
1446		44.921875
1447		35.156250
1448		42.968750
1449		33.203125
1450		41.015625
1451		33.203125
1452		37.109375
1453		31.250000
1454		35.156250
1455		25.390625
1456		33.203125
1457		23.437500
1458		31.250000
1459		21.484375
1460		29.296875
1461		19.531250
1462		27.343750
1463		15.625000
1464		25.390625
1465		15.625000
1466		21.484375
1467		13.671875
1468		19.531250
1469		11.718750
1470		15.625000
1471		5.859375
1472		13.671875
1473		5.859375
1474		11.718750
1475		1.953125
1476		9.765625
1477		0.000000
1478		7.812500
1479		-1.953125
1480		3.906250
1481		-5.859375
1482		3.906250
1483		-5.859375
1484		0.000000
1485		-7.812500
1486		-3.906250
1487		-9.765625
1488		-5.859375
1489		-15.625000
1490		-7.812500
1491		-17.578125
1492		-9.765625
1493		-19.531250
1494		-11.718750
1495		-21.484375
1496		-15.625000
1497		-25.390625
1498		-17.578125
1499		-25.390625
1500		-19.531250
1501		-27.343750
1502		-21.484375
1503		-29.296875
1504		-25.390625
1505		-33.203125
1506		-27.343750
1507		-35.156250
1508		-27.343750
1509		-39.062500
1510		-31.250000
1511		-41.015625
1512		-33.203125
1513		-42.968750
1514		-35.156250
1515		-44.921875
1516		-37.109375
1517		-44.921875
1518		-39.062500
1519		-46.875000
1520		-42.968750
1521		-48.828125
1522		-44.921875
1523		-52.734375
1524		-44.921875
1525		-54.687500
1526		-48.828125
1527		-56.640625
1528		-48.828125
1529		-58.593750
1530		-50.781250
1531		-60.546875
1532		-52.734375
1533		-62.500000
1534		-54.687500
1535		-62.500000
1536		-58.593750
1537		-64.453125
1538		-60.546875
1539		-68.359375
1540		-60.546875
1541		-68.359375
1542		-62.500000
1543		-70.312500
1544		-62.500000
1545		-72.265625
1546		-64.453125
1547		-72.265625
1548		-66.406250
1549		-74.218750
1550		-68.359375
1551		-76.171875
1552		-68.359375
1553		-74.218750
1554		-72.265625
1555		-78.125000
1556		-72.265625
1557		-80.078125
1558		-72.265625
1559		-80.078125
1560		-74.218750
1561		-82.031250
1562		-74.218750
1563		-82.031250
1564		-76.171875
1565		-82.031250
1566		-76.171875
1567		-83.984375
1568		-76.171875
1569		-82.031250
1570		-80.078125
1571		-83.984375
1572		-80.078125
1573		-85.937500
1574		-78.125000
1575		-85.937500
1576		-78.125000
1577		-85.937500
1578		-80.078125
1579		-87.890625
1580		-80.078125
1581		-85.937500
1582		-80.078125
1583		-87.890625
1584		-80.078125
1585		-85.937500
1586		-82.031250
1587		-85.937500
1588		-82.031250
1589		-87.890625
1590		-80.078125
1591		-87.890625
1592		-80.078125
1593		-85.937500
1594		-80.078125
1595		-85.937500
1596		-80.078125
1597		-85.937500
1598		-80.078125
1599		-85.937500
1600		-80.078125
1601		-85.937500
1602		-80.078125
1603		-83.984375
1604		-80.078125
1605		-83.984375
1606		-78.125000
1607		-83.984375
1608		-76.171875
1609		-83.984375
1610		-76.171875
1611		-82.031250
1612		-76.171875
1613		-82.031250
1614		-74.218750
1615		-80.078125
1616		-74.218750
1617		-80.078125
1618		-72.265625
1619		-76.171875
1620		-72.265625
1621		-76.171875
1622		-72.265625
1623		-76.171875
1624		-68.359375
1625		-74.218750
1626		-68.359375
1627		-74.218750
1628		-66.406250
1629		-72.265625
1630		-66.406250
1631		-70.312500
1632		-64.453125
1633		-70.312500
1634		-62.500000
1635		-68.359375
1636		-62.500000
1637		-64.453125
1638		-60.546875
1639		-62.500000
1640		-56.640625
1641		-62.500000
1642		-54.687500
1643		-62.500000
1644		-54.687500
1645		-58.593750
1646		-52.734375
1647		-56.640625
1648		-50.781250
1649		-54.687500
1650		-46.875000
1651		-54.687500
1652		-46.875000
1653		-48.828125
1654		-44.921875
1655		-48.828125
1656		-41.015625
1657		-46.875000
1658		-41.015625
1659		-44.921875
1660		-37.109375
1661		-42.968750
1662		-35.156250
1663		-41.015625
1664		-33.203125
1665		-39.062500
1666		-31.250000
1667		-37.109375
1668		-29.296875
1669		-33.203125
1670		-29.296875
1671		-31.250000
1672		-25.390625
1673		-29.296875
1674		-21.484375
1675		-27.343750
1676		-19.531250
1677		-25.390625
1678		-17.578125
1679		-23.437500
1680		-15.625000
1681		-21.484375
1682		-11.718750
1683		-17.578125
1684		-9.765625
1685		-15.625000
1686		-9.765625
1687		-11.718750
1688		-7.812500
1689		-9.765625
1690		-3.906250
1691		-7.812500
1692		0.000000
1693		-5.859375
1694		1.953125
1695		-3.906250
1696		3.906250
1697		-1.953125
1698		7.812500
1699		1.953125
1700		9.765625
1701		3.906250
1702		11.718750
1703		7.812500
1704		11.718750
1705		9.765625
1706		15.625000
1707		11.718750
1708		19.531250
1709		13.671875
1710		21.484375
1711		15.625000
1712		23.437500
1713		17.578125
1714		25.390625
1715		19.531250
1716		27.343750
1717		23.437500
1718		29.296875
1719		25.390625
1720		31.250000
1721		29.296875
1722		33.203125
1723		31.250000
1724		37.109375
1725		33.203125
1726		39.062500
1727		35.156250
1728		41.015625
1729		37.109375
1730		44.921875
1731		39.062500
1732		46.875000
1733		41.015625
1734		48.828125
1735		42.968750
1736		48.828125
1737		46.875000
1738		50.781250
1739		48.828125
1740		52.734375
1741		50.781250
1742		56.640625
1743		50.781250
1744		58.593750
1745		52.734375
1746		60.546875
1747		54.687500
1748		62.500000
1749		56.640625
1750		64.453125
1751		58.593750
1752		66.406250
1753		60.546875
1754		66.406250
1755		64.453125
1756		68.359375
1757		66.406250
1758		70.312500
1759		66.406250
1760		72.265625
1761		66.406250
1762		74.218750
1763		68.359375
1764		76.171875
1765		70.312500
1766		76.171875
1767		72.265625
1768		78.125000
1769		72.265625
1770		80.078125
1771		76.171875
1772		80.078125
1773		78.125000
1774		82.031250
1775		76.171875
1776		83.984375
1777		78.125000
1778		85.937500
1779		80.078125
1780		85.937500
1781		82.031250
1782		87.890625
1783		82.031250
1784		89.843750
1785		83.984375
1786		89.843750
1787		85.937500
1788		89.843750
1789		87.890625
1790		89.843750
1791		85.937500
1792		91.796875
1793		85.937500
1794		93.750000
1795		87.890625
1796		95.703125
1797		87.890625
1798		95.703125
1799		87.890625
1800		95.703125
1801		89.843750
1802		95.703125
1803		89.843750
1804		95.703125
1805		93.750000
1806		95.703125
1807		91.796875
1808		97.656250
1809		91.796875
1810		97.656250
1811		91.796875
1812		99.609375
1813		91.796875
1814		99.609375
1815		91.796875
1816		99.609375
1817		91.796875
1818		99.609375
1819		93.750000
1820		99.609375
1821		95.703125
1822		97.656250
1823		95.703125
1824		97.656250
1825		93.750000
1826		99.609375
1827		93.750000
1828		99.609375
1829		93.750000
1830		99.609375
1831		93.750000
1832		99.609375
1833		91.796875
1834		99.609375
1835		91.796875
1836		99.609375
1837		93.750000
1838		97.656250
1839		93.750000
1840		97.656250
1841		89.843750
1842		97.656250
1843		89.843750
1844		97.656250
1845		89.843750
1846		97.656250
1847		89.843750
1848		95.703125
1849		87.890625
1850		95.703125
1851		87.890625
1852		95.703125
1853		87.890625
1854		93.750000
1855		87.890625
1856		91.796875
1857		85.937500
1858		89.843750
1859		83.984375
1860		91.796875
1861		83.984375
1862		89.843750
1863		83.984375
1864		89.843750
1865		82.031250
1866		87.890625
1867		82.031250
1868		85.937500
1869		80.078125
1870		85.937500
1871		80.078125
1872		83.984375
1873		78.125000
1874		82.031250
1875		74.218750
1876		82.031250
1877		74.218750
1878		82.031250
1879		72.265625
1880		80.078125
1881		70.312500
1882		78.125000
1883		70.312500
1884		76.171875
1885		68.359375
1886		74.218750
1887		66.406250
1888		72.265625
1889		66.406250
1890		70.312500
1891		64.453125
1892		68.359375
1893		60.546875
1894		68.359375
1895		58.593750
1896		66.406250
1897		56.640625
1898		64.453125
1899		54.687500
1900		62.500000
1901		52.734375
1902		60.546875
1903		50.781250
1904		58.593750
1905		50.781250
1906		54.687500
1907		48.828125
1908		52.734375
1909		44.921875
1910		52.734375
1911		42.968750
1912		50.781250
1913		39.062500
1914		48.828125
1915		39.062500
1916		46.875000
1917		35.156250
1918		44.921875
1919		35.156250
1920		41.015625
1921		33.203125
1922		39.062500
1923		31.250000
1924		37.109375
1925		27.343750
1926		33.203125
1927		25.390625
1928		33.203125
1929		23.437500
1930		29.296875
1931		21.484375
1932		29.296875
1933		17.578125
1934		27.343750
1935		15.625000
1936		23.437500
1937		13.671875
1938		21.484375
1939		13.671875
1940		17.578125
1941		7.812500
1942		15.625000
1943		5.859375
1944		13.671875
1945		3.906250
1946		11.718750
1947		1.953125
1948		7.812500
1949		-1.953125
1950		5.859375
1951		-3.906250
1952		3.906250
1953		-5.859375
1954		1.953125
1955		-7.812500
1956		-1.953125
1957		-9.765625
1958		-5.859375
1959		-13.671875
1960		-7.812500
1961		-15.625000
1962		-7.812500
1963		-19.531250
1964		-9.765625
1965		-21.484375
1966		-13.671875
1967		-23.437500
1968		-15.625000
1969		-25.390625
1970		-17.578125
1971		-27.343750
1972		-21.484375
1973		-29.296875
1974		-23.437500
1975		-31.250000
1976		-25.390625
1977		-35.156250
1978		-27.343750
1979		-37.109375
1980		-29.296875
1981		-39.062500
1982		-31.250000
1983		-41.015625
1984		-33.203125
1985		-42.968750
1986		-37.109375
1987		-44.921875
1988		-39.062500
1989		-46.875000
1990		-41.015625
1991		-48.828125
1992		-44.921875
1993		-52.734375
1994		-44.921875
1995		-52.734375
1996		-46.875000
1997		-54.687500
1998		-46.875000
1999		-56.640625
2000		-48.828125
2001		-60.546875
2002		-52.734375
2003		-62.500000
2004		-54.687500
2005		-60.546875
2006		-56.640625
2007		-62.500000
2008		-58.593750
2009		-66.406250
2010		-60.546875
2011		-68.359375
2012		-60.546875
2013		-68.359375
2014		-62.500000
2015		-70.312500
2016		-62.500000
2017		-74.218750
2018		-64.453125
2019		-72.265625
2020		-66.406250
2021		-74.218750
2022		-68.359375
2023		-74.218750
2024		-70.312500
2025		-76.171875
2026		-72.265625
2027		-78.125000
2028		-70.312500
2029		-80.078125
2030		-72.265625
2031		-80.078125
2032		-74.218750
2033		-82.031250
2034		-74.218750
2035		-82.031250
2036		-76.171875
2037		-83.984375
2038		-76.171875
2039		-82.031250
2040		-78.125000
2041		-82.031250
2042		-80.078125
2043		-83.984375
2044		-78.125000
2045		-85.937500
2046		-78.125000
2047		-85.937500
2048		-78.125000
2049		-85.937500
2050		-80.078125
2051		-85.937500
2052		-80.078125
2053		-87.890625
2054		-80.078125
2055		-87.890625
2056		-80.078125
2057		-83.984375
2058		-82.031250
2059		-85.937500
2060		-82.031250
2061		-85.937500
2062		-80.078125
2063		-87.890625
2064		-80.078125
2065		-85.937500
2066		-80.078125
2067		-85.937500
2068		-80.078125
2069		-85.937500
2070		-80.078125
2071		-85.937500
2072		-78.125000
2073		-82.031250
2074		-80.078125
2075		-82.031250
2076		-80.078125
2077		-83.984375
2078		-76.171875
2079		-83.984375
2080		-76.171875
2081		-82.031250
2082		-76.171875
2083		-82.031250
2084		-74.218750
2085		-80.078125
2086		-74.218750
2087		-78.125000
2088		-74.218750
2089		-78.125000
2090		-72.265625
2091		-76.171875
2092		-72.265625
2093		-74.218750
2094		-70.312500
2095		-74.218750
2096		-68.359375
2097		-74.218750
2098		-66.406250
2099		-72.265625
2100		-66.406250
2101		-70.312500
2102		-62.500000
2103		-70.312500
2104		-62.500000
2105		-68.359375
2106		-62.500000
2107		-64.453125
2108		-60.546875
2109		-62.500000
2110		-58.593750
2111		-62.500000
2112		-56.640625
2113		-60.546875
2114		-54.687500
2115		-60.546875
2116		-52.734375
2117		-58.593750
2118		-48.828125
2119		-56.640625
2120		-48.828125
2121		-54.687500
2122		-46.875000
2123		-50.781250
2124		-46.875000
2125		-48.828125
2126		-44.921875
2127		-46.875000
2128		-41.015625
2129		-46.875000
2130		-39.062500
2131		-42.968750
2132		-37.109375
2133		-41.015625
2134		-35.156250
2135		-39.062500
2136		-33.203125
2137		-37.109375
2138		-29.296875
2139		-33.203125
2140		-27.343750
2141		-31.250000
2142		-27.343750
2143		-29.296875
2144		-23.437500
2145		-29.296875
2146		-21.484375
2147		-25.390625
2148		-17.578125
2149		-23.437500
2150		-17.578125
2151		-21.484375
2152		-13.671875
2153		-19.531250
2154		-11.718750
2155		-15.625000
2156		-9.765625
2157		-11.718750
2158		-7.812500
2159		-9.765625
2160		-5.859375
2161		-7.812500
2162		0.000000
2163		-5.859375
2164		1.953125
2165		-5.859375
2166		3.906250
2167		-1.953125
2168		5.859375
2169		0.000000
2170		7.812500
2171		3.906250
2172		11.718750
2173		5.859375
2174		11.718750
2175		9.765625
2176		13.671875
2177		11.718750
2178		19.531250
2179		13.671875
2180		19.531250
2181		15.625000
2182		23.437500
2183		17.578125
2184		25.390625
2185		21.484375
2186		27.343750
2187		21.484375
2188		29.296875
2189		25.390625
2190		31.250000
2191		29.296875
2192		33.203125
2193		31.250000
2194		35.156250
2195		31.250000
2196		39.062500
2197		33.203125
2198		41.015625
2199		35.156250
2200		42.968750
2201		39.062500
2202		44.921875
2203		39.062500
2204		46.875000
2205		42.968750
2206		48.828125
2207		44.921875
2208		50.781250
2209		48.828125
2210		52.734375
2211		48.828125
2212		56.640625
2213		50.781250
2214		58.593750
2215		52.734375
2216		60.546875
2217		54.687500
2218		62.500000
2219		54.687500
2220		64.453125
2221		58.593750
2222		66.406250
2223		60.546875
2224		66.406250
2225		64.453125
2226		68.359375
2227		64.453125
2228		70.312500
2229		64.453125
2230		72.265625
2231		66.406250
2232		74.218750
2233		68.359375
2234		76.171875
2235		70.312500
2236		76.171875
2237		72.265625
2238		78.125000
2239		74.218750
2240		80.078125
2241		76.171875
2242		80.078125
2243		78.125000
2244		82.031250
2245		78.125000
2246		83.984375
2247		78.125000
2248		85.937500
2249		78.125000
2250		87.890625
2251		80.078125
2252		87.890625
2253		82.031250
2254		87.890625
2255		83.984375
2256		89.843750
2257		83.984375
2258		89.843750
2259		87.890625
2260		89.843750
2261		85.937500
2262		93.750000
2263		85.937500
2264		93.750000
2265		87.890625
2266		93.750000
2267		87.890625
2268		95.703125
2269		89.843750
2270		95.703125
2271		89.843750
2272		95.703125
2273		89.843750
2274		97.656250
2275		93.750000
2276		95.703125
2277		93.750000
2278		97.656250
2279		91.796875
2280		99.609375
2281		91.796875
2282		99.609375
2283		93.750000
2284		99.609375
2285		93.750000
2286		99.609375
2287		93.750000
2288		99.609375
2289		93.750000
2290		99.609375
2291		95.703125
2292		97.656250
2293		95.703125
2294		97.656250
2295		93.750000
2296		101.562500
2297		93.750000
2298		101.562500
2299		93.750000
2300		101.562500
2301		93.750000
2302		99.609375
2303		93.750000
2304		99.609375
2305		93.750000
2306		99.609375
2307		93.750000
2308		99.609375
2309		93.750000
2310		97.656250
2311		93.750000
2312		97.656250
2313		91.796875
2314		97.656250
2315		91.796875
2316		97.656250
2317		89.843750
2318		97.656250
2319		89.843750
2320		95.703125
2321		89.843750
2322		95.703125
2323		87.890625
2324		95.703125
2325		89.843750
2326		91.796875
2327		87.890625
2328		91.796875
2329		85.937500
2330		91.796875
2331		85.937500
2332		91.796875
2333		83.984375
2334		89.843750
2335		82.031250
2336		89.843750
2337		82.031250
2338		87.890625
2339		80.078125
2340		87.890625
2341		80.078125
2342		85.937500
2343		80.078125
2344		83.984375
2345		78.125000
2346		82.031250
2347		74.218750
2348		82.031250
2349		74.218750
2350		80.078125
2351		72.265625
2352		80.078125
2353		70.312500
2354		78.125000
2355		68.359375
2356		76.171875
2357		68.359375
2358		74.218750
2359		68.359375
2360		72.265625
2361		66.406250
2362		70.312500
2363		62.500000
2364		68.359375
2365		60.546875
2366		68.359375
2367		58.593750
2368		64.453125
2369		56.640625
2370		64.453125
2371		54.687500
2372		62.500000
2373		52.734375
2374		60.546875
2375		52.734375
2376		56.640625
2377		50.781250
2378		54.687500
2379		46.875000
2380		52.734375
2381		44.921875
2382		52.734375
2383		42.968750
2384		48.828125
2385		41.015625
2386		48.828125
2387		39.062500
2388		44.921875
2389		35.156250
2390		44.921875
2391		35.156250
2392		41.015625
2393		33.203125
2394		39.062500
2395		31.250000
2396		35.156250
2397		27.343750
2398		35.156250
2399		25.390625
2400		33.203125
2401		23.437500
2402		31.250000
2403		19.531250
2404		27.343750
2405		17.578125
2406		25.390625
2407		15.625000
2408		23.437500
2409		15.625000
2410		19.531250
2411		11.718750
2412		15.625000
2413		7.812500
2414		13.671875
2415		5.859375
2416		11.718750
2417		1.953125
2418		11.718750
2419		1.953125
2420		7.812500
2421		-1.953125
2422		5.859375
2423		-3.906250
2424		3.906250
2425		-5.859375
2426		0.000000
2427		-7.812500
2428		-3.906250
2429		-9.765625
2430		-5.859375
2431		-13.671875
2432		-5.859375
2433		-13.671875
2434		-9.765625
2435		-19.531250
2436		-13.671875
2437		-21.484375
2438		-15.625000
2439		-23.437500
2440		-15.625000
2441		-25.390625
2442		-17.578125
2443		-27.343750
2444		-21.484375
2445		-29.296875
2446		-25.390625
2447		-33.203125
2448		-25.390625
2449		-35.156250
2450		-27.343750
2451		-35.156250
2452		-31.250000
2453		-37.109375
2454		-33.203125
2455		-42.968750
2456		-33.203125
2457		-42.968750
2458		-37.109375
2459		-44.921875
2460		-39.062500
2461		-46.875000
2462		-42.968750
2463		-48.828125
2464		-44.921875
2465		-50.781250
2466		-46.875000
2467		-52.734375
2468		-48.828125
2469		-54.687500
2470		-50.781250
2471		-56.640625
2472		-50.781250
2473		-58.593750
2474		-52.734375
2475		-58.593750
2476		-54.687500
2477		-60.546875
2478		-56.640625
2479		-62.500000
2480		-58.593750
2481		-64.453125
2482		-60.546875
2483		-66.406250
2484		-62.500000
2485		-68.359375
2486		-64.453125
2487		-68.359375
2488		-64.453125
2489		-70.312500
2490		-66.406250
2491		-72.265625
2492		-66.406250
2493		-74.218750
2494		-70.312500
2495		-74.218750
2496		-70.312500
2497		-76.171875
2498		-70.312500
2499		-76.171875
2500		-72.265625
2501		-78.125000
2502		-74.218750
2503		-78.125000
2504		-74.218750
2505		-80.078125
2506		-76.171875
2507		-82.031250
2508		-76.171875
2509		-80.078125
2510		-76.171875
2511		-82.031250
2512		-78.125000
2513		-82.031250
2514		-78.125000
2515		-82.031250
2516		-80.078125
2517		-83.984375
2518		-80.078125
2519		-83.984375
2520		-80.078125
2521		-83.984375
2522		-80.078125
2523		-83.984375
2524		-80.078125
2525		-85.937500
2526		-80.078125
2527		-83.984375
2528		-82.031250
2529		-83.984375
2530		-82.031250
2531		-83.984375
2532		-82.031250
2533		-83.984375
2534		-82.031250
2535		-83.984375
2536		-80.078125
2537		-83.984375
2538		-80.078125
2539		-83.984375
2540		-80.078125
2541		-83.984375
2542		-80.078125
2543		-83.984375
2544		-80.078125
2545		-82.031250
2546		-80.078125
2547		-82.031250
2548		-78.125000
2549		-82.031250
2550		-78.125000
2551		-80.078125
2552		-78.125000
2553		-80.078125
2554		-76.171875
2555		-78.125000
2556		-76.171875
2557		-78.125000
2558		-74.218750
2559		-76.171875
2560		-74.218750
2561		-76.171875
2562		-72.265625
2563		-74.218750
2564		-70.312500
2565		-74.218750
2566		-70.312500
2567		-72.265625
2568		-68.359375
2569		-70.312500
2570		-68.359375
2571		-70.312500
2572		-66.406250
2573		-68.359375
2574		-64.453125
2575		-66.406250
2576		-62.500000
2577		-66.406250
2578		-62.500000
2579		-64.453125
2580		-60.546875
2581		-62.500000
2582		-58.593750
2583		-60.546875
2584		-56.640625
2585		-58.593750
2586		-54.687500
2587		-56.640625
2588		-52.734375
2589		-54.687500
2590		-50.781250
2591		-52.734375
2592		-48.828125
2593		-50.781250
2594		-46.875000
2595		-48.828125
2596		-44.921875
2597		-46.875000
2598		-42.968750
2599		-44.921875
2600		-41.015625
2601		-42.968750
2602		-39.062500
2603		-41.015625
2604		-37.109375
2605		-39.062500
2606		-35.156250
2607		-37.109375
2608		-33.203125
2609		-35.156250
2610		-29.296875
2611		-31.250000
2612		-27.343750
2613		-29.296875
2614		-25.390625
2615		-27.343750
2616		-23.437500
2617		-25.390625
2618		-21.484375
2619		-23.437500
2620		-17.578125
2621		-19.531250
2622		-15.625000
2623		-17.578125
2624		-13.671875
2625		-15.625000
2626		-11.718750
2627		-13.671875
2628		-7.812500
2629		-9.765625
2630		-5.859375
2631		-9.765625
2632		-3.906250
2633		-5.859375
2634		-1.953125
2635		-3.906250
2636		1.953125
2637		-1.953125
2638		3.906250
2639		1.953125
2640		5.859375
2641		3.906250
2642		9.765625
2643		5.859375
2644		9.765625
2645		7.812500
2646		13.671875
2647		11.718750
2648		17.578125
2649		11.718750
2650		17.578125
2651		15.625000
2652		21.484375
2653		17.578125
2654		23.437500
2655		21.484375
2656		25.390625
2657		23.437500
2658		27.343750
2659		25.390625
2660		29.296875
2661		27.343750
2662		31.250000
2663		29.296875
2664		33.203125
2665		31.250000
2666		37.109375
2667		33.203125
2668		39.062500
2669		37.109375
2670		41.015625
2671		39.062500
2672		42.968750
2673		41.015625
2674		44.921875
2675		42.968750
2676		46.875000
2677		44.921875
2678		48.828125
2679		46.875000
2680		50.781250
2681		48.828125
2682		52.734375
2683		50.781250
2684		56.640625
2685		52.734375
2686		58.593750
2687		54.687500
2688		58.593750
2689		56.640625
2690		62.500000
2691		58.593750
2692		62.500000
2693		60.546875
2694		66.406250
2695		62.500000
2696		66.406250
2697		64.453125
2698		68.359375
2699		64.453125
2700		70.312500
2701		68.359375
2702		72.265625
2703		70.312500
2704		72.265625
2705		70.312500
2706		74.218750
2707		72.265625
2708		76.171875
2709		74.218750
2710		78.125000
2711		76.171875
2712		78.125000
2713		78.125000
2714		80.078125
2715		78.125000
2716		82.031250
2717		80.078125
2718		83.984375
2719		80.078125
2720		83.984375
2721		82.031250
2722		85.937500
2723		83.984375
2724		85.937500
2725		83.984375
2726		87.890625
2727		83.984375
2728		89.843750
2729		85.937500
2730		89.843750
2731		87.890625
2732		89.843750
2733		87.890625
2734		91.796875
2735		89.843750
2736		91.796875
2737		89.843750
2738		93.750000
2739		89.843750
2740		93.750000
2741		91.796875
2742		95.703125
2743		91.796875
2744		95.703125
2745		93.750000
2746		95.703125
2747		93.750000
2748		95.703125
2749		93.750000
2750		97.656250
2751		93.750000
2752		97.656250
2753		95.703125
2754		97.656250
2755		93.750000
2756		97.656250
2757		95.703125
2758		97.656250
2759		95.703125
2760		97.656250
2761		95.703125
2762		99.609375
2763		95.703125
2764		97.656250
2765		93.750000
2766		99.609375
2767		95.703125
2768		99.609375
2769		95.703125
2770		99.609375
2771		95.703125
2772		97.656250
2773		95.703125
2774		97.656250
2775		95.703125
2776		97.656250
2777		93.750000
2778		97.656250
2779		93.750000
2780		97.656250
2781		93.750000
2782		97.656250
2783		93.750000
2784		97.656250
2785		93.750000
2786		95.703125
2787		91.796875
2788		95.703125
2789		91.796875
2790		95.703125
2791		91.796875
2792		95.703125
2793		89.843750
2794		93.750000
2795		89.843750
2796		93.750000
2797		89.843750
2798		91.796875
2799		87.890625
2800		91.796875
2801		85.937500
2802		89.843750
2803		85.937500
2804		89.843750
2805		85.937500
2806		87.890625
2807		83.984375
2808		87.890625
2809		82.031250
2810		85.937500
2811		82.031250
2812		85.937500
2813		80.078125
2814		83.984375
2815		78.125000
2816		82.031250
2817		78.125000
2818		82.031250
2819		76.171875
2820		80.078125
2821		74.218750
2822		80.078125
2823		74.218750
2824		78.125000
2825		72.265625
2826		76.171875
2827		70.312500
2828		74.218750
2829		68.359375
2830		72.265625
2831		66.406250
2832		70.312500
2833		64.453125
2834		70.312500
2835		64.453125
2836		68.359375
2837		62.500000
2838		66.406250
2839		60.546875
2840		64.453125
2841		56.640625
2842		62.500000
2843		56.640625
2844		60.546875
2845		52.734375
2846		58.593750
2847		52.734375
2848		56.640625
2849		48.828125
2850		54.687500
2851		48.828125
2852		52.734375
2853		46.875000
2854		50.781250
2855		42.968750
2856		48.828125
2857		41.015625
2858		44.921875
2859		39.062500
2860		42.968750
2861		37.109375
2862		41.015625
2863		35.156250
2864		39.062500
2865		33.203125
2866		37.109375
2867		29.296875
2868		35.156250
2869		29.296875
2870		33.203125
2871		25.390625
2872		31.250000
2873		23.437500
2874		27.343750
2875		21.484375
2876		25.390625
2877		17.578125
2878		23.437500
2879		15.625000
2880		21.484375
2881		13.671875
2882		17.578125
2883		9.765625
2884		15.625000
2885		7.812500
2886		13.671875
2887		5.859375
2888		11.718750
2889		3.906250
2890		7.812500
2891		1.953125
2892		7.812500
2893		-1.953125
2894		3.906250
2895		-3.906250
2896		1.953125
2897		-5.859375
2898		-1.953125
2899		-7.812500
2900		-3.906250
2901		-11.718750
2902		-5.859375
2903		-13.671875
2904		-7.812500
2905		-15.625000
2906		-11.718750
2907		-17.578125
2908		-13.671875
2909		-19.531250
2910		-15.625000
2911		-23.437500
2912		-17.578125
2913		-25.390625
2914		-19.531250
2915		-27.343750
2916		-23.437500
2917		-29.296875
2918		-25.390625
2919		-31.250000
2920		-27.343750
2921		-33.203125
2922		-29.296875
2923		-37.109375
2924		-33.203125
2925		-39.062500
2926		-33.203125
2927		-41.015625
2928		-37.109375
2929		-42.968750
2930		-39.062500
2931		-44.921875
2932		-41.015625
2933		-46.875000
2934		-42.968750
2935		-48.828125
2936		-44.921875
2937		-50.781250
2938		-46.875000
2939		-52.734375
2940		-48.828125
2941		-54.687500
2942		-50.781250
2943		-56.640625
2944		-52.734375
2945		-58.593750
2946		-54.687500
2947		-58.593750
2948		-56.640625
2949		-62.500000
2950		-58.593750
2951		-62.500000
2952		-58.593750
2953		-64.453125
2954		-60.546875
2955		-66.406250
2956		-62.500000
2957		-68.359375
2958		-64.453125
2959		-68.359375
2960		-64.453125
2961		-70.312500
2962		-66.406250
2963		-72.265625
2964		-68.359375
2965		-72.265625
2966		-70.312500
2967		-74.218750
2968		-70.312500
2969		-74.218750
2970		-72.265625
2971		-76.171875
2972		-72.265625
2973		-78.125000
2974		-74.218750
2975		-78.125000
2976		-74.218750
2977		-80.078125
2978		-76.171875
2979		-80.078125
2980		-76.171875
2981		-82.031250
2982		-78.125000
2983		-80.078125
2984		-78.125000
2985		-82.031250
2986		-78.125000
2987		-82.031250
2988		-80.078125
2989		-82.031250
2990		-80.078125
2991		-83.984375
2992		-80.078125
2993		-83.984375
2994		-80.078125
2995		-83.984375
2996		-80.078125
2997		-83.984375
2998		-80.078125
2999		-83.984375
3000		-82.031250
3001		-83.984375
3002		-80.078125
3003		-83.984375
3004		-80.078125
3005		-83.984375
3006		-80.078125
3007		-83.984375
3008		-80.078125
3009		-83.984375
3010		-80.078125
3011		-83.984375
3012		-80.078125
3013		-83.984375
3014		-78.125000
3015		-82.031250
3016		-80.078125
3017		-82.031250
3018		-78.125000
3019		-80.078125
3020		-78.125000
3021		-80.078125
3022		-78.125000
3023		-80.078125
3024		-76.171875
3025		-80.078125
3026		-76.171875
3027		-78.125000
3028		-74.218750
3029		-76.171875
3030		-72.265625
3031		-76.171875
3032		-72.265625
3033		-74.218750
3034		-72.265625
3035		-74.218750
3036		-70.312500
3037		-74.218750
3038		-68.359375
3039		-72.265625
3040		-66.406250
3041		-70.312500
3042		-66.406250
3043		-68.359375
3044		-64.453125
3045		-68.359375
3046		-62.500000
3047		-66.406250
3048		-62.500000
3049		-64.453125
3050		-60.546875
3051		-62.500000
3052		-58.593750
3053		-60.546875
3054		-56.640625
3055		-58.593750
3056		-54.687500
3057		-56.640625
3058		-52.734375
3059		-56.640625
3060		-50.781250
3061		-52.734375
3062		-48.828125
3063		-52.734375
3064		-48.828125
3065		-48.828125
3066		-44.921875
3067		-48.828125
3068		-42.968750
3069		-46.875000
3070		-41.015625
3071		-42.968750
3072		-39.062500
3073		-41.015625
3074		-37.109375
3075		-39.062500
3076		-35.156250
3077		-37.109375
3078		-33.203125
3079		-35.156250
3080		-31.250000
3081		-33.203125
3082		-29.296875
3083		-31.250000
3084		-25.390625
3085		-27.343750
3086		-23.437500
3087		-25.390625
3088		-21.484375
3089		-23.437500
3090		-19.531250
3091		-21.484375
3092		-15.625000
3093		-19.531250
3094		-13.671875
3095		-17.578125
3096		-11.718750
3097		-13.671875
3098		-9.765625
3099		-11.718750
3100		-7.812500
3101		-9.765625
3102		-3.906250
3103		-5.859375
3104		-1.953125
3105		-3.906250
3106		0.000000
3107		-1.953125
3108		1.953125
3109		0.000000
3110		3.906250
3111		1.953125
3112		7.812500
3113		5.859375
3114		9.765625
3115		7.812500
3116		11.718750
3117		9.765625
3118		15.625000
3119		11.718750
3120		17.578125
3121		15.625000
3122		19.531250
3123		17.578125
3124		21.484375
3125		19.531250
3126		23.437500
3127		21.484375
3128		27.343750
3129		25.390625
3130		29.296875
3131		25.390625
3132		31.250000
3133		29.296875
3134		33.203125
3135		31.250000
3136		35.156250
3137		33.203125
3138		37.109375
3139		35.156250
3140		41.015625
3141		37.109375
3142		42.968750
3143		39.062500
3144		44.921875
3145		42.968750
3146		46.875000
3147		44.921875
3148		48.828125
3149		46.875000
3150		50.781250
3151		48.828125
3152		52.734375
3153		50.781250
3154		54.687500
3155		52.734375
3156		58.593750
3157		54.687500
3158		58.593750
3159		56.640625
3160		60.546875
3161		58.593750
3162		62.500000
3163		60.546875
3164		64.453125
3165		60.546875
3166		66.406250
3167		64.453125
3168		68.359375
3169		66.406250
3170		70.312500
3171		68.359375
3172		70.312500
3173		70.312500
3174		72.265625
3175		70.312500
3176		74.218750
3177		72.265625
3178		76.171875
3179		74.218750
3180		78.125000
3181		76.171875
3182		78.125000
3183		76.171875
3184		80.078125
3185		78.125000
3186		82.031250
3187		78.125000
3188		83.984375
3189		80.078125
3190		83.984375
3191		82.031250
3192		85.937500
3193		83.984375
3194		85.937500
3195		83.984375
3196		87.890625
3197		85.937500
3198		89.843750
3199		85.937500
3200		89.843750
3201		87.890625
3202		89.843750
3203		87.890625
3204		91.796875
3205		87.890625
3206		91.796875
3207		89.843750
3208		93.750000
3209		89.843750
3210		95.703125
3211		91.796875
3212		95.703125
3213		91.796875
3214		95.703125
3215		91.796875
3216		95.703125
3217		93.750000
3218		95.703125
3219		93.750000
3220		97.656250
3221		93.750000
3222		97.656250
3223		93.750000
3224		97.656250
3225		93.750000
3226		97.656250
3227		95.703125
3228		97.656250
3229		95.703125
3230		99.609375
3231		95.703125
3232		99.609375
3233		95.703125
3234		99.609375
3235		95.703125
3236		99.609375
3237		95.703125
3238		99.609375
3239		95.703125
3240		99.609375
3241		95.703125
3242		99.609375
3243		95.703125
3244		99.609375
3245		95.703125
3246		99.609375
3247		95.703125
3248		99.609375
3249		95.703125
3250		99.609375
3251		95.703125
3252		97.656250
3253		93.750000
3254		97.656250
3255		93.750000
3256		97.656250
3257		93.750000
3258		97.656250
3259		93.750000
3260		95.703125
3261		91.796875
3262		95.703125
3263		91.796875
3264		95.703125
3265		91.796875
3266		93.750000
3267		89.843750
3268		93.750000
3269		87.890625
3270		93.750000
3271		87.890625
3272		91.796875
3273		87.890625
3274		91.796875
3275		85.937500
3276		89.843750
3277		85.937500
3278		89.843750
3279		83.984375
3280		87.890625
3281		82.031250
3282		85.937500
3283		82.031250
3284		85.937500
3285		80.078125
3286		83.984375
3287		80.078125
3288		82.031250
3289		78.125000
3290		82.031250
3291		76.171875
3292		80.078125
3293		76.171875
3294		78.125000
3295		72.265625
3296		78.125000
3297		72.265625
3298		76.171875
3299		70.312500
3300		74.218750
3301		68.359375
3302		72.265625
3303		66.406250
3304		70.312500
3305		64.453125
3306		68.359375
3307		62.500000
3308		68.359375
3309		62.500000
3310		64.453125
3311		58.593750
3312		64.453125
3313		58.593750
3314		62.500000
3315		54.687500
3316		60.546875
3317		52.734375
3318		58.593750
3319		52.734375
3320		56.640625
3321		48.828125
3322		54.687500
3323		46.875000
3324		52.734375
3325		44.921875
3326		50.781250
3327		42.968750
3328		46.875000
3329		41.015625
3330		44.921875
3331		39.062500
3332		42.968750
3333		37.109375
3334		41.015625
3335		35.156250
3336		39.062500
3337		31.250000
3338		37.109375
3339		29.296875
3340		35.156250
3341		27.343750
3342		33.203125
3343		25.390625
3344		29.296875
3345		23.437500
3346		27.343750
3347		19.531250
3348		25.390625
3349		17.578125
3350		23.437500
3351		15.625000
3352		19.531250
3353		13.671875
3354		17.578125
3355		9.765625
3356		15.625000
3357		7.812500
3358		13.671875
3359		5.859375
3360		9.765625
3361		3.906250
3362		7.812500
3363		0.000000
3364		5.859375
3365		-1.953125
3366		1.953125
3367		-3.906250
3368		0.000000
3369		-5.859375
3370		-1.953125
3371		-9.765625
3372		-3.906250
3373		-11.718750
3374		-7.812500
3375		-13.671875
3376		-9.765625
3377		-15.625000
3378		-11.718750
3379		-19.531250
3380		-13.671875
3381		-21.484375
3382		-15.625000
3383		-23.437500
3384		-17.578125
3385		-25.390625
3386		-21.484375
3387		-27.343750
3388		-23.437500
3389		-29.296875
3390		-25.390625
3391		-33.203125
3392		-27.343750
3393		-35.156250
3394		-29.296875
3395		-37.109375
3396		-33.203125
3397		-39.062500
3398		-35.156250
3399		-41.015625
3400		-37.109375
3401		-42.968750
3402		-39.062500
3403		-44.921875
3404		-41.015625
3405		-48.828125
3406		-41.015625
3407		-48.828125
3408		-44.921875
3409		-50.781250
3410		-46.875000
3411		-52.734375
3412		-48.828125
3413		-54.687500
3414		-50.781250
3415		-58.593750
3416		-52.734375
3417		-58.593750
3418		-54.687500
3419		-60.546875
3420		-56.640625
3421		-62.500000
3422		-58.593750
3423		-64.453125
3424		-60.546875
3425		-64.453125
3426		-60.546875
3427		-66.406250
3428		-62.500000
3429		-68.359375
3430		-64.453125
3431		-70.312500
3432		-66.406250
3433		-70.312500
3434		-66.406250
3435		-72.265625
3436		-68.359375
3437		-74.218750
3438		-70.312500
3439		-74.218750
3440		-70.312500
3441		-76.171875
3442		-72.265625
3443		-76.171875
3444		-74.218750
3445		-78.125000
3446		-74.218750
3447		-78.125000
3448		-74.218750
3449		-80.078125
3450		-74.218750
3451		-80.078125
3452		-76.171875
3453		-80.078125
3454		-78.125000
3455		-82.031250
3456		-78.125000
3457		-82.031250
3458		-78.125000
3459		-82.031250
3460		-80.078125
3461		-82.031250
3462		-80.078125
3463		-83.984375
3464		-80.078125
3465		-83.984375
3466		-80.078125
3467		-83.984375
3468		-80.078125
3469		-83.984375
3470		-80.078125
3471		-83.984375
3472		-80.078125
3473		-83.984375
3474		-80.078125
3475		-83.984375
3476		-80.078125
3477		-83.984375
3478		-80.078125
3479		-83.984375
3480		-80.078125
3481		-83.984375
3482		-80.078125
3483		-83.984375
3484		-80.078125
3485		-82.031250
3486		-80.078125
3487		-82.031250
3488		-78.125000
3489		-82.031250
3490		-78.125000
3491		-80.078125
3492		-78.125000
3493		-80.078125
3494		-76.171875
3495		-80.078125
3496		-76.171875
3497		-78.125000
3498		-74.218750
3499		-78.125000
3500		-74.218750
3501		-78.125000
3502		-72.265625
3503		-74.218750
3504		-72.265625
3505		-74.218750
3506		-70.312500
3507		-72.265625
3508		-70.312500
3509		-72.265625
3510		-68.359375
3511		-70.312500
3512		-66.406250
3513		-70.312500
3514		-64.453125
3515		-68.359375
3516		-64.453125
3517		-66.406250
3518		-62.500000
3519		-64.453125
3520		-60.546875
3521		-62.500000
3522		-58.593750
3523		-62.500000
3524		-56.640625
3525		-60.546875
3526		-56.640625
3527		-58.593750
3528		-52.734375
3529		-56.640625
3530		-52.734375
3531		-54.687500
3532		-50.781250
3533		-52.734375
3534		-48.828125
3535		-50.781250
3536		-46.875000
3537		-48.828125
3538		-44.921875
3539		-46.875000
3540		-42.968750
3541		-44.921875
3542		-41.015625
3543		-42.968750
3544		-39.062500
3545		-41.015625
3546		-35.156250
3547		-37.109375
3548		-33.203125
3549		-35.156250
3550		-31.250000
3551		-33.203125
3552		-29.296875
3553		-31.250000
3554		-27.343750
3555		-29.296875
3556		-23.437500
3557		-27.343750
3558		-21.484375
3559		-25.390625
3560		-19.531250
3561		-23.437500
3562		-17.578125
3563		-19.531250
3564		-15.625000
3565		-17.578125
3566		-13.671875
3567		-15.625000
3568		-9.765625
3569		-11.718750
3570		-7.812500
3571		-9.765625
3572		-5.859375
3573		-7.812500
3574		-3.906250
3575		-5.859375
3576		-1.953125
3577		-3.906250
3578		1.953125
3579		0.000000
3580		3.906250
3581		1.953125
3582		5.859375
3583		3.906250
3584		9.765625
3585		5.859375
3586		11.718750
3587		9.765625
3588		13.671875
3589		11.718750
3590		15.625000
3591		13.671875
3592		17.578125
3593		15.625000
3594		21.484375
3595		17.578125
3596		23.437500
3597		21.484375
3598		25.390625
3599		23.437500
3600		27.343750
3601		25.390625
3602		29.296875
3603		27.343750
3604		33.203125
3605		31.250000
3606		35.156250
3607		31.250000
3608		37.109375
3609		35.156250
3610		39.062500
3611		37.109375
3612		41.015625
3613		39.062500
3614		44.921875
3615		41.015625
3616		44.921875
3617		42.968750
3618		46.875000
3619		44.921875
3620		50.781250
3621		48.828125
3622		52.734375
3623		48.828125
3624		54.687500
3625		50.781250
3626		56.640625
3627		54.687500
3628		58.593750
3629		56.640625
3630		60.546875
3631		58.593750
3632		62.500000
3633		58.593750
3634		64.453125
3635		60.546875
3636		64.453125
3637		64.453125
3638		68.359375
3639		64.453125
3640		70.312500
3641		66.406250
3642		70.312500
3643		68.359375
3644		72.265625
3645		70.312500
3646		74.218750
3647		72.265625
3648		76.171875
3649		72.265625
3650		76.171875
3651		74.218750
3652		80.078125
3653		76.171875
3654		80.078125
3655		78.125000
3656		82.031250
3657		78.125000
3658		82.031250
3659		80.078125
3660		83.984375
3661		82.031250
3662		85.937500
3663		82.031250
3664		85.937500
3665		83.984375
3666		87.890625
3667		83.984375
3668		87.890625
3669		85.937500
3670		89.843750
3671		87.890625
3672		89.843750
3673		87.890625
3674		91.796875
3675		89.843750
3676		91.796875
3677		89.843750
3678		93.750000
3679		89.843750
3680		93.750000
3681		91.796875
3682		95.703125
3683		91.796875
3684		95.703125
3685		91.796875
3686		95.703125
3687		93.750000
3688		95.703125
3689		93.750000
3690		97.656250
3691		93.750000
3692		97.656250
3693		95.703125
3694		97.656250
3695		95.703125
3696		99.609375
3697		95.703125
3698		99.609375
3699		95.703125
3700		99.609375
3701		95.703125
3702		99.609375
3703		95.703125
3704		99.609375
3705		95.703125
3706		99.609375
3707		95.703125
3708		99.609375
3709		95.703125
3710		99.609375
3711		95.703125
3712		99.609375
3713		95.703125
3714		99.609375
3715		95.703125
3716		99.609375
3717		95.703125
3718		99.609375
3719		95.703125
3720		99.609375
3721		95.703125
3722		97.656250
3723		93.750000
3724		97.656250
3725		93.750000
3726		97.656250
3727		93.750000
3728		97.656250
3729		93.750000
3730		97.656250
3731		91.796875
3732		95.703125
3733		91.796875
3734		95.703125
3735		91.796875
3736		93.750000
3737		89.843750
3738		93.750000
3739		89.843750
3740		93.750000
3741		87.890625
3742		91.796875
3743		87.890625
3744		91.796875
3745		85.937500
3746		89.843750
3747		85.937500
3748		87.890625
3749		83.984375
3750		87.890625
3751		83.984375
3752		85.937500
3753		82.031250
3754		85.937500
3755		80.078125
3756		83.984375
3757		80.078125
3758		83.984375
3759		78.125000
3760		82.031250
3761		76.171875
3762		80.078125
3763		74.218750
3764		80.078125
3765		74.218750
3766		78.125000
3767		72.265625
3768		76.171875
3769		70.312500
3770		76.171875
3771		68.359375
3772		72.265625
3773		68.359375
3774		72.265625
3775		66.406250
3776		70.312500
3777		64.453125
3778		68.359375
3779		62.500000
3780		66.406250
3781		60.546875
3782		64.453125
3783		58.593750
3784		62.500000
3785		56.640625
3786		60.546875
3787		54.687500
3788		58.593750
3789		52.734375
3790		56.640625
3791		50.781250
3792		54.687500
3793		46.875000
3794		52.734375
3795		46.875000
3796		50.781250
3797		44.921875
3798		48.828125
3799		41.015625
3800		46.875000
3801		39.062500
3802		44.921875
3803		37.109375
3804		41.015625
3805		35.156250
3806		39.062500
3807		33.203125
3808		37.109375
3809		31.250000
3810		35.156250
3811		27.343750
3812		33.203125
3813		25.390625
3814		31.250000
3815		23.437500
3816		27.343750
3817		21.484375
3818		25.390625
3819		17.578125
3820		23.437500
3821		15.625000
3822		21.484375
3823		13.671875
3824		19.531250
3825		11.718750
3826		15.625000
3827		9.765625
3828		13.671875
3829		5.859375
3830		11.718750
3831		3.906250
3832		9.765625
3833		1.953125
3834		5.859375
3835		0.000000
3836		3.906250
3837		-1.953125
3838		1.953125
3839		-5.859375
3840		0.000000
3841		-7.812500
3842		-3.906250
3843		-9.765625
3844		-5.859375
3845		-13.671875
3846		-7.812500
3847		-15.625000
3848		-9.765625
3849		-17.578125
3850		-13.671875
3851		-19.531250
3852		-15.625000
3853		-23.437500
3854		-17.578125
3855		-25.390625
3856		-19.531250
3857		-27.343750
3858		-21.484375
3859		-29.296875
3860		-25.390625
3861		-31.250000
3862		-27.343750
3863		-33.203125
3864		-29.296875
3865		-37.109375
3866		-31.250000
3867		-37.109375
3868		-33.203125
3869		-41.015625
3870		-35.156250
3871		-42.968750
3872		-37.109375
3873		-44.921875
3874		-41.015625
3875		-46.875000
3876		-42.968750
3877		-48.828125
3878		-44.921875
3879		-50.781250
3880		-46.875000
3881		-52.734375
3882		-48.828125
3883		-54.687500
3884		-50.781250
3885		-56.640625
3886		-52.734375
3887		-58.593750
3888		-54.687500
3889		-60.546875
3890		-56.640625
3891		-62.500000
3892		-58.593750
3893		-62.500000
3894		-58.593750
3895		-64.453125
3896		-60.546875
3897		-66.406250
3898		-62.500000
3899		-68.359375
3900		-64.453125
3901		-70.312500
3902		-64.453125
3903		-72.265625
3904		-66.406250
3905		-72.265625
3906		-68.359375
3907		-72.265625
3908		-70.312500
3909		-74.218750
3910		-70.312500
3911		-76.171875
3912		-72.265625
3913		-76.171875
3914		-72.265625
3915		-78.125000
3916		-74.218750
3917		-78.125000
3918		-74.218750
3919		-78.125000
3920		-76.171875
3921		-80.078125
3922		-76.171875
3923		-80.078125
3924		-78.125000
3925		-82.031250
3926		-78.125000
3927		-82.031250
3928		-78.125000
3929		-82.031250
3930		-80.078125
3931		-82.031250
3932		-78.125000
3933		-83.984375
3934		-80.078125
3935		-83.984375
3936		-80.078125
3937		-83.984375
3938		-80.078125
3939		-83.984375
3940		-80.078125
3941		-83.984375
3942		-80.078125
3943		-83.984375
3944		-80.078125
3945		-83.984375
3946		-80.078125
3947		-83.984375
3948		-80.078125
3949		-83.984375
3950		-80.078125
3951		-82.031250
3952		-80.078125
3953		-82.031250
3954		-80.078125
3955		-82.031250
3956		-80.078125
3957		-82.031250
3958		-78.125000
3959		-82.031250
3960		-78.125000
3961		-80.078125
3962		-78.125000
3963		-80.078125
3964		-76.171875
3965		-80.078125
3966		-76.171875
3967		-78.125000
3968		-74.218750
3969		-78.125000
3970		-74.218750
3971		-76.171875
3972		-72.265625
3973		-76.171875
3974		-72.265625
3975		-74.218750
3976		-70.312500
3977		-74.218750
3978		-68.359375
3979		-72.265625
3980		-68.359375
3981		-70.312500
3982		-66.406250
3983		-68.359375
3984		-66.406250
3985		-68.359375
3986		-64.453125
3987		-66.406250
3988		-62.500000
3989		-64.453125
3990		-60.546875
3991		-64.453125
3992		-60.546875
3993		-62.500000
3994		-56.640625
3995		-60.546875
3996		-56.640625
3997		-58.593750
3998		-54.687500
3999		-56.640625
4000		-52.734375
4001		-56.640625
4002		-50.781250
4003		-52.734375
4004		-48.828125
4005		-50.781250
4006		-46.875000
4007		-48.828125
4008		-44.921875
4009		-46.875000
4010		-42.968750
4011		-44.921875
4012		-41.015625
4013		-42.968750
4014		-39.062500
4015		-41.015625
4016		-37.109375
4017		-39.062500
4018		-33.203125
4019		-37.109375
4020		-33.203125
4021		-35.156250
4022		-29.296875
4023		-31.250000
4024		-27.343750
4025		-29.296875
4026		-25.390625
4027		-27.343750
4028		-23.437500
4029		-25.390625
4030		-21.484375
4031		-23.437500
4032		-17.578125
4033		-19.531250
4034		-15.625000
4035		-17.578125
4036		-13.671875
4037		-15.625000
4038		-11.718750
4039		-13.671875
4040		-9.765625
4041		-11.718750
4042		-5.859375
4043		-9.765625
4044		-3.906250
4045		-5.859375
4046		-1.953125
4047		-3.906250
4048		0.000000
4049		-1.953125
4050		3.906250
4051		0.000000
4052		5.859375
4053		1.953125
4054		7.812500
4055		5.859375
4056		9.765625
4057		7.812500
4058		13.671875
4059		11.718750
4060		15.625000
4061		11.718750
4062		17.578125
4063		15.625000
4064		19.531250
4065		17.578125
4066		21.484375
4067		21.484375
4068		25.390625
4069		23.437500
4070		27.343750
4071		25.390625
4072		31.250000
4073		27.343750
4074		31.250000
4075		29.296875
4076		35.156250
4077		31.250000
4078		37.109375
4079		35.156250
4080		39.062500
4081		37.109375
4082		41.015625
4083		39.062500
4084		42.968750
4085		41.015625
4086		44.921875
4087		42.968750
4088		46.875000
4089		44.921875
4090		48.828125
4091		46.875000
4092		50.781250
4093		48.828125
4094		54.687500
4095		50.781250
4096		54.687500
4097		52.734375
4098		56.640625
4099		54.687500
4100		60.546875
4101		56.640625
4102		60.546875
4103		58.593750
4104		62.500000
4105		60.546875
4106		64.453125
4107		62.500000
4108		66.406250
4109		64.453125
4110		68.359375
4111		66.406250
4112		70.312500
4113		68.359375
4114		72.265625
4115		70.312500
4116		74.218750
4117		72.265625
4118		74.218750
4119		72.265625
4120		76.171875
4121		74.218750
4122		78.125000
4123		74.218750
4124		80.078125
4125		78.125000
4126		80.078125
4127		78.125000
4128		82.031250
4129		80.078125
4130		83.984375
4131		82.031250
4132		83.984375
4133		82.031250
4134		85.937500
4135		83.984375
4136		87.890625
4137		83.984375
4138		87.890625
4139		85.937500
4140		89.843750
4141		87.890625
4142		89.843750
4143		87.890625
4144		91.796875
4145		87.890625
4146		91.796875
4147		89.843750
4148		93.750000
4149		89.843750
4150		93.750000
4151		91.796875
4152		95.703125
4153		91.796875
4154		95.703125
4155		91.796875
4156		95.703125
4157		93.750000
4158		97.656250
4159		93.750000
4160		97.656250
4161		93.750000
4162		97.656250
4163		95.703125
4164		97.656250
4165		95.703125
4166		97.656250
4167		95.703125
4168		99.609375
4169		95.703125
4170		99.609375
4171		95.703125
4172		99.609375
4173		95.703125
4174		99.609375
4175		95.703125
4176		99.609375
4177		97.656250
4178		99.609375
4179		97.656250
4180		99.609375
4181		97.656250
4182		99.609375
4183		95.703125
4184		99.609375
4185		95.703125
4186		99.609375
4187		95.703125
4188		99.609375
4189		95.703125
4190		99.609375
4191		95.703125
4192		97.656250
4193		95.703125
4194		97.656250
4195		93.750000
4196		99.609375
4197		93.750000
4198		97.656250
4199		93.750000
4200		97.656250
4201		93.750000
4202		95.703125
4203		91.796875
4204		95.703125
4205		91.796875
4206		95.703125
4207		89.843750
4208		95.703125
4209		89.843750
4210		93.750000
4211		87.890625
4212		93.750000
4213		87.890625
4214		91.796875
4215		87.890625
4216		91.796875
4217		85.937500
4218		89.843750
4219		85.937500
4220		89.843750
4221		83.984375
4222		87.890625
4223		82.031250
4224		87.890625
4225		82.031250
4226		85.937500
4227		80.078125
4228		83.984375
4229		80.078125
4230		83.984375
4231		78.125000
4232		82.031250
4233		76.171875
4234		80.078125
4235		74.218750
4236		78.125000
4237		74.218750
4238		78.125000
4239		72.265625
4240		76.171875
4241		70.312500
4242		74.218750
4243		68.359375
4244		72.265625
4245		66.406250
4246		70.312500
4247		64.453125
4248		68.359375
4249		64.453125
4250		66.406250
4251		60.546875
4252		66.406250
4253		60.546875
4254		64.453125
4255		58.593750
4256		62.500000
4257		54.687500
4258		60.546875
4259		54.687500
4260		58.593750
4261		52.734375
4262		56.640625
4263		48.828125
4264		54.687500
4265		46.875000
4266		52.734375
4267		44.921875
4268		50.781250
4269		42.968750
4270		48.828125
4271		41.015625
4272		46.875000
4273		37.109375
4274		42.968750
4275		37.109375
4276		41.015625
4277		35.156250
4278		39.062500
4279		33.203125
4280		37.109375
4281		29.296875
4282		35.156250
4283		25.390625
4284		33.203125
4285		25.390625
4286		29.296875
4287		23.437500
4288		29.296875
4289		19.531250
4290		25.390625
4291		17.578125
4292		23.437500
4293		15.625000
4294		19.531250
4295		11.718750
4296		17.578125
4297		9.765625
4298		15.625000
4299		7.812500
4300		13.671875
4301		5.859375
4302		9.765625
4303		1.953125
4304		7.812500
4305		1.953125
4306		5.859375
4307		-1.953125
4308		3.906250
4309		-3.906250
4310		0.000000
4311		-5.859375
4312		-1.953125
4313		-9.765625
4314		-3.906250
4315		-11.718750
4316		-5.859375
4317		-13.671875
4318		-7.812500
4319		-15.625000
4320		-9.765625
4321		-19.531250
4322		-13.671875
4323		-21.484375
4324		-15.625000
4325		-23.437500
4326		-17.578125
4327		-25.390625
4328		-21.484375
4329		-29.296875
4330		-23.437500
4331		-31.250000
4332		-25.390625
4333		-33.203125
4334		-27.343750
4335		-35.156250
4336		-29.296875
4337		-39.062500
4338		-31.250000
4339		-39.062500
4340		-33.203125
4341		-41.015625
4342		-37.109375
4343		-42.968750
4344		-39.062500
4345		-46.875000
4346		-41.015625
4347		-48.828125
4348		-42.968750
4349		-48.828125
4350		-42.968750
4351		-50.781250
4352		-44.921875
4353		-52.734375
4354		-48.828125
4355		-56.640625
4356		-50.781250
4357		-56.640625
4358		-50.781250
4359		-58.593750
4360		-54.687500
4361		-60.546875
4362		-56.640625
4363		-62.500000
4364		-58.593750
4365		-64.453125
4366		-58.593750
4367		-66.406250
4368		-60.546875
4369		-66.406250
4370		-62.500000
4371		-68.359375
4372		-62.500000
4373		-70.312500
4374		-64.453125
4375		-70.312500
4376		-66.406250
4377		-72.265625
4378		-68.359375
4379		-74.218750
4380		-68.359375
4381		-74.218750
4382		-70.312500
4383		-74.218750
4384		-72.265625
4385		-76.171875
4386		-72.265625
4387		-76.171875
4388		-74.218750
4389		-78.125000
4390		-74.218750
4391		-80.078125
4392		-76.171875
4393		-80.078125
4394		-76.171875
4395		-80.078125
4396		-76.171875
4397		-80.078125
4398		-76.171875
4399		-82.031250
4400		-78.125000
4401		-82.031250
4402		-78.125000
4403		-82.031250
4404		-80.078125
4405		-82.031250
4406		-80.078125
4407		-82.031250
4408		-80.078125
4409		-83.984375
4410		-78.125000
4411		-82.031250
4412		-80.078125
4413		-82.031250
4414		-80.078125
4415		-82.031250
4416		-80.078125
4417		-82.031250
4418		-80.078125
4419		-82.031250
4420		-78.125000
4421		-82.031250
4422		-80.078125
4423		-82.031250
4424		-80.078125
4425		-82.031250
4426		-78.125000
4427		-82.031250
4428		-78.125000
4429		-80.078125
4430		-78.125000
4431		-80.078125
4432		-76.171875
4433		-80.078125
4434		-76.171875
4435		-78.125000
4436		-76.171875
4437		-78.125000
4438		-74.218750
4439		-76.171875
4440		-74.218750
4441		-76.171875
4442		-72.265625
4443		-76.171875
4444		-72.265625
4445		-74.218750
4446		-70.312500
4447		-72.265625
4448		-70.312500
4449		-72.265625
4450		-68.359375
4451		-70.312500
4452		-66.406250
4453		-70.312500
4454		-66.406250
4455		-68.359375
4456		-64.453125
4457		-66.406250
4458		-62.500000
4459		-64.453125
4460		-60.546875
4461		-64.453125
4462		-60.546875
4463		-62.500000
4464		-58.593750
4465		-60.546875
4466		-56.640625
4467		-58.593750
4468		-54.687500
4469		-56.640625
4470		-52.734375
4471		-54.687500
4472		-50.781250
4473		-52.734375
4474		-48.828125
4475		-50.781250
4476		-46.875000
4477		-48.828125
4478		-44.921875
4479		-46.875000
4480		-42.968750
4481		-46.875000
4482		-39.062500
4483		-46.875000
4484		-37.109375
4485		-42.968750
4486		-35.156250
4487		-39.062500
4488		-35.156250
4489		-37.109375
4490		-31.250000
4491		-35.156250
4492		-31.250000
4493		-33.203125
4494		-27.343750
4495		-29.296875
4496		-25.390625
4497		-29.296875
4498		-21.484375
4499		-27.343750
4500		-17.578125
4501		-25.390625
4502		-15.625000
4503		-21.484375
4504		-17.578125
4505		-19.531250
4506		-13.671875
4507		-15.625000
4508		-11.718750
4509		-13.671875
4510		-9.765625
4511		-11.718750
4512		-7.812500
4513		-9.765625
4514		-3.906250
4515		-9.765625
4516		0.000000
4517		-5.859375
4518		3.906250
4519		-3.906250
4520		3.906250
4521		0.000000
4522		5.859375
4523		1.953125
4524		7.812500
4525		5.859375
4526		9.765625
4527		7.812500
4528		11.718750
4529		9.765625
4530		15.625000
4531		11.718750
4532		19.531250
4533		13.671875
4534		21.484375
4535		15.625000
4536		25.390625
4537		19.531250
4538		25.390625
4539		21.484375
4540		27.343750
4541		25.390625
4542		29.296875
4543		27.343750
4544		31.250000
4545		29.296875
4546		33.203125
4547		29.296875
4548		39.062500
4549		31.250000
4550		41.015625
4551		33.203125
4552		42.968750
4553		35.156250
4554		42.968750
4555		41.015625
4556		44.921875
4557		42.968750
4558		46.875000
4559		42.968750
4560		48.828125
4561		46.875000
4562		50.781250
4563		48.828125
4564		52.734375
4565		48.828125
4566		56.640625
4567		50.781250
4568		60.546875
4569		52.734375
4570		60.546875
4571		56.640625
4572		60.546875
4573		58.593750
4574		62.500000
4575		60.546875
4576		64.453125
4577		62.500000
4578		66.406250
4579		64.453125
4580		68.359375
4581		64.453125
4582		72.265625
4583		64.453125
4584		74.218750
4585		66.406250
4586		76.171875
4587		68.359375
4588		76.171875
4589		72.265625
4590		76.171875
4591		74.218750
4592		78.125000
4593		76.171875
4594		80.078125
4595		76.171875
4596		80.078125
4597		78.125000
4598		82.031250
4599		76.171875
4600		87.890625
4601		78.125000
4602		87.890625
4603		78.125000
4604		87.890625
4605		83.984375
4606		87.890625
4607		83.984375
4608		87.890625
4609		85.937500
4610		89.843750
4611		87.890625
4612		89.843750
4613		87.890625
4614		91.796875
4615		85.937500
4616		95.703125
4617		87.890625
4618		95.703125
4619		87.890625
4620		97.656250
4621		91.796875
4622		93.750000
4623		91.796875
4624		95.703125
4625		91.796875
4626		95.703125
4627		93.750000
4628		95.703125
4629		93.750000
4630		97.656250
4631		91.796875
4632		101.562500
4633		91.796875
4634		101.562500
4635		93.750000
4636		101.562500
4637		93.750000
4638		101.562500
4639		95.703125
4640		99.609375
4641		97.656250
4642		99.609375
4643		97.656250
4644		99.609375
4645		97.656250
4646		99.609375
4647		97.656250
4648		99.609375
4649		93.750000
4650		103.515625
4651		93.750000
4652		103.515625
4653		93.750000
4654		103.515625
4655		97.656250
4656		99.609375
4657		97.656250
4658		99.609375
4659		97.656250
4660		99.609375
4661		95.703125
4662		99.609375
4663		95.703125
4664		99.609375
4665		95.703125
4666		97.656250
4667		93.750000
4668		99.609375
4669		91.796875
4670		101.562500
4671		93.750000
4672		97.656250
4673		93.750000
4674		95.703125
4675		91.796875
4676		95.703125
4677		91.796875
4678		95.703125
4679		91.796875
4680		93.750000
4681		89.843750
4682		93.750000
4683		89.843750
4684		91.796875
4685		85.937500
4686		93.750000
4687		85.937500
4688		93.750000
4689		85.937500
4690		89.843750
4691		85.937500
4692		89.843750
4693		83.984375
4694		87.890625
4695		83.984375
4696		85.937500
4697		82.031250
4698		85.937500
4699		80.078125
4700		83.984375
4701		78.125000
4702		83.984375
4703		76.171875
4704		82.031250
4705		76.171875
4706		80.078125
4707		74.218750
4708		78.125000
4709		74.218750
4710		76.171875
4711		72.265625
4712		74.218750
4713		70.312500
4714		74.218750
4715		68.359375
4716		72.265625
4717		66.406250
4718		70.312500
4719		64.453125
4720		68.359375
4721		62.500000
4722		66.406250
4723		60.546875
4724		64.453125
4725		58.593750
4726		62.500000
4727		56.640625
4728		60.546875
4729		54.687500
4730		58.593750
4731		52.734375
4732		58.593750
4733		50.781250
4734		54.687500
4735		48.828125
4736		52.734375
4737		46.875000
4738		50.781250
4739		44.921875
4740		48.828125
4741		42.968750
4742		46.875000
4743		41.015625
4744		44.921875
4745		39.062500
4746		42.968750
4747		35.156250
4748		41.015625
4749		33.203125
4750		37.109375
4751		31.250000
4752		35.156250
4753		29.296875
4754		33.203125
4755		27.343750
4756		31.250000
4757		25.390625
4758		29.296875
4759		21.484375
4760		25.390625
4761		19.531250
4762		23.437500
4763		17.578125
4764		21.484375
4765		13.671875
4766		19.531250
4767		11.718750
4768		17.578125
4769		9.765625
4770		15.625000
4771		7.812500
4772		11.718750
4773		3.906250
4774		9.765625
4775		1.953125
4776		7.812500
4777		0.000000
4778		3.906250
4779		-1.953125
4780		1.953125
4781		-3.906250
4782		0.000000
4783		-7.812500
4784		-1.953125
4785		-9.765625
4786		-5.859375
4787		-11.718750
4788		-7.812500
4789		-15.625000
4790		-9.765625
4791		-17.578125
4792		-11.718750
4793		-19.531250
4794		-13.671875
4795		-21.484375
4796		-17.578125
4797		-23.437500
4798		-19.531250
4799		-27.343750
4800		-21.484375
4801		-29.296875
4802		-23.437500
4803		-31.250000
4804		-25.390625
4805		-33.203125
4806		-29.296875
4807		-35.156250
4808		-31.250000
4809		-37.109375
4810		-33.203125
4811		-39.062500
4812		-35.156250
4813		-41.015625
4814		-37.109375
4815		-42.968750
4816		-39.062500
4817		-46.875000
4818		-41.015625
4819		-46.875000
4820		-42.968750
4821		-50.781250
4822		-44.921875
4823		-52.734375
4824		-46.875000
4825		-52.734375
4826		-48.828125
4827		-54.687500
4828		-50.781250
4829		-56.640625
4830		-52.734375
4831		-58.593750
4832		-54.687500
4833		-60.546875
4834		-56.640625
4835		-62.500000
4836		-56.640625
4837		-64.453125
4838		-60.546875
4839		-66.406250
4840		-60.546875
4841		-66.406250
4842		-62.500000
4843		-68.359375
4844		-64.453125
4845		-70.312500
4846		-66.406250
4847		-70.312500
4848		-66.406250
4849		-72.265625
4850		-68.359375
4851		-74.218750
4852		-68.359375
4853		-74.218750
4854		-70.312500
4855		-76.171875
4856		-72.265625
4857		-76.171875
4858		-72.265625
4859		-76.171875
4860		-72.265625
4861		-78.125000
4862		-74.218750
4863		-78.125000
4864		-76.171875
4865		-80.078125
4866		-76.171875
4867		-82.031250
4868		-76.171875
4869		-80.078125
4870		-78.125000
4871		-80.078125
4872		-78.125000
4873		-82.031250
4874		-78.125000
4875		-82.031250
4876		-78.125000
4877		-82.031250
4878		-78.125000
4879		-82.031250
4880		-80.078125
4881		-82.031250
4882		-80.078125
4883		-83.984375
4884		-78.125000
4885		-83.984375
4886		-80.078125
4887		-82.031250
4888		-80.078125
4889		-82.031250
4890		-80.078125
4891		-82.031250
4892		-78.125000
4893		-82.031250
4894		-78.125000
4895		-82.031250
4896		-78.125000
4897		-80.078125
4898		-78.125000
4899		-82.031250
4900		-78.125000
4901		-80.078125
4902		-76.171875
4903		-80.078125
4904		-76.171875
4905		-78.125000
4906		-76.171875
4907		-78.125000
4908		-74.218750
4909		-78.125000
4910		-74.218750
4911		-76.171875
4912		-72.265625
4913		-76.171875
4914		-72.265625
4915		-74.218750
4916		-72.265625
4917		-74.218750
4918		-68.359375
4919		-72.265625
4920		-68.359375
4921		-70.312500
4922		-68.359375
4923		-70.312500
4924		-66.406250
4925		-68.359375
4926		-64.453125
4927		-66.406250
4928		-62.500000
4929		-64.453125
4930		-62.500000
4931		-64.453125
4932		-60.546875
4933		-64.453125
4934		-58.593750
4935		-60.546875
4936		-56.640625
4937		-60.546875
4938		-54.687500
4939		-56.640625
4940		-52.734375
4941		-54.687500
4942		-50.781250
4943		-54.687500
4944		-48.828125
4945		-50.781250
4946		-48.828125
4947		-50.781250
4948		-44.921875
4949		-48.828125
4950		-42.968750
4951		-46.875000
4952		-41.015625
4953		-42.968750
4954		-39.062500
4955		-41.015625
4956		-37.109375
4957		-39.062500
4958		-35.156250
4959		-37.109375
4960		-33.203125
4961		-35.156250
4962		-31.250000
4963		-33.203125
4964		-29.296875
4965		-31.250000
4966		-27.343750
4967		-29.296875
4968		-23.437500
4969		-27.343750
4970		-21.484375
4971		-23.437500
4972		-19.531250
4973		-21.484375
4974		-17.578125
4975		-19.531250
4976		-15.625000
4977		-17.578125
4978		-11.718750
4979		-15.625000
4980		-9.765625
4981		-11.718750
4982		-7.812500
4983		-9.765625
4984		-5.859375
4985		-7.812500
4986		-3.906250
4987		-5.859375
4988		0.000000
4989		-3.906250
4990		1.953125
4991		0.000000
4992		3.906250
4993		1.953125
4994		7.812500
4995		3.906250
4996		9.765625
4997		7.812500
4998		11.718750
4999		9.765625
5000		13.671875
5001		11.718750
5002		15.625000
5003		13.671875
5004		19.531250
5005		15.625000
5006		21.484375
5007		19.531250
5008		23.437500
5009		21.484375
5010		27.343750
5011		23.437500
5012		29.296875
5013		25.390625
5014		31.250000
5015		29.296875
5016		33.203125
5017		31.250000
5018		35.156250
5019		33.203125
5020		37.109375
5021		35.156250
5022		39.062500
5023		37.109375
5024		41.015625
5025		39.062500
5026		42.968750
5027		41.015625
5028		46.875000
5029		42.968750
5030		48.828125
5031		46.875000
5032		50.781250
5033		48.828125
5034		52.734375
5035		50.781250
5036		54.687500
5037		52.734375
5038		56.640625
5039		54.687500
5040		58.593750
5041		56.640625
5042		60.546875
5043		58.593750
5044		62.500000
5045		60.546875
5046		64.453125
5047		62.500000
5048		66.406250
5049		64.453125
5050		68.359375
5051		66.406250
5052		68.359375
5053		68.359375
5054		70.312500
5055		68.359375
5056		72.265625
5057		70.312500
5058		74.218750
5059		72.265625
5060		76.171875
5061		74.218750
5062		78.125000
5063		74.218750
5064		78.125000
5065		76.171875
5066		80.078125
5067		78.125000
5068		82.031250
5069		78.125000
5070		82.031250
5071		80.078125
5072		83.984375
5073		82.031250
5074		85.937500
5075		83.984375
5076		85.937500
5077		83.984375
5078		87.890625
5079		85.937500
5080		87.890625
5081		85.937500
5082		89.843750
5083		87.890625
5084		91.796875
5085		87.890625
5086		93.750000
5087		89.843750
5088		93.750000
5089		89.843750
5090		93.750000
5091		91.796875
5092		93.750000
5093		91.796875
5094		95.703125
5095		93.750000
5096		95.703125
5097		93.750000
5098		95.703125
5099		93.750000
5100		97.656250
5101		95.703125
5102		97.656250
5103		93.750000
5104		99.609375
5105		93.750000
5106		99.609375
5107		95.703125
5108		99.609375
5109		95.703125
5110		99.609375
5111		97.656250
5112		99.609375
5113		97.656250
5114		99.609375
5115		97.656250
5116		99.609375
5117		97.656250
5118		99.609375
5119		95.703125
5120		101.562500
5121		95.703125
5122		101.562500
5123		97.656250
5124		99.609375
5125		97.656250
5126		99.609375
5127		97.656250
5128		99.609375
5129		97.656250
5130		99.609375
5131		95.703125
5132		99.609375
5133		95.703125
5134		99.609375
5135		93.750000
5136		101.562500
5137		95.703125
5138		99.609375
5139		95.703125
5140		99.609375
5141		93.750000
5142		97.656250
5143		93.750000
5144		97.656250
5145		93.750000
5146		95.703125
5147		91.796875
5148		95.703125
5149		91.796875
5150		95.703125
5151		91.796875
5152		93.750000
5153		89.843750
5154		95.703125
5155		87.890625
5156		93.750000
5157		87.890625
5158		91.796875
5159		87.890625
5160		89.843750
5161		85.937500
5162		89.843750
5163		85.937500
5164		87.890625
5165		83.984375
5166		87.890625
5167		82.031250
5168		85.937500
5169		80.078125
5170		83.984375
5171		80.078125
5172		83.984375
5173		78.125000
5174		82.031250
5175		76.171875
5176		80.078125
5177		76.171875
5178		80.078125
5179		74.218750
5180		78.125000
5181		72.265625
5182		76.171875
5183		70.312500
5184		74.218750
5185		70.312500
5186		72.265625
5187		66.406250
5188		72.265625
5189		66.406250
5190		72.265625
5191		64.453125
5192		68.359375
5193		62.500000
5194		66.406250
5195		60.546875
5196		64.453125
5197		58.593750
5198		62.500000
5199		56.640625
5200		60.546875
5201		54.687500
5202		58.593750
5203		50.781250
5204		56.640625
5205		50.781250
5206		54.687500
5207		48.828125
5208		52.734375
5209		46.875000
5210		50.781250
5211		44.921875
5212		48.828125
5213		41.015625
5214		46.875000
5215		39.062500
5216		44.921875
5217		37.109375
5218		41.015625
5219		33.203125
5220		39.062500
5221		33.203125
5222		39.062500
5223		31.250000
5224		35.156250
5225		27.343750
5226		33.203125
5227		25.390625
5228		29.296875
5229		23.437500
5230		27.343750
5231		21.484375
5232		25.390625
5233		19.531250
5234		23.437500
5235		15.625000
5236		21.484375
5237		13.671875
5238		19.531250
5239		11.718750
5240		17.578125
5241		9.765625
5242		13.671875
5243		5.859375
5244		11.718750
5245		3.906250
5246		7.812500
5247		1.953125
5248		5.859375
5249		0.000000
5250		3.906250
5251		-3.906250
5252		1.953125
5253		-5.859375
5254		-1.953125
5255		-9.765625
5256		-1.953125
5257		-9.765625
5258		-5.859375
5259		-13.671875
5260		-7.812500
5261		-15.625000
5262		-11.718750
5263		-17.578125
5264		-13.671875
5265		-19.531250
5266		-15.625000
5267		-21.484375
5268		-17.578125
5269		-23.437500
5270		-19.531250
5271		-27.343750
5272		-21.484375
5273		-29.296875
5274		-23.437500
5275		-31.250000
5276		-27.343750
5277		-33.203125
5278		-29.296875
5279		-35.156250
5280		-31.250000
5281		-39.062500
5282		-33.203125
5283		-39.062500
5284		-35.156250
5285		-42.968750
5286		-37.109375
5287		-44.921875
5288		-39.062500
5289		-46.875000
5290		-42.968750
5291		-48.828125
5292		-44.921875
5293		-50.781250
5294		-46.875000
5295		-52.734375
5296		-46.875000
5297		-54.687500
5298		-50.781250
5299		-56.640625
5300		-50.781250
5301		-56.640625
5302		-52.734375
5303		-58.593750
5304		-54.687500
5305		-60.546875
5306		-56.640625
5307		-62.500000
5308		-58.593750
5309		-64.453125
5310		-60.546875
5311		-66.406250
5312		-62.500000
5313		-66.406250
5314		-62.500000
5315		-68.359375
5316		-64.453125
5317		-70.312500
5318		-66.406250
5319		-72.265625
5320		-68.359375
5321		-72.265625
5322		-68.359375
5323		-72.265625
5324		-70.312500
5325		-74.218750
5326		-70.312500
5327		-76.171875
5328		-72.265625
5329		-76.171875
5330		-72.265625
5331		-76.171875
5332		-74.218750
5333		-78.125000
5334		-74.218750
5335		-78.125000
5336		-76.171875
5337		-80.078125
5338		-76.171875
5339		-80.078125
5340		-76.171875
5341		-80.078125
5342		-78.125000
5343		-80.078125
5344		-78.125000
5345		-82.031250
5346		-78.125000
5347		-82.031250
5348		-78.125000
5349		-82.031250
5350		-78.125000
5351		-82.031250
5352		-80.078125
5353		-82.031250
5354		-78.125000
5355		-82.031250
5356		-80.078125
5357		-82.031250
5358		-80.078125
5359		-82.031250
5360		-80.078125
5361		-82.031250
5362		-78.125000
5363		-82.031250
5364		-78.125000
5365		-82.031250
5366		-78.125000
5367		-82.031250
5368		-78.125000
5369		-80.078125
5370		-78.125000
5371		-80.078125
5372		-78.125000
5373		-80.078125
5374		-76.171875
5375		-78.125000
5376		-76.171875
5377		-78.125000
5378		-76.171875
5379		-76.171875
5380		-74.218750
5381		-76.171875
5382		-74.218750
5383		-76.171875
5384		-72.265625
5385		-74.218750
5386		-70.312500
5387		-74.218750
5388		-70.312500
5389		-72.265625
5390		-68.359375
5391		-72.265625
5392		-68.359375
5393		-70.312500
5394		-66.406250
5395		-68.359375
5396		-64.453125
5397		-68.359375
5398		-64.453125
5399		-66.406250
5400		-62.500000
5401		-64.453125
5402		-60.546875
5403		-62.500000
5404		-58.593750
5405		-60.546875
5406		-58.593750
5407		-60.546875
5408		-56.640625
5409		-58.593750
5410		-54.687500
5411		-56.640625
5412		-52.734375
5413		-54.687500
5414		-50.781250
5415		-52.734375
5416		-48.828125
5417		-50.781250
5418		-46.875000
5419		-48.828125
5420		-44.921875
5421		-46.875000
5422		-42.968750
5423		-44.921875
5424		-41.015625
5425		-42.968750
5426		-39.062500
5427		-41.015625
5428		-37.109375
5429		-39.062500
5430		-35.156250
5431		-37.109375
5432		-31.250000
5433		-33.203125
5434		-29.296875
5435		-31.250000
5436		-27.343750
5437		-29.296875
5438		-25.390625
5439		-27.343750
5440		-23.437500
5441		-25.390625
5442		-21.484375
5443		-23.437500
5444		-17.578125
5445		-19.531250
5446		-15.625000
5447		-17.578125
5448		-13.671875
5449		-15.625000
5450		-11.718750
5451		-13.671875
5452		-9.765625
5453		-11.718750
5454		-5.859375
5455		-7.812500
5456		-3.906250
5457		-5.859375
5458		-1.953125
5459		-3.906250
5460		1.953125
5461		-1.953125
5462		3.906250
5463		1.953125
5464		5.859375
5465		3.906250
5466		7.812500
5467		5.859375
5468		9.765625
5469		7.812500
5470		11.718750
5471		9.765625
5472		15.625000
5473		13.671875
5474		17.578125
5475		15.625000
5476		19.531250
5477		17.578125
5478		21.484375
5479		19.531250
5480		25.390625
5481		23.437500
5482		27.343750
5483		25.390625
5484		29.296875
5485		27.343750
5486		31.250000
5487		29.296875
5488		33.203125
5489		31.250000
5490		37.109375
5491		33.203125
5492		39.062500
5493		37.109375
5494		41.015625
5495		39.062500
5496		42.968750
5497		41.015625
5498		44.921875
5499		42.968750
5500		46.875000
5501		44.921875
5502		48.828125
5503		46.875000
5504		50.781250
5505		48.828125
5506		52.734375
5507		50.781250
5508		54.687500
5509		52.734375
5510		56.640625
5511		54.687500
5512		58.593750
5513		56.640625
5514		60.546875
5515		58.593750
5516		62.500000
5517		60.546875
5518		64.453125
5519		62.500000
5520		66.406250
5521		64.453125
5522		68.359375
5523		66.406250
5524		70.312500
5525		68.359375
5526		72.265625
5527		70.312500
5528		74.218750
5529		70.312500
5530		76.171875
5531		72.265625
5532		76.171875
5533		74.218750
5534		78.125000
5535		76.171875
5536		80.078125
5537		76.171875
5538		82.031250
5539		78.125000
5540		82.031250
5541		80.078125
5542		83.984375
5543		80.078125
5544		83.984375
5545		82.031250
5546		85.937500
5547		83.984375
5548		87.890625
5549		83.984375
5550		87.890625
5551		85.937500
5552		89.843750
5553		85.937500
5554		89.843750
5555		87.890625
5556		91.796875
5557		89.843750
5558		91.796875
5559		89.843750
5560		93.750000
5561		91.796875
5562		93.750000
5563		91.796875
5564		95.703125
5565		91.796875
5566		95.703125
5567		91.796875
5568		95.703125
5569		93.750000
5570		97.656250
5571		93.750000
5572		97.656250
5573		93.750000
5574		97.656250
5575		95.703125
5576		97.656250
5577		95.703125
5578		99.609375
5579		95.703125
5580		99.609375
5581		95.703125
5582		99.609375
5583		95.703125
5584		99.609375
5585		95.703125
5586		99.609375
5587		97.656250
5588		99.609375
5589		97.656250
5590		99.609375
5591		97.656250
5592		99.609375
5593		97.656250
5594		99.609375
5595		97.656250
5596		99.609375
5597		97.656250
5598		99.609375
5599		95.703125
5600		99.609375
5601		95.703125
5602		99.609375
5603		95.703125
5604		99.609375
5605		95.703125
5606		99.609375
5607		95.703125
5608		97.656250
5609		93.750000
5610		97.656250
5611		93.750000
5612		97.656250
5613		93.750000
5614		97.656250
5615		93.750000
5616		95.703125
5617		91.796875
5618		95.703125
5619		91.796875
5620		95.703125
5621		89.843750
5622		93.750000
5623		89.843750
5624		93.750000
5625		89.843750
5626		91.796875
5627		87.890625
5628		91.796875
5629		87.890625
5630		91.796875
5631		85.937500
5632		89.843750
5633		85.937500
5634		87.890625
5635		83.984375
5636		87.890625
5637		82.031250
5638		85.937500
5639		82.031250
5640		85.937500
5641		80.078125
5642		83.984375
5643		78.125000
5644		82.031250
5645		78.125000
5646		82.031250
5647		76.171875
5648		80.078125
5649		74.218750
5650		78.125000
5651		72.265625
5652		76.171875
5653		70.312500
5654		74.218750
5655		70.312500
5656		74.218750
5657		68.359375
5658		72.265625
5659		66.406250
5660		70.312500
5661		64.453125
5662		68.359375
5663		62.500000
5664		66.406250
5665		60.546875
5666		64.453125
5667		58.593750
5668		62.500000
5669		56.640625
5670		60.546875
5671		54.687500
5672		58.593750
5673		52.734375
5674		56.640625
5675		50.781250
5676		54.687500
5677		48.828125
5678		52.734375
5679		46.875000
5680		50.781250
5681		44.921875
5682		48.828125
5683		42.968750
5684		46.875000
5685		39.062500
5686		44.921875
5687		37.109375
5688		42.968750
5689		35.156250
5690		39.062500
5691		33.203125
5692		39.062500
5693		31.250000
5694		35.156250
5695		29.296875
5696		33.203125
5697		25.390625
5698		31.250000
5699		23.437500
5700		29.296875
5701		21.484375
5702		25.390625
5703		19.531250
5704		23.437500
5705		17.578125
5706		21.484375
5707		13.671875
5708		19.531250
5709		11.718750
5710		15.625000
5711		9.765625
5712		13.671875
5713		7.812500
5714		11.718750
5715		3.906250
5716		9.765625
5717		1.953125
5718		5.859375
5719		0.000000
5720		3.906250
5721		-1.953125
5722		1.953125
5723		-5.859375
5724		0.000000
5725		-7.812500
5726		-3.906250
5727		-9.765625
5728		-5.859375
5729		-11.718750
5730		-7.812500
5731		-15.625000
5732		-9.765625
5733		-17.578125
5734		-11.718750
5735		-19.531250
5736		-13.671875
5737		-21.484375
5738		-17.578125
5739		-23.437500
5740		-19.531250
5741		-27.343750
5742		-21.484375
5743		-29.296875
5744		-25.390625
5745		-31.250000
5746		-27.343750
5747		-33.203125
5748		-29.296875
5749		-35.156250
5750		-31.250000
5751		-37.109375
5752		-33.203125
5753		-39.062500
5754		-35.156250
5755		-41.015625
5756		-37.109375
5757		-42.968750
5758		-39.062500
5759		-46.875000
5760		-41.015625
5761		-48.828125
5762		-44.921875
5763		-50.781250
5764		-46.875000
5765		-52.734375
5766		-48.828125
5767		-54.687500
5768		-48.828125
5769		-56.640625
5770		-52.734375
5771		-56.640625
5772		-52.734375
5773		-58.593750
5774		-54.687500
5775		-60.546875
5776		-56.640625
5777		-62.500000
5778		-58.593750
5779		-64.453125
5780		-60.546875
5781		-66.406250
5782		-62.500000
5783		-66.406250
5784		-64.453125
5785		-68.359375
5786		-64.453125
5787		-70.312500
5788		-66.406250
5789		-70.312500
5790		-68.359375
5791		-72.265625
5792		-68.359375
5793		-74.218750
5794		-70.312500
5795		-76.171875
5796		-72.265625
5797		-76.171875
5798		-72.265625
5799		-76.171875
5800		-72.265625
5801		-78.125000
5802		-74.218750
5803		-78.125000
5804		-74.218750
5805		-78.125000
5806		-76.171875
5807		-80.078125
5808		-76.171875
5809		-80.078125
5810		-76.171875
5811		-80.078125
5812		-78.125000
5813		-82.031250
5814		-78.125000
5815		-82.031250
5816		-78.125000
5817		-82.031250
5818		-80.078125
5819		-83.984375
5820		-80.078125
5821		-82.031250
5822		-80.078125
5823		-83.984375
5824		-80.078125
5825		-83.984375
5826		-80.078125
5827		-82.031250
5828		-80.078125
5829		-83.984375
5830		-80.078125
5831		-83.984375
5832		-80.078125
5833		-82.031250
5834		-80.078125
5835		-82.031250
5836		-78.125000
5837		-82.031250
5838		-80.078125
5839		-82.031250
5840		-78.125000
5841		-82.031250
5842		-78.125000
5843		-80.078125
5844		-78.125000
5845		-80.078125
5846		-78.125000
5847		-80.078125
5848		-76.171875
5849		-78.125000
5850		-76.171875
5851		-78.125000
5852		-74.218750
5853		-78.125000
5854		-74.218750
5855		-76.171875
5856		-72.265625
5857		-74.218750
5858		-72.265625
5859		-74.218750
5860		-70.312500
5861		-72.265625
5862		-68.359375
5863		-72.265625
5864		-68.359375
5865		-70.312500
5866		-66.406250
5867		-68.359375
5868		-66.406250
5869		-68.359375
5870		-62.500000
5871		-66.406250
5872		-62.500000
5873		-64.453125
5874		-60.546875
5875		-62.500000
5876		-58.593750
5877		-60.546875
5878		-56.640625
5879		-60.546875
5880		-56.640625
5881		-58.593750
5882		-54.687500
5883		-56.640625
5884		-52.734375
5885		-54.687500
5886		-50.781250
5887		-52.734375
5888		-48.828125
5889		-50.781250
5890		-46.875000
5891		-48.828125
5892		-44.921875
5893		-46.875000
5894		-42.968750
5895		-44.921875
5896		-41.015625
5897		-42.968750
5898		-39.062500
5899		-41.015625
5900		-35.156250
5901		-39.062500
5902		-33.203125
5903		-37.109375
5904		-31.250000
5905		-33.203125
5906		-29.296875
5907		-31.250000
5908		-27.343750
5909		-29.296875
5910		-25.390625
5911		-27.343750
5912		-23.437500
5913		-25.390625
5914		-19.531250
5915		-21.484375
5916		-17.578125
5917		-19.531250
5918		-15.625000
5919		-17.578125
5920		-13.671875
5921		-15.625000
5922		-11.718750
5923		-11.718750
5924		-7.812500
5925		-9.765625
5926		-5.859375
5927		-7.812500
5928		-3.906250
5929		-5.859375
5930		0.000000
5931		-3.906250
5932		1.953125
5933		0.000000
5934		3.906250
5935		1.953125
5936		5.859375
5937		3.906250
5938		7.812500
5939		5.859375
5940		11.718750
5941		7.812500
5942		13.671875
5943		11.718750
5944		15.625000
5945		13.671875
5946		17.578125
5947		15.625000
5948		21.484375
5949		19.531250
5950		23.437500
5951		21.484375
5952		25.390625
5953		23.437500
5954		27.343750
5955		25.390625
5956		29.296875
5957		27.343750
5958		31.250000
5959		29.296875
5960		35.156250
5961		33.203125
5962		37.109375
5963		35.156250
5964		39.062500
5965		37.109375
5966		41.015625
5967		39.062500
5968		42.968750
5969		41.015625
5970		44.921875
5971		42.968750
5972		48.828125
5973		44.921875
5974		48.828125
5975		46.875000
5976		50.781250
5977		48.828125
5978		54.687500
5979		52.734375
5980		56.640625
5981		54.687500
5982		58.593750
5983		56.640625
5984		60.546875
5985		58.593750
5986		62.500000
5987		60.546875
5988		64.453125
5989		60.546875
5990		66.406250
5991		62.500000
5992		66.406250
5993		64.453125
5994		68.359375
5995		66.406250
5996		70.312500
5997		68.359375
5998		72.265625
5999		70.312500
6000		74.218750
6001		70.312500
6002		76.171875
6003		72.265625
6004		76.171875
6005		74.218750
6006		78.125000
6007		76.171875
6008		80.078125
6009		78.125000
6010		82.031250
6011		78.125000
6012		82.031250
6013		80.078125
6014		83.984375
6015		82.031250
6016		85.937500
6017		82.031250
6018		85.937500
6019		83.984375
6020		87.890625
6021		85.937500
6022		87.890625
6023		85.937500
6024		89.843750
6025		87.890625
6026		89.843750
6027		87.890625
6028		91.796875
6029		89.843750
6030		91.796875
6031		89.843750
6032		93.750000
6033		91.796875
6034		93.750000
6035		91.796875
6036		95.703125
6037		91.796875
6038		95.703125
6039		93.750000
6040		95.703125
6041		93.750000
6042		97.656250
6043		93.750000
6044		97.656250
6045		95.703125
6046		97.656250
6047		95.703125
6048		97.656250
6049		95.703125
6050		97.656250
6051		95.703125
6052		99.609375
6053		95.703125
6054		99.609375
6055		95.703125
6056		99.609375
6057		95.703125
6058		99.609375
6059		95.703125
6060		99.609375
6061		97.656250
6062		99.609375
6063		97.656250
6064		99.609375
6065		97.656250
6066		99.609375
6067		95.703125
6068		99.609375
6069		95.703125
6070		99.609375
6071		95.703125
6072		99.609375
6073		95.703125
6074		99.609375
6075		95.703125
6076		97.656250
6077		95.703125
6078		97.656250
6079		95.703125
6080		97.656250
6081		93.750000
6082		97.656250
6083		93.750000
6084		97.656250
6085		93.750000
6086		95.703125
6087		91.796875
6088		95.703125
6089		91.796875
6090		95.703125
6091		91.796875
6092		93.750000
6093		89.843750
6094		93.750000
6095		89.843750
6096		91.796875
6097		87.890625
6098		91.796875
6099		87.890625
6100		89.843750
6101		85.937500
6102		89.843750
6103		85.937500
6104		87.890625
6105		83.984375
6106		87.890625
6107		82.031250
6108		85.937500
6109		82.031250
6110		85.937500
6111		80.078125
6112		83.984375
6113		80.078125
6114		82.031250
6115		78.125000
6116		82.031250
6117		76.171875
6118		80.078125
6119		74.218750
6120		78.125000
6121		74.218750
6122		76.171875
6123		72.265625
6124		76.171875
6125		70.312500
6126		74.218750
6127		68.359375
6128		72.265625
6129		66.406250
6130		70.312500
6131		62.500000
6132		68.359375
6133		62.500000
6134		68.359375
6135		60.546875
6136		66.406250
6137		60.546875
6138		64.453125
6139		56.640625
6140		62.500000
6141		56.640625
6142		60.546875
6143		52.734375
6144		58.593750
6145		50.781250
6146		54.687500
6147		48.828125
6148		54.687500
6149		46.875000
6150		52.734375
6151		44.921875
6152		48.828125
6153		41.015625
6154		48.828125
6155		41.015625
6156		44.921875
6157		39.062500
6158		44.921875
6159		37.109375
6160		41.015625
6161		33.203125
6162		39.062500
6163		31.250000
6164		37.109375
6165		29.296875
6166		35.156250
6167		27.343750
6168		31.250000
6169		23.437500
6170		29.296875
6171		23.437500
6172		27.343750
6173		19.531250
6174		27.343750
6175		17.578125
6176		21.484375
6177		15.625000
6178		19.531250
6179		13.671875
6180		17.578125
6181		7.812500
6182		15.625000
6183		7.812500
6184		13.671875
6185		5.859375
6186		11.718750
6187		3.906250
6188		9.765625
6189		-1.953125
6190		5.859375
6191		-1.953125
6192		1.953125
6193		-3.906250
6194		0.000000
6195		-7.812500
6196		-1.953125
6197		-11.718750
6198		-1.953125
6199		-11.718750
6200		-5.859375
6201		-13.671875
6202		-9.765625
6203		-17.578125
6204		-11.718750
6205		-17.578125
6206		-13.671875
6207		-21.484375
6208		-13.671875
6209		-23.437500
6210		-19.531250
6211		-25.390625
6212		-21.484375
6213		-29.296875
6214		-21.484375
6215		-31.250000
6216		-23.437500
6217		-33.203125
6218		-27.343750
6219		-35.156250
6220		-29.296875
6221		-39.062500
6222		-29.296875
6223		-41.015625
6224		-33.203125
6225		-41.015625
6226		-37.109375
6227		-42.968750
6228		-39.062500
6229		-46.875000
6230		-41.015625
6231		-48.828125
6232		-41.015625
6233		-48.828125
6234		-44.921875
6235		-50.781250
6236		-46.875000
6237		-56.640625
6238		-46.875000
6239		-54.687500
6240		-50.781250
6241		-58.593750
6242		-50.781250
6243		-58.593750
6244		-54.687500
6245		-62.500000
6246		-56.640625
6247		-66.406250
6248		-56.640625
6249		-64.453125
6250		-58.593750
6251		-64.453125
6252		-62.500000
6253		-68.359375
6254		-62.500000
6255		-70.312500
6256		-60.546875
6257		-70.312500
6258		-64.453125
6259		-70.312500
6260		-68.359375
6261		-72.265625
6262		-68.359375
6263		-74.218750
6264		-70.312500
6265		-76.171875
6266		-68.359375
6267		-76.171875
6268		-72.265625
6269		-76.171875
6270		-72.265625
6271		-80.078125
6272		-70.312500
6273		-80.078125
6274		-74.218750
6275		-80.078125
6276		-74.218750
6277		-80.078125
6278		-76.171875
6279		-82.031250
6280		-76.171875
6281		-82.031250
6282		-76.171875
6283		-83.984375
6284		-76.171875
6285		-82.031250
6286		-78.125000
6287		-83.984375
6288		-76.171875
6289		-85.937500
6290		-78.125000
6291		-85.937500
6292		-78.125000
6293		-83.984375
6294		-80.078125
6295		-83.984375
6296		-80.078125
6297		-85.937500
6298		-78.125000
6299		-85.937500
6300		-78.125000
6301		-83.984375
6302		-80.078125
6303		-83.984375
6304		-80.078125
6305		-85.937500
6306		-76.171875
6307		-83.984375
6308		-78.125000
6309		-82.031250
6310		-78.125000
6311		-82.031250
6312		-78.125000
6313		-82.031250
6314		-78.125000
6315		-83.984375
6316		-74.218750
6317		-82.031250
6318		-76.171875
6319		-80.078125
6320		-76.171875
6321		-80.078125
6322		-72.265625
6323		-80.078125
6324		-72.265625
6325		-80.078125
6326		-70.312500
6327		-76.171875
6328		-72.265625
6329		-74.218750
6330		-70.312500
6331		-76.171875
6332		-66.406250
6333		-74.218750
6334		-68.359375
6335		-70.312500
6336		-68.359375
6337		-70.312500
6338		-64.453125
6339		-70.312500
6340		-62.500000
6341		-68.359375
6342		-62.500000
6343		-66.406250
6344		-62.500000
6345		-64.453125
6346		-60.546875
6347		-64.453125
6348		-56.640625
6349		-62.500000
6350		-54.687500
6351		-60.546875
6352		-54.687500
6353		-56.640625
6354		-52.734375
6355		-56.640625
6356		-48.828125
6357		-54.687500
6358		-46.875000
6359		-52.734375
6360		-46.875000
6361		-50.781250
6362		-44.921875
6363		-48.828125
6364		-42.968750
6365		-46.875000
6366		-39.062500
6367		-42.968750
6368		-39.062500
6369		-41.015625
6370		-37.109375
6371		-41.015625
6372		-33.203125
6373		-41.015625
6374		-31.250000
6375		-35.156250
6376		-29.296875
6377		-33.203125
6378		-29.296875
6379		-31.250000
6380		-25.390625
6381		-29.296875
6382		-23.437500
6383		-29.296875
6384		-19.531250
6385		-23.437500
6386		-19.531250
6387		-21.484375
6388		-15.625000
6389		-23.437500
6390		-11.718750
6391		-17.578125
6392		-9.765625
6393		-13.671875
6394		-9.765625
6395		-11.718750
6396		-7.812500
6397		-9.765625
6398		-3.906250
6399		-7.812500
6400		-1.953125
6401		-5.859375
6402		0.000000
6403		-1.953125
6404		1.953125
6405		0.000000
6406		3.906250
6407		1.953125
6408		7.812500
6409		1.953125
6410		9.765625
6411		7.812500
6412		11.718750
6413		9.765625
6414		13.671875
6415		11.718750
6416		19.531250
6417		13.671875
6418		19.531250
6419		17.578125
6420		21.484375
6421		19.531250
6422		25.390625
6423		21.484375
6424		25.390625
6425		23.437500
6426		29.296875
6427		25.390625
6428		31.250000
6429		29.296875
6430		33.203125
6431		31.250000
6432		35.156250
6433		33.203125
6434		37.109375
6435		33.203125
6436		39.062500
6437		37.109375
6438		42.968750
6439		39.062500
6440		44.921875
6441		41.015625
6442		46.875000
6443		44.921875
6444		48.828125
6445		46.875000
6446		50.781250
6447		48.828125
6448		52.734375
6449		50.781250
6450		54.687500
6451		52.734375
6452		56.640625
6453		54.687500
6454		58.593750
6455		56.640625
6456		60.546875
6457		58.593750
6458		62.500000
6459		60.546875
6460		64.453125
6461		62.500000
6462		66.406250
6463		62.500000
6464		68.359375
6465		64.453125
6466		70.312500
6467		66.406250
6468		70.312500
6469		68.359375
6470		72.265625
6471		70.312500
6472		74.218750
6473		72.265625
6474		76.171875
6475		74.218750
6476		78.125000
6477		74.218750
6478		78.125000
6479		76.171875
6480		80.078125
6481		78.125000
6482		82.031250
6483		78.125000
6484		83.984375
6485		80.078125
6486		83.984375
6487		80.078125
6488		85.937500
6489		82.031250
6490		87.890625
6491		82.031250
6492		89.843750
6493		83.984375
6494		89.843750
6495		85.937500
6496		89.843750
6497		87.890625
6498		89.843750
6499		87.890625
6500		93.750000
6501		87.890625
6502		93.750000
6503		89.843750
6504		93.750000
6505		89.843750
6506		95.703125
6507		89.843750
6508		95.703125
6509		91.796875
6510		95.703125
6511		91.796875
6512		95.703125
6513		93.750000
6514		95.703125
6515		93.750000
6516		97.656250
6517		93.750000
6518		99.609375
6519		93.750000
6520		99.609375
6521		93.750000
6522		99.609375
6523		93.750000
6524		99.609375
6525		95.703125
6526		99.609375
6527		95.703125
6528		99.609375
6529		95.703125
6530		99.609375
6531		95.703125
6532		99.609375
6533		95.703125
6534		101.562500
6535		95.703125
6536		101.562500
6537		95.703125
6538		99.609375
6539		95.703125
6540		99.609375
6541		95.703125
6542		99.609375
6543		93.750000
6544		99.609375
6545		95.703125
6546		99.609375
6547		95.703125
6548		97.656250
6549		93.750000
6550		97.656250
6551		93.750000
6552		97.656250
6553		93.750000
6554		97.656250
6555		91.796875
6556		97.656250
6557		91.796875
6558		95.703125
6559		91.796875
6560		95.703125
6561		91.796875
6562		95.703125
6563		89.843750
6564		93.750000
6565		89.843750
6566		93.750000
6567		87.890625
6568		91.796875
6569		85.937500
6570		91.796875
6571		85.937500
6572		89.843750
6573		85.937500
6574		89.843750
6575		83.984375
6576		87.890625
6577		82.031250
6578		87.890625
6579		82.031250
6580		85.937500
6581		80.078125
6582		83.984375
6583		78.125000
6584		83.984375
6585		78.125000
6586		82.031250
6587		74.218750
6588		82.031250
6589		74.218750
6590		78.125000
6591		74.218750
6592		78.125000
6593		72.265625
6594		76.171875
6595		70.312500
6596		74.218750
6597		68.359375
6598		72.265625
6599		66.406250
6600		70.312500
6601		66.406250
6602		70.312500
6603		62.500000
6604		68.359375
6605		60.546875
6606		68.359375
6607		60.546875
6608		64.453125
6609		56.640625
6610		62.500000
6611		56.640625
6612		60.546875
6613		54.687500
6614		58.593750
6615		50.781250
6616		56.640625
6617		50.781250
6618		54.687500
6619		48.828125
6620		52.734375
6621		42.968750
6622		50.781250
6623		42.968750
6624		48.828125
6625		41.015625
6626		46.875000
6627		39.062500
6628		42.968750
6629		37.109375
6630		41.015625
6631		35.156250
6632		39.062500
6633		33.203125
6634		37.109375
6635		29.296875
6636		35.156250
6637		27.343750
6638		33.203125
6639		25.390625
6640		31.250000
6641		23.437500
6642		27.343750
6643		21.484375
6644		25.390625
6645		17.578125
6646		23.437500
6647		15.625000
6648		19.531250
6649		13.671875
6650		17.578125
6651		9.765625
6652		15.625000
6653		7.812500
6654		13.671875
6655		5.859375
6656		11.718750
6657		3.906250
6658		7.812500
6659		0.000000
6660		5.859375
6661		-1.953125
6662		3.906250
6663		-3.906250
6664		1.953125
6665		-7.812500
6666		-1.953125
6667		-7.812500
6668		-3.906250
6669		-11.718750
6670		-5.859375
6671		-13.671875
6672		-7.812500
6673		-15.625000
6674		-11.718750
6675		-17.578125
6676		-13.671875
6677		-19.531250
6678		-15.625000
6679		-23.437500
6680		-17.578125
6681		-25.390625
6682		-21.484375
6683		-27.343750
6684		-23.437500
6685		-29.296875
6686		-25.390625
6687		-31.250000
6688		-27.343750
6689		-35.156250
6690		-29.296875
6691		-37.109375
6692		-31.250000
6693		-39.062500
6694		-35.156250
6695		-41.015625
6696		-35.156250
6697		-42.968750
6698		-39.062500
6699		-44.921875
6700		-41.015625
6701		-46.875000
6702		-42.968750
6703		-48.828125
6704		-44.921875
6705		-50.781250
6706		-46.875000
6707		-52.734375
6708		-48.828125
6709		-54.687500
6710		-50.781250
6711		-56.640625
6712		-52.734375
6713		-58.593750
6714		-54.687500
6715		-60.546875
6716		-56.640625
6717		-62.500000
6718		-56.640625
6719		-62.500000
6720		-58.593750
6721		-64.453125
6722		-60.546875
6723		-66.406250
6724		-62.500000
6725		-68.359375
6726		-64.453125
6727		-68.359375
6728		-64.453125
6729		-70.312500
6730		-66.406250
6731		-72.265625
6732		-68.359375
6733		-74.218750
6734		-68.359375
6735		-74.218750
6736		-70.312500
6737		-76.171875
6738		-72.265625
6739		-76.171875
6740		-72.265625
6741		-78.125000
6742		-74.218750
6743		-80.078125
6744		-74.218750
6745		-80.078125
6746		-76.171875
6747		-80.078125
6748		-76.171875
6749		-82.031250
6750		-78.125000
6751		-82.031250
6752		-78.125000
6753		-82.031250
6754		-78.125000
6755		-82.031250
6756		-80.078125
6757		-83.984375
6758		-80.078125
6759		-83.984375
6760		-80.078125
6761		-83.984375
6762		-80.078125
6763		-83.984375
6764		-80.078125
6765		-83.984375
6766		-80.078125
6767		-83.984375
6768		-80.078125
6769		-83.984375
6770		-80.078125
6771		-83.984375
6772		-80.078125
6773		-83.984375
6774		-80.078125
6775		-83.984375
6776		-80.078125
6777		-83.984375
6778		-80.078125
6779		-83.984375
6780		-78.125000
6781		-82.031250
6782		-80.078125
6783		-82.031250
6784		-78.125000
6785		-82.031250
6786		-78.125000
6787		-82.031250
6788		-78.125000
6789		-80.078125
6790		-76.171875
6791		-80.078125
6792		-76.171875
6793		-78.125000
6794		-74.218750
6795		-78.125000
6796		-74.218750
6797		-76.171875
6798		-72.265625
6799		-76.171875
6800		-72.265625
6801		-74.218750
6802		-70.312500
6803		-74.218750
6804		-70.312500
6805		-72.265625
6806		-68.359375
6807		-70.312500
6808		-66.406250
6809		-70.312500
6810		-66.406250
6811		-68.359375
6812		-64.453125
6813		-66.406250
6814		-62.500000
6815		-64.453125
6816		-60.546875
6817		-64.453125
6818		-58.593750
6819		-62.500000
6820		-58.593750
6821		-60.546875
6822		-56.640625
6823		-58.593750
6824		-54.687500
6825		-56.640625
6826		-52.734375
6827		-54.687500
6828		-50.781250
6829		-52.734375
6830		-48.828125
6831		-50.781250
6832		-46.875000
6833		-48.828125
6834		-44.921875
6835		-46.875000
6836		-42.968750
6837		-44.921875
6838		-41.015625
6839		-42.968750
6840		-39.062500
6841		-41.015625
6842		-37.109375
6843		-39.062500
6844		-35.156250
6845		-37.109375
6846		-31.250000
6847		-35.156250
6848		-31.250000
6849		-31.250000
6850		-27.343750
6851		-29.296875
6852		-25.390625
6853		-27.343750
6854		-23.437500
6855		-25.390625
6856		-21.484375
6857		-23.437500
6858		-17.578125
6859		-21.484375
6860		-15.625000
6861		-17.578125
6862		-13.671875
6863		-15.625000
6864		-11.718750
6865		-13.671875
6866		-7.812500
6867		-11.718750
6868		-5.859375
6869		-9.765625
6870		-3.906250
6871		-5.859375
6872		-1.953125
6873		-3.906250
6874		1.953125
6875		-1.953125
6876		3.906250
6877		1.953125
6878		5.859375
6879		3.906250
6880		7.812500
6881		5.859375
6882		9.765625
6883		7.812500
6884		13.671875
6885		9.765625
6886		15.625000
6887		13.671875
6888		17.578125
6889		15.625000
6890		19.531250
6891		17.578125
6892		23.437500
6893		19.531250
6894		25.390625
6895		21.484375
6896		27.343750
6897		23.437500
6898		29.296875
6899		27.343750
6900		31.250000
6901		29.296875
6902		35.156250
6903		31.250000
6904		37.109375
6905		35.156250
6906		39.062500
6907		37.109375
6908		41.015625
6909		39.062500
6910		42.968750
6911		41.015625
6912		44.921875
6913		42.968750
6914		46.875000
6915		44.921875
6916		48.828125
6917		46.875000
6918		52.734375
6919		48.828125
6920		54.687500
6921		50.781250
6922		54.687500
6923		52.734375
6924		56.640625
6925		54.687500
6926		58.593750
6927		56.640625
6928		62.500000
6929		58.593750
6930		64.453125
6931		60.546875
6932		64.453125
6933		62.500000
6934		66.406250
6935		64.453125
6936		68.359375
6937		66.406250
6938		70.312500
6939		68.359375
6940		72.265625
6941		68.359375
6942		72.265625
6943		70.312500
6944		74.218750
6945		72.265625
6946		76.171875
6947		74.218750
6948		78.125000
6949		76.171875
6950		80.078125
6951		76.171875
6952		82.031250
6953		78.125000
6954		82.031250
6955		80.078125
6956		83.984375
6957		80.078125
6958		83.984375
6959		82.031250
6960		85.937500
6961		83.984375
6962		87.890625
6963		83.984375
6964		87.890625
6965		85.937500
6966		89.843750
6967		85.937500
6968		89.843750
6969		85.937500
6970		91.796875
6971		87.890625
6972		91.796875
6973		89.843750
6974		93.750000
6975		89.843750
6976		93.750000
6977		91.796875
6978		95.703125
6979		91.796875
6980		95.703125
6981		91.796875
6982		95.703125
6983		93.750000
6984		95.703125
6985		91.796875
6986		97.656250
6987		93.750000
6988		97.656250
6989		93.750000
6990		97.656250
6991		93.750000
6992		97.656250
6993		95.703125
6994		97.656250
6995		95.703125
6996		99.609375
6997		95.703125
6998		99.609375
6999		95.703125
7000		99.609375
7001		95.703125
7002		99.609375
7003		95.703125
7004		99.609375
7005		95.703125
7006		99.609375
7007		95.703125
7008		99.609375
7009		95.703125
7010		99.609375
7011		95.703125
7012		99.609375
7013		95.703125
7014		99.609375
7015		95.703125
7016		97.656250
7017		95.703125
7018		97.656250
7019		93.750000
7020		97.656250
7021		93.750000
7022		97.656250
7023		93.750000
7024		97.656250
7025		93.750000
7026		97.656250
7027		91.796875
7028		95.703125
7029		91.796875
7030		95.703125
7031		91.796875
7032		93.750000
7033		89.843750
7034		93.750000
7035		87.890625
7036		93.750000
7037		87.890625
7038		91.796875
7039		87.890625
7040		91.796875
7041		85.937500
7042		89.843750
7043		85.937500
7044		89.843750
7045		83.984375
7046		87.890625
7047		82.031250
7048		87.890625
7049		82.031250
7050		85.937500
7051		82.031250
7052		83.984375
7053		80.078125
7054		83.984375
7055		78.125000
7056		82.031250
7057		78.125000
7058		82.031250
7059		76.171875
7060		80.078125
7061		74.218750
7062		78.125000
7063		72.265625
7064		76.171875
7065		70.312500
7066		76.171875
7067		70.312500
7068		74.218750
7069		66.406250
7070		72.265625
7071		66.406250
7072		70.312500
7073		64.453125
7074		68.359375
7075		62.500000
7076		66.406250
7077		60.546875
7078		64.453125
7079		58.593750
7080		62.500000
7081		56.640625
7082		60.546875
7083		54.687500
7084		58.593750
7085		52.734375
7086		56.640625
7087		50.781250
7088		56.640625
7089		48.828125
7090		52.734375
7091		46.875000
7092		50.781250
7093		44.921875
7094		48.828125
7095		42.968750
7096		46.875000
7097		39.062500
7098		44.921875
7099		39.062500
7100		42.968750
7101		35.156250
7102		41.015625
7103		33.203125
7104		37.109375
7105		31.250000
7106		35.156250
7107		27.343750
7108		33.203125
7109		27.343750
7110		31.250000
7111		23.437500
7112		29.296875
7113		21.484375
7114		27.343750
7115		19.531250
7116		23.437500
7117		17.578125
7118		21.484375
7119		13.671875
7120		19.531250
7121		11.718750
7122		17.578125
7123		9.765625
7124		13.671875
7125		7.812500
7126		11.718750
7127		3.906250
7128		9.765625
7129		1.953125
7130		7.812500
7131		0.000000
7132		3.906250
7133		-1.953125
7134		1.953125
7135		-5.859375
7136		0.000000
7137		-7.812500
7138		-1.953125
7139		-9.765625
7140		-3.906250
7141		-11.718750
7142		-7.812500
7143		-15.625000
7144		-9.765625
7145		-15.625000
7146		-11.718750
7147		-19.531250
7148		-13.671875
7149		-21.484375
7150		-17.578125
7151		-23.437500
7152		-19.531250
7153		-27.343750
7154		-21.484375
7155		-29.296875
7156		-23.437500
7157		-31.250000
7158		-25.390625
7159		-35.156250
7160		-27.343750
7161		-35.156250
7162		-31.250000
7163		-37.109375
7164		-33.203125
7165		-39.062500
7166		-35.156250
7167		-41.015625
7168		-37.109375
7169		-42.968750
7170		-39.062500
7171		-44.921875
7172		-41.015625
7173		-48.828125
7174		-42.968750
7175		-50.781250
7176		-46.875000
7177		-52.734375
7178		-46.875000
7179		-54.687500
7180		-50.781250
7181		-56.640625
7182		-50.781250
7183		-56.640625
7184		-52.734375
7185		-58.593750
7186		-54.687500
7187		-60.546875
7188		-56.640625
7189		-62.500000
7190		-58.593750
7191		-64.453125
7192		-60.546875
7193		-66.406250
7194		-62.500000
7195		-66.406250
7196		-62.500000
7197		-68.359375
7198		-64.453125
7199		-70.312500
7200		-66.406250
7201		-72.265625
7202		-68.359375
7203		-74.218750
7204		-68.359375
7205		-74.218750
7206		-70.312500
7207		-74.218750
7208		-72.265625
7209		-76.171875
7210		-72.265625
7211		-78.125000
7212		-74.218750
7213		-78.125000
7214		-74.218750
7215		-80.078125
7216		-74.218750
7217		-80.078125
7218		-76.171875
7219		-80.078125
7220		-78.125000
7221		-82.031250
7222		-78.125000
7223		-82.031250
7224		-78.125000
7225		-82.031250
7226		-80.078125
7227		-82.031250
7228		-80.078125
7229		-83.984375
7230		-80.078125
7231		-83.984375
7232		-80.078125
7233		-83.984375
7234		-80.078125
7235		-83.984375
7236		-80.078125
7237		-85.937500
7238		-80.078125
7239		-83.984375
7240		-82.031250
7241		-83.984375
7242		-80.078125
7243		-83.984375
7244		-80.078125
7245		-83.984375
7246		-80.078125
7247		-83.984375
7248		-80.078125
7249		-83.984375
7250		-80.078125
7251		-82.031250
7252		-80.078125
7253		-82.031250
7254		-80.078125
7255		-82.031250
7256		-78.125000
7257		-82.031250
7258		-78.125000
7259		-80.078125
7260		-78.125000
7261		-80.078125
7262		-76.171875
7263		-80.078125
7264		-76.171875
7265		-78.125000
7266		-74.218750
7267		-78.125000
7268		-74.218750
7269		-76.171875
7270		-72.265625
7271		-76.171875
7272		-72.265625
7273		-74.218750
7274		-70.312500
7275		-72.265625
7276		-68.359375
7277		-72.265625
7278		-68.359375
7279		-70.312500
7280		-66.406250
7281		-68.359375
7282		-64.453125
7283		-68.359375
7284		-64.453125
7285		-66.406250
7286		-62.500000
7287		-64.453125
7288		-60.546875
7289		-64.453125
7290		-58.593750
7291		-60.546875
7292		-56.640625
7293		-60.546875
7294		-56.640625
7295		-58.593750
7296		-54.687500
7297		-56.640625
7298		-52.734375
7299		-54.687500
7300		-48.828125
7301		-52.734375
7302		-48.828125
7303		-50.781250
7304		-46.875000
7305		-48.828125
7306		-44.921875
7307		-46.875000
7308		-41.015625
7309		-44.921875
7310		-39.062500
7311		-42.968750
7312		-37.109375
7313		-41.015625
7314		-35.156250
7315		-37.109375
7316		-33.203125
7317		-37.109375
7318		-31.250000
7319		-33.203125
7320		-29.296875
7321		-31.250000
7322		-27.343750
7323		-29.296875
7324		-23.437500
7325		-27.343750
7326		-21.484375
7327		-23.437500
7328		-19.531250
7329		-21.484375
7330		-17.578125
7331		-19.531250
7332		-13.671875
7333		-17.578125
7334		-11.718750
7335		-15.625000
7336		-9.765625
7337		-11.718750
7338		-7.812500
7339		-11.718750
7340		-5.859375
7341		-7.812500
7342		-1.953125
7343		-5.859375
7344		0.000000
7345		-1.953125
7346		1.953125
7347		0.000000
7348		3.906250
7349		1.953125
7350		5.859375
7351		3.906250
7352		9.765625
7353		7.812500
7354		11.718750
7355		9.765625
7356		13.671875
7357		11.718750
7358		17.578125
7359		13.671875
7360		19.531250
7361		15.625000
7362		21.484375
7363		19.531250
7364		23.437500
7365		21.484375
7366		25.390625
7367		23.437500
7368		29.296875
7369		25.390625
7370		29.296875
7371		29.296875
7372		33.203125
7373		29.296875
7374		35.156250
7375		33.203125
7376		37.109375
7377		35.156250
7378		39.062500
7379		37.109375
7380		42.968750
7381		39.062500
7382		42.968750
7383		41.015625
7384		46.875000
7385		42.968750
7386		48.828125
7387		46.875000
7388		50.781250
7389		48.828125
7390		52.734375
7391		48.828125
7392		54.687500
7393		50.781250
7394		56.640625
7395		54.687500
7396		58.593750
7397		56.640625
7398		60.546875
7399		58.593750
7400		62.500000
7401		58.593750
7402		64.453125
7403		62.500000
7404		66.406250
7405		64.453125
7406		68.359375
7407		64.453125
7408		68.359375
7409		66.406250
7410		70.312500
7411		68.359375
7412		72.265625
7413		70.312500
7414		74.218750
7415		72.265625
7416		76.171875
7417		72.265625
7418		76.171875
7419		74.218750
7420		78.125000
7421		76.171875
7422		80.078125
7423		76.171875
7424		82.031250
7425		78.125000
7426		83.984375
7427		80.078125
7428		83.984375
7429		82.031250
7430		85.937500
7431		82.031250
7432		85.937500
7433		83.984375
7434		87.890625
7435		83.984375
7436		87.890625
7437		85.937500
7438		89.843750
7439		85.937500
7440		91.796875
7441		87.890625
7442		91.796875
7443		87.890625
7444		91.796875
7445		89.843750
7446		93.750000
7447		89.843750
7448		93.750000
7449		91.796875
7450		93.750000
7451		91.796875
7452		95.703125
7453		93.750000
7454		95.703125
7455		93.750000
7456		97.656250
7457		93.750000
7458		97.656250
7459		93.750000
7460		97.656250
7461		93.750000
7462		97.656250
7463		93.750000
7464		97.656250
7465		95.703125
7466		99.609375
7467		95.703125
7468		99.609375
7469		95.703125
7470		99.609375
7471		95.703125
7472		99.609375
7473		95.703125
7474		99.609375
7475		95.703125
7476		99.609375
7477		95.703125
7478		99.609375
7479		95.703125
7480		99.609375
7481		95.703125
7482		99.609375
7483		95.703125
7484		99.609375
7485		95.703125
7486		97.656250
7487		95.703125
7488		97.656250
7489		93.750000
7490		97.656250
7491		93.750000
7492		97.656250
7493		93.750000
7494		97.656250
7495		91.796875
7496		97.656250
7497		91.796875
7498		95.703125
7499		91.796875
7500		95.703125
7501		91.796875
7502		95.703125
7503		91.796875
7504		93.750000
7505		89.843750
7506		93.750000
7507		89.843750
7508		93.750000
7509		87.890625
7510		91.796875
7511		87.890625
7512		89.843750
7513		85.937500
7514		89.843750
7515		85.937500
7516		87.890625
7517		83.984375
7518		87.890625
7519		83.984375
7520		85.937500
7521		82.031250
7522		85.937500
7523		80.078125
7524		83.984375
7525		80.078125
7526		82.031250
7527		78.125000
7528		82.031250
7529		76.171875
7530		80.078125
7531		74.218750
7532		78.125000
7533		74.218750
7534		78.125000
7535		72.265625
7536		76.171875
7537		70.312500
7538		74.218750
7539		68.359375
7540		72.265625
7541		66.406250
7542		70.312500
7543		64.453125
7544		70.312500
7545		62.500000
7546		66.406250
7547		60.546875
7548		66.406250
7549		60.546875
7550		64.453125
7551		56.640625
7552		62.500000
7553		56.640625
7554		60.546875
7555		54.687500
7556		58.593750
7557		52.734375
7558		56.640625
7559		48.828125
7560		54.687500
7561		46.875000
7562		52.734375
7563		44.921875
7564		48.828125
7565		42.968750
7566		48.828125
7567		41.015625
7568		44.921875
7569		39.062500
7570		42.968750
7571		37.109375
7572		41.015625
7573		35.156250
7574		39.062500
7575		33.203125
7576		37.109375
7577		29.296875
7578		35.156250
7579		27.343750
7580		31.250000
7581		25.390625
7582		29.296875
7583		23.437500
7584		27.343750
7585		19.531250
7586		25.390625
7587		17.578125
7588		23.437500
7589		15.625000
7590		19.531250
7591		13.671875
7592		19.531250
7593		11.718750
7594		15.625000
7595		7.812500
7596		13.671875
7597		5.859375
7598		9.765625
7599		3.906250
7600		7.812500
7601		1.953125
7602		5.859375
7603		0.000000
7604		3.906250
7605		-3.906250
7606		0.000000
7607		-5.859375
7608		-1.953125
7609		-7.812500
7610		-3.906250
7611		-11.718750
7612		-5.859375
7613		-13.671875
7614		-7.812500
7615		-15.625000
7616		-11.718750
7617		-17.578125
7618		-13.671875
7619		-21.484375
7620		-15.625000
7621		-23.437500
7622		-19.531250
7623		-25.390625
7624		-21.484375
7625		-27.343750
7626		-23.437500
7627		-29.296875
7628		-25.390625
7629		-33.203125
7630		-27.343750
7631		-35.156250
7632		-29.296875
7633		-37.109375
7634		-33.203125
7635		-39.062500
7636		-35.156250
7637		-41.015625
7638		-37.109375
7639		-42.968750
7640		-39.062500
7641		-44.921875
7642		-41.015625
7643		-48.828125
7644		-42.968750
7645		-48.828125
7646		-44.921875
7647		-50.781250
7648		-46.875000
7649		-52.734375
7650		-48.828125
7651		-54.687500
7652		-50.781250
7653		-56.640625
7654		-52.734375
7655		-58.593750
7656		-54.687500
7657		-60.546875
7658		-56.640625
7659		-62.500000
7660		-58.593750
7661		-64.453125
7662		-60.546875
7663		-66.406250
7664		-60.546875
7665		-66.406250
7666		-62.500000
7667		-68.359375
7668		-64.453125
7669		-70.312500
7670		-66.406250
7671		-70.312500
7672		-68.359375
7673		-72.265625
7674		-68.359375
7675		-74.218750
7676		-70.312500
7677		-76.171875
7678		-70.312500
7679		-76.171875
7680		-72.265625
7681		-78.125000
7682		-74.218750
7683		-78.125000
7684		-74.218750
7685		-80.078125
7686		-76.171875
7687		-80.078125
7688		-76.171875
7689		-80.078125
7690		-76.171875
7691		-82.031250
7692		-78.125000
7693		-82.031250
7694		-78.125000
7695		-82.031250
7696		-78.125000
7697		-82.031250
7698		-80.078125
7699		-83.984375
7700		-80.078125
7701		-83.984375
7702		-80.078125
7703		-83.984375
7704		-80.078125
7705		-83.984375
7706		-80.078125
7707		-83.984375
7708		-82.031250
7709		-83.984375
7710		-80.078125
7711		-83.984375
7712		-80.078125
7713		-83.984375
7714		-82.031250
7715		-83.984375
7716		-82.031250
7717		-83.984375
7718		-80.078125
7719		-83.984375
7720		-80.078125
7721		-83.984375
7722		-80.078125
7723		-82.031250
7724		-80.078125
7725		-83.984375
7726		-78.125000
7727		-82.031250
7728		-78.125000
7729		-82.031250
7730		-78.125000
7731		-80.078125
7732		-78.125000
7733		-80.078125
7734		-76.171875
7735		-78.125000
7736		-76.171875
7737		-78.125000
7738		-74.218750
7739		-78.125000
7740		-74.218750
7741		-76.171875
7742		-72.265625
7743		-76.171875
7744		-70.312500
7745		-74.218750
7746		-70.312500
7747		-72.265625
7748		-68.359375
7749		-72.265625
7750		-68.359375
7751		-70.312500
7752		-66.406250
7753		-68.359375
7754		-64.453125
7755		-66.406250
7756		-62.500000
7757		-66.406250
7758		-62.500000
7759		-64.453125
7760		-60.546875
7761		-62.500000
7762		-58.593750
7763		-60.546875
7764		-56.640625
7765		-58.593750
7766		-54.687500
7767		-58.593750
7768		-52.734375
7769		-56.640625
7770		-50.781250
7771		-54.687500
7772		-48.828125
7773		-50.781250
7774		-46.875000
7775		-48.828125
7776		-44.921875
7777		-46.875000
7778		-42.968750
7779		-46.875000
7780		-41.015625
7781		-42.968750
7782		-39.062500
7783		-41.015625
7784		-37.109375
7785		-39.062500
7786		-35.156250
7787		-37.109375
7788		-33.203125
7789		-35.156250
7790		-31.250000
7791		-33.203125
7792		-29.296875
7793		-31.250000
7794		-25.390625
7795		-29.296875
7796		-23.437500
7797		-25.390625
7798		-21.484375
7799		-23.437500
7800		-19.531250
7801		-21.484375
7802		-17.578125
7803		-19.531250
7804		-13.671875
7805		-17.578125
7806		-11.718750
7807		-13.671875
7808		-9.765625
7809		-11.718750
7810		-7.812500
7811		-9.765625
7812		-5.859375
7813		-5.859375
7814		-1.953125
7815		-3.906250
7816		0.000000
7817		-1.953125
7818		1.953125
7819		0.000000
7820		5.859375
7821		1.953125
7822		7.812500
7823		5.859375
7824		9.765625
7825		7.812500
7826		13.671875
7827		9.765625
7828		15.625000
7829		13.671875
7830		17.578125
7831		13.671875
7832		19.531250
7833		17.578125
7834		21.484375
7835		19.531250
7836		23.437500
7837		21.484375
7838		27.343750
7839		25.390625
7840		29.296875
7841		27.343750
7842		31.250000
7843		29.296875
7844		33.203125
7845		31.250000
7846		35.156250
7847		33.203125
7848		39.062500
7849		35.156250
7850		41.015625
7851		37.109375
7852		42.968750
7853		41.015625
7854		44.921875
7855		42.968750
7856		46.875000
7857		44.921875
7858		48.828125
7859		46.875000
7860		50.781250
7861		48.828125
7862		52.734375
7863		50.781250
7864		54.687500
7865		52.734375
7866		56.640625
7867		54.687500
7868		58.593750
7869		56.640625
7870		60.546875
7871		58.593750
7872		62.500000
7873		60.546875
7874		64.453125
7875		62.500000
7876		66.406250
7877		62.500000
7878		68.359375
7879		66.406250
7880		70.312500
7881		66.406250
7882		70.312500
7883		68.359375
7884		72.265625
7885		70.312500
7886		74.218750
7887		72.265625
7888		76.171875
7889		72.265625
7890		78.125000
7891		74.218750
7892		78.125000
7893		76.171875
7894		80.078125
7895		78.125000
7896		82.031250
7897		80.078125
7898		82.031250
7899		80.078125
7900		83.984375
7901		82.031250
7902		85.937500
7903		82.031250
7904		85.937500
7905		83.984375
7906		87.890625
7907		85.937500
7908		87.890625
7909		85.937500
7910		89.843750
7911		85.937500
7912		89.843750
7913		87.890625
7914		91.796875
7915		87.890625
7916		91.796875
7917		89.843750
7918		93.750000
7919		89.843750
7920		93.750000
7921		91.796875
7922		93.750000
7923		91.796875
7924		95.703125
7925		91.796875
7926		95.703125
7927		91.796875
7928		97.656250
7929		93.750000
7930		97.656250
7931		93.750000
7932		97.656250
7933		93.750000
7934		97.656250
7935		93.750000
7936		97.656250
7937		95.703125
7938		97.656250
7939		93.750000
7940		97.656250
7941		95.703125
7942		97.656250
7943		95.703125
7944		99.609375
7945		95.703125
7946		99.609375
7947		95.703125
7948		99.609375
7949		95.703125
7950		97.656250
7951		95.703125
7952		99.609375
7953		95.703125
7954		97.656250
7955		93.750000
7956		99.609375
7957		95.703125
7958		97.656250
7959		93.750000
7960		97.656250
7961		93.750000
7962		97.656250
7963		93.750000
7964		97.656250
7965		93.750000
7966		97.656250
7967		91.796875
7968		95.703125
7969		91.796875
7970		95.703125
7971		91.796875
7972		95.703125
7973		89.843750
7974		93.750000
7975		89.843750
7976		93.750000
7977		87.890625
7978		91.796875
7979		87.890625
7980		91.796875
7981		87.890625
7982		89.843750
7983		85.937500
7984		89.843750
7985		83.984375
7986		89.843750
7987		83.984375
7988		87.890625
7989		82.031250
7990		85.937500
7991		82.031250
7992		85.937500
7993		80.078125
7994		83.984375
7995		80.078125
7996		83.984375
7997		78.125000
7998		82.031250
7999		76.171875
8000		80.078125
8001		76.171875
8002		78.125000
8003		74.218750
8004		78.125000
8005		72.265625
8006		76.171875
8007		70.312500
8008		74.218750
8009		68.359375
8010		72.265625
8011		66.406250
8012		72.265625
8013		64.453125
8014		70.312500
8015		64.453125
8016		68.359375
8017		60.546875
8018		66.406250
8019		60.546875
8020		64.453125
8021		58.593750
8022		62.500000
8023		56.640625
8024		60.546875
8025		54.687500
8026		58.593750
8027		52.734375
8028		56.640625
8029		48.828125
8030		54.687500
8031		48.828125
8032		52.734375
8033		46.875000
8034		50.781250
8035		44.921875
8036		48.828125
8037		41.015625
8038		44.921875
8039		39.062500
8040		44.921875
8041		37.109375
8042		41.015625
8043		35.156250
8044		39.062500
8045		33.203125
8046		37.109375
8047		31.250000
8048		35.156250
8049		27.343750
8050		33.203125
8051		25.390625
8052		31.250000
8053		23.437500
8054		27.343750
8055		21.484375
8056		25.390625
8057		19.531250
8058		23.437500
8059		15.625000
8060		19.531250
8061		13.671875
8062		17.578125
8063		11.718750
8064		15.625000
8065		9.765625
8066		13.671875
8067		5.859375
8068		11.718750
8069		3.906250
8070		7.812500
8071		1.953125
8072		5.859375
8073		0.000000
8074		3.906250
8075		-3.906250
8076		1.953125
8077		-5.859375
8078		-1.953125
8079		-7.812500
8080		-3.906250
8081		-11.718750
8082		-5.859375
8083		-13.671875
8084		-7.812500
8085		-15.625000
8086		-11.718750
8087		-17.578125
8088		-13.671875
8089		-21.484375
8090		-15.625000
8091		-23.437500
8092		-17.578125
8093		-25.390625
8094		-19.531250
8095		-27.343750
8096		-23.437500
8097		-29.296875
8098		-25.390625
8099		-33.203125
8100		-27.343750
8101		-33.203125
8102		-29.296875
8103		-37.109375
8104		-31.250000
8105		-39.062500
8106		-35.156250
8107		-41.015625
8108		-35.156250
8109		-42.968750
8110		-39.062500
8111		-44.921875
8112		-41.015625
8113		-46.875000
8114		-42.968750
8115		-48.828125
8116		-44.921875
8117		-50.781250
8118		-46.875000
8119		-52.734375
8120		-48.828125
8121		-54.687500
8122		-50.781250
8123		-56.640625
8124		-52.734375
8125		-58.593750
8126		-54.687500
8127		-60.546875
8128		-56.640625
8129		-64.453125
8130		-56.640625
8131		-64.453125
8132		-58.593750
8133		-64.453125
8134		-58.593750
8135		-68.359375
8136		-62.500000
8137		-68.359375
8138		-64.453125
8139		-70.312500
8140		-64.453125
8141		-70.312500
8142		-68.359375
8143		-72.265625
8144		-68.359375
8145		-74.218750
8146		-68.359375
8147		-76.171875
8148		-70.312500
8149		-76.171875
8150		-70.312500
8151		-78.125000
8152		-74.218750
8153		-78.125000
8154		-72.265625
8155		-80.078125
8156		-76.171875
8157		-80.078125
8158		-76.171875
8159		-80.078125
8160		-78.125000
8161		-82.031250
8162		-78.125000
8163		-82.031250
8164		-78.125000
8165		-83.984375
8166		-78.125000
8167		-83.984375
8168		-78.125000
8169		-83.984375
8170		-80.078125
8171		-83.984375
8172		-80.078125
8173		-83.984375
8174		-82.031250
8175		-83.984375
8176		-82.031250
8177		-83.984375
8178		-82.031250
8179		-85.937500
8180		-80.078125
8181		-85.937500
8182		-80.078125
8183		-85.937500
8184		-80.078125
8185		-85.937500
8186		-80.078125
8187		-85.937500
8188		-80.078125
8189		-83.984375
8190		-82.031250
8191		-83.984375
8192		-80.078125
8193		-83.984375
8194		-80.078125
8195		-83.984375
8196		-78.125000
8197		-83.984375
8198		-78.125000
8199		-83.984375
8200		-78.125000
8201		-83.984375
8202		-76.171875
8203		-82.031250
8204		-76.171875
8205		-82.031250
8206		-76.171875
8207		-80.078125
8208		-74.218750
8209		-78.125000
8210		-74.218750
8211		-76.171875
8212		-74.218750
8213		-78.125000
8214		-72.265625
8215		-76.171875
8216		-70.312500
8217		-76.171875
8218		-68.359375
8219		-74.218750
8220		-68.359375
8221		-74.218750
8222		-66.406250
8223		-70.312500
8224		-64.453125
8225		-70.312500
8226		-64.453125
8227		-66.406250
8228		-62.500000
8229		-66.406250
8230		-60.546875
8231		-64.453125
8232		-58.593750
8233		-62.500000
8234		-56.640625
8235		-62.500000
8236		-54.687500
8237		-60.546875
8238		-52.734375
8239		-58.593750
8240		-50.781250
8241		-56.640625
8242		-50.781250
8243		-52.734375
8244		-48.828125
8245		-50.781250
8246		-46.875000
8247		-50.781250
8248		-44.921875
8249		-48.828125
8250		-41.015625
8251		-46.875000
8252		-39.062500
8253		-44.921875
8254		-37.109375
8255		-42.968750
8256		-35.156250
8257		-41.015625
8258		-33.203125
8259		-37.109375
8260		-31.250000
8261		-35.156250
8262		-29.296875
8263		-33.203125
8264		-25.390625
8265		-31.250000
8266		-23.437500
8267		-29.296875
8268		-21.484375
8269		-27.343750
8270		-19.531250
8271		-23.437500
8272		-15.625000
8273		-21.484375
8274		-13.671875
8275		-19.531250
8276		-13.671875
8277		-15.625000
8278		-11.718750
8279		-13.671875
8280		-7.812500
8281		-11.718750
8282		-5.859375
8283		-11.718750
8284		-1.953125
8285		-7.812500
8286		0.000000
8287		-3.906250
8288		1.953125
8289		-3.906250
8290		3.906250
8291		-1.953125
8292		5.859375
8293		3.906250
8294		7.812500
8295		5.859375
8296		9.765625
8297		7.812500
8298		13.671875
8299		7.812500
8300		17.578125
8301		11.718750
8302		19.531250
8303		13.671875
8304		21.484375
8305		15.625000
8306		23.437500
8307		19.531250
8308		27.343750
8309		21.484375
8310		27.343750
8311		25.390625
8312		29.296875
8313		27.343750
8314		33.203125
8315		27.343750
8316		37.109375
8317		29.296875
8318		39.062500
8319		31.250000
8320		39.062500
8321		35.156250
8322		42.968750
8323		37.109375
8324		44.921875
8325		39.062500
8326		44.921875
8327		42.968750
8328		46.875000
8329		44.921875
8330		48.828125
8331		44.921875
8332		52.734375
8333		48.828125
8334		54.687500
8335		48.828125
8336		56.640625
8337		50.781250
8338		58.593750
8339		52.734375
8340		62.500000
8341		54.687500
8342		62.500000
8343		58.593750
8344		62.500000
8345		60.546875
8346		64.453125
8347		62.500000
8348		68.359375
8349		62.500000
8350		70.312500
8351		64.453125
8352		70.312500
8353		64.453125
8354		72.265625
8355		66.406250
8356		74.218750
8357		68.359375
8358		76.171875
8359		70.312500
8360		76.171875
8361		74.218750
8362		78.125000
8363		76.171875
8364		80.078125
8365		74.218750
8366		82.031250
8367		76.171875
8368		83.984375
8369		78.125000
8370		83.984375
8371		80.078125
8372		85.937500
8373		80.078125
8374		87.890625
8375		80.078125
8376		87.890625
8377		83.984375
8378		87.890625
8379		85.937500
8380		87.890625
8381		83.984375
8382		91.796875
8383		85.937500
8384		91.796875
8385		85.937500
8386		93.750000
8387		87.890625
8388		93.750000
8389		87.890625
8390		93.750000
8391		87.890625
8392		95.703125
8393		91.796875
8394		93.750000
8395		91.796875
8396		95.703125
8397		91.796875
8398		97.656250
8399		89.843750
8400		97.656250
8401		91.796875
8402		99.609375
8403		91.796875
8404		99.609375
8405		91.796875
8406		99.609375
8407		93.750000
8408		99.609375
8409		91.796875
8410		99.609375
8411		95.703125
8412		97.656250
8413		95.703125
8414		97.656250
8415		93.750000
8416		99.609375
8417		93.750000
8418		99.609375
8419		93.750000
8420		99.609375
8421		93.750000
8422		99.609375
8423		93.750000
8424		99.609375
8425		91.796875
8426		99.609375
8427		93.750000
8428		97.656250
8429		95.703125
8430		97.656250
8431		91.796875
8432		97.656250
8433		91.796875
8434		99.609375
8435		91.796875
8436		97.656250
8437		89.843750
8438		97.656250
8439		89.843750
8440		95.703125
8441		89.843750
8442		95.703125
8443		89.843750
8444		95.703125
8445		89.843750
8446		93.750000
8447		87.890625
8448		93.750000
8449		85.937500
8450		93.750000
8451		85.937500
8452		93.750000
8453		83.984375
8454		91.796875
8455		83.984375
8456		89.843750
8457		82.031250
8458		89.843750
8459		82.031250
8460		87.890625
8461		82.031250
8462		85.937500
8463		80.078125
8464		83.984375
8465		78.125000
8466		83.984375
8467		76.171875
8468		83.984375
8469		76.171875
8470		82.031250
8471		74.218750
8472		80.078125
8473		72.265625
8474		80.078125
8475		70.312500
8476		78.125000
8477		70.312500
8478		74.218750
8479		70.312500
8480		72.265625
8481		66.406250
8482		72.265625
8483		64.453125
8484		72.265625
8485		62.500000
8486		68.359375
8487		60.546875
8488		68.359375
8489		58.593750
8490		66.406250
8491		56.640625
8492		64.453125
8493		56.640625
8494		62.500000
8495		54.687500
8496		58.593750
8497		52.734375
8498		56.640625
8499		48.828125
8500		56.640625
8501		46.875000
8502		54.687500
8503		44.921875
8504		52.734375
8505		42.968750
8506		50.781250
8507		39.062500
8508		46.875000
8509		39.062500
8510		46.875000
8511		37.109375
8512		42.968750
8513		35.156250
8514		41.015625
8515		31.250000
8516		37.109375
8517		29.296875
8518		37.109375
8519		27.343750
8520		35.156250
8521		25.390625
8522		33.203125
8523		21.484375
8524		29.296875
8525		21.484375
8526		27.343750
8527		19.531250
8528		25.390625
8529		17.578125
8530		21.484375
8531		11.718750
8532		19.531250
8533		11.718750
8534		17.578125
8535		7.812500
8536		15.625000
8537		5.859375
8538		13.671875
8539		3.906250
8540		11.718750
8541		0.000000
8542		7.812500
8543		0.000000
8544		5.859375
8545		-1.953125
8546		1.953125
8547		-3.906250
8548		0.000000
8549		-7.812500
8550		-1.953125
8551		-11.718750
8552		-3.906250
8553		-13.671875
8554		-5.859375
8555		-15.625000
8556		-9.765625
8557		-17.578125
8558		-11.718750
8559		-21.484375
8560		-13.671875
8561		-21.484375
8562		-15.625000
8563		-23.437500
8564		-19.531250
8565		-27.343750
8566		-21.484375
8567		-31.250000
8568		-23.437500
8569		-31.250000
8570		-25.390625
8571		-35.156250
8572		-27.343750
8573		-37.109375
8574		-29.296875
8575		-39.062500
8576		-31.250000
8577		-41.015625
8578		-33.203125
8579		-42.968750
8580		-37.109375
8581		-44.921875
8582		-39.062500
8583		-48.828125
8584		-41.015625
8585		-50.781250
8586		-42.968750
8587		-50.781250
8588		-44.921875
8589		-54.687500
8590		-46.875000
8591		-56.640625
8592		-48.828125
8593		-58.593750
8594		-50.781250
8595		-58.593750
8596		-52.734375
8597		-58.593750
8598		-54.687500
8599		-62.500000
8600		-56.640625
8601		-64.453125
8602		-56.640625
8603		-66.406250
8604		-58.593750
8605		-68.359375
8606		-60.546875
8607		-68.359375
8608		-62.500000
8609		-70.312500
8610		-64.453125
8611		-72.265625
8612		-64.453125
8613		-72.265625
8614		-68.359375
8615		-74.218750
8616		-70.312500
8617		-76.171875
8618		-68.359375
8619		-78.125000
8620		-70.312500
8621		-78.125000
8622		-72.265625
8623		-80.078125
8624		-72.265625
8625		-80.078125
8626		-74.218750
8627		-82.031250
8628		-74.218750
8629		-80.078125
8630		-76.171875
8631		-82.031250
8632		-78.125000
8633		-83.984375
8634		-78.125000
8635		-83.984375
8636		-78.125000
8637		-85.937500
8638		-78.125000
8639		-85.937500
8640		-78.125000
8641		-85.937500
8642		-80.078125
8643		-85.937500
8644		-80.078125
8645		-85.937500
8646		-80.078125
8647		-83.984375
8648		-82.031250
8649		-85.937500
8650		-80.078125
8651		-87.890625
8652		-80.078125
8653		-87.890625
8654		-80.078125
8655		-85.937500
8656		-80.078125
8657		-87.890625
8658		-80.078125
8659		-85.937500
8660		-80.078125
8661		-85.937500
8662		-80.078125
8663		-83.984375
8664		-82.031250
8665		-83.984375
8666		-80.078125
8667		-83.984375
8668		-78.125000
8669		-83.984375
8670		-78.125000
8671		-83.984375
8672		-76.171875
8673		-83.984375
8674		-76.171875
8675		-82.031250
8676		-76.171875
8677		-82.031250
8678		-74.218750
8679		-80.078125
8680		-76.171875
8681		-78.125000
8682		-74.218750
8683		-78.125000
8684		-70.312500
8685		-78.125000
8686		-70.312500
8687		-76.171875
8688		-70.312500
8689		-76.171875
8690		-68.359375
8691		-74.218750
8692		-66.406250
8693		-72.265625
8694		-64.453125
8695		-70.312500
8696		-64.453125
8697		-68.359375
8698		-64.453125
8699		-66.406250
8700		-62.500000
8701		-68.359375
8702		-58.593750
8703		-64.453125
8704		-58.593750
8705		-62.500000
8706		-56.640625
8707		-62.500000
8708		-54.687500
8709		-60.546875
8710		-52.734375
8711		-58.593750
8712		-50.781250
8713		-54.687500
8714		-48.828125
8715		-52.734375
8716		-48.828125
8717		-52.734375
8718		-44.921875
8719		-50.781250
8720		-42.968750
8721		-48.828125
8722		-41.015625
8723		-46.875000
8724		-37.109375
8725		-42.968750
8726		-37.109375
8727		-41.015625
8728		-35.156250
8729		-39.062500
8730		-33.203125
8731		-35.156250
8732		-31.250000
8733		-33.203125
8734		-27.343750
8735		-33.203125
8736		-25.390625
8737		-29.296875
8738		-23.437500
8739		-29.296875
8740		-19.531250
8741		-27.343750
8742		-17.578125
8743		-23.437500
8744		-15.625000
8745		-21.484375
8746		-13.671875
8747		-17.578125
8748		-13.671875
8749		-13.671875
8750		-9.765625
8751		-13.671875
8752		-7.812500
8753		-11.718750
8754		-3.906250
8755		-9.765625
8756		-1.953125
8757		-7.812500
8758		1.953125
8759		-3.906250
8760		3.906250
8761		-1.953125
8762		5.859375
8763		1.953125
8764		7.812500
8765		3.906250
8766		9.765625
8767		5.859375
8768		13.671875
8769		7.812500
8770		15.625000
8771		9.765625
8772		17.578125
8773		11.718750
8774		19.531250
8775		15.625000
8776		21.484375
8777		17.578125
8778		25.390625
8779		19.531250
8780		25.390625
8781		23.437500
8782		27.343750
8783		27.343750
8784		31.250000
8785		25.390625
8786		35.156250
8787		29.296875
8788		37.109375
8789		31.250000
8790		39.062500
8791		33.203125
8792		41.015625
8793		35.156250
8794		42.968750
8795		39.062500
8796		44.921875
8797		41.015625
8798		46.875000
8799		42.968750
8800		48.828125
8801		44.921875
8802		50.781250
8803		46.875000
8804		54.687500
8805		48.828125
8806		56.640625
8807		50.781250
8808		56.640625
8809		52.734375
8810		60.546875
8811		52.734375
8812		62.500000
8813		56.640625
8814		62.500000
8815		60.546875
8816		64.453125
8817		60.546875
8818		68.359375
8819		62.500000
8820		68.359375
8821		62.500000
8822		70.312500
8823		64.453125
8824		72.265625
8825		66.406250
8826		74.218750
8827		68.359375
8828		76.171875
8829		70.312500
8830		76.171875
8831		72.265625
8832		76.171875
8833		74.218750
8834		78.125000
8835		74.218750
8836		80.078125
8837		76.171875
8838		82.031250
8839		76.171875
8840		83.984375
8841		78.125000
8842		85.937500
8843		80.078125
8844		85.937500
8845		80.078125
8846		87.890625
8847		82.031250
8848		87.890625
8849		83.984375
8850		87.890625
8851		83.984375
8852		89.843750
8853		85.937500
8854		91.796875
8855		85.937500
8856		91.796875
8857		85.937500
8858		93.750000
8859		87.890625
8860		93.750000
8861		87.890625
8862		95.703125
8863		89.843750
8864		95.703125
8865		91.796875
8866		95.703125
8867		91.796875
8868		95.703125
8869		89.843750
8870		97.656250
8871		91.796875
8872		97.656250
8873		91.796875
8874		97.656250
8875		91.796875
8876		99.609375
8877		91.796875
8878		99.609375
8879		93.750000
8880		99.609375
8881		95.703125
8882		97.656250
8883		95.703125
8884		97.656250
8885		93.750000
8886		99.609375
8887		93.750000
8888		99.609375
8889		91.796875
8890		99.609375
8891		93.750000
8892		99.609375
8893		93.750000
8894		99.609375
8895		91.796875
8896		99.609375
8897		93.750000
8898		99.609375
8899		93.750000
8900		97.656250
8901		91.796875
8902		97.656250
8903		91.796875
8904		99.609375
8905		91.796875
8906		97.656250
8907		89.843750
8908		97.656250
8909		91.796875
8910		97.656250
8911		89.843750
8912		95.703125
8913		89.843750
8914		95.703125
8915		89.843750
8916		93.750000
8917		89.843750
8918		91.796875
8919		87.890625
8920		93.750000
8921		85.937500
8922		91.796875
8923		83.984375
8924		91.796875
8925		83.984375
8926		89.843750
8927		82.031250
8928		89.843750
8929		82.031250
8930		87.890625
8931		82.031250
8932		85.937500
8933		82.031250
8934		83.984375
8935		78.125000
8936		83.984375
8937		76.171875
8938		83.984375
8939		74.218750
8940		82.031250
8941		74.218750
8942		82.031250
8943		72.265625
8944		80.078125
8945		72.265625
8946		78.125000
8947		70.312500
8948		76.171875
8949		70.312500
8950		74.218750
8951		68.359375
8952		72.265625
8953		64.453125
8954		72.265625
8955		64.453125
8956		70.312500
8957		60.546875
8958		68.359375
8959		60.546875
8960		66.406250
8961		56.640625
8962		64.453125
8963		56.640625
8964		62.500000
8965		56.640625
8966		60.546875
8967		52.734375
8968		58.593750
8969		50.781250
8970		56.640625
8971		48.828125
8972		54.687500
8973		44.921875
8974		52.734375
8975		42.968750
8976		50.781250
8977		41.015625
8978		48.828125
8979		39.062500
8980		46.875000
8981		37.109375
8982		44.921875
8983		37.109375
8984		41.015625
8985		33.203125
8986		39.062500
8987		31.250000
8988		37.109375
8989		27.343750
8990		37.109375
8991		25.390625
8992		33.203125
8993		23.437500
8994		31.250000
8995		21.484375
8996		29.296875
8997		19.531250
8998		25.390625
8999		17.578125
9000		23.437500
9001		15.625000
9002		19.531250
9003		13.671875
9004		17.578125
9005		9.765625
9006		15.625000
9007		7.812500
9008		13.671875
9009		5.859375
9010		11.718750
9011		3.906250
9012		7.812500
9013		0.000000
9014		5.859375
9015		-1.953125
9016		3.906250
9017		-3.906250
9018		0.000000
9019		-7.812500
9020		-1.953125
9021		-9.765625
9022		-1.953125
9023		-11.718750
9024		-5.859375
9025		-15.625000
9026		-7.812500
9027		-17.578125
9028		-9.765625
9029		-19.531250
9030		-13.671875
9031		-21.484375
9032		-15.625000
9033		-23.437500
9034		-19.531250
9035		-25.390625
9036		-21.484375
9037		-29.296875
9038		-21.484375
9039		-31.250000
9040		-23.437500
9041		-33.203125
9042		-27.343750
9043		-37.109375
9044		-27.343750
9045		-39.062500
9046		-31.250000
9047		-41.015625
9048		-33.203125
9049		-41.015625
9050		-35.156250
9051		-42.968750
9052		-39.062500
9053		-46.875000
9054		-41.015625
9055		-48.828125
9056		-41.015625
9057		-50.781250
9058		-42.968750
9059		-52.734375
9060		-46.875000
9061		-54.687500
9062		-48.828125
9063		-56.640625
9064		-48.828125
9065		-56.640625
9066		-52.734375
9067		-58.593750
9068		-54.687500
9069		-62.500000
9070		-56.640625
9071		-64.453125
9072		-56.640625
9073		-66.406250
9074		-58.593750
9075		-66.406250
9076		-60.546875
9077		-68.359375
9078		-62.500000
9079		-70.312500
9080		-62.500000
9081		-72.265625
9082		-64.453125
9083		-72.265625
9084		-68.359375
9085		-72.265625
9086		-68.359375
9087		-76.171875
9088		-68.359375
9089		-76.171875
9090		-70.312500
9091		-78.125000
9092		-70.312500
9093		-80.078125
9094		-72.265625
9095		-80.078125
9096		-74.218750
9097		-82.031250
9098		-74.218750
9099		-80.078125
9100		-74.218750
9101		-82.031250
9102		-78.125000
9103		-82.031250
9104		-78.125000
9105		-83.984375
9106		-78.125000
9107		-83.984375
9108		-78.125000
9109		-85.937500
9110		-80.078125
9111		-85.937500
9112		-78.125000
9113		-85.937500
9114		-80.078125
9115		-85.937500
9116		-80.078125
9117		-85.937500
9118		-82.031250
9119		-85.937500
9120		-82.031250
9121		-87.890625
9122		-80.078125
9123		-87.890625
9124		-80.078125
9125		-87.890625
9126		-82.031250
9127		-87.890625
9128		-80.078125
9129		-87.890625
9130		-80.078125
9131		-87.890625
9132		-80.078125
9133		-85.937500
9134		-80.078125
9135		-83.984375
9136		-82.031250
9137		-85.937500
9138		-80.078125
9139		-85.937500
9140		-78.125000
9141		-83.984375
9142		-78.125000
9143		-83.984375
9144		-78.125000
9145		-83.984375
9146		-76.171875
9147		-82.031250
9148		-76.171875
9149		-80.078125
9150		-76.171875
9151		-78.125000
9152		-76.171875
9153		-78.125000
9154		-72.265625
9155		-78.125000
9156		-72.265625
9157		-76.171875
9158		-70.312500
9159		-76.171875
9160		-68.359375
9161		-76.171875
9162		-68.359375
9163		-74.218750
9164		-66.406250
9165		-72.265625
9166		-64.453125
9167		-68.359375
9168		-66.406250
9169		-68.359375
9170		-62.500000
9171		-66.406250
9172		-60.546875
9173		-66.406250
9174		-58.593750
9175		-64.453125
9176		-58.593750
9177		-62.500000
9178		-54.687500
9179		-60.546875
9180		-52.734375
9181		-60.546875
9182		-52.734375
9183		-56.640625
9184		-50.781250
9185		-54.687500
9186		-48.828125
9187		-52.734375
9188		-46.875000
9189		-50.781250
9190		-44.921875
9191		-48.828125
9192		-41.015625
9193		-46.875000
9194		-41.015625
9195		-44.921875
9196		-37.109375
9197		-42.968750
9198		-35.156250
9199		-41.015625
9200		-33.203125
9201		-37.109375
9202		-33.203125
9203		-35.156250
9204		-31.250000
9205		-35.156250
9206		-25.390625
9207		-31.250000
9208		-25.390625
9209		-29.296875
9210		-23.437500
9211		-25.390625
9212		-19.531250
9213		-25.390625
9214		-17.578125
9215		-21.484375
9216		-15.625000
9217		-21.484375
9218		-13.671875
9219		-15.625000
9220		-11.718750
9221		-13.671875
9222		-7.812500
9223		-11.718750
9224		-5.859375
9225		-11.718750
9226		-3.906250
9227		-7.812500
9228		0.000000
9229		-5.859375
9230		1.953125
9231		-3.906250
9232		5.859375
9233		-1.953125
9234		5.859375
9235		3.906250
9236		7.812500
9237		5.859375
9238		11.718750
9239		5.859375
9240		13.671875
9241		9.765625
9242		17.578125
9243		11.718750
9244		19.531250
9245		13.671875
9246		19.531250
9247		15.625000
9248		23.437500
9249		19.531250
9250		25.390625
9251		21.484375
9252		27.343750
9253		23.437500
9254		29.296875
9255		27.343750
9256		33.203125
9257		27.343750
9258		35.156250
9259		29.296875
9260		37.109375
9261		33.203125
9262		39.062500
9263		35.156250
9264		41.015625
9265		37.109375
9266		44.921875
9267		39.062500
9268		44.921875
9269		42.968750
9270		46.875000
9271		42.968750
9272		50.781250
9273		44.921875
9274		52.734375
9275		46.875000
9276		54.687500
9277		48.828125
9278		58.593750
9279		50.781250
9280		58.593750
9281		52.734375
9282		60.546875
9283		54.687500
9284		62.500000
9285		58.593750
9286		62.500000
9287		60.546875
9288		64.453125
9289		60.546875
9290		68.359375
9291		62.500000
9292		68.359375
9293		62.500000
9294		72.265625
9295		66.406250
9296		72.265625
9297		66.406250
9298		74.218750
9299		68.359375
9300		76.171875
9301		70.312500
9302		76.171875
9303		74.218750
9304		78.125000
9305		74.218750
9306		80.078125
9307		74.218750
9308		80.078125
9309		76.171875
9310		82.031250
9311		78.125000
9312		83.984375
9313		78.125000
9314		85.937500
9315		80.078125
9316		85.937500
9317		80.078125
9318		87.890625
9319		83.984375
9320		87.890625
9321		83.984375
9322		87.890625
9323		83.984375
9324		91.796875
9325		83.984375
9326		91.796875
9327		85.937500
9328		91.796875
9329		85.937500
9330		93.750000
9331		87.890625
9332		93.750000
9333		87.890625
9334		93.750000
9335		89.843750
9336		93.750000
9337		91.796875
9338		95.703125
9339		89.843750
9340		97.656250
9341		91.796875
9342		97.656250
9343		89.843750
9344		97.656250
9345		91.796875
9346		97.656250
9347		91.796875
9348		97.656250
9349		91.796875
9350		99.609375
9351		93.750000
9352		99.609375
9353		93.750000
9354		97.656250
9355		93.750000
9356		99.609375
9357		93.750000
9358		99.609375
9359		91.796875
9360		99.609375
9361		91.796875
9362		99.609375
9363		93.750000
9364		99.609375
9365		93.750000
9366		99.609375
9367		91.796875
9368		99.609375
9369		93.750000
9370		97.656250
9371		93.750000
9372		97.656250
9373		91.796875
9374		99.609375
9375		91.796875
9376		97.656250
9377		89.843750
9378		97.656250
9379		89.843750
9380		97.656250
9381		89.843750
9382		95.703125
9383		89.843750
9384		95.703125
9385		89.843750
9386		95.703125
9387		89.843750
9388		93.750000
9389		87.890625
9390		93.750000
9391		85.937500
9392		91.796875
9393		83.984375
9394		91.796875
9395		83.984375
9396		91.796875
9397		83.984375
9398		89.843750
9399		82.031250
9400		89.843750
9401		82.031250
9402		87.890625
9403		82.031250
9404		85.937500
9405		80.078125
9406		83.984375
9407		78.125000
9408		83.984375
9409		76.171875
9410		83.984375
9411		74.218750
9412		82.031250
9413		72.265625
9414		80.078125
9415		72.265625
9416		78.125000
9417		70.312500
9418		78.125000
9419		70.312500
9420		76.171875
9421		68.359375
9422		72.265625
9423		66.406250
9424		72.265625
9425		62.500000
9426		70.312500
9427		62.500000
9428		70.312500
9429		60.546875
9430		68.359375
9431		58.593750
9432		64.453125
9433		56.640625
9434		64.453125
9435		56.640625
9436		62.500000
9437		54.687500
9438		58.593750
9439		50.781250
9440		56.640625
9441		48.828125
9442		56.640625
9443		46.875000
9444		54.687500
9445		44.921875
9446		50.781250
9447		41.015625
9448		50.781250
9449		41.015625
9450		46.875000
9451		37.109375
9452		44.921875
9453		37.109375
9454		41.015625
9455		35.156250
9456		39.062500
9457		31.250000
9458		39.062500
9459		29.296875
9460		37.109375
9461		27.343750
9462		33.203125
9463		25.390625
9464		33.203125
9465		23.437500
9466		29.296875
9467		19.531250
9468		27.343750
9469		19.531250
9470		25.390625
9471		17.578125
9472		21.484375
9473		13.671875
9474		19.531250
9475		9.765625
9476		17.578125
9477		7.812500
9478		15.625000
9479		5.859375
9480		13.671875
9481		3.906250
9482		9.765625
9483		0.000000
9484		7.812500
9485		0.000000
9486		5.859375
9487		-1.953125
9488		1.953125
9489		-5.859375
9490		0.000000
9491		-9.765625
9492		-1.953125
9493		-11.718750
9494		-3.906250
9495		-13.671875
9496		-5.859375
9497		-15.625000
9498		-9.765625
9499		-17.578125
9500		-11.718750
9501		-23.437500
9502		-13.671875
9503		-21.484375
9504		-17.578125
9505		-23.437500
9506		-19.531250
9507		-27.343750
9508		-21.484375
9509		-31.250000
9510		-23.437500
9511		-33.203125
9512		-25.390625
9513		-35.156250
9514		-27.343750
9515		-37.109375
9516		-31.250000
9517		-41.015625
9518		-33.203125
9519		-41.015625
9520		-35.156250
9521		-42.968750
9522		-39.062500
9523		-44.921875
9524		-41.015625
9525		-48.828125
9526		-41.015625
9527		-50.781250
9528		-42.968750
9529		-52.734375
9530		-44.921875
9531		-54.687500
9532		-46.875000
9533		-56.640625
9534		-48.828125
9535		-58.593750
9536		-50.781250
9537		-58.593750
9538		-54.687500
9539		-60.546875
9540		-56.640625
9541		-64.453125
9542		-56.640625
9543		-64.453125
9544		-58.593750
9545		-66.406250
9546		-58.593750
9547		-68.359375
9548		-60.546875
9549		-70.312500
9550		-62.500000
9551		-70.312500
9552		-64.453125
9553		-70.312500
9554		-66.406250
9555		-72.265625
9556		-68.359375
9557		-76.171875
9558		-68.359375
9559		-78.125000
9560		-68.359375
9561		-78.125000
9562		-70.312500
9563		-80.078125
9564		-72.265625
9565		-80.078125
9566		-72.265625
9567		-80.078125
9568		-74.218750
9569		-82.031250
9570		-74.218750
9571		-80.078125
9572		-78.125000
9573		-82.031250
9574		-78.125000
9575		-83.984375
9576		-78.125000
9577		-83.984375
9578		-78.125000
9579		-85.937500
9580		-80.078125
9581		-85.937500
9582		-80.078125
9583		-85.937500
9584		-80.078125
9585		-85.937500
9586		-80.078125
9587		-85.937500
9588		-82.031250
9589		-85.937500
9590		-82.031250
9591		-87.890625
9592		-82.031250
9593		-87.890625
9594		-82.031250
9595		-87.890625
9596		-80.078125
9597		-87.890625
9598		-80.078125
9599		-87.890625
9600		-80.078125
9601		-87.890625
9602		-80.078125
9603		-87.890625
9604		-80.078125
9605		-83.984375
9606		-82.031250
9607		-83.984375
9608		-80.078125
9609		-85.937500
9610		-78.125000
9611		-85.937500
9612		-78.125000
9613		-83.984375
9614		-78.125000
9615		-83.984375
9616		-78.125000
9617		-82.031250
9618		-76.171875
9619		-82.031250
9620		-76.171875
9621		-80.078125
9622		-76.171875
9623		-78.125000
9624		-74.218750
9625		-80.078125
9626		-72.265625
9627		-78.125000
9628		-72.265625
9629		-78.125000
9630		-70.312500
9631		-76.171875
9632		-68.359375
9633		-74.218750
9634		-66.406250
9635		-72.265625
9636		-66.406250
9637		-72.265625
9638		-66.406250
9639		-68.359375
9640		-64.453125
9641		-68.359375
9642		-60.546875
9643		-66.406250
9644		-58.593750
9645		-64.453125
9646		-58.593750
9647		-64.453125
9648		-56.640625
9649		-62.500000
9650		-54.687500
9651		-60.546875
9652		-52.734375
9653		-58.593750
9654		-50.781250
9655		-54.687500
9656		-50.781250
9657		-52.734375
9658		-48.828125
9659		-50.781250
9660		-44.921875
9661		-50.781250
9662		-42.968750
9663		-48.828125
9664		-41.015625
9665		-46.875000
9666		-39.062500
9667		-44.921875
9668		-37.109375
9669		-42.968750
9670		-35.156250
9671		-39.062500
9672		-33.203125
9673		-35.156250
9674		-31.250000
9675		-35.156250
9676		-27.343750
9677		-33.203125
9678		-25.390625
9679		-31.250000
9680		-23.437500
9681		-27.343750
9682		-21.484375
9683		-27.343750
9684		-19.531250
9685		-23.437500
9686		-15.625000
9687		-21.484375
9688		-15.625000
9689		-17.578125
9690		-13.671875
9691		-15.625000
9692		-9.765625
9693		-13.671875
9694		-7.812500
9695		-11.718750
9696		-3.906250
9697		-9.765625
9698		-1.953125
9699		-5.859375
9700		0.000000
9701		-5.859375
9702		1.953125
9703		-1.953125
9704		5.859375
9705		1.953125
9706		5.859375
9707		3.906250
9708		7.812500
9709		5.859375
9710		13.671875
9711		7.812500
9712		15.625000
9713		9.765625
9714		17.578125
9715		11.718750
9716		19.531250
9717		13.671875
9718		21.484375
9719		17.578125
9720		25.390625
9721		19.531250
9722		25.390625
9723		23.437500
9724		27.343750
9725		25.390625
9726		31.250000
9727		27.343750
9728		33.203125
9729		29.296875
9730		37.109375
9731		31.250000
9732		39.062500
9733		33.203125
9734		41.015625
9735		37.109375
9736		42.968750
9737		37.109375
9738		44.921875
9739		41.015625
9740		44.921875
9741		42.968750
9742		46.875000
9743		44.921875
9744		52.734375
9745		44.921875
9746		52.734375
9747		48.828125
9748		54.687500
9749		48.828125
9750		56.640625
9751		52.734375
9752		60.546875
9753		54.687500
9754		60.546875
9755		56.640625
9756		62.500000
9757		58.593750
9758		62.500000
9759		60.546875
9760		66.406250
9761		60.546875
9762		68.359375
9763		62.500000
9764		70.312500
9765		64.453125
9766		70.312500
9767		66.406250
9768		72.265625
9769		66.406250
9770		74.218750
9771		68.359375
9772		76.171875
9773		72.265625
9774		76.171875
9775		74.218750
9776		80.078125
9777		74.218750
9778		80.078125
9779		74.218750
9780		82.031250
9781		76.171875
9782		83.984375
9783		78.125000
9784		83.984375
9785		80.078125
9786		85.937500
9787		80.078125
9788		87.890625
9789		82.031250
9790		85.937500
9791		83.984375
9792		87.890625
9793		83.984375
9794		89.843750
9795		83.984375
9796		91.796875
9797		85.937500
9798		91.796875
9799		85.937500
9800		93.750000
9801		85.937500
9802		93.750000
9803		87.890625
9804		93.750000
9805		89.843750
9806		93.750000
9807		91.796875
9808		93.750000
9809		89.843750
9810		95.703125
9811		89.843750
9812		97.656250
9813		89.843750
9814		97.656250
9815		91.796875
9816		97.656250
9817		91.796875
9818		97.656250
9819		91.796875
9820		99.609375
9821		91.796875
9822		99.609375
9823		93.750000
9824		97.656250
9825		95.703125
9826		97.656250
9827		93.750000
9828		99.609375
9829		93.750000
9830		99.609375
9831		93.750000
9832		99.609375
9833		91.796875
9834		99.609375
9835		91.796875
9836		99.609375
9837		91.796875
9838		99.609375
9839		93.750000
9840		97.656250
9841		93.750000
9842		97.656250
9843		93.750000
9844		99.609375
9845		91.796875
9846		97.656250
9847		91.796875
9848		97.656250
9849		89.843750
9850		97.656250
9851		89.843750
9852		95.703125
9853		87.890625
9854		95.703125
9855		89.843750
9856		95.703125
9857		89.843750
9858		93.750000
9859		87.890625
9860		91.796875
9861		85.937500
9862		93.750000
9863		85.937500
9864		93.750000
9865		83.984375
9866		91.796875
9867		83.984375
9868		89.843750
9869		83.984375
9870		89.843750
9871		82.031250
9872		87.890625
9873		82.031250
9874		85.937500
9875		80.078125
9876		83.984375
9877		78.125000
9878		83.984375
9879		76.171875
9880		83.984375
9881		74.218750
9882		82.031250
9883		74.218750
9884		80.078125
9885		72.265625
9886		80.078125
9887		70.312500
9888		80.078125
9889		70.312500
9890		76.171875
9891		70.312500
9892		74.218750
9893		66.406250
9894		72.265625
9895		64.453125
9896		72.265625
9897		62.500000
9898		70.312500
9899		60.546875
9900		68.359375
9901		58.593750
9902		66.406250
9903		58.593750
9904		64.453125
9905		56.640625
9906		62.500000
9907		54.687500
9908		58.593750
9909		52.734375
9910		56.640625
9911		50.781250
9912		56.640625
9913		48.828125
9914		54.687500
9915		44.921875
9916		52.734375
9917		42.968750
9918		50.781250
9919		41.015625
9920		48.828125
9921		37.109375
9922		46.875000
9923		39.062500
9924		44.921875
9925		37.109375
9926		41.015625
9927		33.203125
9928		39.062500
9929		31.250000
9930		37.109375
9931		29.296875
9932		35.156250
9933		25.390625
9934		33.203125
9935		23.437500
9936		31.250000
9937		21.484375
9938		29.296875
9939		19.531250
9940		25.390625
9941		17.578125
9942		21.484375
9943		13.671875
9944		19.531250
9945		11.718750
9946		19.531250
9947		9.765625
9948		15.625000
9949		5.859375
9950		13.671875
9951		3.906250
9952		11.718750
9953		1.953125
9954		9.765625
9955		-1.953125
9956		7.812500
9957		-1.953125
9958		1.953125
9959		-3.906250
9960		0.000000
9961		-7.812500
9962		-1.953125
9963		-11.718750
9964		-1.953125
9965		-13.671875
9966		-5.859375
9967		-17.578125
9968		-7.812500
9969		-17.578125
9970		-9.765625
9971		-21.484375
9972		-11.718750
9973		-21.484375
9974		-15.625000
9975		-23.437500
9976		-19.531250
9977		-27.343750
9978		-21.484375
9979		-31.250000
9980		-21.484375
9981		-31.250000
9982		-25.390625
9983		-35.156250
9984		-27.343750
9985		-37.109375
9986		-29.296875
9987		-39.062500
9988		-31.250000
9989		-41.015625
9990		-33.203125
9991		-41.015625
9992		-37.109375
9993		-44.921875
9994		-39.062500
9995		-48.828125
9996		-41.015625
9997		-50.781250
9998		-42.968750
9999		-52.734375
10000		-44.921875
