Channel              :		CH1
Frequency            :		1.061kHz
Period               :		0.942ms
PK-PK                :		244.1mV
Probe attenuation    :		1X
Voltage per ADC value:		0.122070mV
Time interval        :		2.00000us

index		CH1_Voltage(mV)
1		50.781250
2		50.781250
3		42.968750
4		48.828125
5		41.015625
6		44.921875
7		37.109375
8		42.968750
9		33.203125
10		41.015625
11		31.250000
12		39.062500
13		27.343750
14		35.156250
15		25.390625
16		33.203125
17		21.484375
18		29.296875
19		19.531250
20		27.343750
21		17.578125
22		25.390625
23		15.625000
24		19.531250
25		9.765625
26		17.578125
27		7.812500
28		15.625000
29		3.906250
30		11.718750
31		0.000000
32		9.765625
33		-1.953125
34		5.859375
35		-5.859375
36		3.906250
37		-7.812500
38		1.953125
39		-9.765625
40		-3.906250
41		-13.671875
42		-7.812500
43		-17.578125
44		-9.765625
45		-21.484375
46		-11.718750
47		-23.437500
48		-15.625000
49		-27.343750
50		-19.531250
51		-31.250000
52		-21.484375
53		-33.203125
54		-23.437500
55		-35.156250
56		-29.296875
57		-39.062500
58		-33.203125
59		-42.968750
60		-35.156250
61		-46.875000
62		-39.062500
63		-48.828125
64		-41.015625
65		-50.781250
66		-44.921875
67		-54.687500
68		-46.875000
69		-56.640625
70		-48.828125
71		-60.546875
72		-52.734375
73		-62.500000
74		-56.640625
75		-66.406250
76		-60.546875
77		-68.359375
78		-62.500000
79		-74.218750
80		-64.453125
81		-74.218750
82		-66.406250
83		-80.078125
84		-70.312500
85		-80.078125
86		-74.218750
87		-83.984375
88		-74.218750
89		-83.984375
90		-80.078125
91		-87.890625
92		-82.031250
93		-91.796875
94		-83.984375
95		-93.750000
96		-85.937500
97		-95.703125
98		-87.890625
99		-97.656250
100		-91.796875
101		-101.562500
102		-91.796875
103		-103.515625
104		-95.703125
105		-103.515625
106		-97.656250
107		-105.468750
108		-101.562500
109		-107.421875
110		-103.515625
111		-109.375000
112		-103.515625
113		-111.328125
114		-105.468750
115		-113.281250
116		-107.421875
117		-115.234375
118		-109.375000
119		-117.187500
120		-111.328125
121		-119.140625
122		-113.281250
123		-119.140625
124		-115.234375
125		-121.093750
126		-117.187500
127		-123.046875
128		-117.187500
129		-125.000000
130		-117.187500
131		-126.953125
132		-119.140625
133		-126.953125
134		-119.140625
135		-128.906250
136		-121.093750
137		-128.906250
138		-121.093750
139		-128.906250
140		-123.046875
141		-128.906250
142		-125.000000
143		-130.859375
144		-125.000000
145		-130.859375
146		-125.000000
147		-132.812500
148		-125.000000
149		-132.812500
150		-125.000000
151		-132.812500
152		-125.000000
153		-132.812500
154		-126.953125
155		-132.812500
156		-125.000000
157		-130.859375
158		-126.953125
159		-130.859375
160		-126.953125
161		-132.812500
162		-125.000000
163		-132.812500
164		-125.000000
165		-130.859375
166		-125.000000
167		-130.859375
168		-123.046875
169		-130.859375
170		-123.046875
171		-130.859375
172		-123.046875
173		-128.906250
174		-123.046875
175		-126.953125
176		-123.046875
177		-126.953125
178		-119.140625
179		-126.953125
180		-119.140625
181		-125.000000
182		-117.187500
183		-125.000000
184		-115.234375
185		-121.093750
186		-115.234375
187		-121.093750
188		-113.281250
189		-119.140625
190		-113.281250
191		-115.234375
192		-111.328125
193		-115.234375
194		-109.375000
195		-115.234375
196		-107.421875
197		-111.328125
198		-105.468750
199		-111.328125
200		-103.515625
201		-109.375000
202		-101.562500
203		-107.421875
204		-99.609375
205		-105.468750
206		-95.703125
207		-99.609375
208		-95.703125
209		-97.656250
210		-93.750000
211		-97.656250
212		-89.843750
213		-95.703125
214		-87.890625
215		-91.796875
216		-85.937500
217		-91.796875
218		-82.031250
219		-87.890625
220		-80.078125
221		-85.937500
222		-78.125000
223		-82.031250
224		-76.171875
225		-78.125000
226		-72.265625
227		-76.171875
228		-70.312500
229		-74.218750
230		-66.406250
231		-72.265625
232		-62.500000
233		-70.312500
234		-60.546875
235		-66.406250
236		-56.640625
237		-62.500000
238		-54.687500
239		-58.593750
240		-50.781250
241		-54.687500
242		-50.781250
243		-52.734375
244		-46.875000
245		-50.781250
246		-42.968750
247		-46.875000
248		-39.062500
249		-44.921875
250		-35.156250
251		-41.015625
252		-33.203125
253		-39.062500
254		-29.296875
255		-35.156250
256		-27.343750
257		-33.203125
258		-25.390625
259		-27.343750
260		-21.484375
261		-23.437500
262		-17.578125
263		-21.484375
264		-13.671875
265		-19.531250
266		-11.718750
267		-17.578125
268		-7.812500
269		-13.671875
270		-5.859375
271		-9.765625
272		-1.953125
273		-5.859375
274		0.000000
275		-1.953125
276		3.906250
277		1.953125
278		7.812500
279		1.953125
280		11.718750
281		5.859375
282		13.671875
283		7.812500
284		17.578125
285		11.718750
286		19.531250
287		13.671875
288		23.437500
289		17.578125
290		25.390625
291		21.484375
292		27.343750
293		25.390625
294		29.296875
295		27.343750
296		33.203125
297		29.296875
298		37.109375
299		31.250000
300		39.062500
301		35.156250
302		42.968750
303		37.109375
304		44.921875
305		39.062500
306		46.875000
307		41.015625
308		48.828125
309		46.875000
310		50.781250
311		48.828125
312		54.687500
313		50.781250
314		58.593750
315		52.734375
316		58.593750
317		54.687500
318		62.500000
319		56.640625
320		64.453125
321		58.593750
322		66.406250
323		60.546875
324		68.359375
325		64.453125
326		68.359375
327		66.406250
328		72.265625
329		66.406250
330		74.218750
331		70.312500
332		76.171875
333		70.312500
334		78.125000
335		72.265625
336		80.078125
337		74.218750
338		82.031250
339		76.171875
340		83.984375
341		76.171875
342		83.984375
343		82.031250
344		85.937500
345		82.031250
346		87.890625
347		82.031250
348		89.843750
349		83.984375
350		91.796875
351		85.937500
352		91.796875
353		85.937500
354		93.750000
355		87.890625
356		95.703125
357		89.843750
358		95.703125
359		91.796875
360		95.703125
361		93.750000
362		97.656250
363		91.796875
364		99.609375
365		93.750000
366		99.609375
367		93.750000
368		101.562500
369		95.703125
370		101.562500
371		95.703125
372		103.515625
373		95.703125
374		101.562500
375		97.656250
376		101.562500
377		99.609375
378		101.562500
379		97.656250
380		103.515625
381		97.656250
382		105.468750
383		97.656250
384		105.468750
385		99.609375
386		105.468750
387		97.656250
388		105.468750
389		97.656250
390		105.468750
391		97.656250
392		105.468750
393		101.562500
394		103.515625
395		97.656250
396		105.468750
397		97.656250
398		105.468750
399		97.656250
400		105.468750
401		97.656250
402		103.515625
403		97.656250
404		103.515625
405		95.703125
406		103.515625
407		97.656250
408		103.515625
409		97.656250
410		101.562500
411		97.656250
412		99.609375
413		93.750000
414		101.562500
415		93.750000
416		99.609375
417		93.750000
418		101.562500
419		91.796875
420		99.609375
421		89.843750
422		97.656250
423		89.843750
424		95.703125
425		89.843750
426		95.703125
427		89.843750
428		93.750000
429		87.890625
430		93.750000
431		85.937500
432		93.750000
433		83.984375
434		89.843750
435		82.031250
436		89.843750
437		80.078125
438		87.890625
439		78.125000
440		87.890625
441		78.125000
442		83.984375
443		78.125000
444		82.031250
445		72.265625
446		80.078125
447		72.265625
448		80.078125
449		70.312500
450		78.125000
451		68.359375
452		76.171875
453		66.406250
454		72.265625
455		62.500000
456		72.265625
457		62.500000
458		70.312500
459		60.546875
460		66.406250
461		58.593750
462		64.453125
463		54.687500
464		62.500000
465		52.734375
466		60.546875
467		50.781250
468		58.593750
469		46.875000
470		56.640625
471		44.921875
472		52.734375
473		42.968750
474		50.781250
475		41.015625
476		48.828125
477		39.062500
478		42.968750
479		35.156250
480		41.015625
481		31.250000
482		39.062500
483		29.296875
484		37.109375
485		25.390625
486		35.156250
487		23.437500
488		31.250000
489		21.484375
490		29.296875
491		17.578125
492		25.390625
493		15.625000
494		21.484375
495		13.671875
496		19.531250
497		7.812500
498		15.625000
499		5.859375
500		13.671875
501		1.953125
502		9.765625
503		-1.953125
504		7.812500
505		-3.906250
506		3.906250
507		-7.812500
508		1.953125
509		-7.812500
510		-1.953125
511		-11.718750
512		-5.859375
513		-15.625000
514		-9.765625
515		-21.484375
516		-9.765625
517		-21.484375
518		-13.671875
519		-27.343750
520		-17.578125
521		-29.296875
522		-21.484375
523		-31.250000
524		-23.437500
525		-33.203125
526		-27.343750
527		-37.109375
528		-31.250000
529		-39.062500
530		-35.156250
531		-44.921875
532		-35.156250
533		-48.828125
534		-39.062500
535		-50.781250
536		-42.968750
537		-54.687500
538		-44.921875
539		-58.593750
540		-48.828125
541		-60.546875
542		-50.781250
543		-62.500000
544		-54.687500
545		-64.453125
546		-58.593750
547		-68.359375
548		-60.546875
549		-72.265625
550		-62.500000
551		-74.218750
552		-66.406250
553		-78.125000
554		-68.359375
555		-80.078125
556		-72.265625
557		-82.031250
558		-74.218750
559		-83.984375
560		-78.125000
561		-85.937500
562		-82.031250
563		-89.843750
564		-83.984375
565		-93.750000
566		-85.937500
567		-95.703125
568		-87.890625
569		-99.609375
570		-89.843750
571		-101.562500
572		-91.796875
573		-103.515625
574		-95.703125
575		-105.468750
576		-97.656250
577		-105.468750
578		-101.562500
579		-107.421875
580		-103.515625
581		-111.328125
582		-101.562500
583		-113.281250
584		-105.468750
585		-115.234375
586		-107.421875
587		-117.187500
588		-109.375000
589		-117.187500
590		-111.328125
591		-121.093750
592		-111.328125
593		-119.140625
594		-113.281250
595		-121.093750
596		-117.187500
597		-125.000000
598		-117.187500
599		-125.000000
600		-117.187500
601		-126.953125
602		-119.140625
603		-126.953125
604		-121.093750
605		-128.906250
606		-121.093750
607		-130.859375
608		-123.046875
609		-130.859375
610		-123.046875
611		-128.906250
612		-126.953125
613		-130.859375
614		-126.953125
615		-132.812500
616		-125.000000
617		-132.812500
618		-126.953125
619		-134.765625
620		-126.953125
621		-132.812500
622		-126.953125
623		-134.765625
624		-126.953125
625		-134.765625
626		-126.953125
627		-132.812500
628		-128.906250
629		-132.812500
630		-128.906250
631		-132.812500
632		-126.953125
633		-134.765625
634		-126.953125
635		-132.812500
636		-126.953125
637		-132.812500
638		-126.953125
639		-132.812500
640		-125.000000
641		-130.859375
642		-125.000000
643		-130.859375
644		-125.000000
645		-128.906250
646		-125.000000
647		-128.906250
648		-123.046875
649		-126.953125
650		-121.093750
651		-126.953125
652		-121.093750
653		-126.953125
654		-119.140625
655		-125.000000
656		-117.187500
657		-123.046875
658		-115.234375
659		-123.046875
660		-115.234375
661		-119.140625
662		-115.234375
663		-117.187500
664		-113.281250
665		-117.187500
666		-109.375000
667		-115.234375
668		-107.421875
669		-113.281250
670		-105.468750
671		-111.328125
672		-103.515625
673		-111.328125
674		-101.562500
675		-107.421875
676		-99.609375
677		-105.468750
678		-99.609375
679		-101.562500
680		-97.656250
681		-99.609375
682		-93.750000
683		-97.656250
684		-89.843750
685		-95.703125
686		-87.890625
687		-93.750000
688		-85.937500
689		-91.796875
690		-82.031250
691		-87.890625
692		-80.078125
693		-87.890625
694		-78.125000
695		-82.031250
696		-76.171875
697		-78.125000
698		-74.218750
699		-78.125000
700		-68.359375
701		-76.171875
702		-66.406250
703		-72.265625
704		-64.453125
705		-70.312500
706		-60.546875
707		-66.406250
708		-58.593750
709		-64.453125
710		-54.687500
711		-60.546875
712		-52.734375
713		-54.687500
714		-50.781250
715		-52.734375
716		-44.921875
717		-50.781250
718		-42.968750
719		-46.875000
720		-39.062500
721		-44.921875
722		-37.109375
723		-41.015625
724		-33.203125
725		-39.062500
726		-29.296875
727		-35.156250
728		-29.296875
729		-31.250000
730		-25.390625
731		-27.343750
732		-19.531250
733		-25.390625
734		-17.578125
735		-23.437500
736		-13.671875
737		-19.531250
738		-11.718750
739		-15.625000
740		-7.812500
741		-13.671875
742		-3.906250
743		-9.765625
744		-1.953125
745		-5.859375
746		0.000000
747		-1.953125
748		1.953125
749		0.000000
750		7.812500
751		1.953125
752		11.718750
753		3.906250
754		13.671875
755		7.812500
756		15.625000
757		11.718750
758		19.531250
759		15.625000
760		23.437500
761		17.578125
762		23.437500
763		21.484375
764		27.343750
765		23.437500
766		31.250000
767		25.390625
768		35.156250
769		27.343750
770		37.109375
771		31.250000
772		39.062500
773		33.203125
774		42.968750
775		37.109375
776		44.921875
777		39.062500
778		46.875000
779		42.968750
780		48.828125
781		46.875000
782		50.781250
783		46.875000
784		54.687500
785		48.828125
786		56.640625
787		50.781250
788		58.593750
789		52.734375
790		62.500000
791		56.640625
792		64.453125
793		58.593750
794		66.406250
795		60.546875
796		66.406250
797		64.453125
798		70.312500
799		66.406250
800		72.265625
801		66.406250
802		74.218750
803		68.359375
804		76.171875
805		70.312500
806		80.078125
807		72.265625
808		80.078125
809		74.218750
810		82.031250
811		76.171875
812		83.984375
813		80.078125
814		83.984375
815		80.078125
816		85.937500
817		82.031250
818		87.890625
819		82.031250
820		89.843750
821		83.984375
822		91.796875
823		83.984375
824		91.796875
825		85.937500
826		93.750000
827		87.890625
828		95.703125
829		89.843750
830		93.750000
831		91.796875
832		95.703125
833		91.796875
834		97.656250
835		91.796875
836		97.656250
837		91.796875
838		99.609375
839		93.750000
840		99.609375
841		93.750000
842		101.562500
843		95.703125
844		101.562500
845		95.703125
846		101.562500
847		97.656250
848		101.562500
849		97.656250
850		103.515625
851		97.656250
852		103.515625
853		97.656250
854		105.468750
855		97.656250
856		105.468750
857		97.656250
858		103.515625
859		97.656250
860		105.468750
861		97.656250
862		105.468750
863		99.609375
864		103.515625
865		99.609375
866		103.515625
867		97.656250
868		105.468750
869		97.656250
870		105.468750
871		97.656250
872		103.515625
873		97.656250
874		103.515625
875		95.703125
876		103.515625
877		95.703125
878		101.562500
879		97.656250
880		101.562500
881		97.656250
882		99.609375
883		93.750000
884		101.562500
885		93.750000
886		101.562500
887		91.796875
888		99.609375
889		91.796875
890		99.609375
891		91.796875
892		97.656250
893		89.843750
894		97.656250
895		89.843750
896		95.703125
897		89.843750
898		93.750000
899		85.937500
900		91.796875
901		85.937500
902		91.796875
903		83.984375
904		91.796875
905		82.031250
906		89.843750
907		82.031250
908		87.890625
909		78.125000
910		85.937500
911		78.125000
912		85.937500
913		78.125000
914		82.031250
915		76.171875
916		80.078125
917		72.265625
918		80.078125
919		68.359375
920		78.125000
921		68.359375
922		76.171875
923		66.406250
924		74.218750
925		64.453125
926		72.265625
927		62.500000
928		70.312500
929		62.500000
930		68.359375
931		60.546875
932		64.453125
933		54.687500
934		62.500000
935		52.734375
936		62.500000
937		50.781250
938		60.546875
939		48.828125
940		56.640625
941		46.875000
942		52.734375
943		42.968750
944		52.734375
945		41.015625
946		48.828125
947		41.015625
948		44.921875
949		37.109375
950		42.968750
951		33.203125
952		41.015625
953		31.250000
954		39.062500
955		25.390625
956		35.156250
957		23.437500
958		33.203125
959		21.484375
960		31.250000
961		19.531250
962		27.343750
963		17.578125
964		23.437500
965		13.671875
966		19.531250
967		9.765625
968		15.625000
969		7.812500
970		13.671875
971		3.906250
972		11.718750
973		0.000000
974		7.812500
975		-1.953125
976		5.859375
977		-5.859375
978		1.953125
979		-7.812500
980		0.000000
981		-9.765625
982		-5.859375
983		-13.671875
984		-7.812500
985		-17.578125
986		-9.765625
987		-21.484375
988		-11.718750
989		-25.390625
990		-15.625000
991		-27.343750
992		-17.578125
993		-31.250000
994		-23.437500
995		-33.203125
996		-25.390625
997		-35.156250
998		-29.296875
999		-39.062500
1000		-33.203125
1001		-42.968750
1002		-37.109375
1003		-44.921875
1004		-39.062500
1005		-50.781250
1006		-41.015625
1007		-52.734375
1008		-44.921875
1009		-54.687500
1010		-46.875000
1011		-60.546875
1012		-48.828125
1013		-60.546875
1014		-54.687500
1015		-62.500000
1016		-58.593750
1017		-68.359375
1018		-60.546875
1019		-70.312500
1020		-62.500000
1021		-72.265625
1022		-64.453125
1023		-76.171875
1024		-68.359375
1025		-78.125000
1026		-70.312500
1027		-83.984375
1028		-74.218750
1029		-83.984375
1030		-76.171875
1031		-85.937500
1032		-80.078125
1033		-87.890625
1034		-83.984375
1035		-93.750000
1036		-85.937500
1037		-95.703125
1038		-85.937500
1039		-97.656250
1040		-89.843750
1041		-99.609375
1042		-91.796875
1043		-101.562500
1044		-95.703125
1045		-103.515625
1046		-95.703125
1047		-105.468750
1048		-97.656250
1049		-107.421875
1050		-101.562500
1051		-109.375000
1052		-103.515625
1053		-113.281250
1054		-105.468750
1055		-115.234375
1056		-107.421875
1057		-117.187500
1058		-109.375000
1059		-117.187500
1060		-111.328125
1061		-119.140625
1062		-111.328125
1063		-121.093750
1064		-113.281250
1065		-121.093750
1066		-117.187500
1067		-123.046875
1068		-119.140625
1069		-125.000000
1070		-117.187500
1071		-126.953125
1072		-119.140625
1073		-126.953125
1074		-121.093750
1075		-128.906250
1076		-123.046875
1077		-130.859375
1078		-123.046875
1079		-130.859375
1080		-123.046875
1081		-128.906250
1082		-126.953125
1083		-130.859375
1084		-126.953125
1085		-134.765625
1086		-125.000000
1087		-132.812500
1088		-126.953125
1089		-134.765625
1090		-126.953125
1091		-134.765625
1092		-126.953125
1093		-134.765625
1094		-126.953125
1095		-134.765625
1096		-128.906250
1097		-134.765625
1098		-128.906250
1099		-132.812500
1100		-128.906250
1101		-134.765625
1102		-128.906250
1103		-134.765625
1104		-126.953125
1105		-134.765625
1106		-126.953125
1107		-134.765625
1108		-126.953125
1109		-132.812500
1110		-126.953125
1111		-132.812500
1112		-125.000000
1113		-132.812500
1114		-125.000000
1115		-128.906250
1116		-126.953125
1117		-128.906250
1118		-125.000000
1119		-130.859375
1120		-121.093750
1121		-128.906250
1122		-121.093750
1123		-126.953125
1124		-121.093750
1125		-125.000000
1126		-119.140625
1127		-126.953125
1128		-117.187500
1129		-123.046875
1130		-117.187500
1131		-123.046875
1132		-115.234375
1133		-119.140625
1134		-115.234375
1135		-117.187500
1136		-113.281250
1137		-117.187500
1138		-109.375000
1139		-115.234375
1140		-109.375000
1141		-113.281250
1142		-105.468750
1143		-111.328125
1144		-103.515625
1145		-109.375000
1146		-103.515625
1147		-107.421875
1148		-99.609375
1149		-103.515625
1150		-99.609375
1151		-101.562500
1152		-97.656250
1153		-101.562500
1154		-91.796875
1155		-97.656250
1156		-89.843750
1157		-95.703125
1158		-87.890625
1159		-93.750000
1160		-85.937500
1161		-89.843750
1162		-82.031250
1163		-89.843750
1164		-80.078125
1165		-83.984375
1166		-78.125000
1167		-82.031250
1168		-76.171875
1169		-80.078125
1170		-72.265625
1171		-76.171875
1172		-70.312500
1173		-76.171875
1174		-66.406250
1175		-72.265625
1176		-62.500000
1177		-68.359375
1178		-60.546875
1179		-64.453125
1180		-58.593750
1181		-62.500000
1182		-56.640625
1183		-58.593750
1184		-52.734375
1185		-54.687500
1186		-48.828125
1187		-52.734375
1188		-44.921875
1189		-50.781250
1190		-42.968750
1191		-48.828125
1192		-41.015625
1193		-44.921875
1194		-37.109375
1195		-41.015625
1196		-33.203125
1197		-37.109375
1198		-31.250000
1199		-33.203125
1200		-27.343750
1201		-29.296875
1202		-23.437500
1203		-27.343750
1204		-19.531250
1205		-25.390625
1206		-17.578125
1207		-23.437500
1208		-13.671875
1209		-19.531250
1210		-11.718750
1211		-15.625000
1212		-7.812500
1213		-11.718750
1214		-3.906250
1215		-9.765625
1216		-1.953125
1217		-5.859375
1218		0.000000
1219		-1.953125
1220		5.859375
1221		0.000000
1222		7.812500
1223		1.953125
1224		11.718750
1225		5.859375
1226		13.671875
1227		7.812500
1228		17.578125
1229		11.718750
1230		21.484375
1231		13.671875
1232		21.484375
1233		19.531250
1234		23.437500
1235		21.484375
1236		27.343750
1237		23.437500
1238		31.250000
1239		25.390625
1240		35.156250
1241		29.296875
1242		37.109375
1243		31.250000
1244		39.062500
1245		35.156250
1246		42.968750
1247		37.109375
1248		44.921875
1249		41.015625
1250		46.875000
1251		42.968750
1252		48.828125
1253		44.921875
1254		52.734375
1255		46.875000
1256		54.687500
1257		50.781250
1258		56.640625
1259		50.781250
1260		60.546875
1261		54.687500
1262		62.500000
1263		54.687500
1264		64.453125
1265		58.593750
1266		66.406250
1267		62.500000
1268		68.359375
1269		64.453125
1270		70.312500
1271		64.453125
1272		72.265625
1273		66.406250
1274		74.218750
1275		68.359375
1276		76.171875
1277		70.312500
1278		78.125000
1279		74.218750
1280		80.078125
1281		74.218750
1282		82.031250
1283		78.125000
1284		82.031250
1285		80.078125
1286		83.984375
1287		80.078125
1288		85.937500
1289		80.078125
1290		87.890625
1291		82.031250
1292		89.843750
1293		83.984375
1294		89.843750
1295		83.984375
1296		91.796875
1297		85.937500
1298		93.750000
1299		87.890625
1300		93.750000
1301		89.843750
1302		93.750000
1303		89.843750
1304		95.703125
1305		89.843750
1306		97.656250
1307		91.796875
1308		99.609375
1309		91.796875
1310		99.609375
1311		91.796875
1312		99.609375
1313		93.750000
1314		101.562500
1315		95.703125
1316		103.515625
1317		97.656250
1318		99.609375
1319		97.656250
1320		101.562500
1321		95.703125
1322		103.515625
1323		95.703125
1324		103.515625
1325		97.656250
1326		103.515625
1327		97.656250
1328		103.515625
1329		97.656250
1330		103.515625
1331		97.656250
1332		105.468750
1333		97.656250
1334		103.515625
1335		99.609375
1336		101.562500
1337		97.656250
1338		103.515625
1339		97.656250
1340		105.468750
1341		97.656250
1342		103.515625
1343		95.703125
1344		105.468750
1345		95.703125
1346		103.515625
1347		95.703125
1348		103.515625
1349		95.703125
1350		103.515625
1351		97.656250
1352		99.609375
1353		95.703125
1354		99.609375
1355		93.750000
1356		101.562500
1357		93.750000
1358		99.609375
1359		91.796875
1360		99.609375
1361		89.843750
1362		99.609375
1363		89.843750
1364		97.656250
1365		89.843750
1366		95.703125
1367		89.843750
1368		93.750000
1369		87.890625
1370		91.796875
1371		85.937500
1372		93.750000
1373		83.984375
1374		91.796875
1375		82.031250
1376		89.843750
1377		82.031250
1378		87.890625
1379		80.078125
1380		87.890625
1381		78.125000
1382		85.937500
1383		78.125000
1384		83.984375
1385		76.171875
1386		80.078125
1387		74.218750
1388		80.078125
1389		70.312500
1390		78.125000
1391		70.312500
1392		76.171875
1393		66.406250
1394		76.171875
1395		66.406250
1396		72.265625
1397		62.500000
1398		70.312500
1399		62.500000
1400		68.359375
1401		60.546875
1402		64.453125
1403		58.593750
1404		62.500000
1405		54.687500
1406		62.500000
1407		52.734375
1408		60.546875
1409		48.828125
1410		56.640625
1411		48.828125
1412		54.687500
1413		44.921875
1414		52.734375
1415		42.968750
1416		48.828125
1417		41.015625
1418		48.828125
1419		39.062500
1420		42.968750
1421		33.203125
1422		41.015625
1423		31.250000
1424		39.062500
1425		27.343750
1426		37.109375
1427		27.343750
1428		35.156250
1429		23.437500
1430		31.250000
1431		19.531250
1432		27.343750
1433		17.578125
1434		25.390625
1435		15.625000
1436		21.484375
1437		11.718750
1438		17.578125
1439		7.812500
1440		15.625000
1441		5.859375
1442		13.671875
1443		1.953125
1444		9.765625
1445		0.000000
1446		5.859375
1447		-3.906250
1448		3.906250
1449		-7.812500
1450		0.000000
1451		-9.765625
1452		-3.906250
1453		-11.718750
1454		-5.859375
1455		-17.578125
1456		-9.765625
1457		-19.531250
1458		-11.718750
1459		-23.437500
1460		-15.625000
1461		-27.343750
1462		-19.531250
1463		-29.296875
1464		-21.484375
1465		-31.250000
1466		-23.437500
1467		-35.156250
1468		-27.343750
1469		-37.109375
1470		-31.250000
1471		-42.968750
1472		-35.156250
1473		-44.921875
1474		-37.109375
1475		-48.828125
1476		-41.015625
1477		-52.734375
1478		-42.968750
1479		-54.687500
1480		-44.921875
1481		-56.640625
1482		-48.828125
1483		-60.546875
1484		-52.734375
1485		-62.500000
1486		-56.640625
1487		-64.453125
1488		-60.546875
1489		-70.312500
1490		-60.546875
1491		-72.265625
1492		-64.453125
1493		-76.171875
1494		-68.359375
1495		-78.125000
1496		-68.359375
1497		-82.031250
1498		-72.265625
1499		-83.984375
1500		-76.171875
1501		-83.984375
1502		-78.125000
1503		-87.890625
1504		-82.031250
1505		-91.796875
1506		-83.984375
1507		-93.750000
1508		-85.937500
1509		-95.703125
1510		-87.890625
1511		-97.656250
1512		-91.796875
1513		-101.562500
1514		-93.750000
1515		-103.515625
1516		-95.703125
1517		-103.515625
1518		-97.656250
1519		-105.468750
1520		-101.562500
1521		-109.375000
1522		-103.515625
1523		-111.328125
1524		-105.468750
1525		-113.281250
1526		-107.421875
1527		-115.234375
1528		-107.421875
1529		-117.187500
1530		-109.375000
1531		-119.140625
1532		-111.328125
1533		-121.093750
1534		-113.281250
1535		-121.093750
1536		-117.187500
1537		-121.093750
1538		-119.140625
1539		-125.000000
1540		-119.140625
1541		-126.953125
1542		-119.140625
1543		-128.906250
1544		-121.093750
1545		-128.906250
1546		-123.046875
1547		-128.906250
1548		-123.046875
1549		-130.859375
1550		-125.000000
1551		-132.812500
1552		-125.000000
1553		-130.859375
1554		-126.953125
1555		-134.765625
1556		-126.953125
1557		-134.765625
1558		-126.953125
1559		-134.765625
1560		-126.953125
1561		-136.718750
1562		-128.906250
1563		-134.765625
1564		-128.906250
1565		-134.765625
1566		-128.906250
1567		-134.765625
1568		-128.906250
1569		-134.765625
1570		-130.859375
1571		-134.765625
1572		-130.859375
1573		-136.718750
1574		-128.906250
1575		-136.718750
1576		-128.906250
1577		-134.765625
1578		-128.906250
1579		-134.765625
1580		-128.906250
1581		-134.765625
1582		-126.953125
1583		-134.765625
1584		-126.953125
1585		-132.812500
1586		-126.953125
1587		-130.859375
1588		-126.953125
1589		-130.859375
1590		-123.046875
1591		-130.859375
1592		-123.046875
1593		-128.906250
1594		-121.093750
1595		-128.906250
1596		-121.093750
1597		-126.953125
1598		-119.140625
1599		-126.953125
1600		-119.140625
1601		-125.000000
1602		-117.187500
1603		-121.093750
1604		-117.187500
1605		-119.140625
1606		-113.281250
1607		-121.093750
1608		-113.281250
1609		-117.187500
1610		-111.328125
1611		-117.187500
1612		-109.375000
1613		-115.234375
1614		-105.468750
1615		-111.328125
1616		-105.468750
1617		-111.328125
1618		-101.562500
1619		-105.468750
1620		-101.562500
1621		-103.515625
1622		-99.609375
1623		-101.562500
1624		-95.703125
1625		-101.562500
1626		-93.750000
1627		-99.609375
1628		-89.843750
1629		-97.656250
1630		-87.890625
1631		-93.750000
1632		-85.937500
1633		-91.796875
1634		-83.984375
1635		-87.890625
1636		-82.031250
1637		-83.984375
1638		-80.078125
1639		-82.031250
1640		-76.171875
1641		-82.031250
1642		-72.265625
1643		-78.125000
1644		-68.359375
1645		-76.171875
1646		-66.406250
1647		-72.265625
1648		-64.453125
1649		-68.359375
1650		-60.546875
1651		-66.406250
1652		-58.593750
1653		-60.546875
1654		-56.640625
1655		-58.593750
1656		-52.734375
1657		-56.640625
1658		-48.828125
1659		-54.687500
1660		-44.921875
1661		-50.781250
1662		-41.015625
1663		-48.828125
1664		-39.062500
1665		-44.921875
1666		-35.156250
1667		-41.015625
1668		-33.203125
1669		-37.109375
1670		-31.250000
1671		-33.203125
1672		-27.343750
1673		-29.296875
1674		-23.437500
1675		-29.296875
1676		-19.531250
1677		-25.390625
1678		-17.578125
1679		-23.437500
1680		-13.671875
1681		-19.531250
1682		-9.765625
1683		-15.625000
1684		-7.812500
1685		-13.671875
1686		-5.859375
1687		-7.812500
1688		-1.953125
1689		-3.906250
1690		0.000000
1691		-3.906250
1692		3.906250
1693		0.000000
1694		7.812500
1695		1.953125
1696		11.718750
1697		5.859375
1698		13.671875
1699		7.812500
1700		15.625000
1701		11.718750
1702		21.484375
1703		15.625000
1704		21.484375
1705		19.531250
1706		23.437500
1707		19.531250
1708		29.296875
1709		23.437500
1710		33.203125
1711		25.390625
1712		33.203125
1713		29.296875
1714		37.109375
1715		31.250000
1716		39.062500
1717		33.203125
1718		42.968750
1719		37.109375
1720		42.968750
1721		41.015625
1722		46.875000
1723		42.968750
1724		48.828125
1725		44.921875
1726		52.734375
1727		46.875000
1728		54.687500
1729		50.781250
1730		58.593750
1731		50.781250
1732		58.593750
1733		52.734375
1734		62.500000
1735		56.640625
1736		62.500000
1737		60.546875
1738		64.453125
1739		62.500000
1740		66.406250
1741		64.453125
1742		70.312500
1743		66.406250
1744		72.265625
1745		66.406250
1746		74.218750
1747		68.359375
1748		76.171875
1749		70.312500
1750		78.125000
1751		72.265625
1752		80.078125
1753		74.218750
1754		80.078125
1755		78.125000
1756		82.031250
1757		78.125000
1758		83.984375
1759		78.125000
1760		85.937500
1761		80.078125
1762		87.890625
1763		82.031250
1764		87.890625
1765		83.984375
1766		89.843750
1767		83.984375
1768		91.796875
1769		85.937500
1770		91.796875
1771		87.890625
1772		93.750000
1773		89.843750
1774		93.750000
1775		89.843750
1776		95.703125
1777		89.843750
1778		97.656250
1779		91.796875
1780		97.656250
1781		91.796875
1782		99.609375
1783		91.796875
1784		99.609375
1785		93.750000
1786		101.562500
1787		95.703125
1788		99.609375
1789		95.703125
1790		99.609375
1791		95.703125
1792		101.562500
1793		95.703125
1794		101.562500
1795		95.703125
1796		101.562500
1797		97.656250
1798		101.562500
1799		97.656250
1800		101.562500
1801		97.656250
1802		103.515625
1803		97.656250
1804		101.562500
1805		97.656250
1806		101.562500
1807		97.656250
1808		103.515625
1809		95.703125
1810		103.515625
1811		95.703125
1812		103.515625
1813		95.703125
1814		103.515625
1815		95.703125
1816		103.515625
1817		95.703125
1818		101.562500
1819		93.750000
1820		101.562500
1821		95.703125
1822		99.609375
1823		95.703125
1824		99.609375
1825		91.796875
1826		99.609375
1827		93.750000
1828		99.609375
1829		91.796875
1830		99.609375
1831		91.796875
1832		97.656250
1833		89.843750
1834		97.656250
1835		89.843750
1836		95.703125
1837		89.843750
1838		95.703125
1839		87.890625
1840		91.796875
1841		85.937500
1842		91.796875
1843		83.984375
1844		91.796875
1845		82.031250
1846		89.843750
1847		82.031250
1848		87.890625
1849		80.078125
1850		87.890625
1851		78.125000
1852		85.937500
1853		78.125000
1854		83.984375
1855		76.171875
1856		82.031250
1857		76.171875
1858		80.078125
1859		72.265625
1860		78.125000
1861		70.312500
1862		78.125000
1863		68.359375
1864		76.171875
1865		66.406250
1866		74.218750
1867		64.453125
1868		72.265625
1869		60.546875
1870		70.312500
1871		60.546875
1872		66.406250
1873		58.593750
1874		64.453125
1875		54.687500
1876		62.500000
1877		52.734375
1878		60.546875
1879		50.781250
1880		58.593750
1881		46.875000
1882		56.640625
1883		44.921875
1884		52.734375
1885		42.968750
1886		50.781250
1887		41.015625
1888		48.828125
1889		39.062500
1890		44.921875
1891		35.156250
1892		41.015625
1893		31.250000
1894		41.015625
1895		29.296875
1896		37.109375
1897		27.343750
1898		35.156250
1899		21.484375
1900		31.250000
1901		21.484375
1902		29.296875
1903		17.578125
1904		25.390625
1905		15.625000
1906		21.484375
1907		13.671875
1908		17.578125
1909		9.765625
1910		15.625000
1911		5.859375
1912		13.671875
1913		3.906250
1914		11.718750
1915		0.000000
1916		7.812500
1917		-3.906250
1918		3.906250
1919		-7.812500
1920		1.953125
1921		-7.812500
1922		-1.953125
1923		-11.718750
1924		-5.859375
1925		-15.625000
1926		-9.765625
1927		-19.531250
1928		-9.765625
1929		-23.437500
1930		-13.671875
1931		-25.390625
1932		-15.625000
1933		-29.296875
1934		-21.484375
1935		-31.250000
1936		-21.484375
1937		-33.203125
1938		-25.390625
1939		-37.109375
1940		-31.250000
1941		-39.062500
1942		-35.156250
1943		-44.921875
1944		-37.109375
1945		-46.875000
1946		-39.062500
1947		-52.734375
1948		-42.968750
1949		-52.734375
1950		-44.921875
1951		-56.640625
1952		-48.828125
1953		-60.546875
1954		-50.781250
1955		-60.546875
1956		-54.687500
1957		-64.453125
1958		-58.593750
1959		-68.359375
1960		-62.500000
1961		-72.265625
1962		-62.500000
1963		-74.218750
1964		-66.406250
1965		-78.125000
1966		-68.359375
1967		-80.078125
1968		-72.265625
1969		-83.984375
1970		-76.171875
1971		-83.984375
1972		-78.125000
1973		-85.937500
1974		-82.031250
1975		-89.843750
1976		-83.984375
1977		-93.750000
1978		-83.984375
1979		-95.703125
1980		-87.890625
1981		-99.609375
1982		-91.796875
1983		-101.562500
1984		-93.750000
1985		-103.515625
1986		-95.703125
1987		-105.468750
1988		-97.656250
1989		-105.468750
1990		-101.562500
1991		-107.421875
1992		-103.515625
1993		-113.281250
1994		-105.468750
1995		-113.281250
1996		-105.468750
1997		-117.187500
1998		-107.421875
1999		-119.140625
2000		-109.375000
2001		-119.140625
2002		-113.281250
2003		-121.093750
2004		-113.281250
2005		-121.093750
2006		-115.234375
2007		-123.046875
2008		-119.140625
2009		-125.000000
2010		-119.140625
2011		-126.953125
2012		-119.140625
2013		-128.906250
2014		-121.093750
2015		-128.906250
2016		-123.046875
2017		-130.859375
2018		-123.046875
2019		-130.859375
2020		-125.000000
2021		-132.812500
2022		-126.953125
2023		-132.812500
2024		-126.953125
2025		-132.812500
2026		-128.906250
2027		-134.765625
2028		-128.906250
2029		-136.718750
2030		-128.906250
2031		-136.718750
2032		-128.906250
2033		-136.718750
2034		-128.906250
2035		-136.718750
2036		-128.906250
2037		-136.718750
2038		-128.906250
2039		-136.718750
2040		-130.859375
2041		-134.765625
2042		-132.812500
2043		-136.718750
2044		-130.859375
2045		-136.718750
2046		-128.906250
2047		-136.718750
2048		-128.906250
2049		-136.718750
2050		-130.859375
2051		-134.765625
2052		-128.906250
2053		-134.765625
2054		-128.906250
2055		-134.765625
2056		-126.953125
2057		-132.812500
2058		-128.906250
2059		-130.859375
2060		-126.953125
2061		-132.812500
2062		-125.000000
2063		-130.859375
2064		-125.000000
2065		-130.859375
2066		-123.046875
2067		-128.906250
2068		-123.046875
2069		-126.953125
2070		-121.093750
2071		-126.953125
2072		-119.140625
2073		-125.000000
2074		-119.140625
2075		-121.093750
2076		-117.187500
2077		-121.093750
2078		-115.234375
2079		-119.140625
2080		-113.281250
2081		-117.187500
2082		-111.328125
2083		-115.234375
2084		-109.375000
2085		-115.234375
2086		-107.421875
2087		-113.281250
2088		-105.468750
2089		-109.375000
2090		-103.515625
2091		-107.421875
2092		-101.562500
2093		-103.515625
2094		-99.609375
2095		-103.515625
2096		-95.703125
2097		-101.562500
2098		-93.750000
2099		-97.656250
2100		-91.796875
2101		-97.656250
2102		-89.843750
2103		-93.750000
2104		-85.937500
2105		-91.796875
2106		-83.984375
2107		-87.890625
2108		-82.031250
2109		-83.984375
2110		-80.078125
2111		-83.984375
2112		-76.171875
2113		-82.031250
2114		-72.265625
2115		-76.171875
2116		-68.359375
2117		-74.218750
2118		-68.359375
2119		-72.265625
2120		-64.453125
2121		-68.359375
2122		-60.546875
2123		-66.406250
2124		-58.593750
2125		-60.546875
2126		-56.640625
2127		-58.593750
2128		-50.781250
2129		-56.640625
2130		-48.828125
2131		-54.687500
2132		-46.875000
2133		-50.781250
2134		-42.968750
2135		-46.875000
2136		-39.062500
2137		-44.921875
2138		-35.156250
2139		-41.015625
2140		-33.203125
2141		-37.109375
2142		-31.250000
2143		-33.203125
2144		-27.343750
2145		-31.250000
2146		-23.437500
2147		-29.296875
2148		-21.484375
2149		-25.390625
2150		-17.578125
2151		-21.484375
2152		-13.671875
2153		-17.578125
2154		-9.765625
2155		-15.625000
2156		-7.812500
2157		-11.718750
2158		-5.859375
2159		-7.812500
2160		-1.953125
2161		-5.859375
2162		3.906250
2163		-3.906250
2164		3.906250
2165		0.000000
2166		7.812500
2167		3.906250
2168		11.718750
2169		3.906250
2170		13.671875
2171		7.812500
2172		17.578125
2173		13.671875
2174		19.531250
2175		15.625000
2176		21.484375
2177		19.531250
2178		25.390625
2179		19.531250
2180		29.296875
2181		23.437500
2182		31.250000
2183		27.343750
2184		33.203125
2185		29.296875
2186		39.062500
2187		31.250000
2188		39.062500
2189		33.203125
2190		41.015625
2191		39.062500
2192		42.968750
2193		41.015625
2194		46.875000
2195		42.968750
2196		50.781250
2197		44.921875
2198		52.734375
2199		46.875000
2200		54.687500
2201		48.828125
2202		56.640625
2203		50.781250
2204		60.546875
2205		52.734375
2206		62.500000
2207		56.640625
2208		62.500000
2209		60.546875
2210		64.453125
2211		62.500000
2212		68.359375
2213		62.500000
2214		70.312500
2215		64.453125
2216		72.265625
2217		66.406250
2218		74.218750
2219		68.359375
2220		76.171875
2221		70.312500
2222		78.125000
2223		72.265625
2224		78.125000
2225		76.171875
2226		80.078125
2227		78.125000
2228		82.031250
2229		78.125000
2230		85.937500
2231		78.125000
2232		85.937500
2233		80.078125
2234		87.890625
2235		82.031250
2236		87.890625
2237		83.984375
2238		89.843750
2239		83.984375
2240		91.796875
2241		85.937500
2242		89.843750
2243		87.890625
2244		91.796875
2245		87.890625
2246		95.703125
2247		87.890625
2248		95.703125
2249		89.843750
2250		97.656250
2251		89.843750
2252		97.656250
2253		91.796875
2254		99.609375
2255		91.796875
2256		99.609375
2257		93.750000
2258		97.656250
2259		95.703125
2260		99.609375
2261		95.703125
2262		99.609375
2263		93.750000
2264		101.562500
2265		93.750000
2266		101.562500
2267		95.703125
2268		101.562500
2269		95.703125
2270		103.515625
2271		95.703125
2272		103.515625
2273		95.703125
2274		103.515625
2275		97.656250
2276		101.562500
2277		97.656250
2278		101.562500
2279		95.703125
2280		101.562500
2281		95.703125
2282		103.515625
2283		95.703125
2284		103.515625
2285		95.703125
2286		101.562500
2287		93.750000
2288		101.562500
2289		93.750000
2290		101.562500
2291		95.703125
2292		99.609375
2293		95.703125
2294		99.609375
2295		93.750000
2296		99.609375
2297		91.796875
2298		99.609375
2299		91.796875
2300		97.656250
2301		89.843750
2302		97.656250
2303		89.843750
2304		97.656250
2305		89.843750
2306		95.703125
2307		87.890625
2308		95.703125
2309		87.890625
2310		91.796875
2311		87.890625
2312		91.796875
2313		83.984375
2314		91.796875
2315		82.031250
2316		91.796875
2317		82.031250
2318		89.843750
2319		80.078125
2320		87.890625
2321		80.078125
2322		85.937500
2323		78.125000
2324		83.984375
2325		76.171875
2326		82.031250
2327		76.171875
2328		80.078125
2329		74.218750
2330		78.125000
2331		70.312500
2332		78.125000
2333		68.359375
2334		76.171875
2335		66.406250
2336		74.218750
2337		64.453125
2338		72.265625
2339		62.500000
2340		70.312500
2341		60.546875
2342		68.359375
2343		60.546875
2344		64.453125
2345		56.640625
2346		62.500000
2347		52.734375
2348		62.500000
2349		50.781250
2350		58.593750
2351		48.828125
2352		56.640625
2353		44.921875
2354		54.687500
2355		44.921875
2356		50.781250
2357		42.968750
2358		48.828125
2359		41.015625
2360		44.921875
2361		37.109375
2362		42.968750
2363		33.203125
2364		41.015625
2365		31.250000
2366		39.062500
2367		27.343750
2368		35.156250
2369		23.437500
2370		33.203125
2371		21.484375
2372		29.296875
2373		19.531250
2374		27.343750
2375		17.578125
2376		23.437500
2377		15.625000
2378		19.531250
2379		9.765625
2380		17.578125
2381		7.812500
2382		15.625000
2383		3.906250
2384		11.718750
2385		0.000000
2386		9.765625
2387		-1.953125
2388		5.859375
2389		-5.859375
2390		3.906250
2391		-5.859375
2392		0.000000
2393		-9.765625
2394		-3.906250
2395		-13.671875
2396		-7.812500
2397		-17.578125
2398		-9.765625
2399		-21.484375
2400		-11.718750
2401		-23.437500
2402		-15.625000
2403		-27.343750
2404		-19.531250
2405		-29.296875
2406		-21.484375
2407		-33.203125
2408		-25.390625
2409		-35.156250
2410		-29.296875
2411		-39.062500
2412		-33.203125
2413		-42.968750
2414		-37.109375
2415		-46.875000
2416		-37.109375
2417		-50.781250
2418		-41.015625
2419		-52.734375
2420		-42.968750
2421		-54.687500
2422		-46.875000
2423		-58.593750
2424		-50.781250
2425		-60.546875
2426		-54.687500
2427		-62.500000
2428		-58.593750
2429		-66.406250
2430		-60.546875
2431		-70.312500
2432		-60.546875
2433		-74.218750
2434		-66.406250
2435		-76.171875
2436		-68.359375
2437		-80.078125
2438		-70.312500
2439		-82.031250
2440		-74.218750
2441		-83.984375
2442		-76.171875
2443		-85.937500
2444		-80.078125
2445		-87.890625
2446		-83.984375
2447		-93.750000
2448		-85.937500
2449		-95.703125
2450		-87.890625
2451		-97.656250
2452		-89.843750
2453		-101.562500
2454		-91.796875
2455		-101.562500
2456		-95.703125
2457		-105.468750
2458		-95.703125
2459		-107.421875
2460		-99.609375
2461		-107.421875
2462		-103.515625
2463		-111.328125
2464		-105.468750
2465		-113.281250
2466		-105.468750
2467		-115.234375
2468		-107.421875
2469		-119.140625
2470		-109.375000
2471		-119.140625
2472		-113.281250
2473		-121.093750
2474		-113.281250
2475		-123.046875
2476		-115.234375
2477		-123.046875
2478		-119.140625
2479		-123.046875
2480		-119.140625
2481		-126.953125
2482		-121.093750
2483		-128.906250
2484		-121.093750
2485		-130.859375
2486		-123.046875
2487		-130.859375
2488		-125.000000
2489		-132.812500
2490		-125.000000
2491		-134.765625
2492		-125.000000
2493		-132.812500
2494		-128.906250
2495		-132.812500
2496		-128.906250
2497		-136.718750
2498		-128.906250
2499		-136.718750
2500		-128.906250
2501		-136.718750
2502		-130.859375
2503		-136.718750
2504		-130.859375
2505		-138.671875
2506		-130.859375
2507		-138.671875
2508		-130.859375
2509		-136.718750
2510		-130.859375
2511		-136.718750
2512		-132.812500
2513		-136.718750
2514		-132.812500
2515		-138.671875
2516		-130.859375
2517		-138.671875
2518		-130.859375
2519		-138.671875
2520		-130.859375
2521		-138.671875
2522		-130.859375
2523		-138.671875
2524		-130.859375
2525		-136.718750
2526		-128.906250
2527		-134.765625
2528		-130.859375
2529		-132.812500
2530		-130.859375
2531		-134.765625
2532		-126.953125
2533		-132.812500
2534		-126.953125
2535		-132.812500
2536		-125.000000
2537		-130.859375
2538		-123.046875
2539		-130.859375
2540		-123.046875
2541		-128.906250
2542		-121.093750
2543		-126.953125
2544		-121.093750
2545		-123.046875
2546		-121.093750
2547		-123.046875
2548		-117.187500
2549		-123.046875
2550		-115.234375
2551		-121.093750
2552		-113.281250
2553		-119.140625
2554		-111.328125
2555		-117.187500
2556		-109.375000
2557		-115.234375
2558		-107.421875
2559		-113.281250
2560		-107.421875
2561		-109.375000
2562		-105.468750
2563		-107.421875
2564		-103.515625
2565		-105.468750
2566		-99.609375
2567		-105.468750
2568		-97.656250
2569		-103.515625
2570		-93.750000
2571		-99.609375
2572		-91.796875
2573		-97.656250
2574		-87.890625
2575		-93.750000
2576		-87.890625
2577		-91.796875
2578		-85.937500
2579		-87.890625
2580		-82.031250
2581		-85.937500
2582		-80.078125
2583		-83.984375
2584		-74.218750
2585		-80.078125
2586		-74.218750
2587		-78.125000
2588		-70.312500
2589		-76.171875
2590		-66.406250
2591		-72.265625
2592		-64.453125
2593		-70.312500
2594		-62.500000
2595		-64.453125
2596		-58.593750
2597		-62.500000
2598		-56.640625
2599		-60.546875
2600		-50.781250
2601		-56.640625
2602		-48.828125
2603		-54.687500
2604		-46.875000
2605		-50.781250
2606		-42.968750
2607		-48.828125
2608		-39.062500
2609		-44.921875
2610		-37.109375
2611		-41.015625
2612		-35.156250
2613		-37.109375
2614		-31.250000
2615		-33.203125
2616		-27.343750
2617		-33.203125
2618		-23.437500
2619		-29.296875
2620		-19.531250
2621		-25.390625
2622		-17.578125
2623		-21.484375
2624		-13.671875
2625		-21.484375
2626		-11.718750
2627		-17.578125
2628		-9.765625
2629		-11.718750
2630		-5.859375
2631		-7.812500
2632		-1.953125
2633		-5.859375
2634		0.000000
2635		-3.906250
2636		3.906250
2637		0.000000
2638		7.812500
2639		3.906250
2640		9.765625
2641		5.859375
2642		13.671875
2643		7.812500
2644		15.625000
2645		13.671875
2646		17.578125
2647		15.625000
2648		21.484375
2649		17.578125
2650		25.390625
2651		19.531250
2652		29.296875
2653		23.437500
2654		31.250000
2655		25.390625
2656		33.203125
2657		29.296875
2658		37.109375
2659		31.250000
2660		39.062500
2661		35.156250
2662		41.015625
2663		39.062500
2664		42.968750
2665		41.015625
2666		46.875000
2667		41.015625
2668		48.828125
2669		42.968750
2670		52.734375
2671		44.921875
2672		54.687500
2673		48.828125
2674		56.640625
2675		50.781250
2676		58.593750
2677		52.734375
2678		60.546875
2679		56.640625
2680		62.500000
2681		60.546875
2682		66.406250
2683		60.546875
2684		68.359375
2685		60.546875
2686		70.312500
2687		64.453125
2688		72.265625
2689		66.406250
2690		72.265625
2691		68.359375
2692		76.171875
2693		70.312500
2694		78.125000
2695		74.218750
2696		78.125000
2697		76.171875
2698		80.078125
2699		76.171875
2700		82.031250
2701		76.171875
2702		83.984375
2703		78.125000
2704		85.937500
2705		80.078125
2706		85.937500
2707		80.078125
2708		87.890625
2709		82.031250
2710		89.843750
2711		83.984375
2712		89.843750
2713		85.937500
2714		89.843750
2715		87.890625
2716		91.796875
2717		85.937500
2718		95.703125
2719		87.890625
2720		95.703125
2721		89.843750
2722		95.703125
2723		89.843750
2724		97.656250
2725		89.843750
2726		97.656250
2727		91.796875
2728		97.656250
2729		93.750000
2730		97.656250
2731		93.750000
2732		97.656250
2733		93.750000
2734		99.609375
2735		93.750000
2736		101.562500
2737		93.750000
2738		101.562500
2739		93.750000
2740		101.562500
2741		93.750000
2742		101.562500
2743		95.703125
2744		101.562500
2745		95.703125
2746		101.562500
2747		97.656250
2748		99.609375
2749		95.703125
2750		101.562500
2751		95.703125
2752		101.562500
2753		93.750000
2754		101.562500
2755		95.703125
2756		101.562500
2757		93.750000
2758		101.562500
2759		93.750000
2760		101.562500
2761		93.750000
2762		101.562500
2763		95.703125
2764		97.656250
2765		93.750000
2766		97.656250
2767		91.796875
2768		99.609375
2769		91.796875
2770		99.609375
2771		89.843750
2772		97.656250
2773		89.843750
2774		97.656250
2775		87.890625
2776		95.703125
2777		87.890625
2778		93.750000
2779		87.890625
2780		91.796875
2781		87.890625
2782		91.796875
2783		83.984375
2784		89.843750
2785		83.984375
2786		91.796875
2787		82.031250
2788		89.843750
2789		80.078125
2790		87.890625
2791		80.078125
2792		85.937500
2793		78.125000
2794		85.937500
2795		78.125000
2796		82.031250
2797		76.171875
2798		80.078125
2799		74.218750
2800		78.125000
2801		72.265625
2802		78.125000
2803		68.359375
2804		76.171875
2805		66.406250
2806		74.218750
2807		66.406250
2808		74.218750
2809		62.500000
2810		70.312500
2811		60.546875
2812		68.359375
2813		60.546875
2814		64.453125
2815		58.593750
2816		62.500000
2817		54.687500
2818		62.500000
2819		50.781250
2820		58.593750
2821		48.828125
2822		58.593750
2823		46.875000
2824		54.687500
2825		44.921875
2826		52.734375
2827		41.015625
2828		50.781250
2829		41.015625
2830		46.875000
2831		39.062500
2832		42.968750
2833		35.156250
2834		41.015625
2835		31.250000
2836		39.062500
2837		29.296875
2838		37.109375
2839		25.390625
2840		35.156250
2841		23.437500
2842		31.250000
2843		21.484375
2844		29.296875
2845		19.531250
2846		25.390625
2847		15.625000
2848		21.484375
2849		11.718750
2850		17.578125
2851		7.812500
2852		17.578125
2853		5.859375
2854		13.671875
2855		1.953125
2856		11.718750
2857		0.000000
2858		7.812500
2859		-3.906250
2860		3.906250
2861		-5.859375
2862		1.953125
2863		-7.812500
2864		-1.953125
2865		-11.718750
2866		-5.859375
2867		-17.578125
2868		-7.812500
2869		-19.531250
2870		-9.765625
2871		-21.484375
2872		-13.671875
2873		-27.343750
2874		-17.578125
2875		-29.296875
2876		-19.531250
2877		-33.203125
2878		-23.437500
2879		-33.203125
2880		-27.343750
2881		-37.109375
2882		-31.250000
2883		-41.015625
2884		-35.156250
2885		-44.921875
2886		-35.156250
2887		-48.828125
2888		-39.062500
2889		-50.781250
2890		-42.968750
2891		-54.687500
2892		-44.921875
2893		-56.640625
2894		-48.828125
2895		-60.546875
2896		-52.734375
2897		-62.500000
2898		-56.640625
2899		-64.453125
2900		-58.593750
2901		-68.359375
2902		-62.500000
2903		-72.265625
2904		-64.453125
2905		-74.218750
2906		-66.406250
2907		-78.125000
2908		-70.312500
2909		-80.078125
2910		-72.265625
2911		-83.984375
2912		-76.171875
2913		-85.937500
2914		-78.125000
2915		-87.890625
2916		-82.031250
2917		-91.796875
2918		-83.984375
2919		-93.750000
2920		-85.937500
2921		-95.703125
2922		-87.890625
2923		-99.609375
2924		-91.796875
2925		-101.562500
2926		-93.750000
2927		-103.515625
2928		-95.703125
2929		-105.468750
2930		-99.609375
2931		-107.421875
2932		-101.562500
2933		-109.375000
2934		-103.515625
2935		-113.281250
2936		-105.468750
2937		-113.281250
2938		-105.468750
2939		-117.187500
2940		-109.375000
2941		-119.140625
2942		-111.328125
2943		-119.140625
2944		-113.281250
2945		-123.046875
2946		-113.281250
2947		-121.093750
2948		-117.187500
2949		-123.046875
2950		-119.140625
2951		-126.953125
2952		-121.093750
2953		-126.953125
2954		-121.093750
2955		-128.906250
2956		-121.093750
2957		-130.859375
2958		-123.046875
2959		-132.812500
2960		-125.000000
2961		-134.765625
2962		-125.000000
2963		-134.765625
2964		-126.953125
2965		-132.812500
2966		-128.906250
2967		-134.765625
2968		-130.859375
2969		-136.718750
2970		-128.906250
2971		-136.718750
2972		-130.859375
2973		-138.671875
2974		-130.859375
2975		-138.671875
2976		-130.859375
2977		-138.671875
2978		-130.859375
2979		-138.671875
2980		-132.812500
2981		-136.718750
2982		-134.765625
2983		-138.671875
2984		-134.765625
2985		-138.671875
2986		-132.812500
2987		-138.671875
2988		-132.812500
2989		-138.671875
2990		-132.812500
2991		-138.671875
2992		-130.859375
2993		-138.671875
2994		-130.859375
2995		-136.718750
2996		-130.859375
2997		-138.671875
2998		-130.859375
2999		-134.765625
3000		-130.859375
3001		-134.765625
3002		-128.906250
3003		-134.765625
3004		-126.953125
3005		-134.765625
3006		-126.953125
3007		-132.812500
3008		-125.000000
3009		-130.859375
3010		-125.000000
3011		-130.859375
3012		-123.046875
3013		-128.906250
3014		-121.093750
3015		-125.000000
3016		-121.093750
3017		-125.000000
3018		-121.093750
3019		-125.000000
3020		-117.187500
3021		-123.046875
3022		-115.234375
3023		-121.093750
3024		-113.281250
3025		-119.140625
3026		-111.328125
3027		-117.187500
3028		-109.375000
3029		-115.234375
3030		-107.421875
3031		-113.281250
3032		-107.421875
3033		-109.375000
3034		-105.468750
3035		-107.421875
3036		-101.562500
3037		-107.421875
3038		-99.609375
3039		-103.515625
3040		-97.656250
3041		-101.562500
3042		-95.703125
3043		-99.609375
3044		-91.796875
3045		-97.656250
3046		-87.890625
3047		-93.750000
3048		-87.890625
3049		-89.843750
3050		-85.937500
3051		-87.890625
3052		-82.031250
3053		-85.937500
3054		-78.125000
3055		-82.031250
3056		-76.171875
3057		-80.078125
3058		-74.218750
3059		-78.125000
3060		-70.312500
3061		-74.218750
3062		-66.406250
3063		-72.265625
3064		-64.453125
3065		-68.359375
3066		-62.500000
3067		-64.453125
3068		-58.593750
3069		-62.500000
3070		-56.640625
3071		-58.593750
3072		-52.734375
3073		-56.640625
3074		-48.828125
3075		-52.734375
3076		-44.921875
3077		-50.781250
3078		-42.968750
3079		-46.875000
3080		-39.062500
3081		-44.921875
3082		-37.109375
3083		-39.062500
3084		-35.156250
3085		-37.109375
3086		-31.250000
3087		-33.203125
3088		-27.343750
3089		-29.296875
3090		-25.390625
3091		-27.343750
3092		-19.531250
3093		-25.390625
3094		-17.578125
3095		-23.437500
3096		-13.671875
3097		-19.531250
3098		-11.718750
3099		-13.671875
3100		-7.812500
3101		-11.718750
3102		-5.859375
3103		-7.812500
3104		-1.953125
3105		-5.859375
3106		0.000000
3107		-1.953125
3108		3.906250
3109		0.000000
3110		5.859375
3111		3.906250
3112		9.765625
3113		5.859375
3114		13.671875
3115		9.765625
3116		15.625000
3117		13.671875
3118		17.578125
3119		15.625000
3120		21.484375
3121		19.531250
3122		23.437500
3123		21.484375
3124		27.343750
3125		25.390625
3126		31.250000
3127		25.390625
3128		35.156250
3129		29.296875
3130		37.109375
3131		31.250000
3132		39.062500
3133		35.156250
3134		41.015625
3135		39.062500
3136		42.968750
3137		41.015625
3138		46.875000
3139		42.968750
3140		48.828125
3141		46.875000
3142		52.734375
3143		46.875000
3144		54.687500
3145		48.828125
3146		56.640625
3147		50.781250
3148		58.593750
3149		54.687500
3150		60.546875
3151		58.593750
3152		62.500000
3153		58.593750
3154		64.453125
3155		62.500000
3156		66.406250
3157		64.453125
3158		68.359375
3159		66.406250
3160		72.265625
3161		66.406250
3162		72.265625
3163		68.359375
3164		74.218750
3165		70.312500
3166		76.171875
3167		74.218750
3168		78.125000
3169		74.218750
3170		80.078125
3171		76.171875
3172		82.031250
3173		78.125000
3174		82.031250
3175		80.078125
3176		83.984375
3177		80.078125
3178		85.937500
3179		82.031250
3180		87.890625
3181		82.031250
3182		89.843750
3183		85.937500
3184		89.843750
3185		85.937500
3186		89.843750
3187		87.890625
3188		91.796875
3189		87.890625
3190		91.796875
3191		89.843750
3192		93.750000
3193		89.843750
3194		95.703125
3195		91.796875
3196		95.703125
3197		91.796875
3198		97.656250
3199		93.750000
3200		97.656250
3201		93.750000
3202		97.656250
3203		93.750000
3204		97.656250
3205		95.703125
3206		97.656250
3207		93.750000
3208		99.609375
3209		95.703125
3210		99.609375
3211		95.703125
3212		99.609375
3213		95.703125
3214		101.562500
3215		95.703125
3216		101.562500
3217		95.703125
3218		99.609375
3219		95.703125
3220		99.609375
3221		95.703125
3222		99.609375
3223		95.703125
3224		99.609375
3225		95.703125
3226		99.609375
3227		95.703125
3228		99.609375
3229		95.703125
3230		99.609375
3231		93.750000
3232		99.609375
3233		95.703125
3234		97.656250
3235		93.750000
3236		97.656250
3237		93.750000
3238		97.656250
3239		93.750000
3240		97.656250
3241		91.796875
3242		95.703125
3243		91.796875
3244		95.703125
3245		89.843750
3246		93.750000
3247		89.843750
3248		93.750000
3249		89.843750
3250		93.750000
3251		87.890625
3252		91.796875
3253		85.937500
3254		89.843750
3255		85.937500
3256		89.843750
3257		83.984375
3258		87.890625
3259		82.031250
3260		85.937500
3261		82.031250
3262		85.937500
3263		80.078125
3264		83.984375
3265		78.125000
3266		83.984375
3267		76.171875
3268		82.031250
3269		76.171875
3270		78.125000
3271		72.265625
3272		78.125000
3273		72.265625
3274		76.171875
3275		70.312500
3276		74.218750
3277		66.406250
3278		72.265625
3279		66.406250
3280		70.312500
3281		62.500000
3282		68.359375
3283		60.546875
3284		66.406250
3285		58.593750
3286		64.453125
3287		56.640625
3288		62.500000
3289		54.687500
3290		58.593750
3291		52.734375
3292		56.640625
3293		48.828125
3294		54.687500
3295		48.828125
3296		52.734375
3297		44.921875
3298		50.781250
3299		42.968750
3300		46.875000
3301		39.062500
3302		44.921875
3303		35.156250
3304		42.968750
3305		35.156250
3306		41.015625
3307		31.250000
3308		37.109375
3309		27.343750
3310		35.156250
3311		27.343750
3312		31.250000
3313		23.437500
3314		29.296875
3315		19.531250
3316		25.390625
3317		17.578125
3318		23.437500
3319		15.625000
3320		19.531250
3321		11.718750
3322		17.578125
3323		7.812500
3324		13.671875
3325		5.859375
3326		9.765625
3327		1.953125
3328		7.812500
3329		0.000000
3330		3.906250
3331		-3.906250
3332		1.953125
3333		-7.812500
3334		0.000000
3335		-9.765625
3336		-3.906250
3337		-13.671875
3338		-7.812500
3339		-15.625000
3340		-9.765625
3341		-19.531250
3342		-13.671875
3343		-21.484375
3344		-17.578125
3345		-25.390625
3346		-19.531250
3347		-29.296875
3348		-23.437500
3349		-31.250000
3350		-27.343750
3351		-35.156250
3352		-29.296875
3353		-39.062500
3354		-33.203125
3355		-41.015625
3356		-35.156250
3357		-44.921875
3358		-39.062500
3359		-48.828125
3360		-42.968750
3361		-50.781250
3362		-44.921875
3363		-54.687500
3364		-48.828125
3365		-58.593750
3366		-52.734375
3367		-60.546875
3368		-54.687500
3369		-64.453125
3370		-58.593750
3371		-66.406250
3372		-60.546875
3373		-70.312500
3374		-64.453125
3375		-72.265625
3376		-66.406250
3377		-76.171875
3378		-70.312500
3379		-78.125000
3380		-72.265625
3381		-80.078125
3382		-76.171875
3383		-83.984375
3384		-78.125000
3385		-85.937500
3386		-82.031250
3387		-89.843750
3388		-83.984375
3389		-91.796875
3390		-85.937500
3391		-93.750000
3392		-87.890625
3393		-97.656250
3394		-89.843750
3395		-99.609375
3396		-95.703125
3397		-101.562500
3398		-97.656250
3399		-105.468750
3400		-99.609375
3401		-105.468750
3402		-101.562500
3403		-107.421875
3404		-103.515625
3405		-111.328125
3406		-105.468750
3407		-113.281250
3408		-107.421875
3409		-115.234375
3410		-109.375000
3411		-117.187500
3412		-111.328125
3413		-119.140625
3414		-113.281250
3415		-121.093750
3416		-115.234375
3417		-123.046875
3418		-117.187500
3419		-123.046875
3420		-119.140625
3421		-125.000000
3422		-121.093750
3423		-126.953125
3424		-123.046875
3425		-128.906250
3426		-123.046875
3427		-128.906250
3428		-125.000000
3429		-130.859375
3430		-126.953125
3431		-130.859375
3432		-126.953125
3433		-134.765625
3434		-128.906250
3435		-132.812500
3436		-130.859375
3437		-134.765625
3438		-130.859375
3439		-134.765625
3440		-130.859375
3441		-136.718750
3442		-132.812500
3443		-136.718750
3444		-132.812500
3445		-136.718750
3446		-132.812500
3447		-138.671875
3448		-132.812500
3449		-138.671875
3450		-134.765625
3451		-138.671875
3452		-134.765625
3453		-138.671875
3454		-134.765625
3455		-138.671875
3456		-134.765625
3457		-138.671875
3458		-134.765625
3459		-138.671875
3460		-134.765625
3461		-138.671875
3462		-132.812500
3463		-136.718750
3464		-132.812500
3465		-136.718750
3466		-132.812500
3467		-136.718750
3468		-132.812500
3469		-136.718750
3470		-132.812500
3471		-134.765625
3472		-130.859375
3473		-134.765625
3474		-130.859375
3475		-132.812500
3476		-130.859375
3477		-132.812500
3478		-128.906250
3479		-130.859375
3480		-126.953125
3481		-130.859375
3482		-126.953125
3483		-128.906250
3484		-125.000000
3485		-126.953125
3486		-123.046875
3487		-126.953125
3488		-123.046875
3489		-125.000000
3490		-119.140625
3491		-123.046875
3492		-119.140625
3493		-121.093750
3494		-117.187500
3495		-119.140625
3496		-115.234375
3497		-117.187500
3498		-113.281250
3499		-115.234375
3500		-111.328125
3501		-113.281250
3502		-109.375000
3503		-111.328125
3504		-107.421875
3505		-109.375000
3506		-105.468750
3507		-107.421875
3508		-103.515625
3509		-105.468750
3510		-101.562500
3511		-103.515625
3512		-97.656250
3513		-101.562500
3514		-95.703125
3515		-97.656250
3516		-91.796875
3517		-95.703125
3518		-89.843750
3519		-93.750000
3520		-87.890625
3521		-89.843750
3522		-85.937500
3523		-87.890625
3524		-82.031250
3525		-85.937500
3526		-80.078125
3527		-82.031250
3528		-76.171875
3529		-80.078125
3530		-74.218750
3531		-76.171875
3532		-70.312500
3533		-74.218750
3534		-68.359375
3535		-70.312500
3536		-64.453125
3537		-68.359375
3538		-62.500000
3539		-64.453125
3540		-58.593750
3541		-60.546875
3542		-56.640625
3543		-58.593750
3544		-52.734375
3545		-56.640625
3546		-50.781250
3547		-52.734375
3548		-46.875000
3549		-48.828125
3550		-42.968750
3551		-46.875000
3552		-41.015625
3553		-42.968750
3554		-37.109375
3555		-39.062500
3556		-33.203125
3557		-37.109375
3558		-31.250000
3559		-33.203125
3560		-27.343750
3561		-29.296875
3562		-23.437500
3563		-27.343750
3564		-21.484375
3565		-23.437500
3566		-17.578125
3567		-19.531250
3568		-15.625000
3569		-17.578125
3570		-11.718750
3571		-13.671875
3572		-7.812500
3573		-11.718750
3574		-5.859375
3575		-7.812500
3576		-1.953125
3577		-3.906250
3578		0.000000
3579		-1.953125
3580		3.906250
3581		1.953125
3582		5.859375
3583		3.906250
3584		9.765625
3585		5.859375
3586		13.671875
3587		9.765625
3588		15.625000
3589		13.671875
3590		19.531250
3591		15.625000
3592		21.484375
3593		19.531250
3594		25.390625
3595		21.484375
3596		27.343750
3597		25.390625
3598		29.296875
3599		27.343750
3600		33.203125
3601		31.250000
3602		35.156250
3603		33.203125
3604		39.062500
3605		35.156250
3606		41.015625
3607		39.062500
3608		42.968750
3609		41.015625
3610		46.875000
3611		42.968750
3612		48.828125
3613		46.875000
3614		50.781250
3615		48.828125
3616		52.734375
3617		50.781250
3618		54.687500
3619		52.734375
3620		58.593750
3621		54.687500
3622		60.546875
3623		56.640625
3624		62.500000
3625		58.593750
3626		64.453125
3627		62.500000
3628		66.406250
3629		64.453125
3630		68.359375
3631		66.406250
3632		70.312500
3633		68.359375
3634		72.265625
3635		68.359375
3636		74.218750
3637		72.265625
3638		76.171875
3639		72.265625
3640		78.125000
3641		74.218750
3642		78.125000
3643		76.171875
3644		80.078125
3645		78.125000
3646		82.031250
3647		78.125000
3648		83.984375
3649		80.078125
3650		83.984375
3651		82.031250
3652		85.937500
3653		82.031250
3654		87.890625
3655		85.937500
3656		89.843750
3657		85.937500
3658		89.843750
3659		85.937500
3660		91.796875
3661		87.890625
3662		91.796875
3663		87.890625
3664		93.750000
3665		89.843750
3666		93.750000
3667		91.796875
3668		95.703125
3669		91.796875
3670		95.703125
3671		93.750000
3672		95.703125
3673		93.750000
3674		95.703125
3675		93.750000
3676		97.656250
3677		93.750000
3678		97.656250
3679		93.750000
3680		97.656250
3681		95.703125
3682		97.656250
3683		95.703125
3684		99.609375
3685		95.703125
3686		99.609375
3687		95.703125
3688		99.609375
3689		95.703125
3690		99.609375
3691		95.703125
3692		99.609375
3693		95.703125
3694		99.609375
3695		95.703125
3696		99.609375
3697		95.703125
3698		99.609375
3699		95.703125
3700		99.609375
3701		95.703125
3702		97.656250
3703		95.703125
3704		97.656250
3705		93.750000
3706		97.656250
3707		93.750000
3708		97.656250
3709		93.750000
3710		95.703125
3711		91.796875
3712		95.703125
3713		91.796875
3714		95.703125
3715		89.843750
3716		95.703125
3717		89.843750
3718		93.750000
3719		87.890625
3720		91.796875
3721		87.890625
3722		91.796875
3723		85.937500
3724		89.843750
3725		85.937500
3726		89.843750
3727		83.984375
3728		87.890625
3729		82.031250
3730		87.890625
3731		82.031250
3732		85.937500
3733		80.078125
3734		83.984375
3735		78.125000
3736		83.984375
3737		76.171875
3738		82.031250
3739		76.171875
3740		80.078125
3741		74.218750
3742		78.125000
3743		72.265625
3744		76.171875
3745		70.312500
3746		74.218750
3747		66.406250
3748		72.265625
3749		66.406250
3750		72.265625
3751		64.453125
3752		70.312500
3753		62.500000
3754		66.406250
3755		60.546875
3756		64.453125
3757		56.640625
3758		62.500000
3759		54.687500
3760		60.546875
3761		52.734375
3762		58.593750
3763		50.781250
3764		56.640625
3765		48.828125
3766		52.734375
3767		44.921875
3768		50.781250
3769		42.968750
3770		48.828125
3771		41.015625
3772		46.875000
3773		39.062500
3774		42.968750
3775		35.156250
3776		41.015625
3777		33.203125
3778		39.062500
3779		31.250000
3780		35.156250
3781		27.343750
3782		33.203125
3783		23.437500
3784		31.250000
3785		21.484375
3786		27.343750
3787		19.531250
3788		23.437500
3789		15.625000
3790		21.484375
3791		13.671875
3792		17.578125
3793		9.765625
3794		15.625000
3795		5.859375
3796		11.718750
3797		3.906250
3798		9.765625
3799		0.000000
3800		5.859375
3801		-1.953125
3802		3.906250
3803		-5.859375
3804		0.000000
3805		-7.812500
3806		-1.953125
3807		-11.718750
3808		-5.859375
3809		-15.625000
3810		-7.812500
3811		-17.578125
3812		-11.718750
3813		-21.484375
3814		-15.625000
3815		-25.390625
3816		-17.578125
3817		-27.343750
3818		-21.484375
3819		-31.250000
3820		-25.390625
3821		-33.203125
3822		-27.343750
3823		-37.109375
3824		-31.250000
3825		-41.015625
3826		-35.156250
3827		-42.968750
3828		-37.109375
3829		-46.875000
3830		-41.015625
3831		-48.828125
3832		-44.921875
3833		-52.734375
3834		-46.875000
3835		-56.640625
3836		-50.781250
3837		-58.593750
3838		-52.734375
3839		-62.500000
3840		-56.640625
3841		-66.406250
3842		-60.546875
3843		-68.359375
3844		-62.500000
3845		-70.312500
3846		-66.406250
3847		-74.218750
3848		-68.359375
3849		-78.125000
3850		-72.265625
3851		-80.078125
3852		-74.218750
3853		-82.031250
3854		-76.171875
3855		-83.984375
3856		-80.078125
3857		-87.890625
3858		-82.031250
3859		-91.796875
3860		-85.937500
3861		-93.750000
3862		-87.890625
3863		-95.703125
3864		-89.843750
3865		-97.656250
3866		-93.750000
3867		-99.609375
3868		-95.703125
3869		-103.515625
3870		-97.656250
3871		-105.468750
3872		-99.609375
3873		-107.421875
3874		-103.515625
3875		-109.375000
3876		-105.468750
3877		-111.328125
3878		-107.421875
3879		-115.234375
3880		-109.375000
3881		-115.234375
3882		-111.328125
3883		-119.140625
3884		-113.281250
3885		-119.140625
3886		-115.234375
3887		-121.093750
3888		-117.187500
3889		-123.046875
3890		-119.140625
3891		-125.000000
3892		-121.093750
3893		-126.953125
3894		-121.093750
3895		-128.906250
3896		-123.046875
3897		-128.906250
3898		-125.000000
3899		-130.859375
3900		-126.953125
3901		-130.859375
3902		-126.953125
3903		-132.812500
3904		-128.906250
3905		-134.765625
3906		-128.906250
3907		-134.765625
3908		-130.859375
3909		-136.718750
3910		-130.859375
3911		-136.718750
3912		-132.812500
3913		-136.718750
3914		-132.812500
3915		-138.671875
3916		-132.812500
3917		-136.718750
3918		-134.765625
3919		-138.671875
3920		-134.765625
3921		-138.671875
3922		-134.765625
3923		-138.671875
3924		-134.765625
3925		-138.671875
3926		-134.765625
3927		-138.671875
3928		-134.765625
3929		-138.671875
3930		-134.765625
3931		-138.671875
3932		-134.765625
3933		-138.671875
3934		-134.765625
3935		-136.718750
3936		-134.765625
3937		-138.671875
3938		-132.812500
3939		-136.718750
3940		-132.812500
3941		-136.718750
3942		-132.812500
3943		-136.718750
3944		-130.859375
3945		-134.765625
3946		-130.859375
3947		-132.812500
3948		-130.859375
3949		-132.812500
3950		-128.906250
3951		-130.859375
3952		-126.953125
3953		-130.859375
3954		-126.953125
3955		-128.906250
3956		-125.000000
3957		-126.953125
3958		-123.046875
3959		-125.000000
3960		-121.093750
3961		-125.000000
3962		-121.093750
3963		-123.046875
3964		-119.140625
3965		-121.093750
3966		-117.187500
3967		-119.140625
3968		-115.234375
3969		-117.187500
3970		-113.281250
3971		-115.234375
3972		-111.328125
3973		-113.281250
3974		-109.375000
3975		-111.328125
3976		-105.468750
3977		-109.375000
3978		-103.515625
3979		-107.421875
3980		-101.562500
3981		-105.468750
3982		-99.609375
3983		-103.515625
3984		-97.656250
3985		-99.609375
3986		-95.703125
3987		-97.656250
3988		-91.796875
3989		-95.703125
3990		-89.843750
3991		-91.796875
3992		-87.890625
3993		-89.843750
3994		-83.984375
3995		-87.890625
3996		-82.031250
3997		-83.984375
3998		-78.125000
3999		-82.031250
4000		-76.171875
4001		-78.125000
4002		-72.265625
4003		-76.171875
4004		-70.312500
4005		-72.265625
4006		-68.359375
4007		-70.312500
4008		-64.453125
4009		-66.406250
4010		-60.546875
4011		-64.453125
4012		-58.593750
4013		-60.546875
4014		-54.687500
4015		-56.640625
4016		-52.734375
4017		-54.687500
4018		-48.828125
4019		-50.781250
4020		-44.921875
4021		-48.828125
4022		-41.015625
4023		-44.921875
4024		-39.062500
4025		-41.015625
4026		-37.109375
4027		-39.062500
4028		-33.203125
4029		-35.156250
4030		-29.296875
4031		-31.250000
4032		-27.343750
4033		-29.296875
4034		-23.437500
4035		-25.390625
4036		-19.531250
4037		-23.437500
4038		-17.578125
4039		-19.531250
4040		-13.671875
4041		-15.625000
4042		-11.718750
4043		-13.671875
4044		-7.812500
4045		-9.765625
4046		-3.906250
4047		-5.859375
4048		-1.953125
4049		-3.906250
4050		1.953125
4051		0.000000
4052		5.859375
4053		1.953125
4054		7.812500
4055		5.859375
4056		9.765625
4057		7.812500
4058		13.671875
4059		11.718750
4060		17.578125
4061		13.671875
4062		19.531250
4063		17.578125
4064		23.437500
4065		19.531250
4066		25.390625
4067		23.437500
4068		29.296875
4069		25.390625
4070		31.250000
4071		29.296875
4072		35.156250
4073		31.250000
4074		37.109375
4075		33.203125
4076		39.062500
4077		37.109375
4078		41.015625
4079		39.062500
4080		44.921875
4081		41.015625
4082		46.875000
4083		44.921875
4084		48.828125
4085		46.875000
4086		52.734375
4087		48.828125
4088		54.687500
4089		50.781250
4090		56.640625
4091		54.687500
4092		58.593750
4093		56.640625
4094		60.546875
4095		58.593750
4096		62.500000
4097		60.546875
4098		64.453125
4099		62.500000
4100		68.359375
4101		64.453125
4102		70.312500
4103		66.406250
4104		72.265625
4105		68.359375
4106		74.218750
4107		70.312500
4108		74.218750
4109		72.265625
4110		76.171875
4111		74.218750
4112		78.125000
4113		74.218750
4114		80.078125
4115		76.171875
4116		82.031250
4117		78.125000
4118		82.031250
4119		80.078125
4120		83.984375
4121		82.031250
4122		85.937500
4123		83.984375
4124		87.890625
4125		83.984375
4126		87.890625
4127		85.937500
4128		89.843750
4129		87.890625
4130		89.843750
4131		87.890625
4132		91.796875
4133		89.843750
4134		91.796875
4135		89.843750
4136		93.750000
4137		91.796875
4138		95.703125
4139		91.796875
4140		95.703125
4141		91.796875
4142		95.703125
4143		93.750000
4144		95.703125
4145		93.750000
4146		97.656250
4147		93.750000
4148		97.656250
4149		95.703125
4150		97.656250
4151		95.703125
4152		99.609375
4153		95.703125
4154		99.609375
4155		95.703125
4156		99.609375
4157		95.703125
4158		99.609375
4159		95.703125
4160		99.609375
4161		95.703125
4162		99.609375
4163		95.703125
4164		99.609375
4165		95.703125
4166		99.609375
4167		95.703125
4168		99.609375
4169		95.703125
4170		99.609375
4171		95.703125
4172		99.609375
4173		93.750000
4174		99.609375
4175		95.703125
4176		97.656250
4177		93.750000
4178		97.656250
4179		93.750000
4180		97.656250
4181		93.750000
4182		97.656250
4183		91.796875
4184		95.703125
4185		91.796875
4186		95.703125
4187		91.796875
4188		95.703125
4189		89.843750
4190		93.750000
4191		89.843750
4192		91.796875
4193		87.890625
4194		91.796875
4195		85.937500
4196		91.796875
4197		83.984375
4198		89.843750
4199		83.984375
4200		87.890625
4201		82.031250
4202		87.890625
4203		80.078125
4204		85.937500
4205		80.078125
4206		83.984375
4207		78.125000
4208		83.984375
4209		78.125000
4210		82.031250
4211		74.218750
4212		80.078125
4213		74.218750
4214		78.125000
4215		72.265625
4216		76.171875
4217		70.312500
4218		76.171875
4219		68.359375
4220		72.265625
4221		66.406250
4222		72.265625
4223		64.453125
4224		68.359375
4225		62.500000
4226		66.406250
4227		60.546875
4228		64.453125
4229		58.593750
4230		62.500000
4231		54.687500
4232		60.546875
4233		52.734375
4234		58.593750
4235		50.781250
4236		54.687500
4237		48.828125
4238		54.687500
4239		44.921875
4240		50.781250
4241		42.968750
4242		48.828125
4243		39.062500
4244		44.921875
4245		37.109375
4246		42.968750
4247		35.156250
4248		41.015625
4249		33.203125
4250		39.062500
4251		29.296875
4252		35.156250
4253		25.390625
4254		33.203125
4255		23.437500
4256		29.296875
4257		21.484375
4258		27.343750
4259		19.531250
4260		23.437500
4261		15.625000
4262		21.484375
4263		11.718750
4264		19.531250
4265		9.765625
4266		15.625000
4267		5.859375
4268		11.718750
4269		1.953125
4270		9.765625
4271		0.000000
4272		5.859375
4273		-3.906250
4274		3.906250
4275		-5.859375
4276		0.000000
4277		-9.765625
4278		-3.906250
4279		-13.671875
4280		-5.859375
4281		-15.625000
4282		-7.812500
4283		-19.531250
4284		-11.718750
4285		-21.484375
4286		-15.625000
4287		-25.390625
4288		-19.531250
4289		-27.343750
4290		-21.484375
4291		-31.250000
4292		-25.390625
4293		-35.156250
4294		-29.296875
4295		-39.062500
4296		-33.203125
4297		-41.015625
4298		-35.156250
4299		-44.921875
4300		-37.109375
4301		-46.875000
4302		-41.015625
4303		-50.781250
4304		-44.921875
4305		-54.687500
4306		-46.875000
4307		-56.640625
4308		-50.781250
4309		-58.593750
4310		-54.687500
4311		-62.500000
4312		-56.640625
4313		-66.406250
4314		-60.546875
4315		-68.359375
4316		-62.500000
4317		-72.265625
4318		-66.406250
4319		-74.218750
4320		-68.359375
4321		-78.125000
4322		-72.265625
4323		-80.078125
4324		-74.218750
4325		-82.031250
4326		-78.125000
4327		-85.937500
4328		-80.078125
4329		-87.890625
4330		-83.984375
4331		-91.796875
4332		-85.937500
4333		-93.750000
4334		-87.890625
4335		-95.703125
4336		-91.796875
4337		-97.656250
4338		-93.750000
4339		-101.562500
4340		-95.703125
4341		-103.515625
4342		-99.609375
4343		-105.468750
4344		-101.562500
4345		-107.421875
4346		-103.515625
4347		-109.375000
4348		-105.468750
4349		-111.328125
4350		-107.421875
4351		-113.281250
4352		-109.375000
4353		-115.234375
4354		-111.328125
4355		-117.187500
4356		-113.281250
4357		-119.140625
4358		-115.234375
4359		-121.093750
4360		-117.187500
4361		-123.046875
4362		-119.140625
4363		-125.000000
4364		-121.093750
4365		-126.953125
4366		-123.046875
4367		-126.953125
4368		-123.046875
4369		-128.906250
4370		-125.000000
4371		-130.859375
4372		-126.953125
4373		-130.859375
4374		-126.953125
4375		-132.812500
4376		-128.906250
4377		-132.812500
4378		-128.906250
4379		-134.765625
4380		-130.859375
4381		-134.765625
4382		-130.859375
4383		-136.718750
4384		-132.812500
4385		-136.718750
4386		-132.812500
4387		-136.718750
4388		-132.812500
4389		-136.718750
4390		-134.765625
4391		-138.671875
4392		-134.765625
4393		-138.671875
4394		-134.765625
4395		-138.671875
4396		-134.765625
4397		-138.671875
4398		-134.765625
4399		-138.671875
4400		-134.765625
4401		-138.671875
4402		-134.765625
4403		-138.671875
4404		-134.765625
4405		-136.718750
4406		-134.765625
4407		-136.718750
4408		-134.765625
4409		-136.718750
4410		-132.812500
4411		-136.718750
4412		-132.812500
4413		-136.718750
4414		-128.906250
4415		-136.718750
4416		-128.906250
4417		-136.718750
4418		-128.906250
4419		-136.718750
4420		-126.953125
4421		-132.812500
4422		-128.906250
4423		-130.859375
4424		-126.953125
4425		-128.906250
4426		-126.953125
4427		-128.906250
4428		-125.000000
4429		-126.953125
4430		-123.046875
4431		-128.906250
4432		-119.140625
4433		-126.953125
4434		-117.187500
4435		-125.000000
4436		-115.234375
4437		-121.093750
4438		-117.187500
4439		-119.140625
4440		-115.234375
4441		-117.187500
4442		-113.281250
4443		-115.234375
4444		-111.328125
4445		-113.281250
4446		-109.375000
4447		-113.281250
4448		-103.515625
4449		-111.328125
4450		-101.562500
4451		-107.421875
4452		-99.609375
4453		-103.515625
4454		-99.609375
4455		-101.562500
4456		-97.656250
4457		-99.609375
4458		-95.703125
4459		-97.656250
4460		-91.796875
4461		-93.750000
4462		-89.843750
4463		-91.796875
4464		-83.984375
4465		-91.796875
4466		-82.031250
4467		-89.843750
4468		-78.125000
4469		-85.937500
4470		-78.125000
4471		-80.078125
4472		-76.171875
4473		-78.125000
4474		-72.265625
4475		-74.218750
4476		-70.312500
4477		-72.265625
4478		-66.406250
4479		-68.359375
4480		-64.453125
4481		-68.359375
4482		-58.593750
4483		-64.453125
4484		-54.687500
4485		-62.500000
4486		-52.734375
4487		-56.640625
4488		-50.781250
4489		-54.687500
4490		-48.828125
4491		-50.781250
4492		-44.921875
4493		-46.875000
4494		-42.968750
4495		-44.921875
4496		-39.062500
4497		-41.015625
4498		-31.250000
4499		-41.015625
4500		-29.296875
4501		-37.109375
4502		-27.343750
4503		-35.156250
4504		-25.390625
4505		-29.296875
4506		-23.437500
4507		-25.390625
4508		-19.531250
4509		-21.484375
4510		-15.625000
4511		-19.531250
4512		-13.671875
4513		-15.625000
4514		-9.765625
4515		-15.625000
4516		-5.859375
4517		-11.718750
4518		-1.953125
4519		-9.765625
4520		1.953125
4521		-3.906250
4522		1.953125
4523		0.000000
4524		5.859375
4525		1.953125
4526		7.812500
4527		5.859375
4528		11.718750
4529		9.765625
4530		13.671875
4531		11.718750
4532		19.531250
4533		13.671875
4534		23.437500
4535		15.625000
4536		25.390625
4537		21.484375
4538		25.390625
4539		23.437500
4540		29.296875
4541		25.390625
4542		31.250000
4543		29.296875
4544		35.156250
4545		31.250000
4546		37.109375
4547		35.156250
4548		42.968750
4549		33.203125
4550		44.921875
4551		37.109375
4552		46.875000
4553		41.015625
4554		48.828125
4555		44.921875
4556		48.828125
4557		46.875000
4558		52.734375
4559		50.781250
4560		54.687500
4561		52.734375
4562		56.640625
4563		54.687500
4564		58.593750
4565		54.687500
4566		64.453125
4567		56.640625
4568		66.406250
4569		58.593750
4570		68.359375
4571		62.500000
4572		68.359375
4573		64.453125
4574		70.312500
4575		66.406250
4576		72.265625
4577		68.359375
4578		72.265625
4579		70.312500
4580		74.218750
4581		70.312500
4582		80.078125
4583		70.312500
4584		82.031250
4585		72.265625
4586		83.984375
4587		74.218750
4588		82.031250
4589		78.125000
4590		82.031250
4591		80.078125
4592		83.984375
4593		82.031250
4594		85.937500
4595		82.031250
4596		85.937500
4597		83.984375
4598		87.890625
4599		85.937500
4600		89.843750
4601		83.984375
4602		91.796875
4603		87.890625
4604		91.796875
4605		87.890625
4606		91.796875
4607		89.843750
4608		93.750000
4609		89.843750
4610		93.750000
4611		91.796875
4612		95.703125
4613		91.796875
4614		95.703125
4615		93.750000
4616		95.703125
4617		91.796875
4618		97.656250
4619		91.796875
4620		99.609375
4621		93.750000
4622		97.656250
4623		95.703125
4624		97.656250
4625		95.703125
4626		97.656250
4627		95.703125
4628		99.609375
4629		95.703125
4630		99.609375
4631		95.703125
4632		99.609375
4633		93.750000
4634		99.609375
4635		93.750000
4636		99.609375
4637		95.703125
4638		99.609375
4639		95.703125
4640		99.609375
4641		95.703125
4642		99.609375
4643		95.703125
4644		99.609375
4645		95.703125
4646		97.656250
4647		93.750000
4648		97.656250
4649		93.750000
4650		97.656250
4651		93.750000
4652		97.656250
4653		91.796875
4654		95.703125
4655		91.796875
4656		95.703125
4657		91.796875
4658		95.703125
4659		89.843750
4660		93.750000
4661		89.843750
4662		93.750000
4663		87.890625
4664		91.796875
4665		87.890625
4666		91.796875
4667		85.937500
4668		89.843750
4669		83.984375
4670		89.843750
4671		83.984375
4672		87.890625
4673		82.031250
4674		85.937500
4675		82.031250
4676		85.937500
4677		80.078125
4678		83.984375
4679		78.125000
4680		82.031250
4681		76.171875
4682		80.078125
4683		74.218750
4684		78.125000
4685		72.265625
4686		78.125000
4687		70.312500
4688		76.171875
4689		68.359375
4690		74.218750
4691		68.359375
4692		72.265625
4693		66.406250
4694		70.312500
4695		64.453125
4696		68.359375
4697		60.546875
4698		66.406250
4699		58.593750
4700		64.453125
4701		56.640625
4702		62.500000
4703		54.687500
4704		58.593750
4705		52.734375
4706		56.640625
4707		48.828125
4708		54.687500
4709		46.875000
4710		52.734375
4711		44.921875
4712		48.828125
4713		42.968750
4714		46.875000
4715		39.062500
4716		44.921875
4717		35.156250
4718		42.968750
4719		35.156250
4720		39.062500
4721		31.250000
4722		37.109375
4723		27.343750
4724		35.156250
4725		25.390625
4726		31.250000
4727		23.437500
4728		29.296875
4729		19.531250
4730		25.390625
4731		17.578125
4732		23.437500
4733		13.671875
4734		21.484375
4735		11.718750
4736		17.578125
4737		7.812500
4738		13.671875
4739		3.906250
4740		9.765625
4741		1.953125
4742		7.812500
4743		0.000000
4744		3.906250
4745		-3.906250
4746		1.953125
4747		-7.812500
4748		-1.953125
4749		-11.718750
4750		-3.906250
4751		-13.671875
4752		-7.812500
4753		-17.578125
4754		-11.718750
4755		-19.531250
4756		-13.671875
4757		-23.437500
4758		-15.625000
4759		-25.390625
4760		-19.531250
4761		-29.296875
4762		-23.437500
4763		-31.250000
4764		-27.343750
4765		-35.156250
4766		-29.296875
4767		-39.062500
4768		-33.203125
4769		-41.015625
4770		-35.156250
4771		-44.921875
4772		-39.062500
4773		-48.828125
4774		-42.968750
4775		-50.781250
4776		-44.921875
4777		-54.687500
4778		-48.828125
4779		-56.640625
4780		-52.734375
4781		-60.546875
4782		-54.687500
4783		-64.453125
4784		-58.593750
4785		-66.406250
4786		-60.546875
4787		-70.312500
4788		-64.453125
4789		-72.265625
4790		-66.406250
4791		-76.171875
4792		-70.312500
4793		-78.125000
4794		-72.265625
4795		-82.031250
4796		-76.171875
4797		-83.984375
4798		-78.125000
4799		-87.890625
4800		-82.031250
4801		-89.843750
4802		-83.984375
4803		-91.796875
4804		-85.937500
4805		-93.750000
4806		-89.843750
4807		-97.656250
4808		-91.796875
4809		-99.609375
4810		-93.750000
4811		-101.562500
4812		-97.656250
4813		-103.515625
4814		-99.609375
4815		-105.468750
4816		-101.562500
4817		-109.375000
4818		-103.515625
4819		-111.328125
4820		-105.468750
4821		-113.281250
4822		-107.421875
4823		-115.234375
4824		-111.328125
4825		-117.187500
4826		-111.328125
4827		-119.140625
4828		-115.234375
4829		-121.093750
4830		-115.234375
4831		-123.046875
4832		-117.187500
4833		-125.000000
4834		-119.140625
4835		-126.953125
4836		-121.093750
4837		-126.953125
4838		-123.046875
4839		-128.906250
4840		-123.046875
4841		-128.906250
4842		-125.000000
4843		-130.859375
4844		-126.953125
4845		-132.812500
4846		-126.953125
4847		-132.812500
4848		-128.906250
4849		-134.765625
4850		-130.859375
4851		-134.765625
4852		-130.859375
4853		-134.765625
4854		-130.859375
4855		-136.718750
4856		-132.812500
4857		-136.718750
4858		-132.812500
4859		-136.718750
4860		-132.812500
4861		-138.671875
4862		-134.765625
4863		-138.671875
4864		-134.765625
4865		-138.671875
4866		-134.765625
4867		-138.671875
4868		-134.765625
4869		-138.671875
4870		-134.765625
4871		-138.671875
4872		-134.765625
4873		-138.671875
4874		-134.765625
4875		-138.671875
4876		-134.765625
4877		-136.718750
4878		-134.765625
4879		-136.718750
4880		-132.812500
4881		-136.718750
4882		-132.812500
4883		-136.718750
4884		-132.812500
4885		-134.765625
4886		-130.859375
4887		-134.765625
4888		-130.859375
4889		-132.812500
4890		-130.859375
4891		-132.812500
4892		-128.906250
4893		-130.859375
4894		-126.953125
4895		-130.859375
4896		-126.953125
4897		-128.906250
4898		-125.000000
4899		-126.953125
4900		-123.046875
4901		-126.953125
4902		-123.046875
4903		-125.000000
4904		-121.093750
4905		-123.046875
4906		-119.140625
4907		-121.093750
4908		-117.187500
4909		-121.093750
4910		-115.234375
4911		-117.187500
4912		-113.281250
4913		-115.234375
4914		-111.328125
4915		-115.234375
4916		-109.375000
4917		-111.328125
4918		-107.421875
4919		-109.375000
4920		-105.468750
4921		-107.421875
4922		-103.515625
4923		-105.468750
4924		-99.609375
4925		-103.515625
4926		-97.656250
4927		-101.562500
4928		-95.703125
4929		-97.656250
4930		-93.750000
4931		-95.703125
4932		-91.796875
4933		-93.750000
4934		-87.890625
4935		-89.843750
4936		-85.937500
4937		-87.890625
4938		-82.031250
4939		-85.937500
4940		-80.078125
4941		-82.031250
4942		-76.171875
4943		-80.078125
4944		-74.218750
4945		-76.171875
4946		-72.265625
4947		-74.218750
4948		-68.359375
4949		-70.312500
4950		-66.406250
4951		-68.359375
4952		-62.500000
4953		-64.453125
4954		-58.593750
4955		-62.500000
4956		-56.640625
4957		-58.593750
4958		-52.734375
4959		-54.687500
4960		-50.781250
4961		-52.734375
4962		-46.875000
4963		-48.828125
4964		-42.968750
4965		-46.875000
4966		-41.015625
4967		-42.968750
4968		-37.109375
4969		-39.062500
4970		-35.156250
4971		-37.109375
4972		-31.250000
4973		-33.203125
4974		-27.343750
4975		-29.296875
4976		-25.390625
4977		-27.343750
4978		-21.484375
4979		-23.437500
4980		-17.578125
4981		-21.484375
4982		-15.625000
4983		-17.578125
4984		-11.718750
4985		-13.671875
4986		-9.765625
4987		-11.718750
4988		-5.859375
4989		-7.812500
4990		-1.953125
4991		-5.859375
4992		0.000000
4993		-1.953125
4994		3.906250
4995		1.953125
4996		5.859375
4997		3.906250
4998		9.765625
4999		7.812500
5000		11.718750
5001		9.765625
5002		15.625000
5003		13.671875
5004		19.531250
5005		15.625000
5006		21.484375
5007		19.531250
5008		23.437500
5009		21.484375
5010		27.343750
5011		25.390625
5012		29.296875
5013		27.343750
5014		33.203125
5015		29.296875
5016		35.156250
5017		33.203125
5018		37.109375
5019		35.156250
5020		41.015625
5021		39.062500
5022		42.968750
5023		41.015625
5024		46.875000
5025		42.968750
5026		48.828125
5027		44.921875
5028		50.781250
5029		48.828125
5030		52.734375
5031		50.781250
5032		54.687500
5033		52.734375
5034		58.593750
5035		54.687500
5036		60.546875
5037		56.640625
5038		62.500000
5039		60.546875
5040		64.453125
5041		62.500000
5042		66.406250
5043		64.453125
5044		68.359375
5045		66.406250
5046		70.312500
5047		68.359375
5048		72.265625
5049		70.312500
5050		74.218750
5051		70.312500
5052		76.171875
5053		70.312500
5054		78.125000
5055		74.218750
5056		80.078125
5057		76.171875
5058		80.078125
5059		78.125000
5060		82.031250
5061		80.078125
5062		83.984375
5063		80.078125
5064		85.937500
5065		82.031250
5066		85.937500
5067		83.984375
5068		87.890625
5069		83.984375
5070		89.843750
5071		85.937500
5072		89.843750
5073		85.937500
5074		91.796875
5075		87.890625
5076		91.796875
5077		89.843750
5078		91.796875
5079		89.843750
5080		93.750000
5081		91.796875
5082		93.750000
5083		91.796875
5084		95.703125
5085		91.796875
5086		97.656250
5087		91.796875
5088		97.656250
5089		93.750000
5090		97.656250
5091		93.750000
5092		97.656250
5093		95.703125
5094		97.656250
5095		95.703125
5096		97.656250
5097		95.703125
5098		99.609375
5099		95.703125
5100		99.609375
5101		95.703125
5102		99.609375
5103		93.750000
5104		99.609375
5105		93.750000
5106		101.562500
5107		95.703125
5108		99.609375
5109		95.703125
5110		99.609375
5111		95.703125
5112		99.609375
5113		95.703125
5114		99.609375
5115		95.703125
5116		97.656250
5117		95.703125
5118		97.656250
5119		93.750000
5120		97.656250
5121		93.750000
5122		97.656250
5123		93.750000
5124		95.703125
5125		91.796875
5126		95.703125
5127		91.796875
5128		95.703125
5129		91.796875
5130		95.703125
5131		89.843750
5132		93.750000
5133		89.843750
5134		93.750000
5135		87.890625
5136		91.796875
5137		85.937500
5138		93.750000
5139		85.937500
5140		89.843750
5141		85.937500
5142		87.890625
5143		83.984375
5144		87.890625
5145		82.031250
5146		85.937500
5147		80.078125
5148		83.984375
5149		80.078125
5150		83.984375
5151		78.125000
5152		82.031250
5153		76.171875
5154		82.031250
5155		74.218750
5156		80.078125
5157		72.265625
5158		76.171875
5159		70.312500
5160		74.218750
5161		68.359375
5162		72.265625
5163		66.406250
5164		70.312500
5165		64.453125
5166		70.312500
5167		62.500000
5168		68.359375
5169		58.593750
5170		66.406250
5171		56.640625
5172		64.453125
5173		56.640625
5174		62.500000
5175		54.687500
5176		58.593750
5177		52.734375
5178		56.640625
5179		48.828125
5180		54.687500
5181		46.875000
5182		52.734375
5183		44.921875
5184		48.828125
5185		41.015625
5186		46.875000
5187		37.109375
5188		44.921875
5189		37.109375
5190		42.968750
5191		33.203125
5192		39.062500
5193		31.250000
5194		35.156250
5195		29.296875
5196		33.203125
5197		25.390625
5198		31.250000
5199		23.437500
5200		27.343750
5201		19.531250
5202		25.390625
5203		15.625000
5204		21.484375
5205		11.718750
5206		19.531250
5207		9.765625
5208		15.625000
5209		7.812500
5210		11.718750
5211		3.906250
5212		9.765625
5213		1.953125
5214		5.859375
5215		-1.953125
5216		3.906250
5217		-3.906250
5218		0.000000
5219		-7.812500
5220		-1.953125
5221		-9.765625
5222		-5.859375
5223		-13.671875
5224		-9.765625
5225		-17.578125
5226		-11.718750
5227		-19.531250
5228		-15.625000
5229		-23.437500
5230		-17.578125
5231		-27.343750
5232		-21.484375
5233		-29.296875
5234		-25.390625
5235		-33.203125
5236		-27.343750
5237		-37.109375
5238		-31.250000
5239		-39.062500
5240		-33.203125
5241		-42.968750
5242		-37.109375
5243		-44.921875
5244		-41.015625
5245		-48.828125
5246		-42.968750
5247		-52.734375
5248		-46.875000
5249		-54.687500
5250		-48.828125
5251		-58.593750
5252		-52.734375
5253		-62.500000
5254		-56.640625
5255		-64.453125
5256		-58.593750
5257		-66.406250
5258		-62.500000
5259		-70.312500
5260		-64.453125
5261		-72.265625
5262		-68.359375
5263		-76.171875
5264		-70.312500
5265		-78.125000
5266		-74.218750
5267		-82.031250
5268		-76.171875
5269		-83.984375
5270		-80.078125
5271		-87.890625
5272		-82.031250
5273		-89.843750
5274		-83.984375
5275		-91.796875
5276		-87.890625
5277		-95.703125
5278		-89.843750
5279		-97.656250
5280		-91.796875
5281		-99.609375
5282		-93.750000
5283		-101.562500
5284		-97.656250
5285		-105.468750
5286		-99.609375
5287		-107.421875
5288		-101.562500
5289		-109.375000
5290		-103.515625
5291		-111.328125
5292		-107.421875
5293		-113.281250
5294		-109.375000
5295		-115.234375
5296		-111.328125
5297		-117.187500
5298		-113.281250
5299		-119.140625
5300		-115.234375
5301		-121.093750
5302		-117.187500
5303		-123.046875
5304		-117.187500
5305		-123.046875
5306		-119.140625
5307		-125.000000
5308		-121.093750
5309		-126.953125
5310		-123.046875
5311		-128.906250
5312		-125.000000
5313		-128.906250
5314		-125.000000
5315		-130.859375
5316		-126.953125
5317		-132.812500
5318		-128.906250
5319		-132.812500
5320		-128.906250
5321		-134.765625
5322		-130.859375
5323		-134.765625
5324		-130.859375
5325		-134.765625
5326		-130.859375
5327		-136.718750
5328		-132.812500
5329		-136.718750
5330		-132.812500
5331		-136.718750
5332		-132.812500
5333		-136.718750
5334		-134.765625
5335		-136.718750
5336		-134.765625
5337		-138.671875
5338		-134.765625
5339		-138.671875
5340		-134.765625
5341		-138.671875
5342		-134.765625
5343		-138.671875
5344		-134.765625
5345		-136.718750
5346		-134.765625
5347		-136.718750
5348		-134.765625
5349		-136.718750
5350		-132.812500
5351		-136.718750
5352		-132.812500
5353		-136.718750
5354		-132.812500
5355		-134.765625
5356		-132.812500
5357		-134.765625
5358		-130.859375
5359		-134.765625
5360		-130.859375
5361		-132.812500
5362		-128.906250
5363		-130.859375
5364		-126.953125
5365		-130.859375
5366		-126.953125
5367		-128.906250
5368		-125.000000
5369		-128.906250
5370		-125.000000
5371		-126.953125
5372		-123.046875
5373		-125.000000
5374		-121.093750
5375		-123.046875
5376		-119.140625
5377		-123.046875
5378		-119.140625
5379		-121.093750
5380		-115.234375
5381		-119.140625
5382		-115.234375
5383		-117.187500
5384		-113.281250
5385		-115.234375
5386		-111.328125
5387		-113.281250
5388		-109.375000
5389		-111.328125
5390		-107.421875
5391		-109.375000
5392		-103.515625
5393		-107.421875
5394		-101.562500
5395		-103.515625
5396		-99.609375
5397		-101.562500
5398		-97.656250
5399		-99.609375
5400		-93.750000
5401		-97.656250
5402		-91.796875
5403		-95.703125
5404		-89.843750
5405		-91.796875
5406		-85.937500
5407		-89.843750
5408		-83.984375
5409		-85.937500
5410		-82.031250
5411		-83.984375
5412		-78.125000
5413		-82.031250
5414		-76.171875
5415		-78.125000
5416		-72.265625
5417		-76.171875
5418		-70.312500
5419		-72.265625
5420		-66.406250
5421		-68.359375
5422		-64.453125
5423		-66.406250
5424		-60.546875
5425		-62.500000
5426		-58.593750
5427		-60.546875
5428		-54.687500
5429		-56.640625
5430		-50.781250
5431		-54.687500
5432		-48.828125
5433		-50.781250
5434		-44.921875
5435		-46.875000
5436		-42.968750
5437		-44.921875
5438		-39.062500
5439		-41.015625
5440		-35.156250
5441		-39.062500
5442		-33.203125
5443		-35.156250
5444		-29.296875
5445		-31.250000
5446		-27.343750
5447		-29.296875
5448		-23.437500
5449		-25.390625
5450		-19.531250
5451		-21.484375
5452		-17.578125
5453		-19.531250
5454		-13.671875
5455		-15.625000
5456		-9.765625
5457		-11.718750
5458		-7.812500
5459		-9.765625
5460		-3.906250
5461		-5.859375
5462		-1.953125
5463		-3.906250
5464		1.953125
5465		0.000000
5466		5.859375
5467		1.953125
5468		7.812500
5469		5.859375
5470		11.718750
5471		9.765625
5472		13.671875
5473		11.718750
5474		17.578125
5475		15.625000
5476		19.531250
5477		17.578125
5478		23.437500
5479		21.484375
5480		25.390625
5481		23.437500
5482		27.343750
5483		25.390625
5484		31.250000
5485		29.296875
5486		33.203125
5487		31.250000
5488		37.109375
5489		35.156250
5490		39.062500
5491		37.109375
5492		42.968750
5493		39.062500
5494		44.921875
5495		42.968750
5496		46.875000
5497		44.921875
5498		48.828125
5499		46.875000
5500		50.781250
5501		48.828125
5502		54.687500
5503		52.734375
5504		56.640625
5505		54.687500
5506		58.593750
5507		56.640625
5508		60.546875
5509		58.593750
5510		64.453125
5511		60.546875
5512		64.453125
5513		62.500000
5514		68.359375
5515		64.453125
5516		70.312500
5517		66.406250
5518		72.265625
5519		68.359375
5520		72.265625
5521		70.312500
5522		74.218750
5523		72.265625
5524		76.171875
5525		74.218750
5526		78.125000
5527		76.171875
5528		80.078125
5529		78.125000
5530		82.031250
5531		80.078125
5532		83.984375
5533		80.078125
5534		83.984375
5535		82.031250
5536		85.937500
5537		83.984375
5538		87.890625
5539		83.984375
5540		87.890625
5541		85.937500
5542		89.843750
5543		87.890625
5544		91.796875
5545		87.890625
5546		91.796875
5547		89.843750
5548		93.750000
5549		89.843750
5550		93.750000
5551		91.796875
5552		95.703125
5553		91.796875
5554		95.703125
5555		93.750000
5556		95.703125
5557		93.750000
5558		97.656250
5559		93.750000
5560		97.656250
5561		95.703125
5562		97.656250
5563		95.703125
5564		99.609375
5565		95.703125
5566		99.609375
5567		95.703125
5568		99.609375
5569		97.656250
5570		99.609375
5571		95.703125
5572		99.609375
5573		97.656250
5574		99.609375
5575		97.656250
5576		99.609375
5577		97.656250
5578		99.609375
5579		97.656250
5580		99.609375
5581		97.656250
5582		99.609375
5583		95.703125
5584		99.609375
5585		95.703125
5586		99.609375
5587		95.703125
5588		99.609375
5589		95.703125
5590		99.609375
5591		95.703125
5592		97.656250
5593		93.750000
5594		97.656250
5595		93.750000
5596		97.656250
5597		93.750000
5598		97.656250
5599		91.796875
5600		95.703125
5601		91.796875
5602		95.703125
5603		91.796875
5604		93.750000
5605		89.843750
5606		93.750000
5607		87.890625
5608		93.750000
5609		87.890625
5610		91.796875
5611		85.937500
5612		89.843750
5613		83.984375
5614		89.843750
5615		83.984375
5616		87.890625
5617		82.031250
5618		85.937500
5619		82.031250
5620		85.937500
5621		80.078125
5622		83.984375
5623		78.125000
5624		82.031250
5625		76.171875
5626		80.078125
5627		74.218750
5628		80.078125
5629		72.265625
5630		78.125000
5631		72.265625
5632		76.171875
5633		70.312500
5634		74.218750
5635		68.359375
5636		72.265625
5637		64.453125
5638		70.312500
5639		64.453125
5640		68.359375
5641		60.546875
5642		66.406250
5643		58.593750
5644		64.453125
5645		56.640625
5646		62.500000
5647		54.687500
5648		58.593750
5649		52.734375
5650		56.640625
5651		48.828125
5652		54.687500
5653		46.875000
5654		52.734375
5655		44.921875
5656		50.781250
5657		41.015625
5658		46.875000
5659		39.062500
5660		44.921875
5661		37.109375
5662		41.015625
5663		33.203125
5664		39.062500
5665		31.250000
5666		37.109375
5667		29.296875
5668		33.203125
5669		25.390625
5670		31.250000
5671		23.437500
5672		27.343750
5673		19.531250
5674		25.390625
5675		17.578125
5676		21.484375
5677		13.671875
5678		19.531250
5679		11.718750
5680		15.625000
5681		7.812500
5682		13.671875
5683		3.906250
5684		11.718750
5685		1.953125
5686		7.812500
5687		-1.953125
5688		3.906250
5689		-3.906250
5690		1.953125
5691		-7.812500
5692		-1.953125
5693		-11.718750
5694		-5.859375
5695		-13.671875
5696		-7.812500
5697		-17.578125
5698		-11.718750
5699		-19.531250
5700		-13.671875
5701		-23.437500
5702		-17.578125
5703		-25.390625
5704		-21.484375
5705		-29.296875
5706		-25.390625
5707		-33.203125
5708		-27.343750
5709		-35.156250
5710		-29.296875
5711		-39.062500
5712		-33.203125
5713		-42.968750
5714		-37.109375
5715		-44.921875
5716		-41.015625
5717		-48.828125
5718		-42.968750
5719		-52.734375
5720		-46.875000
5721		-54.687500
5722		-48.828125
5723		-56.640625
5724		-52.734375
5725		-60.546875
5726		-54.687500
5727		-64.453125
5728		-58.593750
5729		-66.406250
5730		-60.546875
5731		-70.312500
5732		-64.453125
5733		-72.265625
5734		-66.406250
5735		-76.171875
5736		-70.312500
5737		-78.125000
5738		-72.265625
5739		-80.078125
5740		-76.171875
5741		-83.984375
5742		-78.125000
5743		-85.937500
5744		-82.031250
5745		-89.843750
5746		-83.984375
5747		-91.796875
5748		-87.890625
5749		-93.750000
5750		-89.843750
5751		-95.703125
5752		-91.796875
5753		-99.609375
5754		-93.750000
5755		-101.562500
5756		-97.656250
5757		-103.515625
5758		-99.609375
5759		-105.468750
5760		-101.562500
5761		-107.421875
5762		-103.515625
5763		-109.375000
5764		-105.468750
5765		-111.328125
5766		-107.421875
5767		-115.234375
5768		-109.375000
5769		-115.234375
5770		-111.328125
5771		-117.187500
5772		-113.281250
5773		-119.140625
5774		-115.234375
5775		-121.093750
5776		-117.187500
5777		-123.046875
5778		-119.140625
5779		-125.000000
5780		-121.093750
5781		-125.000000
5782		-121.093750
5783		-126.953125
5784		-123.046875
5785		-128.906250
5786		-125.000000
5787		-128.906250
5788		-125.000000
5789		-130.859375
5790		-126.953125
5791		-130.859375
5792		-126.953125
5793		-132.812500
5794		-128.906250
5795		-132.812500
5796		-128.906250
5797		-134.765625
5798		-130.859375
5799		-134.765625
5800		-130.859375
5801		-134.765625
5802		-130.859375
5803		-134.765625
5804		-132.812500
5805		-134.765625
5806		-132.812500
5807		-136.718750
5808		-132.812500
5809		-136.718750
5810		-132.812500
5811		-136.718750
5812		-132.812500
5813		-136.718750
5814		-132.812500
5815		-136.718750
5816		-132.812500
5817		-134.765625
5818		-132.812500
5819		-134.765625
5820		-132.812500
5821		-134.765625
5822		-130.859375
5823		-134.765625
5824		-130.859375
5825		-134.765625
5826		-130.859375
5827		-132.812500
5828		-128.906250
5829		-132.812500
5830		-128.906250
5831		-130.859375
5832		-126.953125
5833		-130.859375
5834		-126.953125
5835		-128.906250
5836		-125.000000
5837		-128.906250
5838		-125.000000
5839		-126.953125
5840		-123.046875
5841		-125.000000
5842		-121.093750
5843		-125.000000
5844		-119.140625
5845		-123.046875
5846		-119.140625
5847		-121.093750
5848		-117.187500
5849		-119.140625
5850		-115.234375
5851		-117.187500
5852		-113.281250
5853		-115.234375
5854		-111.328125
5855		-113.281250
5856		-109.375000
5857		-113.281250
5858		-107.421875
5859		-109.375000
5860		-105.468750
5861		-107.421875
5862		-103.515625
5863		-105.468750
5864		-101.562500
5865		-103.515625
5866		-99.609375
5867		-101.562500
5868		-95.703125
5869		-99.609375
5870		-93.750000
5871		-95.703125
5872		-91.796875
5873		-93.750000
5874		-89.843750
5875		-91.796875
5876		-85.937500
5877		-87.890625
5878		-83.984375
5879		-85.937500
5880		-80.078125
5881		-83.984375
5882		-78.125000
5883		-80.078125
5884		-76.171875
5885		-78.125000
5886		-72.265625
5887		-76.171875
5888		-70.312500
5889		-72.265625
5890		-66.406250
5891		-68.359375
5892		-64.453125
5893		-66.406250
5894		-60.546875
5895		-62.500000
5896		-56.640625
5897		-60.546875
5898		-54.687500
5899		-56.640625
5900		-50.781250
5901		-54.687500
5902		-48.828125
5903		-50.781250
5904		-44.921875
5905		-46.875000
5906		-42.968750
5907		-44.921875
5908		-39.062500
5909		-41.015625
5910		-37.109375
5911		-39.062500
5912		-33.203125
5913		-35.156250
5914		-29.296875
5915		-31.250000
5916		-27.343750
5917		-29.296875
5918		-23.437500
5919		-25.390625
5920		-19.531250
5921		-21.484375
5922		-17.578125
5923		-19.531250
5924		-13.671875
5925		-15.625000
5926		-9.765625
5927		-13.671875
5928		-7.812500
5929		-9.765625
5930		-3.906250
5931		-5.859375
5932		-1.953125
5933		-3.906250
5934		1.953125
5935		0.000000
5936		3.906250
5937		1.953125
5938		7.812500
5939		5.859375
5940		11.718750
5941		7.812500
5942		13.671875
5943		11.718750
5944		17.578125
5945		13.671875
5946		19.531250
5947		17.578125
5948		23.437500
5949		21.484375
5950		25.390625
5951		23.437500
5952		27.343750
5953		25.390625
5954		31.250000
5955		29.296875
5956		33.203125
5957		31.250000
5958		37.109375
5959		35.156250
5960		39.062500
5961		37.109375
5962		42.968750
5963		39.062500
5964		44.921875
5965		42.968750
5966		46.875000
5967		44.921875
5968		48.828125
5969		46.875000
5970		52.734375
5971		48.828125
5972		54.687500
5973		52.734375
5974		56.640625
5975		54.687500
5976		58.593750
5977		56.640625
5978		60.546875
5979		58.593750
5980		64.453125
5981		60.546875
5982		66.406250
5983		62.500000
5984		68.359375
5985		64.453125
5986		70.312500
5987		66.406250
5988		72.265625
5989		68.359375
5990		74.218750
5991		72.265625
5992		76.171875
5993		72.265625
5994		78.125000
5995		74.218750
5996		78.125000
5997		76.171875
5998		80.078125
5999		78.125000
6000		82.031250
6001		80.078125
6002		83.984375
6003		80.078125
6004		83.984375
6005		82.031250
6006		85.937500
6007		83.984375
6008		87.890625
6009		85.937500
6010		89.843750
6011		85.937500
6012		89.843750
6013		87.890625
6014		91.796875
6015		87.890625
6016		91.796875
6017		89.843750
6018		93.750000
6019		91.796875
6020		93.750000
6021		91.796875
6022		95.703125
6023		91.796875
6024		95.703125
6025		93.750000
6026		97.656250
6027		93.750000
6028		97.656250
6029		95.703125
6030		97.656250
6031		95.703125
6032		99.609375
6033		95.703125
6034		99.609375
6035		95.703125
6036		99.609375
6037		97.656250
6038		99.609375
6039		97.656250
6040		99.609375
6041		97.656250
6042		101.562500
6043		97.656250
6044		101.562500
6045		97.656250
6046		101.562500
6047		97.656250
6048		101.562500
6049		97.656250
6050		101.562500
6051		97.656250
6052		101.562500
6053		97.656250
6054		99.609375
6055		95.703125
6056		101.562500
6057		95.703125
6058		99.609375
6059		95.703125
6060		99.609375
6061		95.703125
6062		99.609375
6063		95.703125
6064		99.609375
6065		93.750000
6066		99.609375
6067		93.750000
6068		97.656250
6069		93.750000
6070		97.656250
6071		93.750000
6072		95.703125
6073		91.796875
6074		95.703125
6075		91.796875
6076		95.703125
6077		89.843750
6078		93.750000
6079		87.890625
6080		93.750000
6081		85.937500
6082		93.750000
6083		85.937500
6084		91.796875
6085		83.984375
6086		89.843750
6087		83.984375
6088		89.843750
6089		82.031250
6090		87.890625
6091		82.031250
6092		85.937500
6093		80.078125
6094		83.984375
6095		78.125000
6096		82.031250
6097		76.171875
6098		80.078125
6099		74.218750
6100		80.078125
6101		72.265625
6102		78.125000
6103		70.312500
6104		76.171875
6105		68.359375
6106		74.218750
6107		66.406250
6108		74.218750
6109		64.453125
6110		70.312500
6111		62.500000
6112		68.359375
6113		60.546875
6114		66.406250
6115		58.593750
6116		64.453125
6117		56.640625
6118		60.546875
6119		54.687500
6120		58.593750
6121		52.734375
6122		56.640625
6123		48.828125
6124		54.687500
6125		46.875000
6126		52.734375
6127		44.921875
6128		48.828125
6129		41.015625
6130		46.875000
6131		37.109375
6132		46.875000
6133		37.109375
6134		42.968750
6135		33.203125
6136		39.062500
6137		31.250000
6138		37.109375
6139		25.390625
6140		33.203125
6141		25.390625
6142		31.250000
6143		21.484375
6144		27.343750
6145		17.578125
6146		25.390625
6147		15.625000
6148		23.437500
6149		13.671875
6150		19.531250
6151		9.765625
6152		15.625000
6153		5.859375
6154		13.671875
6155		3.906250
6156		11.718750
6157		0.000000
6158		7.812500
6159		-1.953125
6160		3.906250
6161		-5.859375
6162		0.000000
6163		-9.765625
6164		-1.953125
6165		-11.718750
6166		-3.906250
6167		-13.671875
6168		-7.812500
6169		-17.578125
6170		-11.718750
6171		-21.484375
6172		-11.718750
6173		-25.390625
6174		-17.578125
6175		-27.343750
6176		-21.484375
6177		-29.296875
6178		-23.437500
6179		-35.156250
6180		-27.343750
6181		-37.109375
6182		-27.343750
6183		-39.062500
6184		-33.203125
6185		-42.968750
6186		-37.109375
6187		-48.828125
6188		-39.062500
6189		-48.828125
6190		-42.968750
6191		-52.734375
6192		-42.968750
6193		-54.687500
6194		-50.781250
6195		-58.593750
6196		-52.734375
6197		-64.453125
6198		-54.687500
6199		-64.453125
6200		-58.593750
6201		-66.406250
6202		-62.500000
6203		-72.265625
6204		-64.453125
6205		-74.218750
6206		-66.406250
6207		-76.171875
6208		-68.359375
6209		-78.125000
6210		-72.265625
6211		-82.031250
6212		-76.171875
6213		-83.984375
6214		-78.125000
6215		-87.890625
6216		-78.125000
6217		-87.890625
6218		-83.984375
6219		-91.796875
6220		-85.937500
6221		-95.703125
6222		-85.937500
6223		-99.609375
6224		-89.843750
6225		-99.609375
6226		-93.750000
6227		-101.562500
6228		-95.703125
6229		-103.515625
6230		-99.609375
6231		-107.421875
6232		-99.609375
6233		-109.375000
6234		-101.562500
6235		-109.375000
6236		-105.468750
6237		-115.234375
6238		-105.468750
6239		-115.234375
6240		-107.421875
6241		-119.140625
6242		-109.375000
6243		-117.187500
6244		-113.281250
6245		-119.140625
6246		-115.234375
6247		-123.046875
6248		-115.234375
6249		-123.046875
6250		-117.187500
6251		-125.000000
6252		-119.140625
6253		-125.000000
6254		-121.093750
6255		-128.906250
6256		-119.140625
6257		-128.906250
6258		-123.046875
6259		-128.906250
6260		-125.000000
6261		-130.859375
6262		-126.953125
6263		-132.812500
6264		-126.953125
6265		-134.765625
6266		-125.000000
6267		-132.812500
6268		-128.906250
6269		-132.812500
6270		-128.906250
6271		-136.718750
6272		-126.953125
6273		-136.718750
6274		-128.906250
6275		-136.718750
6276		-128.906250
6277		-134.765625
6278		-132.812500
6279		-136.718750
6280		-130.859375
6281		-138.671875
6282		-128.906250
6283		-136.718750
6284		-130.859375
6285		-134.765625
6286		-132.812500
6287		-136.718750
6288		-130.859375
6289		-138.671875
6290		-128.906250
6291		-136.718750
6292		-128.906250
6293		-134.765625
6294		-130.859375
6295		-134.765625
6296		-130.859375
6297		-134.765625
6298		-128.906250
6299		-134.765625
6300		-126.953125
6301		-132.812500
6302		-128.906250
6303		-130.859375
6304		-126.953125
6305		-132.812500
6306		-123.046875
6307		-130.859375
6308		-123.046875
6309		-128.906250
6310		-125.000000
6311		-126.953125
6312		-123.046875
6313		-125.000000
6314		-119.140625
6315		-125.000000
6316		-119.140625
6317		-123.046875
6318		-117.187500
6319		-121.093750
6320		-117.187500
6321		-121.093750
6322		-111.328125
6323		-121.093750
6324		-111.328125
6325		-117.187500
6326		-109.375000
6327		-113.281250
6328		-109.375000
6329		-111.328125
6330		-107.421875
6331		-111.328125
6332		-105.468750
6333		-109.375000
6334		-101.562500
6335		-105.468750
6336		-101.562500
6337		-103.515625
6338		-97.656250
6339		-101.562500
6340		-95.703125
6341		-99.609375
6342		-89.843750
6343		-95.703125
6344		-89.843750
6345		-93.750000
6346		-87.890625
6347		-89.843750
6348		-85.937500
6349		-89.843750
6350		-80.078125
6351		-87.890625
6352		-80.078125
6353		-82.031250
6354		-78.125000
6355		-80.078125
6356		-74.218750
6357		-76.171875
6358		-72.265625
6359		-74.218750
6360		-68.359375
6361		-70.312500
6362		-66.406250
6363		-68.359375
6364		-62.500000
6365		-66.406250
6366		-60.546875
6367		-62.500000
6368		-56.640625
6369		-58.593750
6370		-54.687500
6371		-56.640625
6372		-50.781250
6373		-52.734375
6374		-46.875000
6375		-50.781250
6376		-44.921875
6377		-46.875000
6378		-41.015625
6379		-44.921875
6380		-39.062500
6381		-41.015625
6382		-35.156250
6383		-37.109375
6384		-31.250000
6385		-35.156250
6386		-29.296875
6387		-31.250000
6388		-25.390625
6389		-27.343750
6390		-23.437500
6391		-25.390625
6392		-19.531250
6393		-21.484375
6394		-15.625000
6395		-17.578125
6396		-13.671875
6397		-15.625000
6398		-9.765625
6399		-11.718750
6400		-5.859375
6401		-9.765625
6402		-3.906250
6403		-5.859375
6404		0.000000
6405		-1.953125
6406		1.953125
6407		0.000000
6408		5.859375
6409		3.906250
6410		7.812500
6411		5.859375
6412		11.718750
6413		9.765625
6414		15.625000
6415		11.718750
6416		17.578125
6417		15.625000
6418		21.484375
6419		17.578125
6420		25.390625
6421		19.531250
6422		27.343750
6423		23.437500
6424		31.250000
6425		25.390625
6426		33.203125
6427		29.296875
6428		35.156250
6429		31.250000
6430		37.109375
6431		35.156250
6432		41.015625
6433		37.109375
6434		44.921875
6435		39.062500
6436		44.921875
6437		41.015625
6438		48.828125
6439		44.921875
6440		50.781250
6441		46.875000
6442		52.734375
6443		48.828125
6444		54.687500
6445		52.734375
6446		56.640625
6447		54.687500
6448		60.546875
6449		56.640625
6450		62.500000
6451		58.593750
6452		66.406250
6453		60.546875
6454		66.406250
6455		62.500000
6456		68.359375
6457		66.406250
6458		72.265625
6459		66.406250
6460		72.265625
6461		70.312500
6462		74.218750
6463		72.265625
6464		76.171875
6465		72.265625
6466		80.078125
6467		74.218750
6468		80.078125
6469		76.171875
6470		82.031250
6471		76.171875
6472		83.984375
6473		78.125000
6474		83.984375
6475		80.078125
6476		85.937500
6477		82.031250
6478		85.937500
6479		83.984375
6480		87.890625
6481		85.937500
6482		89.843750
6483		85.937500
6484		91.796875
6485		87.890625
6486		91.796875
6487		87.890625
6488		93.750000
6489		89.843750
6490		95.703125
6491		89.843750
6492		95.703125
6493		91.796875
6494		95.703125
6495		93.750000
6496		97.656250
6497		93.750000
6498		97.656250
6499		93.750000
6500		99.609375
6501		95.703125
6502		99.609375
6503		93.750000
6504		101.562500
6505		95.703125
6506		99.609375
6507		97.656250
6508		101.562500
6509		97.656250
6510		101.562500
6511		97.656250
6512		101.562500
6513		97.656250
6514		101.562500
6515		97.656250
6516		101.562500
6517		97.656250
6518		101.562500
6519		97.656250
6520		101.562500
6521		95.703125
6522		103.515625
6523		97.656250
6524		101.562500
6525		97.656250
6526		101.562500
6527		97.656250
6528		103.515625
6529		97.656250
6530		101.562500
6531		97.656250
6532		101.562500
6533		97.656250
6534		99.609375
6535		95.703125
6536		99.609375
6537		93.750000
6538		99.609375
6539		95.703125
6540		99.609375
6541		93.750000
6542		97.656250
6543		93.750000
6544		97.656250
6545		93.750000
6546		95.703125
6547		91.796875
6548		95.703125
6549		89.843750
6550		95.703125
6551		89.843750
6552		93.750000
6553		89.843750
6554		91.796875
6555		85.937500
6556		93.750000
6557		85.937500
6558		89.843750
6559		85.937500
6560		89.843750
6561		83.984375
6562		87.890625
6563		82.031250
6564		85.937500
6565		80.078125
6566		85.937500
6567		78.125000
6568		82.031250
6569		78.125000
6570		82.031250
6571		74.218750
6572		80.078125
6573		72.265625
6574		78.125000
6575		72.265625
6576		76.171875
6577		70.312500
6578		74.218750
6579		68.359375
6580		72.265625
6581		66.406250
6582		70.312500
6583		64.453125
6584		68.359375
6585		62.500000
6586		66.406250
6587		56.640625
6588		64.453125
6589		56.640625
6590		64.453125
6591		54.687500
6592		58.593750
6593		50.781250
6594		56.640625
6595		50.781250
6596		54.687500
6597		46.875000
6598		52.734375
6599		44.921875
6600		50.781250
6601		42.968750
6602		46.875000
6603		39.062500
6604		44.921875
6605		37.109375
6606		42.968750
6607		35.156250
6608		39.062500
6609		31.250000
6610		37.109375
6611		29.296875
6612		35.156250
6613		25.390625
6614		31.250000
6615		21.484375
6616		27.343750
6617		19.531250
6618		25.390625
6619		17.578125
6620		23.437500
6621		13.671875
6622		19.531250
6623		9.765625
6624		15.625000
6625		7.812500
6626		13.671875
6627		5.859375
6628		9.765625
6629		1.953125
6630		7.812500
6631		0.000000
6632		3.906250
6633		-5.859375
6634		1.953125
6635		-7.812500
6636		-1.953125
6637		-9.765625
6638		-5.859375
6639		-13.671875
6640		-7.812500
6641		-15.625000
6642		-11.718750
6643		-19.531250
6644		-13.671875
6645		-23.437500
6646		-17.578125
6647		-25.390625
6648		-21.484375
6649		-29.296875
6650		-23.437500
6651		-33.203125
6652		-27.343750
6653		-35.156250
6654		-29.296875
6655		-39.062500
6656		-33.203125
6657		-41.015625
6658		-35.156250
6659		-44.921875
6660		-39.062500
6661		-48.828125
6662		-42.968750
6663		-50.781250
6664		-44.921875
6665		-54.687500
6666		-48.828125
6667		-56.640625
6668		-50.781250
6669		-60.546875
6670		-54.687500
6671		-62.500000
6672		-58.593750
6673		-66.406250
6674		-60.546875
6675		-70.312500
6676		-62.500000
6677		-72.265625
6678		-66.406250
6679		-74.218750
6680		-70.312500
6681		-78.125000
6682		-72.265625
6683		-80.078125
6684		-76.171875
6685		-83.984375
6686		-78.125000
6687		-85.937500
6688		-80.078125
6689		-87.890625
6690		-83.984375
6691		-91.796875
6692		-85.937500
6693		-93.750000
6694		-87.890625
6695		-95.703125
6696		-89.843750
6697		-97.656250
6698		-93.750000
6699		-101.562500
6700		-95.703125
6701		-101.562500
6702		-97.656250
6703		-105.468750
6704		-99.609375
6705		-107.421875
6706		-103.515625
6707		-109.375000
6708		-105.468750
6709		-111.328125
6710		-105.468750
6711		-113.281250
6712		-109.375000
6713		-115.234375
6714		-109.375000
6715		-117.187500
6716		-113.281250
6717		-119.140625
6718		-113.281250
6719		-119.140625
6720		-115.234375
6721		-121.093750
6722		-117.187500
6723		-123.046875
6724		-119.140625
6725		-125.000000
6726		-119.140625
6727		-126.953125
6728		-121.093750
6729		-126.953125
6730		-123.046875
6731		-126.953125
6732		-123.046875
6733		-128.906250
6734		-125.000000
6735		-128.906250
6736		-126.953125
6737		-130.859375
6738		-126.953125
6739		-130.859375
6740		-126.953125
6741		-132.812500
6742		-128.906250
6743		-132.812500
6744		-128.906250
6745		-132.812500
6746		-128.906250
6747		-132.812500
6748		-128.906250
6749		-132.812500
6750		-130.859375
6751		-134.765625
6752		-130.859375
6753		-134.765625
6754		-130.859375
6755		-134.765625
6756		-130.859375
6757		-134.765625
6758		-128.906250
6759		-134.765625
6760		-130.859375
6761		-132.812500
6762		-128.906250
6763		-132.812500
6764		-128.906250
6765		-132.812500
6766		-128.906250
6767		-132.812500
6768		-128.906250
6769		-130.859375
6770		-128.906250
6771		-130.859375
6772		-126.953125
6773		-128.906250
6774		-125.000000
6775		-128.906250
6776		-125.000000
6777		-126.953125
6778		-125.000000
6779		-126.953125
6780		-123.046875
6781		-125.000000
6782		-121.093750
6783		-125.000000
6784		-121.093750
6785		-125.000000
6786		-119.140625
6787		-121.093750
6788		-117.187500
6789		-121.093750
6790		-117.187500
6791		-119.140625
6792		-115.234375
6793		-117.187500
6794		-113.281250
6795		-115.234375
6796		-109.375000
6797		-113.281250
6798		-109.375000
6799		-111.328125
6800		-107.421875
6801		-109.375000
6802		-105.468750
6803		-107.421875
6804		-103.515625
6805		-105.468750
6806		-99.609375
6807		-103.515625
6808		-97.656250
6809		-101.562500
6810		-95.703125
6811		-97.656250
6812		-93.750000
6813		-95.703125
6814		-91.796875
6815		-93.750000
6816		-87.890625
6817		-91.796875
6818		-85.937500
6819		-87.890625
6820		-83.984375
6821		-85.937500
6822		-80.078125
6823		-83.984375
6824		-78.125000
6825		-80.078125
6826		-74.218750
6827		-78.125000
6828		-72.265625
6829		-76.171875
6830		-70.312500
6831		-72.265625
6832		-66.406250
6833		-68.359375
6834		-64.453125
6835		-66.406250
6836		-60.546875
6837		-62.500000
6838		-56.640625
6839		-60.546875
6840		-54.687500
6841		-56.640625
6842		-50.781250
6843		-54.687500
6844		-48.828125
6845		-50.781250
6846		-44.921875
6847		-48.828125
6848		-42.968750
6849		-44.921875
6850		-39.062500
6851		-41.015625
6852		-35.156250
6853		-39.062500
6854		-33.203125
6855		-35.156250
6856		-29.296875
6857		-31.250000
6858		-25.390625
6859		-29.296875
6860		-23.437500
6861		-25.390625
6862		-19.531250
6863		-23.437500
6864		-17.578125
6865		-19.531250
6866		-13.671875
6867		-15.625000
6868		-9.765625
6869		-13.671875
6870		-7.812500
6871		-9.765625
6872		-3.906250
6873		-7.812500
6874		-1.953125
6875		-3.906250
6876		1.953125
6877		0.000000
6878		3.906250
6879		1.953125
6880		9.765625
6881		5.859375
6882		11.718750
6883		7.812500
6884		13.671875
6885		11.718750
6886		17.578125
6887		15.625000
6888		19.531250
6889		17.578125
6890		23.437500
6891		19.531250
6892		25.390625
6893		23.437500
6894		29.296875
6895		25.390625
6896		31.250000
6897		29.296875
6898		33.203125
6899		31.250000
6900		37.109375
6901		35.156250
6902		41.015625
6903		37.109375
6904		42.968750
6905		39.062500
6906		44.921875
6907		42.968750
6908		46.875000
6909		44.921875
6910		50.781250
6911		46.875000
6912		52.734375
6913		50.781250
6914		54.687500
6915		52.734375
6916		56.640625
6917		54.687500
6918		58.593750
6919		56.640625
6920		62.500000
6921		58.593750
6922		64.453125
6923		60.546875
6924		66.406250
6925		62.500000
6926		68.359375
6927		66.406250
6928		70.312500
6929		68.359375
6930		72.265625
6931		70.312500
6932		74.218750
6933		72.265625
6934		76.171875
6935		74.218750
6936		78.125000
6937		74.218750
6938		80.078125
6939		78.125000
6940		80.078125
6941		78.125000
6942		82.031250
6943		80.078125
6944		83.984375
6945		82.031250
6946		85.937500
6947		82.031250
6948		87.890625
6949		83.984375
6950		87.890625
6951		85.937500
6952		89.843750
6953		87.890625
6954		91.796875
6955		87.890625
6956		91.796875
6957		89.843750
6958		93.750000
6959		89.843750
6960		93.750000
6961		91.796875
6962		95.703125
6963		93.750000
6964		95.703125
6965		93.750000
6966		97.656250
6967		93.750000
6968		97.656250
6969		93.750000
6970		99.609375
6971		95.703125
6972		99.609375
6973		95.703125
6974		99.609375
6975		97.656250
6976		101.562500
6977		97.656250
6978		101.562500
6979		97.656250
6980		101.562500
6981		97.656250
6982		101.562500
6983		99.609375
6984		101.562500
6985		99.609375
6986		103.515625
6987		99.609375
6988		101.562500
6989		99.609375
6990		103.515625
6991		99.609375
6992		103.515625
6993		99.609375
6994		101.562500
6995		99.609375
6996		103.515625
6997		99.609375
6998		103.515625
6999		97.656250
7000		101.562500
7001		99.609375
7002		101.562500
7003		97.656250
7004		101.562500
7005		97.656250
7006		101.562500
7007		97.656250
7008		101.562500
7009		95.703125
7010		99.609375
7011		95.703125
7012		99.609375
7013		95.703125
7014		99.609375
7015		93.750000
7016		97.656250
7017		93.750000
7018		97.656250
7019		91.796875
7020		95.703125
7021		91.796875
7022		95.703125
7023		89.843750
7024		93.750000
7025		89.843750
7026		93.750000
7027		87.890625
7028		91.796875
7029		87.890625
7030		89.843750
7031		85.937500
7032		89.843750
7033		83.984375
7034		87.890625
7035		82.031250
7036		85.937500
7037		82.031250
7038		85.937500
7039		78.125000
7040		83.984375
7041		78.125000
7042		82.031250
7043		76.171875
7044		80.078125
7045		74.218750
7046		78.125000
7047		72.265625
7048		78.125000
7049		70.312500
7050		74.218750
7051		68.359375
7052		72.265625
7053		66.406250
7054		70.312500
7055		64.453125
7056		68.359375
7057		62.500000
7058		66.406250
7059		60.546875
7060		64.453125
7061		56.640625
7062		62.500000
7063		54.687500
7064		60.546875
7065		52.734375
7066		56.640625
7067		50.781250
7068		54.687500
7069		46.875000
7070		52.734375
7071		44.921875
7072		50.781250
7073		42.968750
7074		46.875000
7075		39.062500
7076		44.921875
7077		37.109375
7078		42.968750
7079		35.156250
7080		39.062500
7081		31.250000
7082		37.109375
7083		29.296875
7084		35.156250
7085		25.390625
7086		31.250000
7087		23.437500
7088		29.296875
7089		19.531250
7090		25.390625
7091		17.578125
7092		23.437500
7093		13.671875
7094		19.531250
7095		11.718750
7096		17.578125
7097		7.812500
7098		13.671875
7099		5.859375
7100		11.718750
7101		1.953125
7102		7.812500
7103		-1.953125
7104		5.859375
7105		-3.906250
7106		1.953125
7107		-7.812500
7108		-1.953125
7109		-9.765625
7110		-3.906250
7111		-13.671875
7112		-7.812500
7113		-15.625000
7114		-11.718750
7115		-19.531250
7116		-13.671875
7117		-23.437500
7118		-17.578125
7119		-27.343750
7120		-21.484375
7121		-29.296875
7122		-23.437500
7123		-31.250000
7124		-27.343750
7125		-35.156250
7126		-29.296875
7127		-39.062500
7128		-33.203125
7129		-41.015625
7130		-37.109375
7131		-46.875000
7132		-39.062500
7133		-48.828125
7134		-42.968750
7135		-50.781250
7136		-46.875000
7137		-54.687500
7138		-48.828125
7139		-56.640625
7140		-50.781250
7141		-60.546875
7142		-54.687500
7143		-62.500000
7144		-58.593750
7145		-66.406250
7146		-60.546875
7147		-68.359375
7148		-64.453125
7149		-72.265625
7150		-66.406250
7151		-74.218750
7152		-70.312500
7153		-78.125000
7154		-72.265625
7155		-80.078125
7156		-74.218750
7157		-82.031250
7158		-76.171875
7159		-85.937500
7160		-80.078125
7161		-87.890625
7162		-82.031250
7163		-89.843750
7164		-85.937500
7165		-93.750000
7166		-87.890625
7167		-95.703125
7168		-89.843750
7169		-97.656250
7170		-93.750000
7171		-99.609375
7172		-95.703125
7173		-101.562500
7174		-97.656250
7175		-105.468750
7176		-99.609375
7177		-107.421875
7178		-101.562500
7179		-109.375000
7180		-103.515625
7181		-111.328125
7182		-105.468750
7183		-113.281250
7184		-107.421875
7185		-115.234375
7186		-109.375000
7187		-117.187500
7188		-111.328125
7189		-117.187500
7190		-113.281250
7191		-119.140625
7192		-115.234375
7193		-121.093750
7194		-117.187500
7195		-123.046875
7196		-119.140625
7197		-125.000000
7198		-119.140625
7199		-125.000000
7200		-121.093750
7201		-126.953125
7202		-123.046875
7203		-126.953125
7204		-123.046875
7205		-128.906250
7206		-123.046875
7207		-128.906250
7208		-125.000000
7209		-130.859375
7210		-126.953125
7211		-130.859375
7212		-126.953125
7213		-132.812500
7214		-126.953125
7215		-132.812500
7216		-128.906250
7217		-132.812500
7218		-128.906250
7219		-132.812500
7220		-128.906250
7221		-132.812500
7222		-128.906250
7223		-132.812500
7224		-128.906250
7225		-132.812500
7226		-128.906250
7227		-132.812500
7228		-128.906250
7229		-134.765625
7230		-130.859375
7231		-132.812500
7232		-128.906250
7233		-132.812500
7234		-128.906250
7235		-132.812500
7236		-128.906250
7237		-132.812500
7238		-128.906250
7239		-132.812500
7240		-126.953125
7241		-130.859375
7242		-126.953125
7243		-130.859375
7244		-126.953125
7245		-128.906250
7246		-125.000000
7247		-128.906250
7248		-125.000000
7249		-126.953125
7250		-123.046875
7251		-125.000000
7252		-123.046875
7253		-125.000000
7254		-121.093750
7255		-125.000000
7256		-119.140625
7257		-121.093750
7258		-117.187500
7259		-121.093750
7260		-117.187500
7261		-119.140625
7262		-115.234375
7263		-117.187500
7264		-113.281250
7265		-115.234375
7266		-111.328125
7267		-115.234375
7268		-109.375000
7269		-113.281250
7270		-107.421875
7271		-109.375000
7272		-105.468750
7273		-109.375000
7274		-103.515625
7275		-105.468750
7276		-101.562500
7277		-103.515625
7278		-99.609375
7279		-101.562500
7280		-95.703125
7281		-99.609375
7282		-93.750000
7283		-97.656250
7284		-91.796875
7285		-95.703125
7286		-89.843750
7287		-91.796875
7288		-87.890625
7289		-89.843750
7290		-83.984375
7291		-87.890625
7292		-82.031250
7293		-83.984375
7294		-78.125000
7295		-82.031250
7296		-76.171875
7297		-78.125000
7298		-74.218750
7299		-76.171875
7300		-70.312500
7301		-74.218750
7302		-68.359375
7303		-70.312500
7304		-64.453125
7305		-68.359375
7306		-62.500000
7307		-64.453125
7308		-58.593750
7309		-60.546875
7310		-56.640625
7311		-58.593750
7312		-52.734375
7313		-54.687500
7314		-50.781250
7315		-52.734375
7316		-46.875000
7317		-48.828125
7318		-42.968750
7319		-46.875000
7320		-41.015625
7321		-42.968750
7322		-37.109375
7323		-41.015625
7324		-35.156250
7325		-37.109375
7326		-31.250000
7327		-33.203125
7328		-27.343750
7329		-31.250000
7330		-25.390625
7331		-27.343750
7332		-21.484375
7333		-23.437500
7334		-17.578125
7335		-21.484375
7336		-15.625000
7337		-17.578125
7338		-11.718750
7339		-15.625000
7340		-7.812500
7341		-11.718750
7342		-5.859375
7343		-9.765625
7344		-3.906250
7345		-5.859375
7346		0.000000
7347		-1.953125
7348		3.906250
7349		1.953125
7350		7.812500
7351		3.906250
7352		9.765625
7353		7.812500
7354		11.718750
7355		9.765625
7356		15.625000
7357		13.671875
7358		17.578125
7359		15.625000
7360		21.484375
7361		19.531250
7362		25.390625
7363		21.484375
7364		27.343750
7365		25.390625
7366		29.296875
7367		27.343750
7368		33.203125
7369		31.250000
7370		35.156250
7371		33.203125
7372		39.062500
7373		35.156250
7374		41.015625
7375		39.062500
7376		44.921875
7377		41.015625
7378		44.921875
7379		42.968750
7380		48.828125
7381		46.875000
7382		50.781250
7383		48.828125
7384		52.734375
7385		50.781250
7386		56.640625
7387		52.734375
7388		58.593750
7389		56.640625
7390		60.546875
7391		58.593750
7392		62.500000
7393		60.546875
7394		64.453125
7395		62.500000
7396		66.406250
7397		64.453125
7398		68.359375
7399		66.406250
7400		72.265625
7401		68.359375
7402		74.218750
7403		70.312500
7404		74.218750
7405		72.265625
7406		78.125000
7407		74.218750
7408		78.125000
7409		76.171875
7410		80.078125
7411		78.125000
7412		82.031250
7413		78.125000
7414		83.984375
7415		82.031250
7416		85.937500
7417		82.031250
7418		87.890625
7419		83.984375
7420		87.890625
7421		85.937500
7422		89.843750
7423		85.937500
7424		91.796875
7425		87.890625
7426		91.796875
7427		89.843750
7428		93.750000
7429		89.843750
7430		93.750000
7431		91.796875
7432		95.703125
7433		91.796875
7434		95.703125
7435		93.750000
7436		97.656250
7437		95.703125
7438		97.656250
7439		95.703125
7440		99.609375
7441		95.703125
7442		99.609375
7443		95.703125
7444		101.562500
7445		97.656250
7446		101.562500
7447		97.656250
7448		101.562500
7449		97.656250
7450		101.562500
7451		97.656250
7452		101.562500
7453		99.609375
7454		101.562500
7455		99.609375
7456		103.515625
7457		97.656250
7458		103.515625
7459		99.609375
7460		103.515625
7461		99.609375
7462		103.515625
7463		99.609375
7464		103.515625
7465		99.609375
7466		103.515625
7467		99.609375
7468		103.515625
7469		99.609375
7470		103.515625
7471		99.609375
7472		103.515625
7473		99.609375
7474		103.515625
7475		97.656250
7476		101.562500
7477		97.656250
7478		101.562500
7479		97.656250
7480		101.562500
7481		97.656250
7482		99.609375
7483		95.703125
7484		99.609375
7485		93.750000
7486		99.609375
7487		93.750000
7488		97.656250
7489		93.750000
7490		97.656250
7491		91.796875
7492		95.703125
7493		91.796875
7494		95.703125
7495		89.843750
7496		93.750000
7497		89.843750
7498		93.750000
7499		87.890625
7500		91.796875
7501		85.937500
7502		89.843750
7503		85.937500
7504		89.843750
7505		83.984375
7506		87.890625
7507		82.031250
7508		85.937500
7509		80.078125
7510		83.984375
7511		78.125000
7512		83.984375
7513		78.125000
7514		82.031250
7515		76.171875
7516		80.078125
7517		74.218750
7518		78.125000
7519		72.265625
7520		76.171875
7521		70.312500
7522		74.218750
7523		68.359375
7524		72.265625
7525		66.406250
7526		70.312500
7527		64.453125
7528		68.359375
7529		62.500000
7530		66.406250
7531		58.593750
7532		64.453125
7533		56.640625
7534		62.500000
7535		54.687500
7536		60.546875
7537		52.734375
7538		56.640625
7539		50.781250
7540		54.687500
7541		46.875000
7542		52.734375
7543		44.921875
7544		48.828125
7545		42.968750
7546		46.875000
7547		39.062500
7548		44.921875
7549		37.109375
7550		42.968750
7551		33.203125
7552		39.062500
7553		31.250000
7554		37.109375
7555		29.296875
7556		33.203125
7557		25.390625
7558		31.250000
7559		23.437500
7560		27.343750
7561		19.531250
7562		25.390625
7563		15.625000
7564		21.484375
7565		13.671875
7566		19.531250
7567		11.718750
7568		15.625000
7569		7.812500
7570		13.671875
7571		5.859375
7572		9.765625
7573		1.953125
7574		5.859375
7575		-1.953125
7576		3.906250
7577		-3.906250
7578		0.000000
7579		-7.812500
7580		-1.953125
7581		-9.765625
7582		-5.859375
7583		-13.671875
7584		-7.812500
7585		-17.578125
7586		-11.718750
7587		-19.531250
7588		-15.625000
7589		-23.437500
7590		-17.578125
7591		-27.343750
7592		-21.484375
7593		-29.296875
7594		-23.437500
7595		-33.203125
7596		-27.343750
7597		-35.156250
7598		-31.250000
7599		-39.062500
7600		-33.203125
7601		-41.015625
7602		-37.109375
7603		-44.921875
7604		-39.062500
7605		-48.828125
7606		-42.968750
7607		-50.781250
7608		-44.921875
7609		-54.687500
7610		-48.828125
7611		-58.593750
7612		-52.734375
7613		-60.546875
7614		-54.687500
7615		-64.453125
7616		-56.640625
7617		-66.406250
7618		-60.546875
7619		-70.312500
7620		-62.500000
7621		-72.265625
7622		-66.406250
7623		-76.171875
7624		-70.312500
7625		-78.125000
7626		-72.265625
7627		-80.078125
7628		-76.171875
7629		-82.031250
7630		-78.125000
7631		-85.937500
7632		-80.078125
7633		-87.890625
7634		-83.984375
7635		-91.796875
7636		-85.937500
7637		-93.750000
7638		-87.890625
7639		-95.703125
7640		-91.796875
7641		-97.656250
7642		-93.750000
7643		-99.609375
7644		-95.703125
7645		-103.515625
7646		-97.656250
7647		-105.468750
7648		-99.609375
7649		-107.421875
7650		-101.562500
7651		-109.375000
7652		-103.515625
7653		-111.328125
7654		-105.468750
7655		-111.328125
7656		-107.421875
7657		-115.234375
7658		-109.375000
7659		-115.234375
7660		-111.328125
7661		-117.187500
7662		-113.281250
7663		-119.140625
7664		-115.234375
7665		-121.093750
7666		-117.187500
7667		-123.046875
7668		-117.187500
7669		-125.000000
7670		-119.140625
7671		-125.000000
7672		-121.093750
7673		-125.000000
7674		-121.093750
7675		-126.953125
7676		-123.046875
7677		-126.953125
7678		-123.046875
7679		-128.906250
7680		-125.000000
7681		-128.906250
7682		-125.000000
7683		-130.859375
7684		-126.953125
7685		-130.859375
7686		-126.953125
7687		-130.859375
7688		-126.953125
7689		-130.859375
7690		-126.953125
7691		-132.812500
7692		-128.906250
7693		-132.812500
7694		-128.906250
7695		-132.812500
7696		-128.906250
7697		-132.812500
7698		-128.906250
7699		-132.812500
7700		-128.906250
7701		-132.812500
7702		-128.906250
7703		-132.812500
7704		-128.906250
7705		-130.859375
7706		-126.953125
7707		-130.859375
7708		-126.953125
7709		-130.859375
7710		-126.953125
7711		-130.859375
7712		-126.953125
7713		-128.906250
7714		-125.000000
7715		-128.906250
7716		-125.000000
7717		-126.953125
7718		-125.000000
7719		-126.953125
7720		-123.046875
7721		-126.953125
7722		-121.093750
7723		-125.000000
7724		-121.093750
7725		-123.046875
7726		-119.140625
7727		-123.046875
7728		-117.187500
7729		-121.093750
7730		-117.187500
7731		-119.140625
7732		-115.234375
7733		-117.187500
7734		-113.281250
7735		-115.234375
7736		-111.328125
7737		-115.234375
7738		-109.375000
7739		-113.281250
7740		-107.421875
7741		-111.328125
7742		-105.468750
7743		-109.375000
7744		-103.515625
7745		-107.421875
7746		-101.562500
7747		-103.515625
7748		-99.609375
7749		-101.562500
7750		-97.656250
7751		-99.609375
7752		-95.703125
7753		-97.656250
7754		-93.750000
7755		-95.703125
7756		-89.843750
7757		-93.750000
7758		-87.890625
7759		-89.843750
7760		-85.937500
7761		-87.890625
7762		-83.984375
7763		-85.937500
7764		-80.078125
7765		-83.984375
7766		-78.125000
7767		-80.078125
7768		-74.218750
7769		-76.171875
7770		-72.265625
7771		-74.218750
7772		-70.312500
7773		-72.265625
7774		-66.406250
7775		-68.359375
7776		-62.500000
7777		-66.406250
7778		-60.546875
7779		-62.500000
7780		-56.640625
7781		-60.546875
7782		-54.687500
7783		-56.640625
7784		-50.781250
7785		-52.734375
7786		-48.828125
7787		-50.781250
7788		-44.921875
7789		-46.875000
7790		-42.968750
7791		-44.921875
7792		-39.062500
7793		-41.015625
7794		-35.156250
7795		-37.109375
7796		-33.203125
7797		-35.156250
7798		-29.296875
7799		-31.250000
7800		-27.343750
7801		-29.296875
7802		-23.437500
7803		-25.390625
7804		-19.531250
7805		-21.484375
7806		-15.625000
7807		-19.531250
7808		-13.671875
7809		-15.625000
7810		-9.765625
7811		-11.718750
7812		-7.812500
7813		-9.765625
7814		-3.906250
7815		-5.859375
7816		0.000000
7817		-3.906250
7818		1.953125
7819		0.000000
7820		5.859375
7821		1.953125
7822		7.812500
7823		5.859375
7824		11.718750
7825		7.812500
7826		13.671875
7827		11.718750
7828		17.578125
7829		13.671875
7830		19.531250
7831		17.578125
7832		23.437500
7833		19.531250
7834		25.390625
7835		23.437500
7836		29.296875
7837		27.343750
7838		33.203125
7839		29.296875
7840		33.203125
7841		31.250000
7842		37.109375
7843		35.156250
7844		39.062500
7845		37.109375
7846		42.968750
7847		39.062500
7848		44.921875
7849		41.015625
7850		48.828125
7851		44.921875
7852		50.781250
7853		46.875000
7854		52.734375
7855		50.781250
7856		54.687500
7857		52.734375
7858		56.640625
7859		54.687500
7860		60.546875
7861		56.640625
7862		62.500000
7863		60.546875
7864		64.453125
7865		60.546875
7866		66.406250
7867		64.453125
7868		68.359375
7869		64.453125
7870		70.312500
7871		68.359375
7872		72.265625
7873		70.312500
7874		74.218750
7875		72.265625
7876		76.171875
7877		74.218750
7878		78.125000
7879		74.218750
7880		80.078125
7881		76.171875
7882		82.031250
7883		78.125000
7884		82.031250
7885		80.078125
7886		83.984375
7887		82.031250
7888		85.937500
7889		83.984375
7890		87.890625
7891		83.984375
7892		89.843750
7893		85.937500
7894		91.796875
7895		85.937500
7896		93.750000
7897		87.890625
7898		93.750000
7899		89.843750
7900		93.750000
7901		91.796875
7902		95.703125
7903		91.796875
7904		95.703125
7905		91.796875
7906		97.656250
7907		93.750000
7908		97.656250
7909		95.703125
7910		97.656250
7911		93.750000
7912		101.562500
7913		93.750000
7914		101.562500
7915		95.703125
7916		103.515625
7917		97.656250
7918		101.562500
7919		97.656250
7920		101.562500
7921		99.609375
7922		101.562500
7923		97.656250
7924		103.515625
7925		99.609375
7926		101.562500
7927		97.656250
7928		105.468750
7929		97.656250
7930		103.515625
7931		97.656250
7932		105.468750
7933		97.656250
7934		103.515625
7935		99.609375
7936		103.515625
7937		99.609375
7938		103.515625
7939		99.609375
7940		103.515625
7941		99.609375
7942		103.515625
7943		97.656250
7944		103.515625
7945		97.656250
7946		103.515625
7947		97.656250
7948		103.515625
7949		95.703125
7950		101.562500
7951		97.656250
7952		99.609375
7953		95.703125
7954		101.562500
7955		93.750000
7956		99.609375
7957		95.703125
7958		97.656250
7959		93.750000
7960		97.656250
7961		91.796875
7962		99.609375
7963		91.796875
7964		97.656250
7965		89.843750
7966		97.656250
7967		89.843750
7968		95.703125
7969		87.890625
7970		93.750000
7971		87.890625
7972		91.796875
7973		85.937500
7974		89.843750
7975		83.984375
7976		87.890625
7977		82.031250
7978		87.890625
7979		80.078125
7980		87.890625
7981		78.125000
7982		85.937500
7983		78.125000
7984		83.984375
7985		76.171875
7986		82.031250
7987		74.218750
7988		80.078125
7989		72.265625
7990		78.125000
7991		72.265625
7992		76.171875
7993		70.312500
7994		74.218750
7995		64.453125
7996		74.218750
7997		64.453125
7998		70.312500
7999		62.500000
8000		70.312500
8001		58.593750
8002		66.406250
8003		56.640625
8004		64.453125
8005		54.687500
8006		62.500000
8007		54.687500
8008		58.593750
8009		50.781250
8010		56.640625
8011		46.875000
8012		54.687500
8013		44.921875
8014		52.734375
8015		41.015625
8016		50.781250
8017		39.062500
8018		48.828125
8019		39.062500
8020		44.921875
8021		35.156250
8022		42.968750
8023		33.203125
8024		41.015625
8025		29.296875
8026		35.156250
8027		25.390625
8028		33.203125
8029		23.437500
8030		31.250000
8031		19.531250
8032		27.343750
8033		17.578125
8034		23.437500
8035		15.625000
8036		21.484375
8037		11.718750
8038		19.531250
8039		7.812500
8040		17.578125
8041		5.859375
8042		11.718750
8043		3.906250
8044		9.765625
8045		-1.953125
8046		7.812500
8047		-3.906250
8048		3.906250
8049		-5.859375
8050		1.953125
8051		-9.765625
8052		-1.953125
8053		-13.671875
8054		-5.859375
8055		-17.578125
8056		-7.812500
8057		-17.578125
8058		-13.671875
8059		-21.484375
8060		-15.625000
8061		-25.390625
8062		-19.531250
8063		-29.296875
8064		-21.484375
8065		-31.250000
8066		-23.437500
8067		-35.156250
8068		-27.343750
8069		-39.062500
8070		-31.250000
8071		-41.015625
8072		-35.156250
8073		-42.968750
8074		-37.109375
8075		-46.875000
8076		-41.015625
8077		-48.828125
8078		-44.921875
8079		-54.687500
8080		-44.921875
8081		-56.640625
8082		-48.828125
8083		-60.546875
8084		-50.781250
8085		-62.500000
8086		-54.687500
8087		-66.406250
8088		-58.593750
8089		-68.359375
8090		-60.546875
8091		-70.312500
8092		-64.453125
8093		-74.218750
8094		-68.359375
8095		-76.171875
8096		-70.312500
8097		-80.078125
8098		-72.265625
8099		-82.031250
8100		-74.218750
8101		-83.984375
8102		-78.125000
8103		-87.890625
8104		-80.078125
8105		-89.843750
8106		-83.984375
8107		-91.796875
8108		-85.937500
8109		-93.750000
8110		-89.843750
8111		-95.703125
8112		-91.796875
8113		-99.609375
8114		-91.796875
8115		-101.562500
8116		-93.750000
8117		-103.515625
8118		-95.703125
8119		-107.421875
8120		-97.656250
8121		-107.421875
8122		-99.609375
8123		-109.375000
8124		-103.515625
8125		-111.328125
8126		-107.421875
8127		-113.281250
8128		-109.375000
8129		-117.187500
8130		-109.375000
8131		-117.187500
8132		-109.375000
8133		-119.140625
8134		-111.328125
8135		-121.093750
8136		-111.328125
8137		-121.093750
8138		-115.234375
8139		-123.046875
8140		-117.187500
8141		-123.046875
8142		-117.187500
8143		-125.000000
8144		-121.093750
8145		-126.953125
8146		-121.093750
8147		-128.906250
8148		-121.093750
8149		-128.906250
8150		-123.046875
8151		-130.859375
8152		-123.046875
8153		-130.859375
8154		-125.000000
8155		-130.859375
8156		-125.000000
8157		-130.859375
8158		-125.000000
8159		-130.859375
8160		-126.953125
8161		-130.859375
8162		-128.906250
8163		-132.812500
8164		-125.000000
8165		-134.765625
8166		-126.953125
8167		-134.765625
8168		-126.953125
8169		-134.765625
8170		-126.953125
8171		-134.765625
8172		-126.953125
8173		-132.812500
8174		-125.000000
8175		-132.812500
8176		-128.906250
8177		-130.859375
8178		-128.906250
8179		-132.812500
8180		-125.000000
8181		-132.812500
8182		-123.046875
8183		-130.859375
8184		-125.000000
8185		-130.859375
8186		-123.046875
8187		-128.906250
8188		-123.046875
8189		-128.906250
8190		-121.093750
8191		-128.906250
8192		-121.093750
8193		-125.000000
8194		-121.093750
8195		-125.000000
8196		-119.140625
8197		-125.000000
8198		-117.187500
8199		-123.046875
8200		-115.234375
8201		-121.093750
8202		-113.281250
8203		-119.140625
8204		-113.281250
8205		-119.140625
8206		-111.328125
8207		-117.187500
8208		-109.375000
8209		-113.281250
8210		-109.375000
8211		-111.328125
8212		-107.421875
8213		-111.328125
8214		-103.515625
8215		-109.375000
8216		-101.562500
8217		-107.421875
8218		-99.609375
8219		-105.468750
8220		-97.656250
8221		-103.515625
8222		-93.750000
8223		-99.609375
8224		-91.796875
8225		-99.609375
8226		-91.796875
8227		-93.750000
8228		-89.843750
8229		-91.796875
8230		-85.937500
8231		-89.843750
8232		-83.984375
8233		-87.890625
8234		-80.078125
8235		-85.937500
8236		-78.125000
8237		-82.031250
8238		-74.218750
8239		-80.078125
8240		-72.265625
8241		-76.171875
8242		-70.312500
8243		-72.265625
8244		-68.359375
8245		-70.312500
8246		-64.453125
8247		-68.359375
8248		-60.546875
8249		-66.406250
8250		-58.593750
8251		-62.500000
8252		-54.687500
8253		-58.593750
8254		-50.781250
8255		-56.640625
8256		-48.828125
8257		-54.687500
8258		-44.921875
8259		-50.781250
8260		-42.968750
8261		-44.921875
8262		-41.015625
8263		-42.968750
8264		-37.109375
8265		-42.968750
8266		-33.203125
8267		-39.062500
8268		-29.296875
8269		-33.203125
8270		-25.390625
8271		-31.250000
8272		-23.437500
8273		-29.296875
8274		-19.531250
8275		-25.390625
8276		-19.531250
8277		-21.484375
8278		-15.625000
8279		-17.578125
8280		-11.718750
8281		-15.625000
8282		-7.812500
8283		-13.671875
8284		-3.906250
8285		-9.765625
8286		-1.953125
8287		-7.812500
8288		1.953125
8289		-3.906250
8290		5.859375
8291		0.000000
8292		7.812500
8293		3.906250
8294		9.765625
8295		7.812500
8296		13.671875
8297		9.765625
8298		17.578125
8299		11.718750
8300		19.531250
8301		13.671875
8302		21.484375
8303		15.625000
8304		25.390625
8305		21.484375
8306		27.343750
8307		23.437500
8308		31.250000
8309		25.390625
8310		33.203125
8311		31.250000
8312		35.156250
8313		33.203125
8314		39.062500
8315		35.156250
8316		42.968750
8317		37.109375
8318		44.921875
8319		39.062500
8320		46.875000
8321		41.015625
8322		50.781250
8323		44.921875
8324		50.781250
8325		46.875000
8326		54.687500
8327		50.781250
8328		56.640625
8329		52.734375
8330		58.593750
8331		54.687500
8332		62.500000
8333		56.640625
8334		64.453125
8335		58.593750
8336		66.406250
8337		60.546875
8338		70.312500
8339		62.500000
8340		70.312500
8341		64.453125
8342		72.265625
8343		68.359375
8344		74.218750
8345		70.312500
8346		76.171875
8347		72.265625
8348		78.125000
8349		72.265625
8350		80.078125
8351		76.171875
8352		82.031250
8353		76.171875
8354		83.984375
8355		76.171875
8356		85.937500
8357		78.125000
8358		87.890625
8359		80.078125
8360		87.890625
8361		83.984375
8362		87.890625
8363		85.937500
8364		89.843750
8365		85.937500
8366		91.796875
8367		85.937500
8368		93.750000
8369		87.890625
8370		95.703125
8371		89.843750
8372		97.656250
8373		89.843750
8374		95.703125
8375		91.796875
8376		97.656250
8377		93.750000
8378		97.656250
8379		95.703125
8380		97.656250
8381		93.750000
8382		101.562500
8383		93.750000
8384		101.562500
8385		95.703125
8386		101.562500
8387		95.703125
8388		101.562500
8389		97.656250
8390		103.515625
8391		97.656250
8392		103.515625
8393		95.703125
8394		105.468750
8395		99.609375
8396		103.515625
8397		97.656250
8398		103.515625
8399		97.656250
8400		105.468750
8401		99.609375
8402		105.468750
8403		97.656250
8404		105.468750
8405		99.609375
8406		105.468750
8407		97.656250
8408		105.468750
8409		99.609375
8410		105.468750
8411		99.609375
8412		103.515625
8413		99.609375
8414		103.515625
8415		97.656250
8416		105.468750
8417		95.703125
8418		103.515625
8419		95.703125
8420		105.468750
8421		95.703125
8422		103.515625
8423		95.703125
8424		103.515625
8425		95.703125
8426		101.562500
8427		95.703125
8428		99.609375
8429		95.703125
8430		99.609375
8431		93.750000
8432		99.609375
8433		91.796875
8434		99.609375
8435		91.796875
8436		97.656250
8437		89.843750
8438		95.703125
8439		87.890625
8440		95.703125
8441		85.937500
8442		95.703125
8443		85.937500
8444		93.750000
8445		85.937500
8446		89.843750
8447		85.937500
8448		89.843750
8449		82.031250
8450		89.843750
8451		80.078125
8452		87.890625
8453		78.125000
8454		85.937500
8455		78.125000
8456		83.984375
8457		76.171875
8458		83.984375
8459		74.218750
8460		82.031250
8461		74.218750
8462		78.125000
8463		72.265625
8464		76.171875
8465		68.359375
8466		74.218750
8467		66.406250
8468		74.218750
8469		62.500000
8470		70.312500
8471		60.546875
8472		70.312500
8473		58.593750
8474		68.359375
8475		58.593750
8476		66.406250
8477		56.640625
8478		62.500000
8479		54.687500
8480		58.593750
8481		50.781250
8482		56.640625
8483		48.828125
8484		54.687500
8485		44.921875
8486		54.687500
8487		41.015625
8488		50.781250
8489		41.015625
8490		46.875000
8491		37.109375
8492		44.921875
8493		35.156250
8494		42.968750
8495		33.203125
8496		39.062500
8497		31.250000
8498		35.156250
8499		25.390625
8500		33.203125
8501		23.437500
8502		31.250000
8503		19.531250
8504		29.296875
8505		17.578125
8506		25.390625
8507		13.671875
8508		23.437500
8509		11.718750
8510		19.531250
8511		9.765625
8512		15.625000
8513		7.812500
8514		11.718750
8515		1.953125
8516		9.765625
8517		0.000000
8518		7.812500
8519		-3.906250
8520		3.906250
8521		-5.859375
8522		1.953125
8523		-9.765625
8524		-1.953125
8525		-13.671875
8526		-5.859375
8527		-15.625000
8528		-7.812500
8529		-17.578125
8530		-13.671875
8531		-21.484375
8532		-15.625000
8533		-25.390625
8534		-17.578125
8535		-29.296875
8536		-21.484375
8537		-31.250000
8538		-23.437500
8539		-35.156250
8540		-27.343750
8541		-39.062500
8542		-29.296875
8543		-41.015625
8544		-33.203125
8545		-42.968750
8546		-37.109375
8547		-46.875000
8548		-41.015625
8549		-50.781250
8550		-42.968750
8551		-52.734375
8552		-44.921875
8553		-56.640625
8554		-48.828125
8555		-60.546875
8556		-50.781250
8557		-62.500000
8558		-54.687500
8559		-64.453125
8560		-58.593750
8561		-66.406250
8562		-60.546875
8563		-70.312500
8564		-64.453125
8565		-74.218750
8566		-68.359375
8567		-76.171875
8568		-68.359375
8569		-80.078125
8570		-70.312500
8571		-83.984375
8572		-74.218750
8573		-85.937500
8574		-78.125000
8575		-87.890625
8576		-80.078125
8577		-89.843750
8578		-82.031250
8579		-91.796875
8580		-85.937500
8581		-93.750000
8582		-87.890625
8583		-95.703125
8584		-89.843750
8585		-99.609375
8586		-89.843750
8587		-101.562500
8588		-93.750000
8589		-103.515625
8590		-95.703125
8591		-105.468750
8592		-97.656250
8593		-107.421875
8594		-101.562500
8595		-107.421875
8596		-103.515625
8597		-111.328125
8598		-105.468750
8599		-113.281250
8600		-107.421875
8601		-115.234375
8602		-107.421875
8603		-117.187500
8604		-109.375000
8605		-119.140625
8606		-111.328125
8607		-121.093750
8608		-113.281250
8609		-121.093750
8610		-115.234375
8611		-123.046875
8612		-117.187500
8613		-123.046875
8614		-119.140625
8615		-125.000000
8616		-119.140625
8617		-126.953125
8618		-119.140625
8619		-126.953125
8620		-121.093750
8621		-128.906250
8622		-121.093750
8623		-128.906250
8624		-123.046875
8625		-130.859375
8626		-123.046875
8627		-130.859375
8628		-125.000000
8629		-128.906250
8630		-125.000000
8631		-130.859375
8632		-126.953125
8633		-132.812500
8634		-125.000000
8635		-132.812500
8636		-125.000000
8637		-132.812500
8638		-125.000000
8639		-132.812500
8640		-125.000000
8641		-132.812500
8642		-126.953125
8643		-132.812500
8644		-125.000000
8645		-132.812500
8646		-125.000000
8647		-130.859375
8648		-126.953125
8649		-130.859375
8650		-125.000000
8651		-130.859375
8652		-125.000000
8653		-130.859375
8654		-123.046875
8655		-128.906250
8656		-123.046875
8657		-128.906250
8658		-123.046875
8659		-128.906250
8660		-121.093750
8661		-126.953125
8662		-121.093750
8663		-125.000000
8664		-121.093750
8665		-123.046875
8666		-119.140625
8667		-123.046875
8668		-117.187500
8669		-123.046875
8670		-115.234375
8671		-121.093750
8672		-113.281250
8673		-121.093750
8674		-113.281250
8675		-117.187500
8676		-111.328125
8677		-117.187500
8678		-109.375000
8679		-115.234375
8680		-109.375000
8681		-111.328125
8682		-107.421875
8683		-109.375000
8684		-103.515625
8685		-109.375000
8686		-101.562500
8687		-107.421875
8688		-99.609375
8689		-105.468750
8690		-97.656250
8691		-103.515625
8692		-95.703125
8693		-99.609375
8694		-93.750000
8695		-99.609375
8696		-91.796875
8697		-93.750000
8698		-89.843750
8699		-91.796875
8700		-87.890625
8701		-91.796875
8702		-83.984375
8703		-89.843750
8704		-82.031250
8705		-85.937500
8706		-78.125000
8707		-83.984375
8708		-76.171875
8709		-80.078125
8710		-74.218750
8711		-78.125000
8712		-70.312500
8713		-74.218750
8714		-68.359375
8715		-70.312500
8716		-66.406250
8717		-68.359375
8718		-60.546875
8719		-66.406250
8720		-58.593750
8721		-64.453125
8722		-54.687500
8723		-60.546875
8724		-50.781250
8725		-58.593750
8726		-48.828125
8727		-54.687500
8728		-46.875000
8729		-50.781250
8730		-44.921875
8731		-46.875000
8732		-41.015625
8733		-42.968750
8734		-37.109375
8735		-41.015625
8736		-33.203125
8737		-39.062500
8738		-31.250000
8739		-35.156250
8740		-27.343750
8741		-33.203125
8742		-25.390625
8743		-31.250000
8744		-21.484375
8745		-27.343750
8746		-19.531250
8747		-21.484375
8748		-17.578125
8749		-19.531250
8750		-13.671875
8751		-15.625000
8752		-7.812500
8753		-15.625000
8754		-5.859375
8755		-11.718750
8756		-1.953125
8757		-7.812500
8758		0.000000
8759		-5.859375
8760		3.906250
8761		-1.953125
8762		7.812500
8763		1.953125
8764		7.812500
8765		5.859375
8766		11.718750
8767		9.765625
8768		17.578125
8769		9.765625
8770		17.578125
8771		13.671875
8772		21.484375
8773		17.578125
8774		25.390625
8775		19.531250
8776		27.343750
8777		21.484375
8778		31.250000
8779		23.437500
8780		31.250000
8781		29.296875
8782		35.156250
8783		31.250000
8784		37.109375
8785		33.203125
8786		42.968750
8787		35.156250
8788		44.921875
8789		39.062500
8790		46.875000
8791		41.015625
8792		48.828125
8793		42.968750
8794		52.734375
8795		46.875000
8796		54.687500
8797		50.781250
8798		54.687500
8799		52.734375
8800		56.640625
8801		54.687500
8802		60.546875
8803		54.687500
8804		62.500000
8805		58.593750
8806		66.406250
8807		60.546875
8808		68.359375
8809		62.500000
8810		70.312500
8811		62.500000
8812		72.265625
8813		66.406250
8814		72.265625
8815		70.312500
8816		74.218750
8817		72.265625
8818		76.171875
8819		72.265625
8820		80.078125
8821		74.218750
8822		82.031250
8823		76.171875
8824		83.984375
8825		78.125000
8826		85.937500
8827		78.125000
8828		87.890625
8829		80.078125
8830		87.890625
8831		83.984375
8832		87.890625
8833		85.937500
8834		89.843750
8835		85.937500
8836		93.750000
8837		85.937500
8838		93.750000
8839		87.890625
8840		93.750000
8841		87.890625
8842		95.703125
8843		89.843750
8844		97.656250
8845		89.843750
8846		97.656250
8847		93.750000
8848		99.609375
8849		95.703125
8850		97.656250
8851		93.750000
8852		101.562500
8853		93.750000
8854		101.562500
8855		95.703125
8856		101.562500
8857		95.703125
8858		103.515625
8859		97.656250
8860		103.515625
8861		97.656250
8862		105.468750
8863		97.656250
8864		103.515625
8865		99.609375
8866		103.515625
8867		101.562500
8868		103.515625
8869		97.656250
8870		107.421875
8871		99.609375
8872		105.468750
8873		99.609375
8874		105.468750
8875		99.609375
8876		105.468750
8877		99.609375
8878		105.468750
8879		99.609375
8880		105.468750
8881		101.562500
8882		105.468750
8883		101.562500
8884		103.515625
8885		99.609375
8886		105.468750
8887		97.656250
8888		105.468750
8889		97.656250
8890		105.468750
8891		97.656250
8892		103.515625
8893		97.656250
8894		103.515625
8895		95.703125
8896		103.515625
8897		95.703125
8898		103.515625
8899		97.656250
8900		99.609375
8901		95.703125
8902		99.609375
8903		93.750000
8904		99.609375
8905		91.796875
8906		99.609375
8907		91.796875
8908		97.656250
8909		89.843750
8910		97.656250
8911		89.843750
8912		95.703125
8913		87.890625
8914		95.703125
8915		87.890625
8916		91.796875
8917		87.890625
8918		91.796875
8919		83.984375
8920		89.843750
8921		82.031250
8922		89.843750
8923		80.078125
8924		87.890625
8925		80.078125
8926		85.937500
8927		78.125000
8928		83.984375
8929		76.171875
8930		82.031250
8931		76.171875
8932		82.031250
8933		74.218750
8934		78.125000
8935		72.265625
8936		76.171875
8937		68.359375
8938		74.218750
8939		66.406250
8940		72.265625
8941		64.453125
8942		70.312500
8943		62.500000
8944		68.359375
8945		60.546875
8946		66.406250
8947		58.593750
8948		64.453125
8949		56.640625
8950		60.546875
8951		54.687500
8952		58.593750
8953		48.828125
8954		56.640625
8955		48.828125
8956		54.687500
8957		44.921875
8958		52.734375
8959		42.968750
8960		50.781250
8961		41.015625
8962		48.828125
8963		37.109375
8964		44.921875
8965		35.156250
8966		42.968750
8967		33.203125
8968		37.109375
8969		29.296875
8970		35.156250
8971		25.390625
8972		33.203125
8973		23.437500
8974		31.250000
8975		19.531250
8976		27.343750
8977		17.578125
8978		25.390625
8979		13.671875
8980		21.484375
8981		11.718750
8982		19.531250
8983		9.765625
8984		15.625000
8985		5.859375
8986		11.718750
8987		1.953125
8988		11.718750
8989		0.000000
8990		5.859375
8991		-3.906250
8992		3.906250
8993		-7.812500
8994		1.953125
8995		-11.718750
8996		-1.953125
8997		-13.671875
8998		-5.859375
8999		-15.625000
9000		-9.765625
9001		-17.578125
9002		-13.671875
9003		-23.437500
9004		-15.625000
9005		-25.390625
9006		-19.531250
9007		-29.296875
9008		-21.484375
9009		-33.203125
9010		-23.437500
9011		-35.156250
9012		-27.343750
9013		-39.062500
9014		-31.250000
9015		-41.015625
9016		-33.203125
9017		-42.968750
9018		-37.109375
9019		-48.828125
9020		-41.015625
9021		-52.734375
9022		-42.968750
9023		-52.734375
9024		-44.921875
9025		-56.640625
9026		-48.828125
9027		-60.546875
9028		-52.734375
9029		-62.500000
9030		-52.734375
9031		-66.406250
9032		-56.640625
9033		-66.406250
9034		-62.500000
9035		-70.312500
9036		-64.453125
9037		-74.218750
9038		-66.406250
9039		-78.125000
9040		-68.359375
9041		-80.078125
9042		-72.265625
9043		-83.984375
9044		-74.218750
9045		-85.937500
9046		-76.171875
9047		-87.890625
9048		-78.125000
9049		-89.843750
9050		-82.031250
9051		-91.796875
9052		-85.937500
9053		-95.703125
9054		-87.890625
9055		-97.656250
9056		-89.843750
9057		-99.609375
9058		-91.796875
9059		-101.562500
9060		-95.703125
9061		-103.515625
9062		-95.703125
9063		-105.468750
9064		-97.656250
9065		-107.421875
9066		-99.609375
9067		-107.421875
9068		-103.515625
9069		-111.328125
9070		-105.468750
9071		-113.281250
9072		-107.421875
9073		-115.234375
9074		-107.421875
9075		-117.187500
9076		-109.375000
9077		-119.140625
9078		-111.328125
9079		-121.093750
9080		-113.281250
9081		-123.046875
9082		-113.281250
9083		-121.093750
9084		-115.234375
9085		-123.046875
9086		-119.140625
9087		-125.000000
9088		-119.140625
9089		-125.000000
9090		-119.140625
9091		-126.953125
9092		-119.140625
9093		-128.906250
9094		-121.093750
9095		-128.906250
9096		-121.093750
9097		-130.859375
9098		-123.046875
9099		-130.859375
9100		-123.046875
9101		-128.906250
9102		-125.000000
9103		-130.859375
9104		-125.000000
9105		-130.859375
9106		-125.000000
9107		-132.812500
9108		-125.000000
9109		-132.812500
9110		-125.000000
9111		-132.812500
9112		-125.000000
9113		-132.812500
9114		-125.000000
9115		-130.859375
9116		-125.000000
9117		-128.906250
9118		-126.953125
9119		-128.906250
9120		-126.953125
9121		-130.859375
9122		-125.000000
9123		-130.859375
9124		-123.046875
9125		-128.906250
9126		-123.046875
9127		-128.906250
9128		-121.093750
9129		-128.906250
9130		-121.093750
9131		-126.953125
9132		-119.140625
9133		-126.953125
9134		-119.140625
9135		-123.046875
9136		-119.140625
9137		-123.046875
9138		-115.234375
9139		-123.046875
9140		-115.234375
9141		-121.093750
9142		-113.281250
9143		-119.140625
9144		-113.281250
9145		-119.140625
9146		-111.328125
9147		-117.187500
9148		-111.328125
9149		-115.234375
9150		-109.375000
9151		-111.328125
9152		-107.421875
9153		-109.375000
9154		-105.468750
9155		-111.328125
9156		-101.562500
9157		-109.375000
9158		-101.562500
9159		-105.468750
9160		-99.609375
9161		-103.515625
9162		-95.703125
9163		-101.562500
9164		-93.750000
9165		-99.609375
9166		-91.796875
9167		-97.656250
9168		-89.843750
9169		-93.750000
9170		-87.890625
9171		-91.796875
9172		-83.984375
9173		-89.843750
9174		-82.031250
9175		-87.890625
9176		-80.078125
9177		-83.984375
9178		-76.171875
9179		-82.031250
9180		-74.218750
9181		-80.078125
9182		-72.265625
9183		-76.171875
9184		-68.359375
9185		-72.265625
9186		-66.406250
9187		-68.359375
9188		-62.500000
9189		-68.359375
9190		-60.546875
9191		-64.453125
9192		-56.640625
9193		-62.500000
9194		-54.687500
9195		-58.593750
9196		-50.781250
9197		-56.640625
9198		-46.875000
9199		-52.734375
9200		-44.921875
9201		-48.828125
9202		-42.968750
9203		-44.921875
9204		-39.062500
9205		-42.968750
9206		-35.156250
9207		-41.015625
9208		-33.203125
9209		-37.109375
9210		-29.296875
9211		-35.156250
9212		-27.343750
9213		-31.250000
9214		-21.484375
9215		-29.296875
9216		-19.531250
9217		-25.390625
9218		-17.578125
9219		-19.531250
9220		-15.625000
9221		-17.578125
9222		-9.765625
9223		-15.625000
9224		-7.812500
9225		-11.718750
9226		-3.906250
9227		-9.765625
9228		0.000000
9229		-7.812500
9230		1.953125
9231		-3.906250
9232		3.906250
9233		0.000000
9234		7.812500
9235		3.906250
9236		9.765625
9237		7.812500
9238		13.671875
9239		7.812500
9240		17.578125
9241		11.718750
9242		19.531250
9243		15.625000
9244		23.437500
9245		17.578125
9246		25.390625
9247		21.484375
9248		27.343750
9249		23.437500
9250		33.203125
9251		25.390625
9252		33.203125
9253		31.250000
9254		37.109375
9255		33.203125
9256		41.015625
9257		35.156250
9258		41.015625
9259		37.109375
9260		44.921875
9261		41.015625
9262		48.828125
9263		41.015625
9264		50.781250
9265		44.921875
9266		52.734375
9267		46.875000
9268		54.687500
9269		52.734375
9270		56.640625
9271		54.687500
9272		60.546875
9273		54.687500
9274		62.500000
9275		56.640625
9276		64.453125
9277		58.593750
9278		66.406250
9279		60.546875
9280		68.359375
9281		62.500000
9282		70.312500
9283		66.406250
9284		72.265625
9285		70.312500
9286		74.218750
9287		70.312500
9288		76.171875
9289		72.265625
9290		78.125000
9291		72.265625
9292		80.078125
9293		74.218750
9294		83.984375
9295		78.125000
9296		83.984375
9297		78.125000
9298		85.937500
9299		80.078125
9300		87.890625
9301		82.031250
9302		87.890625
9303		85.937500
9304		89.843750
9305		85.937500
9306		91.796875
9307		85.937500
9308		93.750000
9309		85.937500
9310		93.750000
9311		87.890625
9312		95.703125
9313		89.843750
9314		95.703125
9315		91.796875
9316		97.656250
9317		91.796875
9318		99.609375
9319		93.750000
9320		97.656250
9321		95.703125
9322		99.609375
9323		93.750000
9324		101.562500
9325		95.703125
9326		103.515625
9327		95.703125
9328		103.515625
9329		97.656250
9330		103.515625
9331		97.656250
9332		105.468750
9333		97.656250
9334		103.515625
9335		97.656250
9336		103.515625
9337		99.609375
9338		103.515625
9339		99.609375
9340		105.468750
9341		99.609375
9342		105.468750
9343		99.609375
9344		107.421875
9345		99.609375
9346		105.468750
9347		99.609375
9348		105.468750
9349		99.609375
9350		105.468750
9351		99.609375
9352		105.468750
9353		101.562500
9354		105.468750
9355		99.609375
9356		105.468750
9357		97.656250
9358		105.468750
9359		97.656250
9360		105.468750
9361		97.656250
9362		105.468750
9363		97.656250
9364		103.515625
9365		95.703125
9366		103.515625
9367		95.703125
9368		103.515625
9369		95.703125
9370		101.562500
9371		95.703125
9372		99.609375
9373		93.750000
9374		101.562500
9375		91.796875
9376		99.609375
9377		91.796875
9378		99.609375
9379		91.796875
9380		97.656250
9381		89.843750
9382		97.656250
9383		89.843750
9384		95.703125
9385		87.890625
9386		95.703125
9387		87.890625
9388		91.796875
9389		83.984375
9390		91.796875
9391		82.031250
9392		89.843750
9393		82.031250
9394		89.843750
9395		80.078125
9396		87.890625
9397		78.125000
9398		85.937500
9399		76.171875
9400		83.984375
9401		74.218750
9402		82.031250
9403		74.218750
9404		80.078125
9405		72.265625
9406		78.125000
9407		68.359375
9408		76.171875
9409		68.359375
9410		74.218750
9411		64.453125
9412		72.265625
9413		62.500000
9414		70.312500
9415		60.546875
9416		68.359375
9417		58.593750
9418		66.406250
9419		56.640625
9420		64.453125
9421		54.687500
9422		60.546875
9423		50.781250
9424		58.593750
9425		48.828125
9426		56.640625
9427		46.875000
9428		54.687500
9429		44.921875
9430		50.781250
9431		41.015625
9432		48.828125
9433		39.062500
9434		46.875000
9435		37.109375
9436		44.921875
9437		35.156250
9438		41.015625
9439		31.250000
9440		37.109375
9441		29.296875
9442		37.109375
9443		25.390625
9444		33.203125
9445		21.484375
9446		29.296875
9447		19.531250
9448		27.343750
9449		15.625000
9450		25.390625
9451		13.671875
9452		21.484375
9453		11.718750
9454		17.578125
9455		9.765625
9456		13.671875
9457		3.906250
9458		11.718750
9459		0.000000
9460		7.812500
9461		-1.953125
9462		5.859375
9463		-5.859375
9464		3.906250
9465		-7.812500
9466		1.953125
9467		-11.718750
9468		-3.906250
9469		-13.671875
9470		-5.859375
9471		-15.625000
9472		-11.718750
9473		-21.484375
9474		-13.671875
9475		-23.437500
9476		-15.625000
9477		-27.343750
9478		-19.531250
9479		-31.250000
9480		-21.484375
9481		-33.203125
9482		-25.390625
9483		-37.109375
9484		-27.343750
9485		-39.062500
9486		-31.250000
9487		-41.015625
9488		-35.156250
9489		-44.921875
9490		-39.062500
9491		-48.828125
9492		-41.015625
9493		-50.781250
9494		-44.921875
9495		-54.687500
9496		-46.875000
9497		-58.593750
9498		-50.781250
9499		-60.546875
9500		-52.734375
9501		-64.453125
9502		-54.687500
9503		-66.406250
9504		-60.546875
9505		-68.359375
9506		-62.500000
9507		-72.265625
9508		-66.406250
9509		-76.171875
9510		-66.406250
9511		-78.125000
9512		-70.312500
9513		-82.031250
9514		-72.265625
9515		-82.031250
9516		-76.171875
9517		-85.937500
9518		-78.125000
9519		-87.890625
9520		-82.031250
9521		-89.843750
9522		-85.937500
9523		-91.796875
9524		-87.890625
9525		-95.703125
9526		-87.890625
9527		-97.656250
9528		-89.843750
9529		-101.562500
9530		-93.750000
9531		-101.562500
9532		-95.703125
9533		-105.468750
9534		-97.656250
9535		-107.421875
9536		-99.609375
9537		-107.421875
9538		-103.515625
9539		-109.375000
9540		-105.468750
9541		-113.281250
9542		-105.468750
9543		-115.234375
9544		-107.421875
9545		-117.187500
9546		-109.375000
9547		-117.187500
9548		-111.328125
9549		-119.140625
9550		-113.281250
9551		-121.093750
9552		-113.281250
9553		-123.046875
9554		-115.234375
9555		-121.093750
9556		-117.187500
9557		-123.046875
9558		-119.140625
9559		-126.953125
9560		-119.140625
9561		-126.953125
9562		-119.140625
9563		-128.906250
9564		-121.093750
9565		-128.906250
9566		-123.046875
9567		-128.906250
9568		-123.046875
9569		-130.859375
9570		-123.046875
9571		-128.906250
9572		-125.000000
9573		-128.906250
9574		-126.953125
9575		-130.859375
9576		-125.000000
9577		-130.859375
9578		-125.000000
9579		-132.812500
9580		-125.000000
9581		-132.812500
9582		-125.000000
9583		-132.812500
9584		-125.000000
9585		-132.812500
9586		-125.000000
9587		-130.859375
9588		-125.000000
9589		-130.859375
9590		-126.953125
9591		-132.812500
9592		-123.046875
9593		-130.859375
9594		-125.000000
9595		-130.859375
9596		-123.046875
9597		-130.859375
9598		-123.046875
9599		-128.906250
9600		-123.046875
9601		-128.906250
9602		-121.093750
9603		-126.953125
9604		-121.093750
9605		-125.000000
9606		-121.093750
9607		-123.046875
9608		-119.140625
9609		-123.046875
9610		-117.187500
9611		-123.046875
9612		-115.234375
9613		-121.093750
9614		-115.234375
9615		-121.093750
9616		-113.281250
9617		-119.140625
9618		-111.328125
9619		-117.187500
9620		-109.375000
9621		-113.281250
9622		-109.375000
9623		-111.328125
9624		-107.421875
9625		-111.328125
9626		-105.468750
9627		-109.375000
9628		-103.515625
9629		-107.421875
9630		-99.609375
9631		-105.468750
9632		-97.656250
9633		-103.515625
9634		-95.703125
9635		-101.562500
9636		-93.750000
9637		-99.609375
9638		-91.796875
9639		-95.703125
9640		-89.843750
9641		-91.796875
9642		-87.890625
9643		-93.750000
9644		-83.984375
9645		-91.796875
9646		-82.031250
9647		-85.937500
9648		-78.125000
9649		-83.984375
9650		-76.171875
9651		-82.031250
9652		-74.218750
9653		-78.125000
9654		-70.312500
9655		-74.218750
9656		-70.312500
9657		-72.265625
9658		-66.406250
9659		-70.312500
9660		-62.500000
9661		-68.359375
9662		-60.546875
9663		-66.406250
9664		-56.640625
9665		-62.500000
9666		-54.687500
9667		-58.593750
9668		-50.781250
9669		-54.687500
9670		-46.875000
9671		-52.734375
9672		-44.921875
9673		-48.828125
9674		-42.968750
9675		-44.921875
9676		-37.109375
9677		-42.968750
9678		-35.156250
9679		-41.015625
9680		-33.203125
9681		-39.062500
9682		-29.296875
9683		-35.156250
9684		-25.390625
9685		-31.250000
9686		-21.484375
9687		-27.343750
9688		-19.531250
9689		-23.437500
9690		-17.578125
9691		-19.531250
9692		-13.671875
9693		-17.578125
9694		-9.765625
9695		-15.625000
9696		-7.812500
9697		-11.718750
9698		-3.906250
9699		-9.765625
9700		0.000000
9701		-5.859375
9702		1.953125
9703		-3.906250
9704		5.859375
9705		1.953125
9706		7.812500
9707		5.859375
9708		9.765625
9709		7.812500
9710		13.671875
9711		9.765625
9712		17.578125
9713		13.671875
9714		21.484375
9715		15.625000
9716		23.437500
9717		17.578125
9718		25.390625
9719		21.484375
9720		29.296875
9721		23.437500
9722		31.250000
9723		29.296875
9724		33.203125
9725		31.250000
9726		39.062500
9727		31.250000
9728		39.062500
9729		35.156250
9730		42.968750
9731		37.109375
9732		44.921875
9733		41.015625
9734		48.828125
9735		42.968750
9736		50.781250
9737		44.921875
9738		52.734375
9739		48.828125
9740		54.687500
9741		52.734375
9742		56.640625
9743		52.734375
9744		60.546875
9745		54.687500
9746		62.500000
9747		58.593750
9748		64.453125
9749		60.546875
9750		66.406250
9751		62.500000
9752		68.359375
9753		62.500000
9754		72.265625
9755		66.406250
9756		72.265625
9757		68.359375
9758		74.218750
9759		70.312500
9760		76.171875
9761		70.312500
9762		78.125000
9763		72.265625
9764		80.078125
9765		74.218750
9766		82.031250
9767		76.171875
9768		83.984375
9769		78.125000
9770		85.937500
9771		80.078125
9772		87.890625
9773		83.984375
9774		87.890625
9775		83.984375
9776		87.890625
9777		83.984375
9778		91.796875
9779		85.937500
9780		93.750000
9781		85.937500
9782		93.750000
9783		87.890625
9784		95.703125
9785		89.843750
9786		97.656250
9787		89.843750
9788		97.656250
9789		91.796875
9790		97.656250
9791		93.750000
9792		97.656250
9793		93.750000
9794		101.562500
9795		93.750000
9796		101.562500
9797		95.703125
9798		101.562500
9799		95.703125
9800		101.562500
9801		95.703125
9802		103.515625
9803		97.656250
9804		103.515625
9805		97.656250
9806		103.515625
9807		99.609375
9808		103.515625
9809		99.609375
9810		103.515625
9811		99.609375
9812		105.468750
9813		97.656250
9814		105.468750
9815		97.656250
9816		105.468750
9817		99.609375
9818		105.468750
9819		99.609375
9820		105.468750
9821		99.609375
9822		105.468750
9823		101.562500
9824		103.515625
9825		99.609375
9826		103.515625
9827		97.656250
9828		105.468750
9829		97.656250
9830		105.468750
9831		97.656250
9832		103.515625
9833		95.703125
9834		103.515625
9835		95.703125
9836		103.515625
9837		95.703125
9838		103.515625
9839		95.703125
9840		103.515625
9841		95.703125
9842		99.609375
9843		93.750000
9844		99.609375
9845		93.750000
9846		99.609375
9847		91.796875
9848		99.609375
9849		91.796875
9850		97.656250
9851		89.843750
9852		97.656250
9853		89.843750
9854		95.703125
9855		87.890625
9856		93.750000
9857		87.890625
9858		91.796875
9859		85.937500
9860		89.843750
9861		83.984375
9862		91.796875
9863		82.031250
9864		89.843750
9865		82.031250
9866		87.890625
9867		80.078125
9868		85.937500
9869		78.125000
9870		83.984375
9871		76.171875
9872		83.984375
9873		76.171875
9874		82.031250
9875		74.218750
9876		78.125000
9877		70.312500
9878		76.171875
9879		68.359375
9880		76.171875
9881		66.406250
9882		74.218750
9883		64.453125
9884		72.265625
9885		60.546875
9886		68.359375
9887		60.546875
9888		68.359375
9889		58.593750
9890		66.406250
9891		56.640625
9892		60.546875
9893		52.734375
9894		58.593750
9895		50.781250
9896		58.593750
9897		46.875000
9898		54.687500
9899		46.875000
9900		52.734375
9901		41.015625
9902		50.781250
9903		39.062500
9904		48.828125
9905		37.109375
9906		44.921875
9907		35.156250
9908		41.015625
9909		33.203125
9910		39.062500
9911		29.296875
9912		37.109375
9913		25.390625
9914		33.203125
9915		23.437500
9916		31.250000
9917		21.484375
9918		29.296875
9919		17.578125
9920		25.390625
9921		15.625000
9922		23.437500
9923		13.671875
9924		19.531250
9925		9.765625
9926		15.625000
9927		5.859375
9928		11.718750
9929		1.953125
9930		9.765625
9931		0.000000
9932		7.812500
9933		-3.906250
9934		3.906250
9935		-7.812500
9936		1.953125
9937		-9.765625
9938		-1.953125
9939		-11.718750
9940		-3.906250
9941		-15.625000
9942		-9.765625
9943		-17.578125
9944		-11.718750
9945		-21.484375
9946		-15.625000
9947		-27.343750
9948		-17.578125
9949		-27.343750
9950		-19.531250
9951		-31.250000
9952		-23.437500
9953		-35.156250
9954		-27.343750
9955		-39.062500
9956		-31.250000
9957		-39.062500
9958		-31.250000
9959		-42.968750
9960		-37.109375
9961		-46.875000
9962		-41.015625
9963		-50.781250
9964		-42.968750
9965		-52.734375
9966		-44.921875
9967		-56.640625
9968		-48.828125
9969		-60.546875
9970		-52.734375
9971		-62.500000
9972		-54.687500
9973		-64.453125
9974		-56.640625
9975		-66.406250
9976		-60.546875
9977		-70.312500
9978		-64.453125
9979		-74.218750
9980		-66.406250
9981		-78.125000
9982		-70.312500
9983		-80.078125
9984		-72.265625
9985		-82.031250
9986		-74.218750
9987		-83.984375
9988		-78.125000
9989		-87.890625
9990		-80.078125
9991		-87.890625
9992		-83.984375
9993		-89.843750
9994		-85.937500
9995		-95.703125
9996		-87.890625
9997		-97.656250
9998		-89.843750
9999		-99.609375
10000		-91.796875
