Channel              :		CH1
Frequency            :		1.061kHz
Period               :		0.942ms
PK-PK                :		214.8mV
Probe attenuation    :		1X
Voltage per ADC value:		0.122070mV
Time interval        :		2.00000us

index		CH1_Voltage(mV)
1		52.734375
2		52.734375
3		46.875000
4		50.781250
5		42.968750
6		50.781250
7		41.015625
8		46.875000
9		39.062500
10		46.875000
11		35.156250
12		42.968750
13		33.203125
14		41.015625
15		31.250000
16		37.109375
17		29.296875
18		35.156250
19		27.343750
20		33.203125
21		23.437500
22		29.296875
23		21.484375
24		29.296875
25		17.578125
26		25.390625
27		15.625000
28		23.437500
29		13.671875
30		21.484375
31		9.765625
32		17.578125
33		9.765625
34		15.625000
35		7.812500
36		11.718750
37		1.953125
38		9.765625
39		0.000000
40		9.765625
41		-1.953125
42		5.859375
43		-5.859375
44		1.953125
45		-7.812500
46		0.000000
47		-11.718750
48		-1.953125
49		-13.671875
50		-5.859375
51		-15.625000
52		-9.765625
53		-17.578125
54		-11.718750
55		-21.484375
56		-13.671875
57		-25.390625
58		-15.625000
59		-27.343750
60		-19.531250
61		-29.296875
62		-21.484375
63		-33.203125
64		-25.390625
65		-37.109375
66		-27.343750
67		-37.109375
68		-31.250000
69		-39.062500
70		-35.156250
71		-44.921875
72		-37.109375
73		-46.875000
74		-37.109375
75		-48.828125
76		-41.015625
77		-52.734375
78		-42.968750
79		-54.687500
80		-46.875000
81		-56.640625
82		-48.828125
83		-58.593750
84		-50.781250
85		-60.546875
86		-54.687500
87		-62.500000
88		-58.593750
89		-66.406250
90		-60.546875
91		-70.312500
92		-60.546875
93		-72.265625
94		-62.500000
95		-74.218750
96		-66.406250
97		-76.171875
98		-68.359375
99		-78.125000
100		-70.312500
101		-78.125000
102		-72.265625
103		-82.031250
104		-76.171875
105		-83.984375
106		-78.125000
107		-85.937500
108		-80.078125
109		-87.890625
110		-82.031250
111		-89.843750
112		-83.984375
113		-91.796875
114		-85.937500
115		-93.750000
116		-87.890625
117		-95.703125
118		-89.843750
119		-95.703125
120		-91.796875
121		-99.609375
122		-93.750000
123		-101.562500
124		-93.750000
125		-103.515625
126		-95.703125
127		-103.515625
128		-95.703125
129		-105.468750
130		-97.656250
131		-107.421875
132		-99.609375
133		-107.421875
134		-99.609375
135		-107.421875
136		-103.515625
137		-107.421875
138		-105.468750
139		-111.328125
140		-105.468750
141		-111.328125
142		-105.468750
143		-113.281250
144		-105.468750
145		-113.281250
146		-105.468750
147		-115.234375
148		-105.468750
149		-115.234375
150		-107.421875
151		-113.281250
152		-107.421875
153		-113.281250
154		-111.328125
155		-117.187500
156		-109.375000
157		-117.187500
158		-109.375000
159		-117.187500
160		-109.375000
161		-117.187500
162		-109.375000
163		-117.187500
164		-109.375000
165		-117.187500
166		-109.375000
167		-117.187500
168		-109.375000
169		-113.281250
170		-111.328125
171		-113.281250
172		-111.328125
173		-115.234375
174		-107.421875
175		-115.234375
176		-109.375000
177		-115.234375
178		-107.421875
179		-113.281250
180		-107.421875
181		-113.281250
182		-105.468750
183		-113.281250
184		-105.468750
185		-111.328125
186		-105.468750
187		-109.375000
188		-105.468750
189		-109.375000
190		-103.515625
191		-109.375000
192		-101.562500
193		-107.421875
194		-99.609375
195		-107.421875
196		-97.656250
197		-105.468750
198		-97.656250
199		-103.515625
200		-95.703125
201		-101.562500
202		-95.703125
203		-99.609375
204		-93.750000
205		-97.656250
206		-91.796875
207		-97.656250
208		-89.843750
209		-95.703125
210		-87.890625
211		-93.750000
212		-85.937500
213		-91.796875
214		-83.984375
215		-89.843750
216		-82.031250
217		-87.890625
218		-80.078125
219		-83.984375
220		-80.078125
221		-82.031250
222		-78.125000
223		-80.078125
224		-74.218750
225		-80.078125
226		-72.265625
227		-78.125000
228		-68.359375
229		-76.171875
230		-66.406250
231		-72.265625
232		-64.453125
233		-70.312500
234		-62.500000
235		-68.359375
236		-60.546875
237		-64.453125
238		-58.593750
239		-60.546875
240		-54.687500
241		-60.546875
242		-52.734375
243		-58.593750
244		-50.781250
245		-54.687500
246		-46.875000
247		-52.734375
248		-42.968750
249		-48.828125
250		-41.015625
251		-46.875000
252		-39.062500
253		-42.968750
254		-39.062500
255		-39.062500
256		-35.156250
257		-39.062500
258		-31.250000
259		-35.156250
260		-29.296875
261		-35.156250
262		-25.390625
263		-29.296875
264		-23.437500
265		-29.296875
266		-19.531250
267		-25.390625
268		-17.578125
269		-23.437500
270		-15.625000
271		-17.578125
272		-13.671875
273		-15.625000
274		-7.812500
275		-13.671875
276		-3.906250
277		-11.718750
278		-3.906250
279		-9.765625
280		0.000000
281		-7.812500
282		1.953125
283		-3.906250
284		3.906250
285		-1.953125
286		5.859375
287		3.906250
288		7.812500
289		5.859375
290		11.718750
291		7.812500
292		15.625000
293		9.765625
294		17.578125
295		13.671875
296		19.531250
297		13.671875
298		21.484375
299		17.578125
300		25.390625
301		19.531250
302		27.343750
303		23.437500
304		29.296875
305		25.390625
306		31.250000
307		27.343750
308		35.156250
309		29.296875
310		37.109375
311		31.250000
312		39.062500
313		33.203125
314		42.968750
315		35.156250
316		44.921875
317		39.062500
318		46.875000
319		41.015625
320		46.875000
321		44.921875
322		48.828125
323		46.875000
324		52.734375
325		46.875000
326		54.687500
327		48.828125
328		56.640625
329		50.781250
330		58.593750
331		52.734375
332		60.546875
333		54.687500
334		62.500000
335		56.640625
336		64.453125
337		60.546875
338		64.453125
339		62.500000
340		66.406250
341		62.500000
342		70.312500
343		64.453125
344		72.265625
345		64.453125
346		74.218750
347		66.406250
348		74.218750
349		68.359375
350		76.171875
351		68.359375
352		78.125000
353		70.312500
354		76.171875
355		74.218750
356		78.125000
357		74.218750
358		80.078125
359		74.218750
360		82.031250
361		76.171875
362		83.984375
363		76.171875
364		83.984375
365		78.125000
366		85.937500
367		78.125000
368		85.937500
369		80.078125
370		87.890625
371		83.984375
372		85.937500
373		83.984375
374		87.890625
375		82.031250
376		89.843750
377		82.031250
378		91.796875
379		83.984375
380		91.796875
381		83.984375
382		91.796875
383		83.984375
384		91.796875
385		85.937500
386		91.796875
387		87.890625
388		91.796875
389		87.890625
390		91.796875
391		85.937500
392		93.750000
393		85.937500
394		93.750000
395		85.937500
396		93.750000
397		85.937500
398		93.750000
399		85.937500
400		93.750000
401		85.937500
402		93.750000
403		87.890625
404		93.750000
405		87.890625
406		91.796875
407		85.937500
408		91.796875
409		85.937500
410		93.750000
411		85.937500
412		93.750000
413		85.937500
414		91.796875
415		85.937500
416		91.796875
417		83.984375
418		91.796875
419		83.984375
420		89.843750
421		85.937500
422		87.890625
423		83.984375
424		87.890625
425		82.031250
426		89.843750
427		82.031250
428		87.890625
429		80.078125
430		87.890625
431		78.125000
432		85.937500
433		78.125000
434		85.937500
435		76.171875
436		83.984375
437		78.125000
438		83.984375
439		76.171875
440		80.078125
441		74.218750
442		80.078125
443		72.265625
444		80.078125
445		70.312500
446		78.125000
447		70.312500
448		76.171875
449		68.359375
450		76.171875
451		66.406250
452		74.218750
453		66.406250
454		72.265625
455		66.406250
456		70.312500
457		62.500000
458		68.359375
459		60.546875
460		66.406250
461		58.593750
462		66.406250
463		56.640625
464		64.453125
465		54.687500
466		62.500000
467		52.734375
468		60.546875
469		50.781250
470		58.593750
471		50.781250
472		54.687500
473		48.828125
474		52.734375
475		42.968750
476		52.734375
477		41.015625
478		50.781250
479		41.015625
480		46.875000
481		37.109375
482		44.921875
483		35.156250
484		42.968750
485		33.203125
486		41.015625
487		31.250000
488		39.062500
489		29.296875
490		35.156250
491		25.390625
492		31.250000
493		23.437500
494		31.250000
495		21.484375
496		29.296875
497		17.578125
498		25.390625
499		15.625000
500		23.437500
501		13.671875
502		21.484375
503		9.765625
504		17.578125
505		9.765625
506		13.671875
507		5.859375
508		11.718750
509		1.953125
510		9.765625
511		0.000000
512		7.812500
513		-1.953125
514		5.859375
515		-7.812500
516		1.953125
517		-9.765625
518		0.000000
519		-11.718750
520		-3.906250
521		-11.718750
522		-7.812500
523		-15.625000
524		-9.765625
525		-19.531250
526		-13.671875
527		-23.437500
528		-13.671875
529		-25.390625
530		-15.625000
531		-27.343750
532		-19.531250
533		-29.296875
534		-23.437500
535		-33.203125
536		-25.390625
537		-35.156250
538		-27.343750
539		-37.109375
540		-33.203125
541		-39.062500
542		-35.156250
543		-42.968750
544		-37.109375
545		-48.828125
546		-39.062500
547		-48.828125
548		-41.015625
549		-52.734375
550		-44.921875
551		-54.687500
552		-46.875000
553		-56.640625
554		-48.828125
555		-58.593750
556		-50.781250
557		-60.546875
558		-54.687500
559		-64.453125
560		-58.593750
561		-68.359375
562		-58.593750
563		-70.312500
564		-62.500000
565		-72.265625
566		-64.453125
567		-74.218750
568		-66.406250
569		-76.171875
570		-68.359375
571		-78.125000
572		-70.312500
573		-80.078125
574		-74.218750
575		-82.031250
576		-76.171875
577		-85.937500
578		-78.125000
579		-85.937500
580		-80.078125
581		-89.843750
582		-82.031250
583		-91.796875
584		-82.031250
585		-93.750000
586		-83.984375
587		-93.750000
588		-85.937500
589		-93.750000
590		-89.843750
591		-95.703125
592		-91.796875
593		-99.609375
594		-91.796875
595		-101.562500
596		-93.750000
597		-101.562500
598		-95.703125
599		-105.468750
600		-95.703125
601		-105.468750
602		-97.656250
603		-105.468750
604		-99.609375
605		-105.468750
606		-99.609375
607		-107.421875
608		-103.515625
609		-109.375000
610		-101.562500
611		-111.328125
612		-101.562500
613		-113.281250
614		-103.515625
615		-111.328125
616		-105.468750
617		-113.281250
618		-105.468750
619		-115.234375
620		-105.468750
621		-113.281250
622		-107.421875
623		-113.281250
624		-109.375000
625		-115.234375
626		-109.375000
627		-115.234375
628		-109.375000
629		-117.187500
630		-107.421875
631		-115.234375
632		-109.375000
633		-115.234375
634		-109.375000
635		-115.234375
636		-107.421875
637		-115.234375
638		-109.375000
639		-115.234375
640		-109.375000
641		-115.234375
642		-109.375000
643		-115.234375
644		-107.421875
645		-115.234375
646		-107.421875
647		-115.234375
648		-107.421875
649		-115.234375
650		-107.421875
651		-113.281250
652		-107.421875
653		-111.328125
654		-105.468750
655		-111.328125
656		-105.468750
657		-109.375000
658		-105.468750
659		-109.375000
660		-101.562500
661		-109.375000
662		-101.562500
663		-107.421875
664		-101.562500
665		-105.468750
666		-99.609375
667		-105.468750
668		-97.656250
669		-105.468750
670		-95.703125
671		-103.515625
672		-95.703125
673		-99.609375
674		-95.703125
675		-97.656250
676		-93.750000
677		-97.656250
678		-91.796875
679		-95.703125
680		-89.843750
681		-93.750000
682		-87.890625
683		-93.750000
684		-85.937500
685		-89.843750
686		-82.031250
687		-87.890625
688		-80.078125
689		-87.890625
690		-80.078125
691		-83.984375
692		-78.125000
693		-82.031250
694		-74.218750
695		-80.078125
696		-72.265625
697		-80.078125
698		-70.312500
699		-76.171875
700		-68.359375
701		-74.218750
702		-66.406250
703		-70.312500
704		-64.453125
705		-70.312500
706		-62.500000
707		-64.453125
708		-60.546875
709		-62.500000
710		-58.593750
711		-62.500000
712		-52.734375
713		-58.593750
714		-50.781250
715		-56.640625
716		-48.828125
717		-54.687500
718		-44.921875
719		-52.734375
720		-42.968750
721		-50.781250
722		-41.015625
723		-46.875000
724		-39.062500
725		-41.015625
726		-37.109375
727		-39.062500
728		-33.203125
729		-39.062500
730		-29.296875
731		-35.156250
732		-27.343750
733		-31.250000
734		-23.437500
735		-31.250000
736		-21.484375
737		-27.343750
738		-19.531250
739		-25.390625
740		-17.578125
741		-19.531250
742		-15.625000
743		-17.578125
744		-9.765625
745		-15.625000
746		-9.765625
747		-13.671875
748		-5.859375
749		-9.765625
750		-1.953125
751		-7.812500
752		0.000000
753		-5.859375
754		1.953125
755		-3.906250
756		3.906250
757		1.953125
758		5.859375
759		3.906250
760		9.765625
761		5.859375
762		13.671875
763		7.812500
764		15.625000
765		9.765625
766		19.531250
767		11.718750
768		21.484375
769		15.625000
770		23.437500
771		17.578125
772		25.390625
773		19.531250
774		27.343750
775		25.390625
776		29.296875
777		27.343750
778		33.203125
779		27.343750
780		35.156250
781		29.296875
782		39.062500
783		31.250000
784		41.015625
785		35.156250
786		42.968750
787		37.109375
788		44.921875
789		39.062500
790		46.875000
791		42.968750
792		46.875000
793		44.921875
794		48.828125
795		46.875000
796		52.734375
797		46.875000
798		56.640625
799		48.828125
800		56.640625
801		50.781250
802		58.593750
803		54.687500
804		60.546875
805		56.640625
806		62.500000
807		58.593750
808		64.453125
809		60.546875
810		66.406250
811		62.500000
812		68.359375
813		62.500000
814		70.312500
815		64.453125
816		72.265625
817		64.453125
818		74.218750
819		66.406250
820		76.171875
821		68.359375
822		76.171875
823		70.312500
824		76.171875
825		74.218750
826		78.125000
827		72.265625
828		80.078125
829		74.218750
830		82.031250
831		74.218750
832		82.031250
833		76.171875
834		83.984375
835		78.125000
836		83.984375
837		78.125000
838		85.937500
839		80.078125
840		85.937500
841		82.031250
842		85.937500
843		83.984375
844		87.890625
845		82.031250
846		89.843750
847		82.031250
848		89.843750
849		82.031250
850		89.843750
851		83.984375
852		91.796875
853		85.937500
854		91.796875
855		83.984375
856		91.796875
857		85.937500
858		91.796875
859		87.890625
860		91.796875
861		87.890625
862		93.750000
863		85.937500
864		93.750000
865		85.937500
866		93.750000
867		85.937500
868		93.750000
869		87.890625
870		93.750000
871		87.890625
872		93.750000
873		85.937500
874		93.750000
875		87.890625
876		91.796875
877		87.890625
878		91.796875
879		85.937500
880		93.750000
881		85.937500
882		93.750000
883		85.937500
884		91.796875
885		85.937500
886		91.796875
887		85.937500
888		91.796875
889		83.984375
890		91.796875
891		83.984375
892		89.843750
893		83.984375
894		87.890625
895		82.031250
896		87.890625
897		82.031250
898		89.843750
899		82.031250
900		87.890625
901		80.078125
902		87.890625
903		78.125000
904		85.937500
905		76.171875
906		85.937500
907		76.171875
908		83.984375
909		76.171875
910		82.031250
911		74.218750
912		80.078125
913		72.265625
914		80.078125
915		72.265625
916		78.125000
917		70.312500
918		78.125000
919		70.312500
920		76.171875
921		66.406250
922		74.218750
923		64.453125
924		74.218750
925		66.406250
926		70.312500
927		64.453125
928		68.359375
929		60.546875
930		68.359375
931		58.593750
932		66.406250
933		56.640625
934		66.406250
935		54.687500
936		64.453125
937		52.734375
938		60.546875
939		50.781250
940		60.546875
941		50.781250
942		58.593750
943		48.828125
944		52.734375
945		44.921875
946		50.781250
947		42.968750
948		50.781250
949		41.015625
950		48.828125
951		37.109375
952		46.875000
953		37.109375
954		42.968750
955		35.156250
956		41.015625
957		31.250000
958		39.062500
959		31.250000
960		35.156250
961		27.343750
962		33.203125
963		25.390625
964		31.250000
965		23.437500
966		29.296875
967		17.578125
968		27.343750
969		15.625000
970		25.390625
971		15.625000
972		21.484375
973		11.718750
974		19.531250
975		9.765625
976		17.578125
977		7.812500
978		13.671875
979		3.906250
980		9.765625
981		0.000000
982		9.765625
983		-1.953125
984		5.859375
985		-5.859375
986		3.906250
987		-7.812500
988		0.000000
989		-9.765625
990		-1.953125
991		-11.718750
992		-3.906250
993		-13.671875
994		-9.765625
995		-17.578125
996		-11.718750
997		-21.484375
998		-13.671875
999		-23.437500
1000		-15.625000
1001		-27.343750
1002		-19.531250
1003		-29.296875
1004		-21.484375
1005		-33.203125
1006		-25.390625
1007		-35.156250
1008		-25.390625
1009		-35.156250
1010		-31.250000
1011		-39.062500
1012		-33.203125
1013		-42.968750
1014		-35.156250
1015		-44.921875
1016		-39.062500
1017		-46.875000
1018		-41.015625
1019		-50.781250
1020		-41.015625
1021		-52.734375
1022		-44.921875
1023		-56.640625
1024		-48.828125
1025		-56.640625
1026		-50.781250
1027		-58.593750
1028		-54.687500
1029		-62.500000
1030		-56.640625
1031		-66.406250
1032		-58.593750
1033		-68.359375
1034		-60.546875
1035		-70.312500
1036		-62.500000
1037		-72.265625
1038		-66.406250
1039		-74.218750
1040		-66.406250
1041		-78.125000
1042		-70.312500
1043		-78.125000
1044		-74.218750
1045		-80.078125
1046		-76.171875
1047		-83.984375
1048		-78.125000
1049		-85.937500
1050		-78.125000
1051		-87.890625
1052		-80.078125
1053		-89.843750
1054		-82.031250
1055		-91.796875
1056		-85.937500
1057		-93.750000
1058		-85.937500
1059		-93.750000
1060		-87.890625
1061		-95.703125
1062		-91.796875
1063		-99.609375
1064		-91.796875
1065		-101.562500
1066		-91.796875
1067		-101.562500
1068		-95.703125
1069		-103.515625
1070		-95.703125
1071		-105.468750
1072		-97.656250
1073		-105.468750
1074		-97.656250
1075		-107.421875
1076		-99.609375
1077		-107.421875
1078		-103.515625
1079		-107.421875
1080		-103.515625
1081		-111.328125
1082		-101.562500
1083		-111.328125
1084		-105.468750
1085		-111.328125
1086		-105.468750
1087		-113.281250
1088		-105.468750
1089		-115.234375
1090		-105.468750
1091		-115.234375
1092		-107.421875
1093		-113.281250
1094		-109.375000
1095		-113.281250
1096		-111.328125
1097		-117.187500
1098		-109.375000
1099		-115.234375
1100		-109.375000
1101		-117.187500
1102		-109.375000
1103		-117.187500
1104		-109.375000
1105		-117.187500
1106		-109.375000
1107		-117.187500
1108		-109.375000
1109		-117.187500
1110		-109.375000
1111		-115.234375
1112		-111.328125
1113		-115.234375
1114		-111.328125
1115		-115.234375
1116		-109.375000
1117		-115.234375
1118		-107.421875
1119		-115.234375
1120		-109.375000
1121		-115.234375
1122		-107.421875
1123		-113.281250
1124		-107.421875
1125		-113.281250
1126		-105.468750
1127		-109.375000
1128		-107.421875
1129		-109.375000
1130		-105.468750
1131		-109.375000
1132		-103.515625
1133		-109.375000
1134		-101.562500
1135		-107.421875
1136		-99.609375
1137		-107.421875
1138		-99.609375
1139		-105.468750
1140		-97.656250
1141		-105.468750
1142		-97.656250
1143		-103.515625
1144		-97.656250
1145		-99.609375
1146		-95.703125
1147		-99.609375
1148		-91.796875
1149		-99.609375
1150		-89.843750
1151		-97.656250
1152		-87.890625
1153		-95.703125
1154		-85.937500
1155		-93.750000
1156		-85.937500
1157		-89.843750
1158		-83.984375
1159		-89.843750
1160		-82.031250
1161		-85.937500
1162		-80.078125
1163		-83.984375
1164		-78.125000
1165		-82.031250
1166		-76.171875
1167		-82.031250
1168		-72.265625
1169		-78.125000
1170		-70.312500
1171		-76.171875
1172		-68.359375
1173		-72.265625
1174		-66.406250
1175		-72.265625
1176		-62.500000
1177		-68.359375
1178		-62.500000
1179		-64.453125
1180		-60.546875
1181		-62.500000
1182		-56.640625
1183		-62.500000
1184		-52.734375
1185		-58.593750
1186		-50.781250
1187		-58.593750
1188		-46.875000
1189		-54.687500
1190		-44.921875
1191		-50.781250
1192		-42.968750
1193		-48.828125
1194		-41.015625
1195		-44.921875
1196		-39.062500
1197		-42.968750
1198		-37.109375
1199		-41.015625
1200		-33.203125
1201		-39.062500
1202		-29.296875
1203		-35.156250
1204		-27.343750
1205		-33.203125
1206		-23.437500
1207		-29.296875
1208		-21.484375
1209		-27.343750
1210		-19.531250
1211		-23.437500
1212		-17.578125
1213		-19.531250
1214		-13.671875
1215		-17.578125
1216		-11.718750
1217		-17.578125
1218		-7.812500
1219		-13.671875
1220		-5.859375
1221		-9.765625
1222		-1.953125
1223		-7.812500
1224		0.000000
1225		-5.859375
1226		1.953125
1227		-1.953125
1228		3.906250
1229		1.953125
1230		7.812500
1231		3.906250
1232		11.718750
1233		5.859375
1234		13.671875
1235		7.812500
1236		15.625000
1237		9.765625
1238		17.578125
1239		13.671875
1240		21.484375
1241		15.625000
1242		23.437500
1243		17.578125
1244		25.390625
1245		21.484375
1246		27.343750
1247		25.390625
1248		29.296875
1249		25.390625
1250		33.203125
1251		29.296875
1252		35.156250
1253		31.250000
1254		39.062500
1255		33.203125
1256		41.015625
1257		35.156250
1258		42.968750
1259		37.109375
1260		44.921875
1261		39.062500
1262		46.875000
1263		42.968750
1264		48.828125
1265		44.921875
1266		52.734375
1267		44.921875
1268		54.687500
1269		46.875000
1270		56.640625
1271		48.828125
1272		56.640625
1273		52.734375
1274		58.593750
1275		54.687500
1276		60.546875
1277		56.640625
1278		62.500000
1279		58.593750
1280		64.453125
1281		60.546875
1282		66.406250
1283		60.546875
1284		68.359375
1285		62.500000
1286		70.312500
1287		64.453125
1288		72.265625
1289		66.406250
1290		72.265625
1291		66.406250
1292		74.218750
1293		68.359375
1294		76.171875
1295		72.265625
1296		76.171875
1297		74.218750
1298		78.125000
1299		74.218750
1300		80.078125
1301		74.218750
1302		80.078125
1303		74.218750
1304		82.031250
1305		76.171875
1306		83.984375
1307		76.171875
1308		85.937500
1309		78.125000
1310		85.937500
1311		80.078125
1312		85.937500
1313		82.031250
1314		85.937500
1315		82.031250
1316		87.890625
1317		82.031250
1318		89.843750
1319		82.031250
1320		89.843750
1321		82.031250
1322		91.796875
1323		83.984375
1324		91.796875
1325		83.984375
1326		91.796875
1327		85.937500
1328		91.796875
1329		87.890625
1330		89.843750
1331		87.890625
1332		91.796875
1333		85.937500
1334		93.750000
1335		85.937500
1336		93.750000
1337		85.937500
1338		93.750000
1339		85.937500
1340		93.750000
1341		85.937500
1342		93.750000
1343		87.890625
1344		93.750000
1345		87.890625
1346		93.750000
1347		87.890625
1348		91.796875
1349		85.937500
1350		93.750000
1351		85.937500
1352		93.750000
1353		85.937500
1354		93.750000
1355		85.937500
1356		91.796875
1357		83.984375
1358		91.796875
1359		83.984375
1360		91.796875
1361		83.984375
1362		89.843750
1363		85.937500
1364		89.843750
1365		83.984375
1366		87.890625
1367		82.031250
1368		89.843750
1369		82.031250
1370		89.843750
1371		80.078125
1372		87.890625
1373		80.078125
1374		85.937500
1375		78.125000
1376		85.937500
1377		78.125000
1378		83.984375
1379		78.125000
1380		82.031250
1381		76.171875
1382		80.078125
1383		74.218750
1384		80.078125
1385		72.265625
1386		80.078125
1387		70.312500
1388		78.125000
1389		70.312500
1390		78.125000
1391		68.359375
1392		76.171875
1393		68.359375
1394		74.218750
1395		66.406250
1396		72.265625
1397		66.406250
1398		70.312500
1399		62.500000
1400		68.359375
1401		60.546875
1402		66.406250
1403		58.593750
1404		66.406250
1405		56.640625
1406		64.453125
1407		54.687500
1408		62.500000
1409		52.734375
1410		60.546875
1411		52.734375
1412		58.593750
1413		50.781250
1414		54.687500
1415		48.828125
1416		52.734375
1417		44.921875
1418		50.781250
1419		42.968750
1420		50.781250
1421		39.062500
1422		46.875000
1423		39.062500
1424		46.875000
1425		35.156250
1426		42.968750
1427		33.203125
1428		41.015625
1429		33.203125
1430		39.062500
1431		29.296875
1432		35.156250
1433		25.390625
1434		33.203125
1435		23.437500
1436		31.250000
1437		19.531250
1438		29.296875
1439		19.531250
1440		27.343750
1441		15.625000
1442		25.390625
1443		13.671875
1444		21.484375
1445		11.718750
1446		19.531250
1447		9.765625
1448		15.625000
1449		5.859375
1450		11.718750
1451		1.953125
1452		11.718750
1453		0.000000
1454		9.765625
1455		-1.953125
1456		5.859375
1457		-5.859375
1458		1.953125
1459		-7.812500
1460		0.000000
1461		-9.765625
1462		-3.906250
1463		-11.718750
1464		-5.859375
1465		-15.625000
1466		-9.765625
1467		-19.531250
1468		-9.765625
1469		-21.484375
1470		-13.671875
1471		-25.390625
1472		-15.625000
1473		-27.343750
1474		-19.531250
1475		-29.296875
1476		-21.484375
1477		-33.203125
1478		-23.437500
1479		-35.156250
1480		-27.343750
1481		-37.109375
1482		-31.250000
1483		-41.015625
1484		-33.203125
1485		-42.968750
1486		-35.156250
1487		-44.921875
1488		-37.109375
1489		-48.828125
1490		-39.062500
1491		-52.734375
1492		-42.968750
1493		-54.687500
1494		-46.875000
1495		-56.640625
1496		-48.828125
1497		-56.640625
1498		-52.734375
1499		-60.546875
1500		-54.687500
1501		-64.453125
1502		-56.640625
1503		-68.359375
1504		-58.593750
1505		-70.312500
1506		-60.546875
1507		-72.265625
1508		-62.500000
1509		-74.218750
1510		-64.453125
1511		-76.171875
1512		-68.359375
1513		-76.171875
1514		-70.312500
1515		-78.125000
1516		-74.218750
1517		-82.031250
1518		-76.171875
1519		-83.984375
1520		-76.171875
1521		-85.937500
1522		-78.125000
1523		-87.890625
1524		-80.078125
1525		-89.843750
1526		-82.031250
1527		-91.796875
1528		-83.984375
1529		-93.750000
1530		-85.937500
1531		-93.750000
1532		-89.843750
1533		-95.703125
1534		-91.796875
1535		-99.609375
1536		-91.796875
1537		-99.609375
1538		-93.750000
1539		-101.562500
1540		-93.750000
1541		-105.468750
1542		-95.703125
1543		-105.468750
1544		-97.656250
1545		-105.468750
1546		-97.656250
1547		-105.468750
1548		-101.562500
1549		-105.468750
1550		-101.562500
1551		-109.375000
1552		-101.562500
1553		-111.328125
1554		-103.515625
1555		-111.328125
1556		-103.515625
1557		-111.328125
1558		-105.468750
1559		-113.281250
1560		-105.468750
1561		-113.281250
1562		-105.468750
1563		-113.281250
1564		-107.421875
1565		-111.328125
1566		-109.375000
1567		-113.281250
1568		-109.375000
1569		-115.234375
1570		-107.421875
1571		-115.234375
1572		-107.421875
1573		-115.234375
1574		-107.421875
1575		-115.234375
1576		-107.421875
1577		-115.234375
1578		-109.375000
1579		-115.234375
1580		-107.421875
1581		-113.281250
1582		-109.375000
1583		-113.281250
1584		-109.375000
1585		-115.234375
1586		-107.421875
1587		-115.234375
1588		-107.421875
1589		-113.281250
1590		-107.421875
1591		-113.281250
1592		-105.468750
1593		-113.281250
1594		-105.468750
1595		-111.328125
1596		-103.515625
1597		-109.375000
1598		-103.515625
1599		-107.421875
1600		-105.468750
1601		-107.421875
1602		-101.562500
1603		-107.421875
1604		-101.562500
1605		-107.421875
1606		-99.609375
1607		-105.468750
1608		-97.656250
1609		-105.468750
1610		-97.656250
1611		-103.515625
1612		-95.703125
1613		-101.562500
1614		-93.750000
1615		-97.656250
1616		-93.750000
1617		-97.656250
1618		-91.796875
1619		-97.656250
1620		-89.843750
1621		-95.703125
1622		-85.937500
1623		-93.750000
1624		-85.937500
1625		-91.796875
1626		-83.984375
1627		-89.843750
1628		-82.031250
1629		-87.890625
1630		-80.078125
1631		-83.984375
1632		-80.078125
1633		-82.031250
1634		-78.125000
1635		-82.031250
1636		-74.218750
1637		-80.078125
1638		-72.265625
1639		-78.125000
1640		-70.312500
1641		-76.171875
1642		-66.406250
1643		-74.218750
1644		-66.406250
1645		-70.312500
1646		-62.500000
1647		-68.359375
1648		-62.500000
1649		-64.453125
1650		-58.593750
1651		-62.500000
1652		-56.640625
1653		-62.500000
1654		-52.734375
1655		-58.593750
1656		-50.781250
1657		-56.640625
1658		-46.875000
1659		-54.687500
1660		-44.921875
1661		-50.781250
1662		-42.968750
1663		-48.828125
1664		-41.015625
1665		-44.921875
1666		-39.062500
1667		-41.015625
1668		-37.109375
1669		-39.062500
1670		-31.250000
1671		-37.109375
1672		-29.296875
1673		-35.156250
1674		-27.343750
1675		-33.203125
1676		-23.437500
1677		-29.296875
1678		-21.484375
1679		-27.343750
1680		-17.578125
1681		-23.437500
1682		-17.578125
1683		-19.531250
1684		-13.671875
1685		-17.578125
1686		-9.765625
1687		-15.625000
1688		-7.812500
1689		-13.671875
1690		-5.859375
1691		-9.765625
1692		-1.953125
1693		-7.812500
1694		0.000000
1695		-5.859375
1696		3.906250
1697		-3.906250
1698		5.859375
1699		1.953125
1700		7.812500
1701		5.859375
1702		9.765625
1703		5.859375
1704		13.671875
1705		7.812500
1706		17.578125
1707		11.718750
1708		19.531250
1709		13.671875
1710		21.484375
1711		15.625000
1712		25.390625
1713		17.578125
1714		27.343750
1715		21.484375
1716		27.343750
1717		25.390625
1718		31.250000
1719		27.343750
1720		35.156250
1721		27.343750
1722		35.156250
1723		31.250000
1724		39.062500
1725		33.203125
1726		41.015625
1727		35.156250
1728		42.968750
1729		37.109375
1730		44.921875
1731		39.062500
1732		46.875000
1733		42.968750
1734		48.828125
1735		46.875000
1736		50.781250
1737		44.921875
1738		54.687500
1739		48.828125
1740		56.640625
1741		50.781250
1742		58.593750
1743		52.734375
1744		60.546875
1745		54.687500
1746		62.500000
1747		54.687500
1748		64.453125
1749		60.546875
1750		64.453125
1751		60.546875
1752		66.406250
1753		62.500000
1754		68.359375
1755		64.453125
1756		70.312500
1757		64.453125
1758		72.265625
1759		66.406250
1760		74.218750
1761		66.406250
1762		74.218750
1763		70.312500
1764		76.171875
1765		70.312500
1766		78.125000
1767		74.218750
1768		78.125000
1769		76.171875
1770		80.078125
1771		74.218750
1772		82.031250
1773		76.171875
1774		83.984375
1775		76.171875
1776		85.937500
1777		78.125000
1778		85.937500
1779		80.078125
1780		85.937500
1781		80.078125
1782		87.890625
1783		83.984375
1784		85.937500
1785		83.984375
1786		87.890625
1787		83.984375
1788		89.843750
1789		83.984375
1790		89.843750
1791		85.937500
1792		89.843750
1793		83.984375
1794		91.796875
1795		85.937500
1796		91.796875
1797		85.937500
1798		91.796875
1799		87.890625
1800		91.796875
1801		87.890625
1802		91.796875
1803		87.890625
1804		93.750000
1805		87.890625
1806		93.750000
1807		87.890625
1808		93.750000
1809		87.890625
1810		93.750000
1811		87.890625
1812		95.703125
1813		87.890625
1814		95.703125
1815		87.890625
1816		95.703125
1817		89.843750
1818		93.750000
1819		87.890625
1820		93.750000
1821		87.890625
1822		95.703125
1823		87.890625
1824		93.750000
1825		85.937500
1826		93.750000
1827		85.937500
1828		93.750000
1829		85.937500
1830		93.750000
1831		85.937500
1832		93.750000
1833		85.937500
1834		89.843750
1835		85.937500
1836		89.843750
1837		83.984375
1838		89.843750
1839		82.031250
1840		89.843750
1841		82.031250
1842		89.843750
1843		80.078125
1844		87.890625
1845		80.078125
1846		85.937500
1847		80.078125
1848		85.937500
1849		78.125000
1850		85.937500
1851		80.078125
1852		82.031250
1853		76.171875
1854		82.031250
1855		76.171875
1856		82.031250
1857		72.265625
1858		80.078125
1859		72.265625
1860		80.078125
1861		70.312500
1862		78.125000
1863		68.359375
1864		76.171875
1865		68.359375
1866		74.218750
1867		68.359375
1868		72.265625
1869		66.406250
1870		70.312500
1871		62.500000
1872		70.312500
1873		60.546875
1874		68.359375
1875		58.593750
1876		66.406250
1877		56.640625
1878		64.453125
1879		54.687500
1880		64.453125
1881		52.734375
1882		60.546875
1883		52.734375
1884		58.593750
1885		50.781250
1886		56.640625
1887		46.875000
1888		54.687500
1889		44.921875
1890		52.734375
1891		42.968750
1892		50.781250
1893		41.015625
1894		48.828125
1895		37.109375
1896		46.875000
1897		35.156250
1898		44.921875
1899		35.156250
1900		42.968750
1901		33.203125
1902		39.062500
1903		29.296875
1904		35.156250
1905		27.343750
1906		35.156250
1907		23.437500
1908		33.203125
1909		23.437500
1910		31.250000
1911		17.578125
1912		27.343750
1913		15.625000
1914		23.437500
1915		13.671875
1916		21.484375
1917		13.671875
1918		17.578125
1919		9.765625
1920		15.625000
1921		5.859375
1922		13.671875
1923		1.953125
1924		11.718750
1925		0.000000
1926		9.765625
1927		-3.906250
1928		5.859375
1929		-3.906250
1930		3.906250
1931		-7.812500
1932		0.000000
1933		-7.812500
1934		-1.953125
1935		-11.718750
1936		-5.859375
1937		-15.625000
1938		-7.812500
1939		-17.578125
1940		-9.765625
1941		-21.484375
1942		-11.718750
1943		-23.437500
1944		-15.625000
1945		-27.343750
1946		-19.531250
1947		-29.296875
1948		-21.484375
1949		-31.250000
1950		-23.437500
1951		-33.203125
1952		-27.343750
1953		-35.156250
1954		-31.250000
1955		-41.015625
1956		-33.203125
1957		-42.968750
1958		-35.156250
1959		-46.875000
1960		-37.109375
1961		-48.828125
1962		-39.062500
1963		-50.781250
1964		-42.968750
1965		-52.734375
1966		-44.921875
1967		-54.687500
1968		-48.828125
1969		-56.640625
1970		-50.781250
1971		-60.546875
1972		-54.687500
1973		-62.500000
1974		-54.687500
1975		-66.406250
1976		-56.640625
1977		-68.359375
1978		-60.546875
1979		-70.312500
1980		-62.500000
1981		-72.265625
1982		-64.453125
1983		-74.218750
1984		-66.406250
1985		-76.171875
1986		-70.312500
1987		-78.125000
1988		-72.265625
1989		-82.031250
1990		-74.218750
1991		-83.984375
1992		-74.218750
1993		-85.937500
1994		-78.125000
1995		-87.890625
1996		-80.078125
1997		-89.843750
1998		-82.031250
1999		-91.796875
2000		-83.984375
2001		-91.796875
2002		-85.937500
2003		-91.796875
2004		-87.890625
2005		-97.656250
2006		-89.843750
2007		-97.656250
2008		-89.843750
2009		-99.609375
2010		-91.796875
2011		-99.609375
2012		-93.750000
2013		-101.562500
2014		-93.750000
2015		-103.515625
2016		-95.703125
2017		-103.515625
2018		-97.656250
2019		-103.515625
2020		-99.609375
2021		-107.421875
2022		-101.562500
2023		-107.421875
2024		-99.609375
2025		-109.375000
2026		-101.562500
2027		-109.375000
2028		-103.515625
2029		-109.375000
2030		-101.562500
2031		-111.328125
2032		-103.515625
2033		-111.328125
2034		-103.515625
2035		-111.328125
2036		-107.421875
2037		-109.375000
2038		-107.421875
2039		-113.281250
2040		-105.468750
2041		-113.281250
2042		-105.468750
2043		-113.281250
2044		-105.468750
2045		-113.281250
2046		-107.421875
2047		-113.281250
2048		-105.468750
2049		-113.281250
2050		-105.468750
2051		-113.281250
2052		-105.468750
2053		-111.328125
2054		-107.421875
2055		-111.328125
2056		-107.421875
2057		-113.281250
2058		-105.468750
2059		-113.281250
2060		-103.515625
2061		-111.328125
2062		-105.468750
2063		-111.328125
2064		-103.515625
2065		-111.328125
2066		-103.515625
2067		-109.375000
2068		-103.515625
2069		-107.421875
2070		-103.515625
2071		-105.468750
2072		-103.515625
2073		-107.421875
2074		-99.609375
2075		-107.421875
2076		-97.656250
2077		-105.468750
2078		-97.656250
2079		-103.515625
2080		-95.703125
2081		-103.515625
2082		-93.750000
2083		-101.562500
2084		-93.750000
2085		-97.656250
2086		-93.750000
2087		-97.656250
2088		-91.796875
2089		-95.703125
2090		-89.843750
2091		-95.703125
2092		-87.890625
2093		-93.750000
2094		-85.937500
2095		-91.796875
2096		-83.984375
2097		-89.843750
2098		-82.031250
2099		-87.890625
2100		-80.078125
2101		-85.937500
2102		-80.078125
2103		-82.031250
2104		-78.125000
2105		-80.078125
2106		-74.218750
2107		-82.031250
2108		-72.265625
2109		-78.125000
2110		-68.359375
2111		-76.171875
2112		-68.359375
2113		-74.218750
2114		-64.453125
2115		-72.265625
2116		-64.453125
2117		-68.359375
2118		-62.500000
2119		-64.453125
2120		-60.546875
2121		-62.500000
2122		-56.640625
2123		-60.546875
2124		-52.734375
2125		-58.593750
2126		-50.781250
2127		-56.640625
2128		-48.828125
2129		-54.687500
2130		-46.875000
2131		-50.781250
2132		-42.968750
2133		-48.828125
2134		-41.015625
2135		-46.875000
2136		-39.062500
2137		-41.015625
2138		-37.109375
2139		-39.062500
2140		-31.250000
2141		-39.062500
2142		-29.296875
2143		-37.109375
2144		-27.343750
2145		-33.203125
2146		-23.437500
2147		-29.296875
2148		-21.484375
2149		-27.343750
2150		-19.531250
2151		-25.390625
2152		-17.578125
2153		-19.531250
2154		-15.625000
2155		-17.578125
2156		-11.718750
2157		-17.578125
2158		-7.812500
2159		-13.671875
2160		-5.859375
2161		-11.718750
2162		-1.953125
2163		-7.812500
2164		0.000000
2165		-5.859375
2166		1.953125
2167		-1.953125
2168		5.859375
2169		1.953125
2170		5.859375
2171		3.906250
2172		9.765625
2173		5.859375
2174		13.671875
2175		7.812500
2176		15.625000
2177		9.765625
2178		19.531250
2179		13.671875
2180		21.484375
2181		15.625000
2182		23.437500
2183		19.531250
2184		27.343750
2185		19.531250
2186		27.343750
2187		23.437500
2188		29.296875
2189		27.343750
2190		33.203125
2191		27.343750
2192		37.109375
2193		29.296875
2194		37.109375
2195		31.250000
2196		41.015625
2197		35.156250
2198		42.968750
2199		37.109375
2200		44.921875
2201		41.015625
2202		46.875000
2203		42.968750
2204		48.828125
2205		44.921875
2206		50.781250
2207		46.875000
2208		54.687500
2209		48.828125
2210		56.640625
2211		50.781250
2212		58.593750
2213		52.734375
2214		58.593750
2215		52.734375
2216		62.500000
2217		56.640625
2218		62.500000
2219		58.593750
2220		64.453125
2221		60.546875
2222		66.406250
2223		62.500000
2224		68.359375
2225		64.453125
2226		70.312500
2227		64.453125
2228		72.265625
2229		66.406250
2230		74.218750
2231		68.359375
2232		76.171875
2233		68.359375
2234		78.125000
2235		70.312500
2236		78.125000
2237		74.218750
2238		78.125000
2239		76.171875
2240		80.078125
2241		74.218750
2242		82.031250
2243		76.171875
2244		83.984375
2245		78.125000
2246		85.937500
2247		78.125000
2248		85.937500
2249		80.078125
2250		85.937500
2251		80.078125
2252		89.843750
2253		83.984375
2254		87.890625
2255		83.984375
2256		87.890625
2257		85.937500
2258		89.843750
2259		83.984375
2260		91.796875
2261		83.984375
2262		91.796875
2263		85.937500
2264		91.796875
2265		85.937500
2266		93.750000
2267		85.937500
2268		93.750000
2269		87.890625
2270		93.750000
2271		89.843750
2272		93.750000
2273		89.843750
2274		93.750000
2275		87.890625
2276		95.703125
2277		87.890625
2278		95.703125
2279		87.890625
2280		95.703125
2281		89.843750
2282		95.703125
2283		87.890625
2284		95.703125
2285		87.890625
2286		95.703125
2287		89.843750
2288		93.750000
2289		91.796875
2290		93.750000
2291		87.890625
2292		95.703125
2293		87.890625
2294		95.703125
2295		87.890625
2296		95.703125
2297		87.890625
2298		95.703125
2299		85.937500
2300		93.750000
2301		85.937500
2302		93.750000
2303		87.890625
2304		93.750000
2305		87.890625
2306		91.796875
2307		85.937500
2308		91.796875
2309		83.984375
2310		91.796875
2311		83.984375
2312		91.796875
2313		83.984375
2314		89.843750
2315		82.031250
2316		89.843750
2317		80.078125
2318		87.890625
2319		80.078125
2320		87.890625
2321		82.031250
2322		83.984375
2323		80.078125
2324		83.984375
2325		76.171875
2326		83.984375
2327		74.218750
2328		83.984375
2329		74.218750
2330		82.031250
2331		72.265625
2332		80.078125
2333		72.265625
2334		78.125000
2335		70.312500
2336		78.125000
2337		70.312500
2338		74.218750
2339		68.359375
2340		72.265625
2341		66.406250
2342		72.265625
2343		62.500000
2344		70.312500
2345		62.500000
2346		68.359375
2347		58.593750
2348		66.406250
2349		56.640625
2350		66.406250
2351		56.640625
2352		64.453125
2353		54.687500
2354		62.500000
2355		54.687500
2356		58.593750
2357		52.734375
2358		56.640625
2359		48.828125
2360		56.640625
2361		44.921875
2362		54.687500
2363		42.968750
2364		50.781250
2365		41.015625
2366		50.781250
2367		39.062500
2368		46.875000
2369		37.109375
2370		44.921875
2371		37.109375
2372		41.015625
2373		35.156250
2374		39.062500
2375		29.296875
2376		37.109375
2377		27.343750
2378		35.156250
2379		25.390625
2380		33.203125
2381		21.484375
2382		31.250000
2383		19.531250
2384		29.296875
2385		17.578125
2386		25.390625
2387		15.625000
2388		23.437500
2389		13.671875
2390		19.531250
2391		11.718750
2392		17.578125
2393		5.859375
2394		15.625000
2395		3.906250
2396		13.671875
2397		0.000000
2398		9.765625
2399		-1.953125
2400		7.812500
2401		-3.906250
2402		3.906250
2403		-5.859375
2404		1.953125
2405		-7.812500
2406		-1.953125
2407		-9.765625
2408		-5.859375
2409		-15.625000
2410		-5.859375
2411		-17.578125
2412		-9.765625
2413		-19.531250
2414		-11.718750
2415		-21.484375
2416		-15.625000
2417		-25.390625
2418		-17.578125
2419		-29.296875
2420		-21.484375
2421		-29.296875
2422		-23.437500
2423		-31.250000
2424		-27.343750
2425		-37.109375
2426		-29.296875
2427		-39.062500
2428		-31.250000
2429		-42.968750
2430		-33.203125
2431		-44.921875
2432		-37.109375
2433		-46.875000
2434		-39.062500
2435		-50.781250
2436		-41.015625
2437		-50.781250
2438		-44.921875
2439		-52.734375
2440		-48.828125
2441		-56.640625
2442		-50.781250
2443		-60.546875
2444		-52.734375
2445		-62.500000
2446		-54.687500
2447		-64.453125
2448		-56.640625
2449		-66.406250
2450		-60.546875
2451		-70.312500
2452		-62.500000
2453		-72.265625
2454		-64.453125
2455		-72.265625
2456		-68.359375
2457		-74.218750
2458		-70.312500
2459		-78.125000
2460		-70.312500
2461		-80.078125
2462		-72.265625
2463		-83.984375
2464		-74.218750
2465		-83.984375
2466		-76.171875
2467		-85.937500
2468		-78.125000
2469		-87.890625
2470		-80.078125
2471		-89.843750
2472		-82.031250
2473		-89.843750
2474		-85.937500
2475		-93.750000
2476		-87.890625
2477		-95.703125
2478		-87.890625
2479		-97.656250
2480		-89.843750
2481		-99.609375
2482		-89.843750
2483		-99.609375
2484		-91.796875
2485		-101.562500
2486		-93.750000
2487		-103.515625
2488		-95.703125
2489		-101.562500
2490		-97.656250
2491		-103.515625
2492		-99.609375
2493		-107.421875
2494		-99.609375
2495		-107.421875
2496		-99.609375
2497		-107.421875
2498		-99.609375
2499		-109.375000
2500		-101.562500
2501		-111.328125
2502		-101.562500
2503		-111.328125
2504		-103.515625
2505		-109.375000
2506		-105.468750
2507		-109.375000
2508		-105.468750
2509		-113.281250
2510		-105.468750
2511		-113.281250
2512		-105.468750
2513		-113.281250
2514		-105.468750
2515		-113.281250
2516		-107.421875
2517		-113.281250
2518		-107.421875
2519		-113.281250
2520		-105.468750
2521		-113.281250
2522		-105.468750
2523		-111.328125
2524		-107.421875
2525		-111.328125
2526		-107.421875
2527		-113.281250
2528		-105.468750
2529		-113.281250
2530		-105.468750
2531		-111.328125
2532		-105.468750
2533		-111.328125
2534		-105.468750
2535		-111.328125
2536		-103.515625
2537		-111.328125
2538		-103.515625
2539		-107.421875
2540		-103.515625
2541		-107.421875
2542		-103.515625
2543		-107.421875
2544		-101.562500
2545		-107.421875
2546		-99.609375
2547		-105.468750
2548		-97.656250
2549		-105.468750
2550		-97.656250
2551		-103.515625
2552		-95.703125
2553		-101.562500
2554		-95.703125
2555		-101.562500
2556		-93.750000
2557		-97.656250
2558		-93.750000
2559		-95.703125
2560		-91.796875
2561		-97.656250
2562		-87.890625
2563		-95.703125
2564		-85.937500
2565		-93.750000
2566		-85.937500
2567		-91.796875
2568		-83.984375
2569		-89.843750
2570		-82.031250
2571		-87.890625
2572		-80.078125
2573		-83.984375
2574		-80.078125
2575		-82.031250
2576		-78.125000
2577		-82.031250
2578		-74.218750
2579		-80.078125
2580		-70.312500
2581		-76.171875
2582		-70.312500
2583		-76.171875
2584		-68.359375
2585		-72.265625
2586		-64.453125
2587		-70.312500
2588		-62.500000
2589		-66.406250
2590		-62.500000
2591		-64.453125
2592		-58.593750
2593		-62.500000
2594		-56.640625
2595		-62.500000
2596		-52.734375
2597		-58.593750
2598		-50.781250
2599		-56.640625
2600		-48.828125
2601		-54.687500
2602		-44.921875
2603		-50.781250
2604		-41.015625
2605		-48.828125
2606		-41.015625
2607		-44.921875
2608		-39.062500
2609		-41.015625
2610		-35.156250
2611		-41.015625
2612		-31.250000
2613		-37.109375
2614		-29.296875
2615		-37.109375
2616		-27.343750
2617		-33.203125
2618		-23.437500
2619		-29.296875
2620		-19.531250
2621		-27.343750
2622		-19.531250
2623		-23.437500
2624		-17.578125
2625		-19.531250
2626		-13.671875
2627		-17.578125
2628		-9.765625
2629		-15.625000
2630		-7.812500
2631		-11.718750
2632		-3.906250
2633		-9.765625
2634		-3.906250
2635		-5.859375
2636		0.000000
2637		-3.906250
2638		1.953125
2639		-1.953125
2640		3.906250
2641		1.953125
2642		5.859375
2643		3.906250
2644		9.765625
2645		5.859375
2646		13.671875
2647		7.812500
2648		17.578125
2649		9.765625
2650		19.531250
2651		13.671875
2652		21.484375
2653		15.625000
2654		25.390625
2655		19.531250
2656		25.390625
2657		23.437500
2658		27.343750
2659		25.390625
2660		29.296875
2661		27.343750
2662		33.203125
2663		27.343750
2664		35.156250
2665		31.250000
2666		39.062500
2667		33.203125
2668		42.968750
2669		35.156250
2670		42.968750
2671		37.109375
2672		46.875000
2673		41.015625
2674		46.875000
2675		42.968750
2676		48.828125
2677		44.921875
2678		52.734375
2679		46.875000
2680		52.734375
2681		48.828125
2682		56.640625
2683		50.781250
2684		58.593750
2685		52.734375
2686		60.546875
2687		54.687500
2688		60.546875
2689		54.687500
2690		62.500000
2691		60.546875
2692		64.453125
2693		62.500000
2694		66.406250
2695		60.546875
2696		70.312500
2697		64.453125
2698		70.312500
2699		64.453125
2700		72.265625
2701		66.406250
2702		74.218750
2703		68.359375
2704		76.171875
2705		68.359375
2706		78.125000
2707		72.265625
2708		76.171875
2709		74.218750
2710		78.125000
2711		74.218750
2712		82.031250
2713		74.218750
2714		82.031250
2715		76.171875
2716		83.984375
2717		78.125000
2718		85.937500
2719		78.125000
2720		85.937500
2721		80.078125
2722		87.890625
2723		80.078125
2724		85.937500
2725		83.984375
2726		87.890625
2727		83.984375
2728		89.843750
2729		83.984375
2730		89.843750
2731		83.984375
2732		91.796875
2733		85.937500
2734		91.796875
2735		85.937500
2736		91.796875
2737		85.937500
2738		93.750000
2739		85.937500
2740		93.750000
2741		89.843750
2742		91.796875
2743		89.843750
2744		93.750000
2745		87.890625
2746		93.750000
2747		87.890625
2748		95.703125
2749		89.843750
2750		95.703125
2751		87.890625
2752		95.703125
2753		87.890625
2754		95.703125
2755		89.843750
2756		95.703125
2757		89.843750
2758		95.703125
2759		91.796875
2760		93.750000
2761		87.890625
2762		95.703125
2763		87.890625
2764		95.703125
2765		87.890625
2766		95.703125
2767		87.890625
2768		95.703125
2769		87.890625
2770		93.750000
2771		85.937500
2772		93.750000
2773		85.937500
2774		95.703125
2775		87.890625
2776		91.796875
2777		87.890625
2778		91.796875
2779		85.937500
2780		91.796875
2781		83.984375
2782		91.796875
2783		83.984375
2784		91.796875
2785		82.031250
2786		89.843750
2787		82.031250
2788		89.843750
2789		80.078125
2790		87.890625
2791		82.031250
2792		85.937500
2793		80.078125
2794		83.984375
2795		80.078125
2796		83.984375
2797		76.171875
2798		83.984375
2799		74.218750
2800		82.031250
2801		74.218750
2802		82.031250
2803		72.265625
2804		80.078125
2805		70.312500
2806		78.125000
2807		70.312500
2808		76.171875
2809		70.312500
2810		74.218750
2811		68.359375
2812		72.265625
2813		64.453125
2814		72.265625
2815		62.500000
2816		70.312500
2817		62.500000
2818		68.359375
2819		58.593750
2820		66.406250
2821		56.640625
2822		64.453125
2823		56.640625
2824		62.500000
2825		54.687500
2826		58.593750
2827		52.734375
2828		58.593750
2829		50.781250
2830		54.687500
2831		48.828125
2832		54.687500
2833		46.875000
2834		50.781250
2835		42.968750
2836		48.828125
2837		41.015625
2838		46.875000
2839		39.062500
2840		44.921875
2841		37.109375
2842		42.968750
2843		35.156250
2844		39.062500
2845		33.203125
2846		37.109375
2847		31.250000
2848		35.156250
2849		27.343750
2850		33.203125
2851		23.437500
2852		31.250000
2853		19.531250
2854		29.296875
2855		19.531250
2856		25.390625
2857		17.578125
2858		25.390625
2859		15.625000
2860		19.531250
2861		11.718750
2862		17.578125
2863		9.765625
2864		15.625000
2865		7.812500
2866		13.671875
2867		3.906250
2868		9.765625
2869		1.953125
2870		7.812500
2871		-1.953125
2872		5.859375
2873		-3.906250
2874		1.953125
2875		-5.859375
2876		0.000000
2877		-9.765625
2878		-3.906250
2879		-11.718750
2880		-5.859375
2881		-13.671875
2882		-9.765625
2883		-17.578125
2884		-11.718750
2885		-19.531250
2886		-13.671875
2887		-25.390625
2888		-15.625000
2889		-25.390625
2890		-19.531250
2891		-27.343750
2892		-23.437500
2893		-31.250000
2894		-25.390625
2895		-33.203125
2896		-29.296875
2897		-35.156250
2898		-31.250000
2899		-39.062500
2900		-33.203125
2901		-41.015625
2902		-37.109375
2903		-44.921875
2904		-39.062500
2905		-48.828125
2906		-41.015625
2907		-50.781250
2908		-44.921875
2909		-52.734375
2910		-46.875000
2911		-54.687500
2912		-48.828125
2913		-56.640625
2914		-52.734375
2915		-60.546875
2916		-54.687500
2917		-62.500000
2918		-56.640625
2919		-64.453125
2920		-58.593750
2921		-66.406250
2922		-60.546875
2923		-70.312500
2924		-62.500000
2925		-70.312500
2926		-66.406250
2927		-74.218750
2928		-68.359375
2929		-76.171875
2930		-70.312500
2931		-78.125000
2932		-74.218750
2933		-80.078125
2934		-74.218750
2935		-82.031250
2936		-76.171875
2937		-83.984375
2938		-80.078125
2939		-85.937500
2940		-82.031250
2941		-87.890625
2942		-83.984375
2943		-89.843750
2944		-85.937500
2945		-91.796875
2946		-85.937500
2947		-93.750000
2948		-87.890625
2949		-95.703125
2950		-89.843750
2951		-95.703125
2952		-91.796875
2953		-97.656250
2954		-93.750000
2955		-99.609375
2956		-95.703125
2957		-101.562500
2958		-95.703125
2959		-101.562500
2960		-95.703125
2961		-101.562500
2962		-99.609375
2963		-103.515625
2964		-99.609375
2965		-105.468750
2966		-101.562500
2967		-105.468750
2968		-101.562500
2969		-107.421875
2970		-101.562500
2971		-107.421875
2972		-103.515625
2973		-109.375000
2974		-103.515625
2975		-109.375000
2976		-105.468750
2977		-109.375000
2978		-105.468750
2979		-111.328125
2980		-105.468750
2981		-111.328125
2982		-105.468750
2983		-111.328125
2984		-107.421875
2985		-111.328125
2986		-107.421875
2987		-111.328125
2988		-107.421875
2989		-111.328125
2990		-107.421875
2991		-111.328125
2992		-107.421875
2993		-111.328125
2994		-107.421875
2995		-111.328125
2996		-107.421875
2997		-111.328125
2998		-107.421875
2999		-111.328125
3000		-107.421875
3001		-109.375000
3002		-107.421875
3003		-111.328125
3004		-105.468750
3005		-109.375000
3006		-105.468750
3007		-109.375000
3008		-105.468750
3009		-107.421875
3010		-105.468750
3011		-107.421875
3012		-103.515625
3013		-107.421875
3014		-103.515625
3015		-105.468750
3016		-101.562500
3017		-105.468750
3018		-99.609375
3019		-103.515625
3020		-99.609375
3021		-103.515625
3022		-97.656250
3023		-101.562500
3024		-97.656250
3025		-99.609375
3026		-95.703125
3027		-97.656250
3028		-93.750000
3029		-97.656250
3030		-93.750000
3031		-95.703125
3032		-91.796875
3033		-93.750000
3034		-89.843750
3035		-91.796875
3036		-87.890625
3037		-89.843750
3038		-85.937500
3039		-89.843750
3040		-83.984375
3041		-87.890625
3042		-82.031250
3043		-85.937500
3044		-80.078125
3045		-82.031250
3046		-78.125000
3047		-80.078125
3048		-76.171875
3049		-78.125000
3050		-74.218750
3051		-76.171875
3052		-72.265625
3053		-76.171875
3054		-70.312500
3055		-72.265625
3056		-68.359375
3057		-70.312500
3058		-66.406250
3059		-68.359375
3060		-62.500000
3061		-66.406250
3062		-60.546875
3063		-62.500000
3064		-56.640625
3065		-60.546875
3066		-54.687500
3067		-58.593750
3068		-52.734375
3069		-56.640625
3070		-50.781250
3071		-52.734375
3072		-48.828125
3073		-50.781250
3074		-44.921875
3075		-48.828125
3076		-42.968750
3077		-44.921875
3078		-41.015625
3079		-42.968750
3080		-37.109375
3081		-41.015625
3082		-35.156250
3083		-37.109375
3084		-33.203125
3085		-35.156250
3086		-29.296875
3087		-31.250000
3088		-27.343750
3089		-29.296875
3090		-23.437500
3091		-27.343750
3092		-21.484375
3093		-25.390625
3094		-19.531250
3095		-21.484375
3096		-15.625000
3097		-17.578125
3098		-11.718750
3099		-15.625000
3100		-9.765625
3101		-13.671875
3102		-7.812500
3103		-9.765625
3104		-5.859375
3105		-7.812500
3106		-1.953125
3107		-5.859375
3108		0.000000
3109		-1.953125
3110		3.906250
3111		0.000000
3112		5.859375
3113		1.953125
3114		7.812500
3115		5.859375
3116		11.718750
3117		7.812500
3118		13.671875
3119		11.718750
3120		15.625000
3121		13.671875
3122		19.531250
3123		15.625000
3124		21.484375
3125		17.578125
3126		25.390625
3127		21.484375
3128		25.390625
3129		23.437500
3130		29.296875
3131		25.390625
3132		31.250000
3133		29.296875
3134		33.203125
3135		31.250000
3136		35.156250
3137		33.203125
3138		39.062500
3139		35.156250
3140		41.015625
3141		39.062500
3142		42.968750
3143		41.015625
3144		44.921875
3145		42.968750
3146		46.875000
3147		44.921875
3148		48.828125
3149		46.875000
3150		52.734375
3151		48.828125
3152		54.687500
3153		50.781250
3154		54.687500
3155		52.734375
3156		58.593750
3157		54.687500
3158		60.546875
3159		56.640625
3160		62.500000
3161		58.593750
3162		62.500000
3163		60.546875
3164		66.406250
3165		62.500000
3166		68.359375
3167		64.453125
3168		68.359375
3169		64.453125
3170		70.312500
3171		68.359375
3172		72.265625
3173		70.312500
3174		74.218750
3175		70.312500
3176		74.218750
3177		70.312500
3178		76.171875
3179		74.218750
3180		78.125000
3181		76.171875
3182		80.078125
3183		76.171875
3184		82.031250
3185		78.125000
3186		82.031250
3187		78.125000
3188		82.031250
3189		80.078125
3190		83.984375
3191		82.031250
3192		85.937500
3193		82.031250
3194		85.937500
3195		83.984375
3196		85.937500
3197		83.984375
3198		87.890625
3199		83.984375
3200		87.890625
3201		85.937500
3202		89.843750
3203		85.937500
3204		91.796875
3205		87.890625
3206		91.796875
3207		87.890625
3208		91.796875
3209		87.890625
3210		91.796875
3211		89.843750
3212		93.750000
3213		89.843750
3214		93.750000
3215		89.843750
3216		93.750000
3217		89.843750
3218		93.750000
3219		89.843750
3220		93.750000
3221		91.796875
3222		95.703125
3223		91.796875
3224		93.750000
3225		91.796875
3226		93.750000
3227		89.843750
3228		95.703125
3229		91.796875
3230		93.750000
3231		91.796875
3232		95.703125
3233		89.843750
3234		93.750000
3235		89.843750
3236		93.750000
3237		89.843750
3238		93.750000
3239		89.843750
3240		93.750000
3241		87.890625
3242		93.750000
3243		87.890625
3244		93.750000
3245		87.890625
3246		91.796875
3247		87.890625
3248		91.796875
3249		87.890625
3250		89.843750
3251		85.937500
3252		89.843750
3253		85.937500
3254		89.843750
3255		85.937500
3256		89.843750
3257		83.984375
3258		87.890625
3259		82.031250
3260		87.890625
3261		82.031250
3262		85.937500
3263		82.031250
3264		85.937500
3265		78.125000
3266		83.984375
3267		78.125000
3268		82.031250
3269		76.171875
3270		82.031250
3271		76.171875
3272		80.078125
3273		74.218750
3274		78.125000
3275		74.218750
3276		78.125000
3277		72.265625
3278		76.171875
3279		70.312500
3280		74.218750
3281		68.359375
3282		74.218750
3283		66.406250
3284		72.265625
3285		66.406250
3286		70.312500
3287		64.453125
3288		68.359375
3289		62.500000
3290		66.406250
3291		60.546875
3292		64.453125
3293		58.593750
3294		62.500000
3295		56.640625
3296		60.546875
3297		54.687500
3298		58.593750
3299		52.734375
3300		58.593750
3301		50.781250
3302		54.687500
3303		46.875000
3304		52.734375
3305		44.921875
3306		50.781250
3307		42.968750
3308		48.828125
3309		41.015625
3310		46.875000
3311		39.062500
3312		44.921875
3313		37.109375
3314		41.015625
3315		35.156250
3316		39.062500
3317		31.250000
3318		37.109375
3319		29.296875
3320		35.156250
3321		27.343750
3322		31.250000
3323		23.437500
3324		29.296875
3325		21.484375
3326		27.343750
3327		19.531250
3328		25.390625
3329		15.625000
3330		21.484375
3331		13.671875
3332		19.531250
3333		11.718750
3334		17.578125
3335		7.812500
3336		13.671875
3337		5.859375
3338		11.718750
3339		3.906250
3340		7.812500
3341		1.953125
3342		5.859375
3343		-1.953125
3344		3.906250
3345		-3.906250
3346		0.000000
3347		-7.812500
3348		-1.953125
3349		-11.718750
3350		-5.859375
3351		-13.671875
3352		-5.859375
3353		-15.625000
3354		-9.765625
3355		-17.578125
3356		-13.671875
3357		-21.484375
3358		-15.625000
3359		-23.437500
3360		-17.578125
3361		-25.390625
3362		-21.484375
3363		-29.296875
3364		-23.437500
3365		-31.250000
3366		-27.343750
3367		-35.156250
3368		-29.296875
3369		-37.109375
3370		-33.203125
3371		-39.062500
3372		-35.156250
3373		-42.968750
3374		-37.109375
3375		-44.921875
3376		-39.062500
3377		-48.828125
3378		-42.968750
3379		-50.781250
3380		-44.921875
3381		-52.734375
3382		-48.828125
3383		-54.687500
3384		-50.781250
3385		-58.593750
3386		-52.734375
3387		-60.546875
3388		-54.687500
3389		-62.500000
3390		-58.593750
3391		-64.453125
3392		-60.546875
3393		-68.359375
3394		-62.500000
3395		-70.312500
3396		-64.453125
3397		-72.265625
3398		-66.406250
3399		-74.218750
3400		-70.312500
3401		-76.171875
3402		-72.265625
3403		-78.125000
3404		-74.218750
3405		-80.078125
3406		-76.171875
3407		-82.031250
3408		-78.125000
3409		-85.937500
3410		-80.078125
3411		-85.937500
3412		-82.031250
3413		-87.890625
3414		-83.984375
3415		-89.843750
3416		-85.937500
3417		-91.796875
3418		-85.937500
3419		-93.750000
3420		-89.843750
3421		-93.750000
3422		-89.843750
3423		-95.703125
3424		-91.796875
3425		-97.656250
3426		-93.750000
3427		-99.609375
3428		-95.703125
3429		-101.562500
3430		-95.703125
3431		-101.562500
3432		-97.656250
3433		-103.515625
3434		-97.656250
3435		-103.515625
3436		-99.609375
3437		-105.468750
3438		-101.562500
3439		-105.468750
3440		-101.562500
3441		-107.421875
3442		-103.515625
3443		-107.421875
3444		-103.515625
3445		-109.375000
3446		-103.515625
3447		-109.375000
3448		-105.468750
3449		-109.375000
3450		-105.468750
3451		-109.375000
3452		-105.468750
3453		-111.328125
3454		-105.468750
3455		-111.328125
3456		-107.421875
3457		-111.328125
3458		-107.421875
3459		-111.328125
3460		-107.421875
3461		-111.328125
3462		-107.421875
3463		-111.328125
3464		-107.421875
3465		-111.328125
3466		-107.421875
3467		-111.328125
3468		-107.421875
3469		-111.328125
3470		-105.468750
3471		-109.375000
3472		-107.421875
3473		-109.375000
3474		-107.421875
3475		-109.375000
3476		-105.468750
3477		-109.375000
3478		-105.468750
3479		-107.421875
3480		-103.515625
3481		-107.421875
3482		-103.515625
3483		-107.421875
3484		-103.515625
3485		-107.421875
3486		-101.562500
3487		-105.468750
3488		-101.562500
3489		-103.515625
3490		-99.609375
3491		-103.515625
3492		-97.656250
3493		-101.562500
3494		-97.656250
3495		-101.562500
3496		-95.703125
3497		-99.609375
3498		-95.703125
3499		-97.656250
3500		-93.750000
3501		-95.703125
3502		-91.796875
3503		-95.703125
3504		-89.843750
3505		-93.750000
3506		-87.890625
3507		-91.796875
3508		-87.890625
3509		-89.843750
3510		-85.937500
3511		-87.890625
3512		-83.984375
3513		-85.937500
3514		-80.078125
3515		-83.984375
3516		-80.078125
3517		-82.031250
3518		-78.125000
3519		-80.078125
3520		-74.218750
3521		-78.125000
3522		-74.218750
3523		-76.171875
3524		-70.312500
3525		-74.218750
3526		-68.359375
3527		-72.265625
3528		-66.406250
3529		-70.312500
3530		-64.453125
3531		-66.406250
3532		-62.500000
3533		-64.453125
3534		-60.546875
3535		-62.500000
3536		-56.640625
3537		-60.546875
3538		-54.687500
3539		-56.640625
3540		-52.734375
3541		-54.687500
3542		-48.828125
3543		-52.734375
3544		-46.875000
3545		-50.781250
3546		-44.921875
3547		-46.875000
3548		-41.015625
3549		-44.921875
3550		-39.062500
3551		-41.015625
3552		-35.156250
3553		-39.062500
3554		-33.203125
3555		-37.109375
3556		-31.250000
3557		-33.203125
3558		-29.296875
3559		-31.250000
3560		-25.390625
3561		-27.343750
3562		-23.437500
3563		-25.390625
3564		-19.531250
3565		-23.437500
3566		-17.578125
3567		-19.531250
3568		-13.671875
3569		-17.578125
3570		-11.718750
3571		-13.671875
3572		-9.765625
3573		-11.718750
3574		-5.859375
3575		-9.765625
3576		-3.906250
3577		-5.859375
3578		0.000000
3579		-3.906250
3580		1.953125
3581		-1.953125
3582		3.906250
3583		1.953125
3584		7.812500
3585		3.906250
3586		9.765625
3587		5.859375
3588		11.718750
3589		9.765625
3590		15.625000
3591		11.718750
3592		17.578125
3593		15.625000
3594		19.531250
3595		17.578125
3596		23.437500
3597		19.531250
3598		25.390625
3599		23.437500
3600		27.343750
3601		25.390625
3602		29.296875
3603		27.343750
3604		33.203125
3605		29.296875
3606		35.156250
3607		31.250000
3608		37.109375
3609		35.156250
3610		39.062500
3611		37.109375
3612		42.968750
3613		39.062500
3614		44.921875
3615		41.015625
3616		46.875000
3617		42.968750
3618		48.828125
3619		44.921875
3620		50.781250
3621		48.828125
3622		52.734375
3623		50.781250
3624		54.687500
3625		52.734375
3626		56.640625
3627		52.734375
3628		58.593750
3629		56.640625
3630		60.546875
3631		58.593750
3632		62.500000
3633		60.546875
3634		64.453125
3635		62.500000
3636		66.406250
3637		62.500000
3638		68.359375
3639		64.453125
3640		70.312500
3641		66.406250
3642		72.265625
3643		66.406250
3644		72.265625
3645		70.312500
3646		74.218750
3647		70.312500
3648		76.171875
3649		74.218750
3650		78.125000
3651		74.218750
3652		78.125000
3653		76.171875
3654		80.078125
3655		76.171875
3656		82.031250
3657		78.125000
3658		82.031250
3659		80.078125
3660		83.984375
3661		80.078125
3662		83.984375
3663		82.031250
3664		85.937500
3665		82.031250
3666		85.937500
3667		83.984375
3668		87.890625
3669		83.984375
3670		87.890625
3671		85.937500
3672		89.843750
3673		85.937500
3674		89.843750
3675		87.890625
3676		91.796875
3677		87.890625
3678		91.796875
3679		87.890625
3680		91.796875
3681		89.843750
3682		93.750000
3683		89.843750
3684		93.750000
3685		89.843750
3686		93.750000
3687		89.843750
3688		93.750000
3689		91.796875
3690		93.750000
3691		91.796875
3692		93.750000
3693		91.796875
3694		93.750000
3695		91.796875
3696		95.703125
3697		91.796875
3698		95.703125
3699		91.796875
3700		95.703125
3701		91.796875
3702		95.703125
3703		91.796875
3704		95.703125
3705		91.796875
3706		95.703125
3707		91.796875
3708		93.750000
3709		89.843750
3710		95.703125
3711		89.843750
3712		93.750000
3713		89.843750
3714		93.750000
3715		89.843750
3716		93.750000
3717		89.843750
3718		93.750000
3719		87.890625
3720		91.796875
3721		87.890625
3722		91.796875
3723		87.890625
3724		89.843750
3725		85.937500
3726		89.843750
3727		85.937500
3728		89.843750
3729		83.984375
3730		87.890625
3731		83.984375
3732		87.890625
3733		82.031250
3734		85.937500
3735		82.031250
3736		85.937500
3737		80.078125
3738		83.984375
3739		80.078125
3740		83.984375
3741		78.125000
3742		82.031250
3743		76.171875
3744		82.031250
3745		76.171875
3746		80.078125
3747		74.218750
3748		78.125000
3749		72.265625
3750		78.125000
3751		70.312500
3752		74.218750
3753		68.359375
3754		74.218750
3755		68.359375
3756		72.265625
3757		66.406250
3758		70.312500
3759		64.453125
3760		68.359375
3761		62.500000
3762		66.406250
3763		60.546875
3764		64.453125
3765		58.593750
3766		62.500000
3767		56.640625
3768		60.546875
3769		52.734375
3770		58.593750
3771		52.734375
3772		56.640625
3773		48.828125
3774		54.687500
3775		48.828125
3776		52.734375
3777		46.875000
3778		50.781250
3779		42.968750
3780		48.828125
3781		41.015625
3782		46.875000
3783		39.062500
3784		44.921875
3785		37.109375
3786		41.015625
3787		35.156250
3788		39.062500
3789		33.203125
3790		37.109375
3791		29.296875
3792		35.156250
3793		27.343750
3794		33.203125
3795		25.390625
3796		29.296875
3797		21.484375
3798		27.343750
3799		19.531250
3800		25.390625
3801		17.578125
3802		21.484375
3803		13.671875
3804		19.531250
3805		11.718750
3806		17.578125
3807		9.765625
3808		13.671875
3809		5.859375
3810		11.718750
3811		3.906250
3812		9.765625
3813		0.000000
3814		5.859375
3815		-1.953125
3816		3.906250
3817		-3.906250
3818		0.000000
3819		-7.812500
3820		-1.953125
3821		-11.718750
3822		-3.906250
3823		-13.671875
3824		-7.812500
3825		-15.625000
3826		-9.765625
3827		-17.578125
3828		-13.671875
3829		-21.484375
3830		-15.625000
3831		-23.437500
3832		-17.578125
3833		-25.390625
3834		-21.484375
3835		-29.296875
3836		-23.437500
3837		-33.203125
3838		-27.343750
3839		-35.156250
3840		-29.296875
3841		-37.109375
3842		-33.203125
3843		-39.062500
3844		-35.156250
3845		-42.968750
3846		-37.109375
3847		-44.921875
3848		-39.062500
3849		-46.875000
3850		-42.968750
3851		-50.781250
3852		-44.921875
3853		-52.734375
3854		-48.828125
3855		-56.640625
3856		-50.781250
3857		-58.593750
3858		-52.734375
3859		-60.546875
3860		-54.687500
3861		-62.500000
3862		-58.593750
3863		-64.453125
3864		-60.546875
3865		-68.359375
3866		-62.500000
3867		-70.312500
3868		-64.453125
3869		-72.265625
3870		-68.359375
3871		-74.218750
3872		-70.312500
3873		-76.171875
3874		-72.265625
3875		-78.125000
3876		-74.218750
3877		-80.078125
3878		-76.171875
3879		-82.031250
3880		-78.125000
3881		-83.984375
3882		-80.078125
3883		-85.937500
3884		-82.031250
3885		-87.890625
3886		-83.984375
3887		-89.843750
3888		-85.937500
3889		-91.796875
3890		-85.937500
3891		-93.750000
3892		-87.890625
3893		-93.750000
3894		-89.843750
3895		-95.703125
3896		-91.796875
3897		-97.656250
3898		-93.750000
3899		-97.656250
3900		-95.703125
3901		-99.609375
3902		-95.703125
3903		-101.562500
3904		-97.656250
3905		-103.515625
3906		-97.656250
3907		-103.515625
3908		-99.609375
3909		-103.515625
3910		-101.562500
3911		-105.468750
3912		-101.562500
3913		-105.468750
3914		-103.515625
3915		-107.421875
3916		-103.515625
3917		-107.421875
3918		-103.515625
3919		-107.421875
3920		-105.468750
3921		-109.375000
3922		-105.468750
3923		-109.375000
3924		-105.468750
3925		-109.375000
3926		-105.468750
3927		-109.375000
3928		-105.468750
3929		-109.375000
3930		-107.421875
3931		-109.375000
3932		-105.468750
3933		-111.328125
3934		-107.421875
3935		-109.375000
3936		-107.421875
3937		-109.375000
3938		-105.468750
3939		-109.375000
3940		-105.468750
3941		-111.328125
3942		-105.468750
3943		-109.375000
3944		-105.468750
3945		-109.375000
3946		-103.515625
3947		-107.421875
3948		-105.468750
3949		-107.421875
3950		-103.515625
3951		-107.421875
3952		-103.515625
3953		-105.468750
3954		-103.515625
3955		-105.468750
3956		-101.562500
3957		-105.468750
3958		-101.562500
3959		-103.515625
3960		-99.609375
3961		-101.562500
3962		-99.609375
3963		-101.562500
3964		-97.656250
3965		-99.609375
3966		-95.703125
3967		-99.609375
3968		-95.703125
3969		-97.656250
3970		-93.750000
3971		-95.703125
3972		-91.796875
3973		-95.703125
3974		-89.843750
3975		-93.750000
3976		-87.890625
3977		-91.796875
3978		-85.937500
3979		-89.843750
3980		-85.937500
3981		-87.890625
3982		-82.031250
3983		-87.890625
3984		-82.031250
3985		-83.984375
3986		-80.078125
3987		-82.031250
3988		-78.125000
3989		-80.078125
3990		-76.171875
3991		-78.125000
3992		-74.218750
3993		-78.125000
3994		-72.265625
3995		-74.218750
3996		-70.312500
3997		-72.265625
3998		-66.406250
3999		-70.312500
4000		-64.453125
4001		-68.359375
4002		-62.500000
4003		-64.453125
4004		-60.546875
4005		-62.500000
4006		-58.593750
4007		-60.546875
4008		-54.687500
4009		-58.593750
4010		-52.734375
4011		-54.687500
4012		-50.781250
4013		-52.734375
4014		-46.875000
4015		-50.781250
4016		-44.921875
4017		-46.875000
4018		-42.968750
4019		-44.921875
4020		-39.062500
4021		-42.968750
4022		-37.109375
4023		-41.015625
4024		-35.156250
4025		-37.109375
4026		-33.203125
4027		-35.156250
4028		-29.296875
4029		-31.250000
4030		-27.343750
4031		-29.296875
4032		-23.437500
4033		-25.390625
4034		-21.484375
4035		-23.437500
4036		-19.531250
4037		-21.484375
4038		-15.625000
4039		-17.578125
4040		-11.718750
4041		-15.625000
4042		-9.765625
4043		-11.718750
4044		-7.812500
4045		-9.765625
4046		-3.906250
4047		-7.812500
4048		-1.953125
4049		-3.906250
4050		0.000000
4051		-1.953125
4052		3.906250
4053		1.953125
4054		5.859375
4055		3.906250
4056		9.765625
4057		5.859375
4058		11.718750
4059		9.765625
4060		13.671875
4061		11.718750
4062		15.625000
4063		13.671875
4064		19.531250
4065		17.578125
4066		21.484375
4067		19.531250
4068		23.437500
4069		21.484375
4070		27.343750
4071		23.437500
4072		29.296875
4073		27.343750
4074		31.250000
4075		29.296875
4076		35.156250
4077		31.250000
4078		37.109375
4079		33.203125
4080		39.062500
4081		37.109375
4082		41.015625
4083		39.062500
4084		42.968750
4085		41.015625
4086		44.921875
4087		42.968750
4088		46.875000
4089		44.921875
4090		50.781250
4091		46.875000
4092		52.734375
4093		48.828125
4094		54.687500
4095		52.734375
4096		56.640625
4097		52.734375
4098		58.593750
4099		54.687500
4100		60.546875
4101		56.640625
4102		62.500000
4103		60.546875
4104		64.453125
4105		60.546875
4106		66.406250
4107		62.500000
4108		66.406250
4109		64.453125
4110		70.312500
4111		66.406250
4112		70.312500
4113		68.359375
4114		72.265625
4115		70.312500
4116		74.218750
4117		72.265625
4118		76.171875
4119		72.265625
4120		76.171875
4121		74.218750
4122		78.125000
4123		76.171875
4124		80.078125
4125		78.125000
4126		82.031250
4127		78.125000
4128		82.031250
4129		80.078125
4130		83.984375
4131		80.078125
4132		85.937500
4133		82.031250
4134		85.937500
4135		82.031250
4136		87.890625
4137		83.984375
4138		87.890625
4139		83.984375
4140		89.843750
4141		85.937500
4142		89.843750
4143		85.937500
4144		91.796875
4145		85.937500
4146		91.796875
4147		87.890625
4148		91.796875
4149		87.890625
4150		91.796875
4151		87.890625
4152		93.750000
4153		89.843750
4154		93.750000
4155		91.796875
4156		93.750000
4157		91.796875
4158		95.703125
4159		91.796875
4160		95.703125
4161		91.796875
4162		95.703125
4163		91.796875
4164		95.703125
4165		91.796875
4166		95.703125
4167		91.796875
4168		95.703125
4169		91.796875
4170		95.703125
4171		91.796875
4172		95.703125
4173		91.796875
4174		95.703125
4175		91.796875
4176		95.703125
4177		91.796875
4178		95.703125
4179		91.796875
4180		95.703125
4181		91.796875
4182		95.703125
4183		91.796875
4184		95.703125
4185		91.796875
4186		93.750000
4187		89.843750
4188		93.750000
4189		89.843750
4190		93.750000
4191		87.890625
4192		93.750000
4193		87.890625
4194		91.796875
4195		87.890625
4196		91.796875
4197		87.890625
4198		91.796875
4199		85.937500
4200		89.843750
4201		83.984375
4202		89.843750
4203		83.984375
4204		87.890625
4205		83.984375
4206		87.890625
4207		82.031250
4208		87.890625
4209		80.078125
4210		85.937500
4211		80.078125
4212		83.984375
4213		78.125000
4214		83.984375
4215		78.125000
4216		82.031250
4217		76.171875
4218		80.078125
4219		74.218750
4220		80.078125
4221		72.265625
4222		76.171875
4223		72.265625
4224		76.171875
4225		68.359375
4226		74.218750
4227		68.359375
4228		72.265625
4229		66.406250
4230		70.312500
4231		64.453125
4232		68.359375
4233		62.500000
4234		68.359375
4235		60.546875
4236		66.406250
4237		58.593750
4238		64.453125
4239		56.640625
4240		60.546875
4241		54.687500
4242		60.546875
4243		50.781250
4244		58.593750
4245		50.781250
4246		56.640625
4247		46.875000
4248		54.687500
4249		46.875000
4250		52.734375
4251		42.968750
4252		48.828125
4253		41.015625
4254		46.875000
4255		39.062500
4256		44.921875
4257		37.109375
4258		42.968750
4259		35.156250
4260		41.015625
4261		31.250000
4262		37.109375
4263		29.296875
4264		35.156250
4265		25.390625
4266		33.203125
4267		23.437500
4268		31.250000
4269		21.484375
4270		27.343750
4271		19.531250
4272		25.390625
4273		17.578125
4274		23.437500
4275		13.671875
4276		19.531250
4277		11.718750
4278		17.578125
4279		9.765625
4280		15.625000
4281		5.859375
4282		13.671875
4283		1.953125
4284		9.765625
4285		0.000000
4286		5.859375
4287		-1.953125
4288		3.906250
4289		-3.906250
4290		0.000000
4291		-7.812500
4292		-1.953125
4293		-9.765625
4294		-3.906250
4295		-13.671875
4296		-5.859375
4297		-15.625000
4298		-9.765625
4299		-17.578125
4300		-11.718750
4301		-21.484375
4302		-15.625000
4303		-23.437500
4304		-17.578125
4305		-25.390625
4306		-21.484375
4307		-29.296875
4308		-23.437500
4309		-31.250000
4310		-27.343750
4311		-33.203125
4312		-29.296875
4313		-37.109375
4314		-31.250000
4315		-39.062500
4316		-35.156250
4317		-42.968750
4318		-37.109375
4319		-44.921875
4320		-39.062500
4321		-46.875000
4322		-42.968750
4323		-50.781250
4324		-44.921875
4325		-52.734375
4326		-46.875000
4327		-54.687500
4328		-50.781250
4329		-56.640625
4330		-52.734375
4331		-60.546875
4332		-54.687500
4333		-62.500000
4334		-56.640625
4335		-64.453125
4336		-60.546875
4337		-66.406250
4338		-62.500000
4339		-68.359375
4340		-64.453125
4341		-70.312500
4342		-66.406250
4343		-74.218750
4344		-68.359375
4345		-76.171875
4346		-70.312500
4347		-78.125000
4348		-72.265625
4349		-80.078125
4350		-76.171875
4351		-82.031250
4352		-76.171875
4353		-83.984375
4354		-78.125000
4355		-85.937500
4356		-80.078125
4357		-87.890625
4358		-83.984375
4359		-87.890625
4360		-83.984375
4361		-89.843750
4362		-85.937500
4363		-91.796875
4364		-87.890625
4365		-93.750000
4366		-89.843750
4367		-95.703125
4368		-91.796875
4369		-95.703125
4370		-91.796875
4371		-97.656250
4372		-93.750000
4373		-99.609375
4374		-95.703125
4375		-99.609375
4376		-95.703125
4377		-101.562500
4378		-97.656250
4379		-101.562500
4380		-97.656250
4381		-103.515625
4382		-99.609375
4383		-103.515625
4384		-101.562500
4385		-105.468750
4386		-101.562500
4387		-105.468750
4388		-101.562500
4389		-105.468750
4390		-103.515625
4391		-107.421875
4392		-103.515625
4393		-107.421875
4394		-103.515625
4395		-107.421875
4396		-105.468750
4397		-107.421875
4398		-105.468750
4399		-107.421875
4400		-105.468750
4401		-109.375000
4402		-105.468750
4403		-109.375000
4404		-105.468750
4405		-109.375000
4406		-105.468750
4407		-109.375000
4408		-105.468750
4409		-111.328125
4410		-103.515625
4411		-111.328125
4412		-101.562500
4413		-111.328125
4414		-101.562500
4415		-107.421875
4416		-103.515625
4417		-107.421875
4418		-103.515625
4419		-107.421875
4420		-103.515625
4421		-105.468750
4422		-101.562500
4423		-105.468750
4424		-101.562500
4425		-105.468750
4426		-97.656250
4427		-105.468750
4428		-97.656250
4429		-105.468750
4430		-95.703125
4431		-105.468750
4432		-95.703125
4433		-99.609375
4434		-97.656250
4435		-99.609375
4436		-95.703125
4437		-97.656250
4438		-93.750000
4439		-97.656250
4440		-93.750000
4441		-95.703125
4442		-91.796875
4443		-97.656250
4444		-85.937500
4445		-95.703125
4446		-85.937500
4447		-93.750000
4448		-83.984375
4449		-89.843750
4450		-85.937500
4451		-87.890625
4452		-83.984375
4453		-85.937500
4454		-82.031250
4455		-83.984375
4456		-80.078125
4457		-82.031250
4458		-78.125000
4459		-82.031250
4460		-72.265625
4461		-82.031250
4462		-70.312500
4463		-80.078125
4464		-68.359375
4465		-74.218750
4466		-68.359375
4467		-72.265625
4468		-66.406250
4469		-68.359375
4470		-64.453125
4471		-66.406250
4472		-62.500000
4473		-64.453125
4474		-60.546875
4475		-62.500000
4476		-54.687500
4477		-64.453125
4478		-52.734375
4479		-60.546875
4480		-50.781250
4481		-58.593750
4482		-48.828125
4483		-52.734375
4484		-46.875000
4485		-50.781250
4486		-44.921875
4487		-46.875000
4488		-42.968750
4489		-44.921875
4490		-41.015625
4491		-42.968750
4492		-37.109375
4493		-42.968750
4494		-33.203125
4495		-39.062500
4496		-29.296875
4497		-37.109375
4498		-27.343750
4499		-31.250000
4500		-27.343750
4501		-29.296875
4502		-23.437500
4503		-25.390625
4504		-21.484375
4505		-23.437500
4506		-19.531250
4507		-21.484375
4508		-15.625000
4509		-19.531250
4510		-11.718750
4511		-19.531250
4512		-7.812500
4513		-15.625000
4514		-3.906250
4515		-11.718750
4516		-3.906250
4517		-7.812500
4518		-1.953125
4519		-3.906250
4520		0.000000
4521		-1.953125
4522		3.906250
4523		0.000000
4524		5.859375
4525		3.906250
4526		7.812500
4527		3.906250
4528		13.671875
4529		5.859375
4530		15.625000
4531		9.765625
4532		17.578125
4533		13.671875
4534		19.531250
4535		15.625000
4536		21.484375
4537		19.531250
4538		23.437500
4539		21.484375
4540		27.343750
4541		23.437500
4542		29.296875
4543		25.390625
4544		35.156250
4545		27.343750
4546		37.109375
4547		29.296875
4548		39.062500
4549		33.203125
4550		39.062500
4551		37.109375
4552		41.015625
4553		39.062500
4554		42.968750
4555		41.015625
4556		44.921875
4557		42.968750
4558		46.875000
4559		44.921875
4560		50.781250
4561		44.921875
4562		54.687500
4563		46.875000
4564		56.640625
4565		48.828125
4566		58.593750
4567		54.687500
4568		58.593750
4569		56.640625
4570		60.546875
4571		56.640625
4572		62.500000
4573		60.546875
4574		64.453125
4575		62.500000
4576		66.406250
4577		60.546875
4578		70.312500
4579		62.500000
4580		72.265625
4581		64.453125
4582		74.218750
4583		68.359375
4584		72.265625
4585		70.312500
4586		74.218750
4587		72.265625
4588		76.171875
4589		74.218750
4590		78.125000
4591		74.218750
4592		78.125000
4593		76.171875
4594		80.078125
4595		76.171875
4596		83.984375
4597		76.171875
4598		85.937500
4599		80.078125
4600		83.984375
4601		82.031250
4602		83.984375
4603		82.031250
4604		85.937500
4605		83.984375
4606		87.890625
4607		83.984375
4608		87.890625
4609		85.937500
4610		89.843750
4611		85.937500
4612		89.843750
4613		85.937500
4614		93.750000
4615		85.937500
4616		91.796875
4617		89.843750
4618		91.796875
4619		89.843750
4620		93.750000
4621		89.843750
4622		93.750000
4623		91.796875
4624		93.750000
4625		91.796875
4626		95.703125
4627		91.796875
4628		95.703125
4629		91.796875
4630		97.656250
4631		89.843750
4632		97.656250
4633		93.750000
4634		95.703125
4635		93.750000
4636		97.656250
4637		93.750000
4638		95.703125
4639		93.750000
4640		95.703125
4641		93.750000
4642		95.703125
4643		93.750000
4644		95.703125
4645		93.750000
4646		95.703125
4647		93.750000
4648		95.703125
4649		93.750000
4650		95.703125
4651		93.750000
4652		95.703125
4653		91.796875
4654		95.703125
4655		91.796875
4656		95.703125
4657		91.796875
4658		95.703125
4659		91.796875
4660		93.750000
4661		89.843750
4662		93.750000
4663		89.843750
4664		93.750000
4665		89.843750
4666		91.796875
4667		87.890625
4668		91.796875
4669		87.890625
4670		91.796875
4671		85.937500
4672		89.843750
4673		85.937500
4674		89.843750
4675		83.984375
4676		87.890625
4677		83.984375
4678		87.890625
4679		82.031250
4680		85.937500
4681		82.031250
4682		85.937500
4683		80.078125
4684		83.984375
4685		78.125000
4686		82.031250
4687		78.125000
4688		82.031250
4689		76.171875
4690		80.078125
4691		74.218750
4692		78.125000
4693		72.265625
4694		76.171875
4695		72.265625
4696		76.171875
4697		70.312500
4698		74.218750
4699		68.359375
4700		72.265625
4701		66.406250
4702		70.312500
4703		64.453125
4704		70.312500
4705		62.500000
4706		66.406250
4707		60.546875
4708		64.453125
4709		58.593750
4710		62.500000
4711		56.640625
4712		60.546875
4713		54.687500
4714		58.593750
4715		52.734375
4716		56.640625
4717		50.781250
4718		54.687500
4719		48.828125
4720		52.734375
4721		46.875000
4722		50.781250
4723		44.921875
4724		48.828125
4725		41.015625
4726		46.875000
4727		37.109375
4728		44.921875
4729		37.109375
4730		41.015625
4731		35.156250
4732		39.062500
4733		33.203125
4734		37.109375
4735		29.296875
4736		35.156250
4737		27.343750
4738		31.250000
4739		25.390625
4740		29.296875
4741		21.484375
4742		27.343750
4743		19.531250
4744		25.390625
4745		17.578125
4746		21.484375
4747		13.671875
4748		19.531250
4749		11.718750
4750		17.578125
4751		7.812500
4752		13.671875
4753		5.859375
4754		11.718750
4755		3.906250
4756		9.765625
4757		0.000000
4758		5.859375
4759		-1.953125
4760		3.906250
4761		-7.812500
4762		0.000000
4763		-9.765625
4764		-1.953125
4765		-9.765625
4766		-5.859375
4767		-13.671875
4768		-7.812500
4769		-15.625000
4770		-9.765625
4771		-17.578125
4772		-13.671875
4773		-21.484375
4774		-15.625000
4775		-23.437500
4776		-19.531250
4777		-25.390625
4778		-21.484375
4779		-29.296875
4780		-23.437500
4781		-31.250000
4782		-27.343750
4783		-35.156250
4784		-29.296875
4785		-39.062500
4786		-33.203125
4787		-39.062500
4788		-35.156250
4789		-42.968750
4790		-37.109375
4791		-44.921875
4792		-41.015625
4793		-48.828125
4794		-42.968750
4795		-50.781250
4796		-44.921875
4797		-52.734375
4798		-46.875000
4799		-54.687500
4800		-50.781250
4801		-58.593750
4802		-52.734375
4803		-60.546875
4804		-54.687500
4805		-62.500000
4806		-56.640625
4807		-64.453125
4808		-60.546875
4809		-66.406250
4810		-62.500000
4811		-70.312500
4812		-64.453125
4813		-72.265625
4814		-66.406250
4815		-72.265625
4816		-68.359375
4817		-76.171875
4818		-70.312500
4819		-78.125000
4820		-72.265625
4821		-80.078125
4822		-74.218750
4823		-82.031250
4824		-76.171875
4825		-83.984375
4826		-78.125000
4827		-85.937500
4828		-80.078125
4829		-87.890625
4830		-82.031250
4831		-89.843750
4832		-83.984375
4833		-89.843750
4834		-85.937500
4835		-91.796875
4836		-87.890625
4837		-93.750000
4838		-87.890625
4839		-93.750000
4840		-91.796875
4841		-95.703125
4842		-91.796875
4843		-97.656250
4844		-93.750000
4845		-99.609375
4846		-95.703125
4847		-101.562500
4848		-95.703125
4849		-101.562500
4850		-97.656250
4851		-101.562500
4852		-97.656250
4853		-103.515625
4854		-99.609375
4855		-103.515625
4856		-99.609375
4857		-103.515625
4858		-101.562500
4859		-105.468750
4860		-101.562500
4861		-105.468750
4862		-101.562500
4863		-107.421875
4864		-101.562500
4865		-107.421875
4866		-101.562500
4867		-107.421875
4868		-103.515625
4869		-107.421875
4870		-103.515625
4871		-107.421875
4872		-103.515625
4873		-107.421875
4874		-103.515625
4875		-107.421875
4876		-103.515625
4877		-107.421875
4878		-103.515625
4879		-107.421875
4880		-103.515625
4881		-107.421875
4882		-103.515625
4883		-107.421875
4884		-103.515625
4885		-107.421875
4886		-103.515625
4887		-105.468750
4888		-103.515625
4889		-105.468750
4890		-101.562500
4891		-105.468750
4892		-101.562500
4893		-103.515625
4894		-101.562500
4895		-103.515625
4896		-99.609375
4897		-103.515625
4898		-99.609375
4899		-101.562500
4900		-97.656250
4901		-101.562500
4902		-97.656250
4903		-99.609375
4904		-95.703125
4905		-99.609375
4906		-95.703125
4907		-97.656250
4908		-93.750000
4909		-95.703125
4910		-91.796875
4911		-95.703125
4912		-91.796875
4913		-93.750000
4914		-89.843750
4915		-91.796875
4916		-87.890625
4917		-89.843750
4918		-85.937500
4919		-89.843750
4920		-85.937500
4921		-87.890625
4922		-83.984375
4923		-85.937500
4924		-82.031250
4925		-83.984375
4926		-80.078125
4927		-82.031250
4928		-78.125000
4929		-80.078125
4930		-76.171875
4931		-78.125000
4932		-74.218750
4933		-76.171875
4934		-72.265625
4935		-74.218750
4936		-70.312500
4937		-72.265625
4938		-68.359375
4939		-70.312500
4940		-64.453125
4941		-68.359375
4942		-62.500000
4943		-64.453125
4944		-60.546875
4945		-62.500000
4946		-58.593750
4947		-60.546875
4948		-54.687500
4949		-58.593750
4950		-52.734375
4951		-56.640625
4952		-50.781250
4953		-52.734375
4954		-48.828125
4955		-50.781250
4956		-44.921875
4957		-48.828125
4958		-42.968750
4959		-44.921875
4960		-41.015625
4961		-42.968750
4962		-39.062500
4963		-41.015625
4964		-35.156250
4965		-39.062500
4966		-33.203125
4967		-35.156250
4968		-29.296875
4969		-33.203125
4970		-27.343750
4971		-29.296875
4972		-25.390625
4973		-27.343750
4974		-21.484375
4975		-23.437500
4976		-19.531250
4977		-21.484375
4978		-17.578125
4979		-19.531250
4980		-13.671875
4981		-15.625000
4982		-11.718750
4983		-13.671875
4984		-7.812500
4985		-9.765625
4986		-5.859375
4987		-7.812500
4988		-3.906250
4989		-5.859375
4990		0.000000
4991		-1.953125
4992		1.953125
4993		0.000000
4994		3.906250
4995		1.953125
4996		7.812500
4997		3.906250
4998		9.765625
4999		7.812500
5000		13.671875
5001		9.765625
5002		15.625000
5003		13.671875
5004		17.578125
5005		15.625000
5006		21.484375
5007		17.578125
5008		23.437500
5009		21.484375
5010		25.390625
5011		23.437500
5012		27.343750
5013		25.390625
5014		31.250000
5015		29.296875
5016		33.203125
5017		31.250000
5018		35.156250
5019		33.203125
5020		37.109375
5021		35.156250
5022		41.015625
5023		39.062500
5024		42.968750
5025		41.015625
5026		44.921875
5027		42.968750
5028		46.875000
5029		44.921875
5030		48.828125
5031		46.875000
5032		52.734375
5033		48.828125
5034		54.687500
5035		50.781250
5036		56.640625
5037		52.734375
5038		58.593750
5039		54.687500
5040		60.546875
5041		56.640625
5042		62.500000
5043		58.593750
5044		64.453125
5045		60.546875
5046		66.406250
5047		62.500000
5048		68.359375
5049		64.453125
5050		70.312500
5051		66.406250
5052		70.312500
5053		68.359375
5054		72.265625
5055		70.312500
5056		74.218750
5057		72.265625
5058		76.171875
5059		74.218750
5060		78.125000
5061		74.218750
5062		78.125000
5063		76.171875
5064		80.078125
5065		76.171875
5066		82.031250
5067		78.125000
5068		83.984375
5069		80.078125
5070		83.984375
5071		82.031250
5072		85.937500
5073		82.031250
5074		85.937500
5075		83.984375
5076		87.890625
5077		83.984375
5078		87.890625
5079		85.937500
5080		89.843750
5081		85.937500
5082		91.796875
5083		85.937500
5084		93.750000
5085		87.890625
5086		91.796875
5087		89.843750
5088		93.750000
5089		89.843750
5090		93.750000
5091		91.796875
5092		93.750000
5093		91.796875
5094		95.703125
5095		91.796875
5096		95.703125
5097		91.796875
5098		97.656250
5099		91.796875
5100		97.656250
5101		93.750000
5102		97.656250
5103		93.750000
5104		97.656250
5105		93.750000
5106		97.656250
5107		93.750000
5108		97.656250
5109		93.750000
5110		97.656250
5111		93.750000
5112		97.656250
5113		93.750000
5114		97.656250
5115		93.750000
5116		99.609375
5117		93.750000
5118		97.656250
5119		93.750000
5120		97.656250
5121		93.750000
5122		97.656250
5123		93.750000
5124		97.656250
5125		93.750000
5126		97.656250
5127		93.750000
5128		95.703125
5129		91.796875
5130		95.703125
5131		89.843750
5132		95.703125
5133		89.843750
5134		95.703125
5135		89.843750
5136		93.750000
5137		89.843750
5138		93.750000
5139		89.843750
5140		91.796875
5141		87.890625
5142		91.796875
5143		87.890625
5144		91.796875
5145		85.937500
5146		89.843750
5147		85.937500
5148		89.843750
5149		83.984375
5150		89.843750
5151		83.984375
5152		87.890625
5153		82.031250
5154		85.937500
5155		80.078125
5156		85.937500
5157		80.078125
5158		83.984375
5159		78.125000
5160		82.031250
5161		76.171875
5162		80.078125
5163		76.171875
5164		80.078125
5165		72.265625
5166		80.078125
5167		70.312500
5168		76.171875
5169		70.312500
5170		74.218750
5171		68.359375
5172		72.265625
5173		66.406250
5174		72.265625
5175		64.453125
5176		70.312500
5177		62.500000
5178		68.359375
5179		60.546875
5180		66.406250
5181		56.640625
5182		64.453125
5183		56.640625
5184		62.500000
5185		54.687500
5186		60.546875
5187		52.734375
5188		58.593750
5189		50.781250
5190		56.640625
5191		48.828125
5192		54.687500
5193		46.875000
5194		50.781250
5195		44.921875
5196		48.828125
5197		42.968750
5198		46.875000
5199		39.062500
5200		44.921875
5201		37.109375
5202		42.968750
5203		35.156250
5204		41.015625
5205		33.203125
5206		37.109375
5207		29.296875
5208		35.156250
5209		27.343750
5210		33.203125
5211		25.390625
5212		31.250000
5213		23.437500
5214		27.343750
5215		19.531250
5216		25.390625
5217		17.578125
5218		23.437500
5219		15.625000
5220		19.531250
5221		11.718750
5222		17.578125
5223		9.765625
5224		13.671875
5225		5.859375
5226		11.718750
5227		3.906250
5228		9.765625
5229		1.953125
5230		5.859375
5231		-1.953125
5232		3.906250
5233		-3.906250
5234		1.953125
5235		-7.812500
5236		-1.953125
5237		-9.765625
5238		-3.906250
5239		-11.718750
5240		-7.812500
5241		-15.625000
5242		-9.765625
5243		-17.578125
5244		-11.718750
5245		-19.531250
5246		-15.625000
5247		-23.437500
5248		-17.578125
5249		-25.390625
5250		-21.484375
5251		-29.296875
5252		-23.437500
5253		-31.250000
5254		-25.390625
5255		-33.203125
5256		-29.296875
5257		-37.109375
5258		-31.250000
5259		-39.062500
5260		-35.156250
5261		-41.015625
5262		-37.109375
5263		-44.921875
5264		-39.062500
5265		-46.875000
5266		-41.015625
5267		-50.781250
5268		-44.921875
5269		-52.734375
5270		-46.875000
5271		-54.687500
5272		-50.781250
5273		-56.640625
5274		-52.734375
5275		-60.546875
5276		-54.687500
5277		-62.500000
5278		-56.640625
5279		-64.453125
5280		-58.593750
5281		-66.406250
5282		-60.546875
5283		-68.359375
5284		-64.453125
5285		-70.312500
5286		-66.406250
5287		-72.265625
5288		-68.359375
5289		-74.218750
5290		-70.312500
5291		-76.171875
5292		-72.265625
5293		-78.125000
5294		-74.218750
5295		-80.078125
5296		-76.171875
5297		-82.031250
5298		-78.125000
5299		-83.984375
5300		-80.078125
5301		-85.937500
5302		-82.031250
5303		-87.890625
5304		-83.984375
5305		-89.843750
5306		-85.937500
5307		-91.796875
5308		-87.890625
5309		-91.796875
5310		-89.843750
5311		-93.750000
5312		-89.843750
5313		-95.703125
5314		-91.796875
5315		-97.656250
5316		-91.796875
5317		-97.656250
5318		-93.750000
5319		-99.609375
5320		-95.703125
5321		-101.562500
5322		-95.703125
5323		-101.562500
5324		-97.656250
5325		-101.562500
5326		-99.609375
5327		-103.515625
5328		-99.609375
5329		-103.515625
5330		-99.609375
5331		-105.468750
5332		-101.562500
5333		-105.468750
5334		-101.562500
5335		-105.468750
5336		-101.562500
5337		-105.468750
5338		-103.515625
5339		-105.468750
5340		-103.515625
5341		-107.421875
5342		-103.515625
5343		-107.421875
5344		-103.515625
5345		-107.421875
5346		-103.515625
5347		-107.421875
5348		-103.515625
5349		-107.421875
5350		-103.515625
5351		-107.421875
5352		-103.515625
5353		-107.421875
5354		-103.515625
5355		-107.421875
5356		-103.515625
5357		-105.468750
5358		-103.515625
5359		-105.468750
5360		-103.515625
5361		-105.468750
5362		-101.562500
5363		-105.468750
5364		-101.562500
5365		-103.515625
5366		-101.562500
5367		-103.515625
5368		-99.609375
5369		-103.515625
5370		-99.609375
5371		-101.562500
5372		-97.656250
5373		-101.562500
5374		-97.656250
5375		-99.609375
5376		-95.703125
5377		-99.609375
5378		-95.703125
5379		-97.656250
5380		-93.750000
5381		-95.703125
5382		-91.796875
5383		-93.750000
5384		-91.796875
5385		-93.750000
5386		-89.843750
5387		-91.796875
5388		-87.890625
5389		-89.843750
5390		-85.937500
5391		-89.843750
5392		-83.984375
5393		-87.890625
5394		-83.984375
5395		-85.937500
5396		-82.031250
5397		-83.984375
5398		-80.078125
5399		-82.031250
5400		-78.125000
5401		-80.078125
5402		-76.171875
5403		-78.125000
5404		-74.218750
5405		-76.171875
5406		-70.312500
5407		-74.218750
5408		-70.312500
5409		-72.265625
5410		-66.406250
5411		-70.312500
5412		-64.453125
5413		-66.406250
5414		-62.500000
5415		-64.453125
5416		-60.546875
5417		-62.500000
5418		-58.593750
5419		-60.546875
5420		-56.640625
5421		-58.593750
5422		-52.734375
5423		-54.687500
5424		-50.781250
5425		-52.734375
5426		-48.828125
5427		-50.781250
5428		-44.921875
5429		-46.875000
5430		-42.968750
5431		-44.921875
5432		-41.015625
5433		-42.968750
5434		-37.109375
5435		-41.015625
5436		-35.156250
5437		-37.109375
5438		-33.203125
5439		-35.156250
5440		-29.296875
5441		-31.250000
5442		-27.343750
5443		-29.296875
5444		-23.437500
5445		-27.343750
5446		-21.484375
5447		-23.437500
5448		-19.531250
5449		-21.484375
5450		-15.625000
5451		-19.531250
5452		-13.671875
5453		-15.625000
5454		-11.718750
5455		-13.671875
5456		-7.812500
5457		-11.718750
5458		-5.859375
5459		-7.812500
5460		-1.953125
5461		-5.859375
5462		0.000000
5463		-1.953125
5464		1.953125
5465		0.000000
5466		5.859375
5467		3.906250
5468		7.812500
5469		5.859375
5470		9.765625
5471		7.812500
5472		13.671875
5473		11.718750
5474		15.625000
5475		13.671875
5476		17.578125
5477		15.625000
5478		21.484375
5479		17.578125
5480		23.437500
5481		21.484375
5482		25.390625
5483		23.437500
5484		29.296875
5485		25.390625
5486		31.250000
5487		29.296875
5488		33.203125
5489		31.250000
5490		37.109375
5491		33.203125
5492		39.062500
5493		35.156250
5494		41.015625
5495		37.109375
5496		42.968750
5497		41.015625
5498		44.921875
5499		42.968750
5500		46.875000
5501		44.921875
5502		48.828125
5503		46.875000
5504		52.734375
5505		48.828125
5506		54.687500
5507		50.781250
5508		56.640625
5509		52.734375
5510		58.593750
5511		54.687500
5512		60.546875
5513		58.593750
5514		62.500000
5515		60.546875
5516		64.453125
5517		62.500000
5518		66.406250
5519		62.500000
5520		68.359375
5521		64.453125
5522		68.359375
5523		66.406250
5524		70.312500
5525		68.359375
5526		72.265625
5527		70.312500
5528		74.218750
5529		72.265625
5530		76.171875
5531		72.265625
5532		78.125000
5533		74.218750
5534		78.125000
5535		76.171875
5536		80.078125
5537		78.125000
5538		82.031250
5539		78.125000
5540		82.031250
5541		80.078125
5542		83.984375
5543		82.031250
5544		85.937500
5545		83.984375
5546		85.937500
5547		83.984375
5548		87.890625
5549		83.984375
5550		87.890625
5551		85.937500
5552		89.843750
5553		87.890625
5554		89.843750
5555		87.890625
5556		91.796875
5557		87.890625
5558		91.796875
5559		89.843750
5560		91.796875
5561		89.843750
5562		93.750000
5563		89.843750
5564		93.750000
5565		91.796875
5566		93.750000
5567		91.796875
5568		95.703125
5569		91.796875
5570		95.703125
5571		91.796875
5572		95.703125
5573		93.750000
5574		95.703125
5575		93.750000
5576		97.656250
5577		93.750000
5578		97.656250
5579		93.750000
5580		97.656250
5581		93.750000
5582		97.656250
5583		93.750000
5584		97.656250
5585		93.750000
5586		97.656250
5587		93.750000
5588		97.656250
5589		93.750000
5590		97.656250
5591		93.750000
5592		97.656250
5593		93.750000
5594		95.703125
5595		93.750000
5596		95.703125
5597		93.750000
5598		95.703125
5599		91.796875
5600		95.703125
5601		91.796875
5602		95.703125
5603		91.796875
5604		95.703125
5605		89.843750
5606		93.750000
5607		89.843750
5608		93.750000
5609		89.843750
5610		91.796875
5611		87.890625
5612		91.796875
5613		87.890625
5614		91.796875
5615		85.937500
5616		89.843750
5617		85.937500
5618		89.843750
5619		83.984375
5620		87.890625
5621		83.984375
5622		87.890625
5623		82.031250
5624		85.937500
5625		82.031250
5626		85.937500
5627		80.078125
5628		83.984375
5629		78.125000
5630		82.031250
5631		78.125000
5632		82.031250
5633		76.171875
5634		80.078125
5635		74.218750
5636		78.125000
5637		72.265625
5638		76.171875
5639		70.312500
5640		76.171875
5641		70.312500
5642		74.218750
5643		68.359375
5644		72.265625
5645		66.406250
5646		70.312500
5647		64.453125
5648		68.359375
5649		62.500000
5650		66.406250
5651		60.546875
5652		64.453125
5653		58.593750
5654		62.500000
5655		56.640625
5656		60.546875
5657		54.687500
5658		58.593750
5659		52.734375
5660		56.640625
5661		50.781250
5662		54.687500
5663		46.875000
5664		52.734375
5665		44.921875
5666		50.781250
5667		42.968750
5668		48.828125
5669		41.015625
5670		46.875000
5671		39.062500
5672		42.968750
5673		37.109375
5674		41.015625
5675		33.203125
5676		39.062500
5677		31.250000
5678		37.109375
5679		29.296875
5680		33.203125
5681		25.390625
5682		31.250000
5683		23.437500
5684		29.296875
5685		21.484375
5686		27.343750
5687		19.531250
5688		23.437500
5689		15.625000
5690		21.484375
5691		13.671875
5692		17.578125
5693		11.718750
5694		15.625000
5695		7.812500
5696		13.671875
5697		5.859375
5698		9.765625
5699		1.953125
5700		7.812500
5701		0.000000
5702		5.859375
5703		-1.953125
5704		1.953125
5705		-5.859375
5706		0.000000
5707		-7.812500
5708		-1.953125
5709		-11.718750
5710		-5.859375
5711		-13.671875
5712		-7.812500
5713		-15.625000
5714		-11.718750
5715		-19.531250
5716		-13.671875
5717		-21.484375
5718		-17.578125
5719		-25.390625
5720		-19.531250
5721		-27.343750
5722		-21.484375
5723		-29.296875
5724		-25.390625
5725		-33.203125
5726		-27.343750
5727		-35.156250
5728		-29.296875
5729		-37.109375
5730		-33.203125
5731		-41.015625
5732		-35.156250
5733		-42.968750
5734		-39.062500
5735		-44.921875
5736		-41.015625
5737		-48.828125
5738		-42.968750
5739		-50.781250
5740		-44.921875
5741		-52.734375
5742		-48.828125
5743		-56.640625
5744		-50.781250
5745		-58.593750
5746		-52.734375
5747		-60.546875
5748		-56.640625
5749		-62.500000
5750		-58.593750
5751		-64.453125
5752		-60.546875
5753		-68.359375
5754		-62.500000
5755		-70.312500
5756		-64.453125
5757		-72.265625
5758		-66.406250
5759		-74.218750
5760		-70.312500
5761		-76.171875
5762		-72.265625
5763		-78.125000
5764		-74.218750
5765		-80.078125
5766		-76.171875
5767		-82.031250
5768		-78.125000
5769		-83.984375
5770		-80.078125
5771		-85.937500
5772		-82.031250
5773		-87.890625
5774		-82.031250
5775		-89.843750
5776		-85.937500
5777		-91.796875
5778		-85.937500
5779		-91.796875
5780		-87.890625
5781		-93.750000
5782		-89.843750
5783		-95.703125
5784		-91.796875
5785		-95.703125
5786		-91.796875
5787		-97.656250
5788		-93.750000
5789		-99.609375
5790		-95.703125
5791		-99.609375
5792		-95.703125
5793		-101.562500
5794		-97.656250
5795		-101.562500
5796		-97.656250
5797		-103.515625
5798		-99.609375
5799		-103.515625
5800		-99.609375
5801		-103.515625
5802		-101.562500
5803		-105.468750
5804		-101.562500
5805		-105.468750
5806		-101.562500
5807		-105.468750
5808		-103.515625
5809		-107.421875
5810		-103.515625
5811		-107.421875
5812		-103.515625
5813		-107.421875
5814		-103.515625
5815		-107.421875
5816		-103.515625
5817		-107.421875
5818		-103.515625
5819		-107.421875
5820		-103.515625
5821		-107.421875
5822		-103.515625
5823		-107.421875
5824		-103.515625
5825		-107.421875
5826		-103.515625
5827		-107.421875
5828		-103.515625
5829		-107.421875
5830		-103.515625
5831		-105.468750
5832		-103.515625
5833		-105.468750
5834		-101.562500
5835		-105.468750
5836		-101.562500
5837		-103.515625
5838		-101.562500
5839		-103.515625
5840		-99.609375
5841		-103.515625
5842		-99.609375
5843		-101.562500
5844		-97.656250
5845		-101.562500
5846		-97.656250
5847		-99.609375
5848		-95.703125
5849		-99.609375
5850		-95.703125
5851		-97.656250
5852		-93.750000
5853		-95.703125
5854		-91.796875
5855		-93.750000
5856		-89.843750
5857		-93.750000
5858		-89.843750
5859		-91.796875
5860		-87.890625
5861		-89.843750
5862		-85.937500
5863		-87.890625
5864		-83.984375
5865		-85.937500
5866		-82.031250
5867		-85.937500
5868		-80.078125
5869		-83.984375
5870		-80.078125
5871		-82.031250
5872		-76.171875
5873		-80.078125
5874		-74.218750
5875		-78.125000
5876		-72.265625
5877		-76.171875
5878		-70.312500
5879		-72.265625
5880		-68.359375
5881		-70.312500
5882		-66.406250
5883		-68.359375
5884		-64.453125
5885		-66.406250
5886		-62.500000
5887		-64.453125
5888		-60.546875
5889		-62.500000
5890		-56.640625
5891		-60.546875
5892		-54.687500
5893		-56.640625
5894		-52.734375
5895		-54.687500
5896		-50.781250
5897		-52.734375
5898		-46.875000
5899		-48.828125
5900		-44.921875
5901		-46.875000
5902		-42.968750
5903		-44.921875
5904		-39.062500
5905		-42.968750
5906		-37.109375
5907		-39.062500
5908		-35.156250
5909		-37.109375
5910		-31.250000
5911		-33.203125
5912		-29.296875
5913		-31.250000
5914		-27.343750
5915		-29.296875
5916		-23.437500
5917		-25.390625
5918		-21.484375
5919		-23.437500
5920		-17.578125
5921		-21.484375
5922		-15.625000
5923		-17.578125
5924		-13.671875
5925		-15.625000
5926		-9.765625
5927		-13.671875
5928		-7.812500
5929		-9.765625
5930		-3.906250
5931		-7.812500
5932		-1.953125
5933		-3.906250
5934		0.000000
5935		-1.953125
5936		3.906250
5937		1.953125
5938		5.859375
5939		3.906250
5940		9.765625
5941		5.859375
5942		11.718750
5943		9.765625
5944		13.671875
5945		11.718750
5946		17.578125
5947		13.671875
5948		19.531250
5949		17.578125
5950		21.484375
5951		19.531250
5952		25.390625
5953		21.484375
5954		27.343750
5955		23.437500
5956		29.296875
5957		27.343750
5958		31.250000
5959		29.296875
5960		35.156250
5961		31.250000
5962		37.109375
5963		35.156250
5964		39.062500
5965		37.109375
5966		41.015625
5967		39.062500
5968		44.921875
5969		41.015625
5970		46.875000
5971		42.968750
5972		48.828125
5973		44.921875
5974		50.781250
5975		48.828125
5976		52.734375
5977		50.781250
5978		54.687500
5979		52.734375
5980		56.640625
5981		54.687500
5982		58.593750
5983		56.640625
5984		60.546875
5985		58.593750
5986		62.500000
5987		60.546875
5988		64.453125
5989		62.500000
5990		66.406250
5991		64.453125
5992		68.359375
5993		66.406250
5994		70.312500
5995		66.406250
5996		72.265625
5997		68.359375
5998		74.218750
5999		70.312500
6000		74.218750
6001		72.265625
6002		76.171875
6003		74.218750
6004		78.125000
6005		76.171875
6006		80.078125
6007		76.171875
6008		80.078125
6009		78.125000
6010		82.031250
6011		80.078125
6012		83.984375
6013		80.078125
6014		83.984375
6015		82.031250
6016		85.937500
6017		82.031250
6018		85.937500
6019		83.984375
6020		87.890625
6021		83.984375
6022		87.890625
6023		85.937500
6024		89.843750
6025		87.890625
6026		91.796875
6027		87.890625
6028		91.796875
6029		87.890625
6030		91.796875
6031		89.843750
6032		93.750000
6033		89.843750
6034		93.750000
6035		91.796875
6036		93.750000
6037		91.796875
6038		95.703125
6039		91.796875
6040		95.703125
6041		91.796875
6042		95.703125
6043		93.750000
6044		95.703125
6045		93.750000
6046		97.656250
6047		93.750000
6048		97.656250
6049		93.750000
6050		97.656250
6051		93.750000
6052		97.656250
6053		93.750000
6054		97.656250
6055		93.750000
6056		99.609375
6057		93.750000
6058		97.656250
6059		91.796875
6060		97.656250
6061		93.750000
6062		97.656250
6063		93.750000
6064		97.656250
6065		93.750000
6066		97.656250
6067		93.750000
6068		95.703125
6069		93.750000
6070		95.703125
6071		91.796875
6072		95.703125
6073		91.796875
6074		95.703125
6075		91.796875
6076		95.703125
6077		89.843750
6078		95.703125
6079		89.843750
6080		93.750000
6081		87.890625
6082		93.750000
6083		87.890625
6084		91.796875
6085		85.937500
6086		93.750000
6087		85.937500
6088		89.843750
6089		85.937500
6090		89.843750
6091		83.984375
6092		89.843750
6093		82.031250
6094		87.890625
6095		82.031250
6096		87.890625
6097		80.078125
6098		85.937500
6099		80.078125
6100		85.937500
6101		76.171875
6102		83.984375
6103		76.171875
6104		82.031250
6105		76.171875
6106		80.078125
6107		72.265625
6108		78.125000
6109		72.265625
6110		78.125000
6111		70.312500
6112		78.125000
6113		68.359375
6114		74.218750
6115		68.359375
6116		72.265625
6117		66.406250
6118		70.312500
6119		62.500000
6120		70.312500
6121		62.500000
6122		66.406250
6123		58.593750
6124		64.453125
6125		56.640625
6126		64.453125
6127		56.640625
6128		60.546875
6129		52.734375
6130		58.593750
6131		50.781250
6132		56.640625
6133		48.828125
6134		54.687500
6135		46.875000
6136		52.734375
6137		44.921875
6138		50.781250
6139		42.968750
6140		48.828125
6141		39.062500
6142		44.921875
6143		35.156250
6144		46.875000
6145		35.156250
6146		41.015625
6147		31.250000
6148		39.062500
6149		29.296875
6150		39.062500
6151		25.390625
6152		33.203125
6153		25.390625
6154		31.250000
6155		23.437500
6156		27.343750
6157		19.531250
6158		25.390625
6159		17.578125
6160		25.390625
6161		15.625000
6162		21.484375
6163		13.671875
6164		17.578125
6165		5.859375
6166		15.625000
6167		7.812500
6168		15.625000
6169		3.906250
6170		11.718750
6171		1.953125
6172		7.812500
6173		-1.953125
6174		3.906250
6175		-5.859375
6176		3.906250
6177		-5.859375
6178		1.953125
6179		-9.765625
6180		-1.953125
6181		-11.718750
6182		-5.859375
6183		-15.625000
6184		-5.859375
6185		-19.531250
6186		-9.765625
6187		-19.531250
6188		-13.671875
6189		-23.437500
6190		-17.578125
6191		-25.390625
6192		-19.531250
6193		-29.296875
6194		-21.484375
6195		-31.250000
6196		-23.437500
6197		-33.203125
6198		-27.343750
6199		-39.062500
6200		-29.296875
6201		-41.015625
6202		-31.250000
6203		-42.968750
6204		-33.203125
6205		-42.968750
6206		-39.062500
6207		-46.875000
6208		-41.015625
6209		-52.734375
6210		-42.968750
6211		-52.734375
6212		-46.875000
6213		-52.734375
6214		-48.828125
6215		-58.593750
6216		-50.781250
6217		-60.546875
6218		-50.781250
6219		-62.500000
6220		-52.734375
6221		-62.500000
6222		-58.593750
6223		-66.406250
6224		-60.546875
6225		-70.312500
6226		-62.500000
6227		-72.265625
6228		-62.500000
6229		-72.265625
6230		-68.359375
6231		-74.218750
6232		-70.312500
6233		-78.125000
6234		-70.312500
6235		-82.031250
6236		-74.218750
6237		-80.078125
6238		-76.171875
6239		-82.031250
6240		-78.125000
6241		-85.937500
6242		-80.078125
6243		-87.890625
6244		-78.125000
6245		-87.890625
6246		-82.031250
6247		-89.843750
6248		-83.984375
6249		-93.750000
6250		-85.937500
6251		-93.750000
6252		-83.984375
6253		-95.703125
6254		-87.890625
6255		-95.703125
6256		-91.796875
6257		-97.656250
6258		-91.796875
6259		-99.609375
6260		-91.796875
6261		-101.562500
6262		-91.796875
6263		-99.609375
6264		-95.703125
6265		-101.562500
6266		-97.656250
6267		-105.468750
6268		-95.703125
6269		-103.515625
6270		-97.656250
6271		-103.515625
6272		-99.609375
6273		-103.515625
6274		-101.562500
6275		-107.421875
6276		-99.609375
6277		-109.375000
6278		-99.609375
6279		-107.421875
6280		-101.562500
6281		-105.468750
6282		-103.515625
6283		-109.375000
6284		-101.562500
6285		-109.375000
6286		-101.562500
6287		-109.375000
6288		-101.562500
6289		-107.421875
6290		-103.515625
6291		-107.421875
6292		-103.515625
6293		-109.375000
6294		-101.562500
6295		-109.375000
6296		-103.515625
6297		-107.421875
6298		-103.515625
6299		-107.421875
6300		-99.609375
6301		-109.375000
6302		-99.609375
6303		-107.421875
6304		-101.562500
6305		-105.468750
6306		-101.562500
6307		-103.515625
6308		-99.609375
6309		-105.468750
6310		-99.609375
6311		-105.468750
6312		-97.656250
6313		-103.515625
6314		-97.656250
6315		-101.562500
6316		-97.656250
6317		-103.515625
6318		-93.750000
6319		-99.609375
6320		-91.796875
6321		-97.656250
6322		-93.750000
6323		-97.656250
6324		-93.750000
6325		-95.703125
6326		-91.796875
6327		-95.703125
6328		-87.890625
6329		-93.750000
6330		-87.890625
6331		-91.796875
6332		-85.937500
6333		-89.843750
6334		-83.984375
6335		-87.890625
6336		-83.984375
6337		-85.937500
6338		-80.078125
6339		-83.984375
6340		-80.078125
6341		-82.031250
6342		-78.125000
6343		-80.078125
6344		-76.171875
6345		-82.031250
6346		-72.265625
6347		-78.125000
6348		-72.265625
6349		-74.218750
6350		-70.312500
6351		-74.218750
6352		-68.359375
6353		-70.312500
6354		-66.406250
6355		-68.359375
6356		-62.500000
6357		-66.406250
6358		-60.546875
6359		-64.453125
6360		-58.593750
6361		-60.546875
6362		-56.640625
6363		-60.546875
6364		-54.687500
6365		-56.640625
6366		-50.781250
6367		-54.687500
6368		-48.828125
6369		-50.781250
6370		-46.875000
6371		-48.828125
6372		-44.921875
6373		-46.875000
6374		-41.015625
6375		-42.968750
6376		-39.062500
6377		-41.015625
6378		-37.109375
6379		-39.062500
6380		-33.203125
6381		-35.156250
6382		-31.250000
6383		-33.203125
6384		-27.343750
6385		-31.250000
6386		-25.390625
6387		-27.343750
6388		-23.437500
6389		-25.390625
6390		-19.531250
6391		-23.437500
6392		-17.578125
6393		-19.531250
6394		-13.671875
6395		-17.578125
6396		-11.718750
6397		-13.671875
6398		-9.765625
6399		-11.718750
6400		-5.859375
6401		-9.765625
6402		-3.906250
6403		-5.859375
6404		0.000000
6405		-3.906250
6406		1.953125
6407		0.000000
6408		3.906250
6409		1.953125
6410		7.812500
6411		3.906250
6412		9.765625
6413		5.859375
6414		13.671875
6415		9.765625
6416		15.625000
6417		11.718750
6418		17.578125
6419		13.671875
6420		23.437500
6421		17.578125
6422		23.437500
6423		19.531250
6424		25.390625
6425		23.437500
6426		27.343750
6427		25.390625
6428		31.250000
6429		27.343750
6430		33.203125
6431		29.296875
6432		35.156250
6433		31.250000
6434		39.062500
6435		35.156250
6436		41.015625
6437		37.109375
6438		42.968750
6439		39.062500
6440		44.921875
6441		42.968750
6442		46.875000
6443		44.921875
6444		50.781250
6445		44.921875
6446		52.734375
6447		46.875000
6448		54.687500
6449		48.828125
6450		56.640625
6451		50.781250
6452		58.593750
6453		54.687500
6454		60.546875
6455		56.640625
6456		62.500000
6457		58.593750
6458		62.500000
6459		60.546875
6460		66.406250
6461		62.500000
6462		68.359375
6463		62.500000
6464		68.359375
6465		64.453125
6466		72.265625
6467		66.406250
6468		72.265625
6469		68.359375
6470		74.218750
6471		70.312500
6472		76.171875
6473		72.265625
6474		76.171875
6475		74.218750
6476		78.125000
6477		76.171875
6478		80.078125
6479		76.171875
6480		80.078125
6481		78.125000
6482		82.031250
6483		78.125000
6484		83.984375
6485		80.078125
6486		85.937500
6487		82.031250
6488		85.937500
6489		82.031250
6490		87.890625
6491		83.984375
6492		87.890625
6493		83.984375
6494		89.843750
6495		85.937500
6496		89.843750
6497		85.937500
6498		91.796875
6499		85.937500
6500		93.750000
6501		87.890625
6502		91.796875
6503		89.843750
6504		93.750000
6505		89.843750
6506		93.750000
6507		89.843750
6508		93.750000
6509		91.796875
6510		93.750000
6511		91.796875
6512		95.703125
6513		91.796875
6514		95.703125
6515		89.843750
6516		97.656250
6517		91.796875
6518		97.656250
6519		93.750000
6520		97.656250
6521		93.750000
6522		97.656250
6523		93.750000
6524		97.656250
6525		93.750000
6526		97.656250
6527		93.750000
6528		97.656250
6529		93.750000
6530		97.656250
6531		93.750000
6532		97.656250
6533		91.796875
6534		97.656250
6535		93.750000
6536		97.656250
6537		93.750000
6538		95.703125
6539		91.796875
6540		97.656250
6541		91.796875
6542		95.703125
6543		91.796875
6544		95.703125
6545		91.796875
6546		93.750000
6547		89.843750
6548		93.750000
6549		87.890625
6550		93.750000
6551		89.843750
6552		91.796875
6553		87.890625
6554		91.796875
6555		87.890625
6556		91.796875
6557		85.937500
6558		89.843750
6559		85.937500
6560		89.843750
6561		83.984375
6562		89.843750
6563		83.984375
6564		87.890625
6565		82.031250
6566		87.890625
6567		80.078125
6568		85.937500
6569		80.078125
6570		83.984375
6571		78.125000
6572		82.031250
6573		78.125000
6574		82.031250
6575		76.171875
6576		80.078125
6577		74.218750
6578		80.078125
6579		72.265625
6580		78.125000
6581		72.265625
6582		76.171875
6583		68.359375
6584		74.218750
6585		68.359375
6586		72.265625
6587		66.406250
6588		70.312500
6589		64.453125
6590		68.359375
6591		62.500000
6592		66.406250
6593		60.546875
6594		64.453125
6595		58.593750
6596		64.453125
6597		56.640625
6598		62.500000
6599		52.734375
6600		60.546875
6601		52.734375
6602		58.593750
6603		50.781250
6604		54.687500
6605		48.828125
6606		52.734375
6607		46.875000
6608		50.781250
6609		42.968750
6610		48.828125
6611		41.015625
6612		46.875000
6613		39.062500
6614		44.921875
6615		37.109375
6616		42.968750
6617		33.203125
6618		39.062500
6619		31.250000
6620		37.109375
6621		29.296875
6622		35.156250
6623		27.343750
6624		33.203125
6625		25.390625
6626		29.296875
6627		21.484375
6628		27.343750
6629		19.531250
6630		23.437500
6631		17.578125
6632		21.484375
6633		13.671875
6634		19.531250
6635		11.718750
6636		15.625000
6637		7.812500
6638		13.671875
6639		5.859375
6640		11.718750
6641		3.906250
6642		7.812500
6643		0.000000
6644		5.859375
6645		-3.906250
6646		3.906250
6647		-5.859375
6648		0.000000
6649		-7.812500
6650		-1.953125
6651		-9.765625
6652		-3.906250
6653		-13.671875
6654		-7.812500
6655		-15.625000
6656		-9.765625
6657		-17.578125
6658		-13.671875
6659		-21.484375
6660		-15.625000
6661		-25.390625
6662		-19.531250
6663		-27.343750
6664		-21.484375
6665		-29.296875
6666		-25.390625
6667		-33.203125
6668		-27.343750
6669		-35.156250
6670		-29.296875
6671		-39.062500
6672		-33.203125
6673		-41.015625
6674		-35.156250
6675		-42.968750
6676		-37.109375
6677		-44.921875
6678		-41.015625
6679		-48.828125
6680		-41.015625
6681		-50.781250
6682		-44.921875
6683		-52.734375
6684		-48.828125
6685		-56.640625
6686		-50.781250
6687		-58.593750
6688		-52.734375
6689		-60.546875
6690		-54.687500
6691		-62.500000
6692		-58.593750
6693		-66.406250
6694		-60.546875
6695		-68.359375
6696		-62.500000
6697		-70.312500
6698		-64.453125
6699		-72.265625
6700		-66.406250
6701		-74.218750
6702		-70.312500
6703		-76.171875
6704		-72.265625
6705		-78.125000
6706		-74.218750
6707		-80.078125
6708		-76.171875
6709		-82.031250
6710		-78.125000
6711		-85.937500
6712		-80.078125
6713		-87.890625
6714		-82.031250
6715		-87.890625
6716		-83.984375
6717		-89.843750
6718		-85.937500
6719		-91.796875
6720		-87.890625
6721		-93.750000
6722		-87.890625
6723		-95.703125
6724		-89.843750
6725		-95.703125
6726		-91.796875
6727		-97.656250
6728		-93.750000
6729		-99.609375
6730		-93.750000
6731		-99.609375
6732		-95.703125
6733		-101.562500
6734		-97.656250
6735		-101.562500
6736		-97.656250
6737		-103.515625
6738		-99.609375
6739		-103.515625
6740		-99.609375
6741		-105.468750
6742		-101.562500
6743		-105.468750
6744		-101.562500
6745		-107.421875
6746		-103.515625
6747		-107.421875
6748		-103.515625
6749		-107.421875
6750		-103.515625
6751		-107.421875
6752		-103.515625
6753		-109.375000
6754		-105.468750
6755		-109.375000
6756		-105.468750
6757		-109.375000
6758		-105.468750
6759		-109.375000
6760		-105.468750
6761		-109.375000
6762		-105.468750
6763		-109.375000
6764		-105.468750
6765		-109.375000
6766		-105.468750
6767		-109.375000
6768		-105.468750
6769		-107.421875
6770		-103.515625
6771		-109.375000
6772		-105.468750
6773		-107.421875
6774		-103.515625
6775		-107.421875
6776		-103.515625
6777		-107.421875
6778		-103.515625
6779		-105.468750
6780		-101.562500
6781		-105.468750
6782		-101.562500
6783		-105.468750
6784		-101.562500
6785		-103.515625
6786		-99.609375
6787		-103.515625
6788		-99.609375
6789		-103.515625
6790		-97.656250
6791		-101.562500
6792		-95.703125
6793		-99.609375
6794		-95.703125
6795		-97.656250
6796		-93.750000
6797		-97.656250
6798		-93.750000
6799		-95.703125
6800		-91.796875
6801		-95.703125
6802		-89.843750
6803		-91.796875
6804		-87.890625
6805		-91.796875
6806		-85.937500
6807		-89.843750
6808		-83.984375
6809		-87.890625
6810		-83.984375
6811		-85.937500
6812		-82.031250
6813		-83.984375
6814		-80.078125
6815		-82.031250
6816		-78.125000
6817		-80.078125
6818		-74.218750
6819		-78.125000
6820		-72.265625
6821		-76.171875
6822		-70.312500
6823		-74.218750
6824		-68.359375
6825		-72.265625
6826		-66.406250
6827		-68.359375
6828		-64.453125
6829		-66.406250
6830		-62.500000
6831		-64.453125
6832		-58.593750
6833		-62.500000
6834		-56.640625
6835		-60.546875
6836		-54.687500
6837		-56.640625
6838		-52.734375
6839		-56.640625
6840		-50.781250
6841		-52.734375
6842		-46.875000
6843		-50.781250
6844		-44.921875
6845		-46.875000
6846		-42.968750
6847		-44.921875
6848		-39.062500
6849		-41.015625
6850		-37.109375
6851		-39.062500
6852		-33.203125
6853		-37.109375
6854		-31.250000
6855		-33.203125
6856		-29.296875
6857		-31.250000
6858		-25.390625
6859		-29.296875
6860		-23.437500
6861		-25.390625
6862		-21.484375
6863		-23.437500
6864		-17.578125
6865		-21.484375
6866		-13.671875
6867		-17.578125
6868		-11.718750
6869		-15.625000
6870		-7.812500
6871		-11.718750
6872		-7.812500
6873		-9.765625
6874		-3.906250
6875		-5.859375
6876		-1.953125
6877		-3.906250
6878		0.000000
6879		-1.953125
6880		3.906250
6881		1.953125
6882		5.859375
6883		3.906250
6884		9.765625
6885		5.859375
6886		11.718750
6887		9.765625
6888		13.671875
6889		11.718750
6890		17.578125
6891		13.671875
6892		19.531250
6893		17.578125
6894		21.484375
6895		19.531250
6896		25.390625
6897		21.484375
6898		27.343750
6899		25.390625
6900		29.296875
6901		27.343750
6902		33.203125
6903		29.296875
6904		35.156250
6905		31.250000
6906		37.109375
6907		35.156250
6908		39.062500
6909		35.156250
6910		41.015625
6911		39.062500
6912		44.921875
6913		41.015625
6914		46.875000
6915		42.968750
6916		48.828125
6917		46.875000
6918		50.781250
6919		46.875000
6920		52.734375
6921		50.781250
6922		54.687500
6923		52.734375
6924		56.640625
6925		54.687500
6926		58.593750
6927		56.640625
6928		60.546875
6929		58.593750
6930		62.500000
6931		60.546875
6932		64.453125
6933		62.500000
6934		66.406250
6935		64.453125
6936		68.359375
6937		64.453125
6938		70.312500
6939		66.406250
6940		72.265625
6941		68.359375
6942		74.218750
6943		70.312500
6944		74.218750
6945		72.265625
6946		76.171875
6947		74.218750
6948		78.125000
6949		74.218750
6950		80.078125
6951		76.171875
6952		82.031250
6953		78.125000
6954		82.031250
6955		78.125000
6956		83.984375
6957		80.078125
6958		83.984375
6959		82.031250
6960		85.937500
6961		82.031250
6962		85.937500
6963		83.984375
6964		87.890625
6965		83.984375
6966		87.890625
6967		85.937500
6968		89.843750
6969		85.937500
6970		89.843750
6971		87.890625
6972		91.796875
6973		87.890625
6974		91.796875
6975		89.843750
6976		93.750000
6977		89.843750
6978		93.750000
6979		89.843750
6980		93.750000
6981		89.843750
6982		95.703125
6983		91.796875
6984		95.703125
6985		91.796875
6986		95.703125
6987		91.796875
6988		95.703125
6989		91.796875
6990		95.703125
6991		93.750000
6992		95.703125
6993		91.796875
6994		95.703125
6995		93.750000
6996		95.703125
6997		93.750000
6998		97.656250
6999		93.750000
7000		97.656250
7001		91.796875
7002		97.656250
7003		91.796875
7004		95.703125
7005		93.750000
7006		95.703125
7007		91.796875
7008		95.703125
7009		91.796875
7010		95.703125
7011		91.796875
7012		95.703125
7013		91.796875
7014		95.703125
7015		91.796875
7016		95.703125
7017		89.843750
7018		93.750000
7019		89.843750
7020		93.750000
7021		87.890625
7022		93.750000
7023		87.890625
7024		91.796875
7025		87.890625
7026		91.796875
7027		87.890625
7028		91.796875
7029		85.937500
7030		89.843750
7031		83.984375
7032		87.890625
7033		83.984375
7034		87.890625
7035		83.984375
7036		85.937500
7037		82.031250
7038		85.937500
7039		80.078125
7040		83.984375
7041		78.125000
7042		83.984375
7043		78.125000
7044		82.031250
7045		76.171875
7046		80.078125
7047		74.218750
7048		80.078125
7049		74.218750
7050		78.125000
7051		72.265625
7052		76.171875
7053		70.312500
7054		74.218750
7055		68.359375
7056		72.265625
7057		66.406250
7058		72.265625
7059		64.453125
7060		70.312500
7061		64.453125
7062		68.359375
7063		62.500000
7064		66.406250
7065		60.546875
7066		64.453125
7067		58.593750
7068		62.500000
7069		54.687500
7070		60.546875
7071		52.734375
7072		58.593750
7073		50.781250
7074		56.640625
7075		48.828125
7076		54.687500
7077		46.875000
7078		52.734375
7079		44.921875
7080		48.828125
7081		42.968750
7082		46.875000
7083		41.015625
7084		46.875000
7085		39.062500
7086		42.968750
7087		35.156250
7088		41.015625
7089		33.203125
7090		39.062500
7091		31.250000
7092		35.156250
7093		29.296875
7094		33.203125
7095		25.390625
7096		31.250000
7097		23.437500
7098		27.343750
7099		19.531250
7100		25.390625
7101		17.578125
7102		23.437500
7103		15.625000
7104		21.484375
7105		11.718750
7106		17.578125
7107		9.765625
7108		15.625000
7109		5.859375
7110		13.671875
7111		3.906250
7112		9.765625
7113		1.953125
7114		7.812500
7115		-1.953125
7116		3.906250
7117		-3.906250
7118		1.953125
7119		-5.859375
7120		-1.953125
7121		-9.765625
7122		-3.906250
7123		-11.718750
7124		-5.859375
7125		-15.625000
7126		-9.765625
7127		-17.578125
7128		-11.718750
7129		-19.531250
7130		-15.625000
7131		-23.437500
7132		-17.578125
7133		-25.390625
7134		-19.531250
7135		-29.296875
7136		-23.437500
7137		-31.250000
7138		-25.390625
7139		-33.203125
7140		-29.296875
7141		-37.109375
7142		-31.250000
7143		-41.015625
7144		-33.203125
7145		-41.015625
7146		-37.109375
7147		-44.921875
7148		-39.062500
7149		-46.875000
7150		-41.015625
7151		-48.828125
7152		-44.921875
7153		-52.734375
7154		-46.875000
7155		-54.687500
7156		-48.828125
7157		-56.640625
7158		-52.734375
7159		-58.593750
7160		-54.687500
7161		-62.500000
7162		-56.640625
7163		-64.453125
7164		-58.593750
7165		-66.406250
7166		-62.500000
7167		-68.359375
7168		-64.453125
7169		-70.312500
7170		-66.406250
7171		-74.218750
7172		-68.359375
7173		-76.171875
7174		-70.312500
7175		-78.125000
7176		-72.265625
7177		-80.078125
7178		-74.218750
7179		-82.031250
7180		-78.125000
7181		-83.984375
7182		-78.125000
7183		-85.937500
7184		-80.078125
7185		-87.890625
7186		-83.984375
7187		-89.843750
7188		-83.984375
7189		-89.843750
7190		-85.937500
7191		-91.796875
7192		-87.890625
7193		-93.750000
7194		-89.843750
7195		-95.703125
7196		-91.796875
7197		-97.656250
7198		-91.796875
7199		-97.656250
7200		-93.750000
7201		-99.609375
7202		-95.703125
7203		-99.609375
7204		-97.656250
7205		-101.562500
7206		-97.656250
7207		-103.515625
7208		-97.656250
7209		-103.515625
7210		-99.609375
7211		-105.468750
7212		-99.609375
7213		-105.468750
7214		-101.562500
7215		-105.468750
7216		-103.515625
7217		-107.421875
7218		-103.515625
7219		-107.421875
7220		-103.515625
7221		-109.375000
7222		-103.515625
7223		-109.375000
7224		-105.468750
7225		-109.375000
7226		-105.468750
7227		-109.375000
7228		-105.468750
7229		-109.375000
7230		-105.468750
7231		-109.375000
7232		-105.468750
7233		-111.328125
7234		-105.468750
7235		-109.375000
7236		-105.468750
7237		-109.375000
7238		-105.468750
7239		-109.375000
7240		-105.468750
7241		-109.375000
7242		-105.468750
7243		-109.375000
7244		-105.468750
7245		-107.421875
7246		-105.468750
7247		-107.421875
7248		-103.515625
7249		-107.421875
7250		-103.515625
7251		-105.468750
7252		-103.515625
7253		-105.468750
7254		-101.562500
7255		-105.468750
7256		-101.562500
7257		-103.515625
7258		-99.609375
7259		-103.515625
7260		-99.609375
7261		-101.562500
7262		-97.656250
7263		-101.562500
7264		-97.656250
7265		-99.609375
7266		-95.703125
7267		-97.656250
7268		-93.750000
7269		-97.656250
7270		-91.796875
7271		-95.703125
7272		-91.796875
7273		-93.750000
7274		-89.843750
7275		-93.750000
7276		-87.890625
7277		-89.843750
7278		-85.937500
7279		-89.843750
7280		-85.937500
7281		-87.890625
7282		-82.031250
7283		-85.937500
7284		-80.078125
7285		-83.984375
7286		-78.125000
7287		-82.031250
7288		-78.125000
7289		-80.078125
7290		-74.218750
7291		-78.125000
7292		-72.265625
7293		-76.171875
7294		-70.312500
7295		-74.218750
7296		-68.359375
7297		-70.312500
7298		-66.406250
7299		-70.312500
7300		-64.453125
7301		-66.406250
7302		-62.500000
7303		-64.453125
7304		-58.593750
7305		-62.500000
7306		-56.640625
7307		-58.593750
7308		-54.687500
7309		-56.640625
7310		-52.734375
7311		-54.687500
7312		-48.828125
7313		-52.734375
7314		-46.875000
7315		-48.828125
7316		-44.921875
7317		-46.875000
7318		-41.015625
7319		-44.921875
7320		-39.062500
7321		-41.015625
7322		-35.156250
7323		-41.015625
7324		-33.203125
7325		-35.156250
7326		-31.250000
7327		-33.203125
7328		-29.296875
7329		-31.250000
7330		-25.390625
7331		-27.343750
7332		-23.437500
7333		-25.390625
7334		-19.531250
7335		-23.437500
7336		-17.578125
7337		-19.531250
7338		-15.625000
7339		-17.578125
7340		-11.718750
7341		-13.671875
7342		-9.765625
7343		-11.718750
7344		-5.859375
7345		-9.765625
7346		-3.906250
7347		-5.859375
7348		-1.953125
7349		-3.906250
7350		1.953125
7351		-1.953125
7352		3.906250
7353		1.953125
7354		7.812500
7355		3.906250
7356		9.765625
7357		7.812500
7358		11.718750
7359		9.765625
7360		15.625000
7361		11.718750
7362		17.578125
7363		13.671875
7364		19.531250
7365		17.578125
7366		23.437500
7367		19.531250
7368		25.390625
7369		23.437500
7370		27.343750
7371		25.390625
7372		29.296875
7373		27.343750
7374		33.203125
7375		29.296875
7376		35.156250
7377		33.203125
7378		37.109375
7379		33.203125
7380		39.062500
7381		37.109375
7382		41.015625
7383		39.062500
7384		42.968750
7385		41.015625
7386		46.875000
7387		42.968750
7388		48.828125
7389		46.875000
7390		50.781250
7391		48.828125
7392		52.734375
7393		50.781250
7394		54.687500
7395		52.734375
7396		56.640625
7397		54.687500
7398		58.593750
7399		56.640625
7400		60.546875
7401		58.593750
7402		62.500000
7403		60.546875
7404		64.453125
7405		62.500000
7406		66.406250
7407		64.453125
7408		68.359375
7409		66.406250
7410		70.312500
7411		66.406250
7412		72.265625
7413		68.359375
7414		74.218750
7415		70.312500
7416		74.218750
7417		72.265625
7418		76.171875
7419		74.218750
7420		78.125000
7421		74.218750
7422		80.078125
7423		76.171875
7424		82.031250
7425		78.125000
7426		82.031250
7427		78.125000
7428		83.984375
7429		80.078125
7430		83.984375
7431		82.031250
7432		85.937500
7433		82.031250
7434		85.937500
7435		82.031250
7436		87.890625
7437		83.984375
7438		89.843750
7439		85.937500
7440		89.843750
7441		85.937500
7442		89.843750
7443		87.890625
7444		91.796875
7445		87.890625
7446		91.796875
7447		87.890625
7448		91.796875
7449		89.843750
7450		93.750000
7451		89.843750
7452		93.750000
7453		89.843750
7454		93.750000
7455		91.796875
7456		93.750000
7457		91.796875
7458		95.703125
7459		91.796875
7460		95.703125
7461		91.796875
7462		95.703125
7463		91.796875
7464		95.703125
7465		91.796875
7466		95.703125
7467		91.796875
7468		95.703125
7469		91.796875
7470		95.703125
7471		91.796875
7472		95.703125
7473		91.796875
7474		95.703125
7475		91.796875
7476		95.703125
7477		91.796875
7478		95.703125
7479		91.796875
7480		95.703125
7481		89.843750
7482		95.703125
7483		91.796875
7484		93.750000
7485		89.843750
7486		93.750000
7487		89.843750
7488		93.750000
7489		89.843750
7490		93.750000
7491		87.890625
7492		93.750000
7493		87.890625
7494		91.796875
7495		87.890625
7496		91.796875
7497		85.937500
7498		89.843750
7499		85.937500
7500		89.843750
7501		83.984375
7502		87.890625
7503		83.984375
7504		87.890625
7505		83.984375
7506		85.937500
7507		82.031250
7508		85.937500
7509		80.078125
7510		83.984375
7511		80.078125
7512		83.984375
7513		78.125000
7514		82.031250
7515		76.171875
7516		80.078125
7517		76.171875
7518		80.078125
7519		74.218750
7520		78.125000
7521		72.265625
7522		76.171875
7523		70.312500
7524		76.171875
7525		68.359375
7526		74.218750
7527		66.406250
7528		72.265625
7529		66.406250
7530		70.312500
7531		64.453125
7532		68.359375
7533		62.500000
7534		66.406250
7535		60.546875
7536		64.453125
7537		58.593750
7538		62.500000
7539		56.640625
7540		60.546875
7541		54.687500
7542		58.593750
7543		52.734375
7544		56.640625
7545		50.781250
7546		54.687500
7547		46.875000
7548		52.734375
7549		44.921875
7550		50.781250
7551		42.968750
7552		48.828125
7553		41.015625
7554		46.875000
7555		39.062500
7556		42.968750
7557		37.109375
7558		41.015625
7559		33.203125
7560		39.062500
7561		31.250000
7562		35.156250
7563		29.296875
7564		33.203125
7565		27.343750
7566		33.203125
7567		23.437500
7568		29.296875
7569		21.484375
7570		27.343750
7571		17.578125
7572		23.437500
7573		15.625000
7574		21.484375
7575		13.671875
7576		19.531250
7577		11.718750
7578		15.625000
7579		7.812500
7580		13.671875
7581		5.859375
7582		9.765625
7583		1.953125
7584		7.812500
7585		-1.953125
7586		5.859375
7587		-1.953125
7588		3.906250
7589		-5.859375
7590		1.953125
7591		-9.765625
7592		-1.953125
7593		-11.718750
7594		-5.859375
7595		-13.671875
7596		-7.812500
7597		-17.578125
7598		-11.718750
7599		-19.531250
7600		-13.671875
7601		-21.484375
7602		-17.578125
7603		-25.390625
7604		-19.531250
7605		-27.343750
7606		-21.484375
7607		-29.296875
7608		-25.390625
7609		-33.203125
7610		-27.343750
7611		-37.109375
7612		-31.250000
7613		-37.109375
7614		-33.203125
7615		-41.015625
7616		-35.156250
7617		-42.968750
7618		-39.062500
7619		-46.875000
7620		-41.015625
7621		-48.828125
7622		-42.968750
7623		-52.734375
7624		-46.875000
7625		-52.734375
7626		-48.828125
7627		-56.640625
7628		-50.781250
7629		-58.593750
7630		-52.734375
7631		-62.500000
7632		-56.640625
7633		-64.453125
7634		-58.593750
7635		-66.406250
7636		-60.546875
7637		-68.359375
7638		-64.453125
7639		-70.312500
7640		-64.453125
7641		-72.265625
7642		-68.359375
7643		-76.171875
7644		-70.312500
7645		-76.171875
7646		-72.265625
7647		-80.078125
7648		-74.218750
7649		-82.031250
7650		-76.171875
7651		-83.984375
7652		-78.125000
7653		-85.937500
7654		-80.078125
7655		-87.890625
7656		-82.031250
7657		-87.890625
7658		-83.984375
7659		-91.796875
7660		-85.937500
7661		-91.796875
7662		-87.890625
7663		-93.750000
7664		-89.843750
7665		-95.703125
7666		-91.796875
7667		-97.656250
7668		-93.750000
7669		-97.656250
7670		-93.750000
7671		-99.609375
7672		-95.703125
7673		-101.562500
7674		-95.703125
7675		-101.562500
7676		-97.656250
7677		-103.515625
7678		-99.609375
7679		-103.515625
7680		-99.609375
7681		-105.468750
7682		-101.562500
7683		-105.468750
7684		-101.562500
7685		-107.421875
7686		-103.515625
7687		-107.421875
7688		-103.515625
7689		-109.375000
7690		-105.468750
7691		-109.375000
7692		-105.468750
7693		-109.375000
7694		-105.468750
7695		-109.375000
7696		-107.421875
7697		-109.375000
7698		-107.421875
7699		-111.328125
7700		-105.468750
7701		-111.328125
7702		-107.421875
7703		-111.328125
7704		-107.421875
7705		-111.328125
7706		-107.421875
7707		-111.328125
7708		-107.421875
7709		-111.328125
7710		-107.421875
7711		-111.328125
7712		-107.421875
7713		-111.328125
7714		-105.468750
7715		-109.375000
7716		-105.468750
7717		-109.375000
7718		-105.468750
7719		-109.375000
7720		-105.468750
7721		-109.375000
7722		-103.515625
7723		-107.421875
7724		-103.515625
7725		-107.421875
7726		-103.515625
7727		-105.468750
7728		-101.562500
7729		-105.468750
7730		-101.562500
7731		-103.515625
7732		-99.609375
7733		-103.515625
7734		-99.609375
7735		-101.562500
7736		-97.656250
7737		-101.562500
7738		-95.703125
7739		-99.609375
7740		-95.703125
7741		-97.656250
7742		-93.750000
7743		-95.703125
7744		-91.796875
7745		-95.703125
7746		-89.843750
7747		-93.750000
7748		-87.890625
7749		-91.796875
7750		-87.890625
7751		-89.843750
7752		-85.937500
7753		-87.890625
7754		-83.984375
7755		-87.890625
7756		-82.031250
7757		-83.984375
7758		-80.078125
7759		-82.031250
7760		-78.125000
7761		-82.031250
7762		-76.171875
7763		-78.125000
7764		-74.218750
7765		-76.171875
7766		-70.312500
7767		-74.218750
7768		-70.312500
7769		-72.265625
7770		-66.406250
7771		-70.312500
7772		-64.453125
7773		-68.359375
7774		-62.500000
7775		-64.453125
7776		-60.546875
7777		-62.500000
7778		-58.593750
7779		-60.546875
7780		-52.734375
7781		-56.640625
7782		-52.734375
7783		-54.687500
7784		-50.781250
7785		-52.734375
7786		-46.875000
7787		-48.828125
7788		-44.921875
7789		-46.875000
7790		-41.015625
7791		-44.921875
7792		-39.062500
7793		-42.968750
7794		-37.109375
7795		-39.062500
7796		-35.156250
7797		-37.109375
7798		-31.250000
7799		-33.203125
7800		-29.296875
7801		-31.250000
7802		-27.343750
7803		-29.296875
7804		-23.437500
7805		-25.390625
7806		-21.484375
7807		-23.437500
7808		-17.578125
7809		-21.484375
7810		-15.625000
7811		-17.578125
7812		-11.718750
7813		-15.625000
7814		-9.765625
7815		-11.718750
7816		-5.859375
7817		-9.765625
7818		-3.906250
7819		-5.859375
7820		-1.953125
7821		-3.906250
7822		1.953125
7823		-1.953125
7824		3.906250
7825		1.953125
7826		5.859375
7827		3.906250
7828		9.765625
7829		5.859375
7830		11.718750
7831		9.765625
7832		15.625000
7833		11.718750
7834		17.578125
7835		15.625000
7836		19.531250
7837		17.578125
7838		21.484375
7839		19.531250
7840		25.390625
7841		21.484375
7842		27.343750
7843		25.390625
7844		29.296875
7845		27.343750
7846		33.203125
7847		29.296875
7848		35.156250
7849		31.250000
7850		37.109375
7851		33.203125
7852		39.062500
7853		37.109375
7854		41.015625
7855		39.062500
7856		44.921875
7857		41.015625
7858		46.875000
7859		42.968750
7860		48.828125
7861		44.921875
7862		50.781250
7863		46.875000
7864		52.734375
7865		48.828125
7866		54.687500
7867		52.734375
7868		56.640625
7869		52.734375
7870		58.593750
7871		56.640625
7872		60.546875
7873		58.593750
7874		62.500000
7875		60.546875
7876		64.453125
7877		62.500000
7878		66.406250
7879		64.453125
7880		68.359375
7881		64.453125
7882		70.312500
7883		66.406250
7884		72.265625
7885		68.359375
7886		72.265625
7887		70.312500
7888		74.218750
7889		70.312500
7890		76.171875
7891		72.265625
7892		78.125000
7893		74.218750
7894		78.125000
7895		76.171875
7896		80.078125
7897		78.125000
7898		82.031250
7899		78.125000
7900		82.031250
7901		78.125000
7902		83.984375
7903		80.078125
7904		85.937500
7905		82.031250
7906		85.937500
7907		83.984375
7908		85.937500
7909		83.984375
7910		87.890625
7911		85.937500
7912		87.890625
7913		85.937500
7914		89.843750
7915		85.937500
7916		91.796875
7917		87.890625
7918		91.796875
7919		87.890625
7920		91.796875
7921		87.890625
7922		91.796875
7923		89.843750
7924		93.750000
7925		89.843750
7926		93.750000
7927		89.843750
7928		93.750000
7929		89.843750
7930		95.703125
7931		89.843750
7932		93.750000
7933		91.796875
7934		95.703125
7935		91.796875
7936		95.703125
7937		91.796875
7938		95.703125
7939		91.796875
7940		95.703125
7941		91.796875
7942		95.703125
7943		91.796875
7944		95.703125
7945		91.796875
7946		95.703125
7947		91.796875
7948		95.703125
7949		91.796875
7950		95.703125
7951		89.843750
7952		93.750000
7953		91.796875
7954		93.750000
7955		89.843750
7956		93.750000
7957		87.890625
7958		93.750000
7959		89.843750
7960		93.750000
7961		87.890625
7962		91.796875
7963		87.890625
7964		91.796875
7965		87.890625
7966		91.796875
7967		85.937500
7968		89.843750
7969		85.937500
7970		89.843750
7971		85.937500
7972		87.890625
7973		83.984375
7974		87.890625
7975		82.031250
7976		85.937500
7977		82.031250
7978		85.937500
7979		80.078125
7980		83.984375
7981		80.078125
7982		83.984375
7983		78.125000
7984		82.031250
7985		76.171875
7986		82.031250
7987		76.171875
7988		80.078125
7989		74.218750
7990		78.125000
7991		72.265625
7992		76.171875
7993		72.265625
7994		76.171875
7995		70.312500
7996		74.218750
7997		68.359375
7998		72.265625
7999		66.406250
8000		70.312500
8001		64.453125
8002		70.312500
8003		62.500000
8004		66.406250
8005		60.546875
8006		64.453125
8007		58.593750
8008		64.453125
8009		56.640625
8010		60.546875
8011		54.687500
8012		60.546875
8013		52.734375
8014		56.640625
8015		50.781250
8016		54.687500
8017		48.828125
8018		52.734375
8019		46.875000
8020		50.781250
8021		44.921875
8022		48.828125
8023		42.968750
8024		46.875000
8025		39.062500
8026		44.921875
8027		37.109375
8028		42.968750
8029		33.203125
8030		39.062500
8031		33.203125
8032		37.109375
8033		29.296875
8034		35.156250
8035		27.343750
8036		33.203125
8037		25.390625
8038		29.296875
8039		23.437500
8040		27.343750
8041		19.531250
8042		25.390625
8043		17.578125
8044		23.437500
8045		15.625000
8046		19.531250
8047		11.718750
8048		17.578125
8049		9.765625
8050		13.671875
8051		5.859375
8052		11.718750
8053		3.906250
8054		9.765625
8055		1.953125
8056		7.812500
8057		-1.953125
8058		3.906250
8059		-3.906250
8060		0.000000
8061		-7.812500
8062		-1.953125
8063		-9.765625
8064		-3.906250
8065		-11.718750
8066		-7.812500
8067		-15.625000
8068		-9.765625
8069		-17.578125
8070		-13.671875
8071		-21.484375
8072		-15.625000
8073		-23.437500
8074		-17.578125
8075		-27.343750
8076		-21.484375
8077		-29.296875
8078		-23.437500
8079		-31.250000
8080		-27.343750
8081		-35.156250
8082		-29.296875
8083		-37.109375
8084		-31.250000
8085		-39.062500
8086		-33.203125
8087		-42.968750
8088		-37.109375
8089		-44.921875
8090		-41.015625
8091		-48.828125
8092		-41.015625
8093		-50.781250
8094		-44.921875
8095		-52.734375
8096		-46.875000
8097		-54.687500
8098		-50.781250
8099		-58.593750
8100		-52.734375
8101		-60.546875
8102		-54.687500
8103		-62.500000
8104		-56.640625
8105		-64.453125
8106		-60.546875
8107		-68.359375
8108		-62.500000
8109		-70.312500
8110		-62.500000
8111		-72.265625
8112		-66.406250
8113		-74.218750
8114		-68.359375
8115		-76.171875
8116		-72.265625
8117		-78.125000
8118		-74.218750
8119		-82.031250
8120		-76.171875
8121		-83.984375
8122		-78.125000
8123		-85.937500
8124		-80.078125
8125		-87.890625
8126		-80.078125
8127		-89.843750
8128		-82.031250
8129		-89.843750
8130		-83.984375
8131		-91.796875
8132		-87.890625
8133		-93.750000
8134		-87.890625
8135		-95.703125
8136		-91.796875
8137		-97.656250
8138		-91.796875
8139		-97.656250
8140		-93.750000
8141		-101.562500
8142		-93.750000
8143		-103.515625
8144		-93.750000
8145		-103.515625
8146		-95.703125
8147		-103.515625
8148		-99.609375
8149		-103.515625
8150		-99.609375
8151		-105.468750
8152		-101.562500
8153		-105.468750
8154		-101.562500
8155		-107.421875
8156		-103.515625
8157		-109.375000
8158		-103.515625
8159		-109.375000
8160		-103.515625
8161		-111.328125
8162		-103.515625
8163		-111.328125
8164		-103.515625
8165		-111.328125
8166		-105.468750
8167		-109.375000
8168		-105.468750
8169		-111.328125
8170		-107.421875
8171		-111.328125
8172		-107.421875
8173		-111.328125
8174		-107.421875
8175		-113.281250
8176		-105.468750
8177		-113.281250
8178		-105.468750
8179		-113.281250
8180		-105.468750
8181		-113.281250
8182		-105.468750
8183		-111.328125
8184		-107.421875
8185		-111.328125
8186		-107.421875
8187		-111.328125
8188		-107.421875
8189		-109.375000
8190		-105.468750
8191		-109.375000
8192		-105.468750
8193		-109.375000
8194		-103.515625
8195		-109.375000
8196		-101.562500
8197		-109.375000
8198		-101.562500
8199		-107.421875
8200		-101.562500
8201		-105.468750
8202		-99.609375
8203		-105.468750
8204		-97.656250
8205		-103.515625
8206		-99.609375
8207		-101.562500
8208		-97.656250
8209		-101.562500
8210		-95.703125
8211		-101.562500
8212		-93.750000
8213		-97.656250
8214		-93.750000
8215		-97.656250
8216		-89.843750
8217		-95.703125
8218		-89.843750
8219		-93.750000
8220		-87.890625
8221		-91.796875
8222		-87.890625
8223		-89.843750
8224		-85.937500
8225		-89.843750
8226		-82.031250
8227		-87.890625
8228		-80.078125
8229		-85.937500
8230		-78.125000
8231		-83.984375
8232		-76.171875
8233		-82.031250
8234		-74.218750
8235		-80.078125
8236		-72.265625
8237		-78.125000
8238		-70.312500
8239		-74.218750
8240		-68.359375
8241		-72.265625
8242		-64.453125
8243		-70.312500
8244		-62.500000
8245		-68.359375
8246		-60.546875
8247		-66.406250
8248		-58.593750
8249		-62.500000
8250		-54.687500
8251		-60.546875
8252		-54.687500
8253		-58.593750
8254		-50.781250
8255		-54.687500
8256		-48.828125
8257		-52.734375
8258		-46.875000
8259		-50.781250
8260		-42.968750
8261		-48.828125
8262		-39.062500
8263		-44.921875
8264		-37.109375
8265		-42.968750
8266		-35.156250
8267		-41.015625
8268		-33.203125
8269		-37.109375
8270		-29.296875
8271		-35.156250
8272		-29.296875
8273		-31.250000
8274		-25.390625
8275		-27.343750
8276		-21.484375
8277		-27.343750
8278		-17.578125
8279		-23.437500
8280		-15.625000
8281		-21.484375
8282		-13.671875
8283		-19.531250
8284		-11.718750
8285		-15.625000
8286		-7.812500
8287		-11.718750
8288		-5.859375
8289		-7.812500
8290		-3.906250
8291		-5.859375
8292		-1.953125
8293		-5.859375
8294		3.906250
8295		-1.953125
8296		7.812500
8297		0.000000
8298		7.812500
8299		1.953125
8300		11.718750
8301		5.859375
8302		13.671875
8303		9.765625
8304		17.578125
8305		11.718750
8306		17.578125
8307		15.625000
8308		19.531250
8309		17.578125
8310		23.437500
8311		19.531250
8312		27.343750
8313		21.484375
8314		29.296875
8315		23.437500
8316		31.250000
8317		25.390625
8318		33.203125
8319		27.343750
8320		35.156250
8321		29.296875
8322		37.109375
8323		35.156250
8324		39.062500
8325		37.109375
8326		44.921875
8327		39.062500
8328		44.921875
8329		39.062500
8330		48.828125
8331		42.968750
8332		50.781250
8333		44.921875
8334		52.734375
8335		44.921875
8336		54.687500
8337		48.828125
8338		54.687500
8339		52.734375
8340		56.640625
8341		54.687500
8342		58.593750
8343		54.687500
8344		62.500000
8345		56.640625
8346		66.406250
8347		58.593750
8348		66.406250
8349		60.546875
8350		68.359375
8351		60.546875
8352		70.312500
8353		62.500000
8354		70.312500
8355		66.406250
8356		70.312500
8357		68.359375
8358		72.265625
8359		68.359375
8360		76.171875
8361		70.312500
8362		78.125000
8363		72.265625
8364		80.078125
8365		72.265625
8366		80.078125
8367		74.218750
8368		82.031250
8369		76.171875
8370		83.984375
8371		76.171875
8372		83.984375
8373		80.078125
8374		83.984375
8375		80.078125
8376		83.984375
8377		80.078125
8378		87.890625
8379		82.031250
8380		89.843750
8381		82.031250
8382		89.843750
8383		82.031250
8384		89.843750
8385		83.984375
8386		91.796875
8387		83.984375
8388		91.796875
8389		85.937500
8390		89.843750
8391		87.890625
8392		91.796875
8393		87.890625
8394		95.703125
8395		87.890625
8396		95.703125
8397		87.890625
8398		93.750000
8399		87.890625
8400		95.703125
8401		87.890625
8402		95.703125
8403		87.890625
8404		95.703125
8405		87.890625
8406		95.703125
8407		91.796875
8408		93.750000
8409		89.843750
8410		97.656250
8411		89.843750
8412		95.703125
8413		89.843750
8414		95.703125
8415		89.843750
8416		95.703125
8417		89.843750
8418		95.703125
8419		89.843750
8420		95.703125
8421		89.843750
8422		95.703125
8423		89.843750
8424		93.750000
8425		89.843750
8426		93.750000
8427		87.890625
8428		95.703125
8429		87.890625
8430		93.750000
8431		85.937500
8432		93.750000
8433		85.937500
8434		93.750000
8435		85.937500
8436		93.750000
8437		83.984375
8438		91.796875
8439		85.937500
8440		89.843750
8441		85.937500
8442		87.890625
8443		82.031250
8444		89.843750
8445		82.031250
8446		89.843750
8447		80.078125
8448		87.890625
8449		78.125000
8450		85.937500
8451		78.125000
8452		85.937500
8453		76.171875
8454		83.984375
8455		76.171875
8456		82.031250
8457		76.171875
8458		80.078125
8459		74.218750
8460		78.125000
8461		70.312500
8462		80.078125
8463		70.312500
8464		78.125000
8465		68.359375
8466		76.171875
8467		66.406250
8468		74.218750
8469		64.453125
8470		72.265625
8471		64.453125
8472		72.265625
8473		64.453125
8474		68.359375
8475		62.500000
8476		66.406250
8477		56.640625
8478		64.453125
8479		56.640625
8480		64.453125
8481		54.687500
8482		62.500000
8483		52.734375
8484		60.546875
8485		48.828125
8486		58.593750
8487		48.828125
8488		54.687500
8489		46.875000
8490		54.687500
8491		44.921875
8492		50.781250
8493		39.062500
8494		48.828125
8495		39.062500
8496		46.875000
8497		37.109375
8498		44.921875
8499		35.156250
8500		42.968750
8501		33.203125
8502		41.015625
8503		31.250000
8504		37.109375
8505		27.343750
8506		35.156250
8507		27.343750
8508		31.250000
8509		23.437500
8510		29.296875
8511		19.531250
8512		27.343750
8513		17.578125
8514		25.390625
8515		13.671875
8516		23.437500
8517		11.718750
8518		19.531250
8519		9.765625
8520		17.578125
8521		5.859375
8522		13.671875
8523		5.859375
8524		9.765625
8525		1.953125
8526		7.812500
8527		0.000000
8528		5.859375
8529		-3.906250
8530		3.906250
8531		-7.812500
8532		1.953125
8533		-9.765625
8534		-1.953125
8535		-13.671875
8536		-3.906250
8537		-15.625000
8538		-7.812500
8539		-17.578125
8540		-9.765625
8541		-19.531250
8542		-13.671875
8543		-21.484375
8544		-17.578125
8545		-27.343750
8546		-17.578125
8547		-29.296875
8548		-21.484375
8549		-31.250000
8550		-23.437500
8551		-35.156250
8552		-25.390625
8553		-37.109375
8554		-29.296875
8555		-39.062500
8556		-31.250000
8557		-41.015625
8558		-35.156250
8559		-44.921875
8560		-39.062500
8561		-48.828125
8562		-41.015625
8563		-50.781250
8564		-42.968750
8565		-52.734375
8566		-44.921875
8567		-56.640625
8568		-46.875000
8569		-58.593750
8570		-50.781250
8571		-60.546875
8572		-52.734375
8573		-62.500000
8574		-54.687500
8575		-64.453125
8576		-58.593750
8577		-68.359375
8578		-62.500000
8579		-70.312500
8580		-62.500000
8581		-72.265625
8582		-64.453125
8583		-74.218750
8584		-68.359375
8585		-76.171875
8586		-70.312500
8587		-80.078125
8588		-72.265625
8589		-80.078125
8590		-72.265625
8591		-82.031250
8592		-76.171875
8593		-83.984375
8594		-80.078125
8595		-87.890625
8596		-80.078125
8597		-89.843750
8598		-82.031250
8599		-91.796875
8600		-83.984375
8601		-93.750000
8602		-85.937500
8603		-95.703125
8604		-85.937500
8605		-97.656250
8606		-87.890625
8607		-95.703125
8608		-89.843750
8609		-97.656250
8610		-93.750000
8611		-99.609375
8612		-93.750000
8613		-101.562500
8614		-93.750000
8615		-103.515625
8616		-95.703125
8617		-105.468750
8618		-97.656250
8619		-105.468750
8620		-97.656250
8621		-107.421875
8622		-99.609375
8623		-107.421875
8624		-99.609375
8625		-107.421875
8626		-103.515625
8627		-107.421875
8628		-103.515625
8629		-111.328125
8630		-103.515625
8631		-111.328125
8632		-103.515625
8633		-111.328125
8634		-105.468750
8635		-113.281250
8636		-105.468750
8637		-113.281250
8638		-105.468750
8639		-113.281250
8640		-107.421875
8641		-111.328125
8642		-107.421875
8643		-111.328125
8644		-107.421875
8645		-113.281250
8646		-105.468750
8647		-113.281250
8648		-107.421875
8649		-113.281250
8650		-105.468750
8651		-113.281250
8652		-107.421875
8653		-113.281250
8654		-105.468750
8655		-113.281250
8656		-105.468750
8657		-111.328125
8658		-105.468750
8659		-111.328125
8660		-107.421875
8661		-111.328125
8662		-105.468750
8663		-111.328125
8664		-103.515625
8665		-109.375000
8666		-103.515625
8667		-111.328125
8668		-101.562500
8669		-109.375000
8670		-101.562500
8671		-109.375000
8672		-99.609375
8673		-107.421875
8674		-99.609375
8675		-103.515625
8676		-99.609375
8677		-103.515625
8678		-99.609375
8679		-103.515625
8680		-95.703125
8681		-103.515625
8682		-95.703125
8683		-101.562500
8684		-93.750000
8685		-99.609375
8686		-91.796875
8687		-99.609375
8688		-89.843750
8689		-95.703125
8690		-89.843750
8691		-95.703125
8692		-87.890625
8693		-91.796875
8694		-87.890625
8695		-89.843750
8696		-83.984375
8697		-89.843750
8698		-82.031250
8699		-87.890625
8700		-80.078125
8701		-85.937500
8702		-76.171875
8703		-83.984375
8704		-76.171875
8705		-82.031250
8706		-74.218750
8707		-80.078125
8708		-72.265625
8709		-76.171875
8710		-70.312500
8711		-74.218750
8712		-68.359375
8713		-74.218750
8714		-64.453125
8715		-72.265625
8716		-62.500000
8717		-68.359375
8718		-60.546875
8719		-66.406250
8720		-58.593750
8721		-62.500000
8722		-56.640625
8723		-60.546875
8724		-52.734375
8725		-58.593750
8726		-52.734375
8727		-54.687500
8728		-48.828125
8729		-52.734375
8730		-44.921875
8731		-50.781250
8732		-42.968750
8733		-50.781250
8734		-41.015625
8735		-44.921875
8736		-37.109375
8737		-42.968750
8738		-35.156250
8739		-41.015625
8740		-31.250000
8741		-37.109375
8742		-31.250000
8743		-33.203125
8744		-27.343750
8745		-31.250000
8746		-25.390625
8747		-29.296875
8748		-21.484375
8749		-27.343750
8750		-17.578125
8751		-23.437500
8752		-15.625000
8753		-21.484375
8754		-13.671875
8755		-19.531250
8756		-9.765625
8757		-15.625000
8758		-7.812500
8759		-11.718750
8760		-5.859375
8761		-7.812500
8762		-3.906250
8763		-7.812500
8764		0.000000
8765		-3.906250
8766		3.906250
8767		-1.953125
8768		5.859375
8769		0.000000
8770		9.765625
8771		3.906250
8772		11.718750
8773		5.859375
8774		13.671875
8775		9.765625
8776		15.625000
8777		13.671875
8778		17.578125
8779		15.625000
8780		23.437500
8781		15.625000
8782		23.437500
8783		17.578125
8784		27.343750
8785		21.484375
8786		29.296875
8787		25.390625
8788		31.250000
8789		25.390625
8790		33.203125
8791		29.296875
8792		37.109375
8793		33.203125
8794		37.109375
8795		35.156250
8796		39.062500
8797		37.109375
8798		42.968750
8799		37.109375
8800		44.921875
8801		39.062500
8802		48.828125
8803		42.968750
8804		50.781250
8805		44.921875
8806		52.734375
8807		46.875000
8808		54.687500
8809		48.828125
8810		54.687500
8811		52.734375
8812		56.640625
8813		54.687500
8814		60.546875
8815		54.687500
8816		62.500000
8817		56.640625
8818		64.453125
8819		58.593750
8820		66.406250
8821		60.546875
8822		68.359375
8823		62.500000
8824		70.312500
8825		62.500000
8826		70.312500
8827		66.406250
8828		72.265625
8829		68.359375
8830		74.218750
8831		68.359375
8832		76.171875
8833		70.312500
8834		78.125000
8835		70.312500
8836		78.125000
8837		72.265625
8838		80.078125
8839		74.218750
8840		82.031250
8841		76.171875
8842		82.031250
8843		78.125000
8844		82.031250
8845		80.078125
8846		83.984375
8847		80.078125
8848		85.937500
8849		80.078125
8850		87.890625
8851		80.078125
8852		87.890625
8853		82.031250
8854		89.843750
8855		82.031250
8856		89.843750
8857		83.984375
8858		89.843750
8859		85.937500
8860		89.843750
8861		87.890625
8862		89.843750
8863		85.937500
8864		93.750000
8865		85.937500
8866		93.750000
8867		87.890625
8868		93.750000
8869		87.890625
8870		93.750000
8871		87.890625
8872		93.750000
8873		87.890625
8874		95.703125
8875		87.890625
8876		95.703125
8877		89.843750
8878		93.750000
8879		89.843750
8880		93.750000
8881		89.843750
8882		95.703125
8883		87.890625
8884		95.703125
8885		89.843750
8886		95.703125
8887		89.843750
8888		95.703125
8889		87.890625
8890		95.703125
8891		87.890625
8892		95.703125
8893		89.843750
8894		93.750000
8895		89.843750
8896		93.750000
8897		87.890625
8898		93.750000
8899		85.937500
8900		95.703125
8901		85.937500
8902		93.750000
8903		85.937500
8904		93.750000
8905		85.937500
8906		93.750000
8907		85.937500
8908		91.796875
8909		83.984375
8910		91.796875
8911		85.937500
8912		89.843750
8913		83.984375
8914		87.890625
8915		82.031250
8916		89.843750
8917		80.078125
8918		87.890625
8919		80.078125
8920		85.937500
8921		78.125000
8922		85.937500
8923		78.125000
8924		83.984375
8925		76.171875
8926		83.984375
8927		76.171875
8928		80.078125
8929		76.171875
8930		80.078125
8931		72.265625
8932		78.125000
8933		72.265625
8934		78.125000
8935		70.312500
8936		76.171875
8937		68.359375
8938		74.218750
8939		66.406250
8940		72.265625
8941		66.406250
8942		70.312500
8943		64.453125
8944		70.312500
8945		62.500000
8946		66.406250
8947		58.593750
8948		64.453125
8949		56.640625
8950		64.453125
8951		56.640625
8952		62.500000
8953		52.734375
8954		62.500000
8955		50.781250
8956		58.593750
8957		48.828125
8958		56.640625
8959		46.875000
8960		54.687500
8961		44.921875
8962		50.781250
8963		44.921875
8964		48.828125
8965		41.015625
8966		48.828125
8967		39.062500
8968		46.875000
8969		35.156250
8970		42.968750
8971		33.203125
8972		41.015625
8973		31.250000
8974		39.062500
8975		29.296875
8976		37.109375
8977		27.343750
8978		33.203125
8979		25.390625
8980		29.296875
8981		19.531250
8982		29.296875
8983		17.578125
8984		25.390625
8985		15.625000
8986		25.390625
8987		13.671875
8988		21.484375
8989		9.765625
8990		19.531250
8991		7.812500
8992		15.625000
8993		5.859375
8994		13.671875
8995		3.906250
8996		9.765625
8997		1.953125
8998		5.859375
8999		-3.906250
9000		5.859375
9001		-5.859375
9002		1.953125
9003		-7.812500
9004		0.000000
9005		-11.718750
9006		-1.953125
9007		-13.671875
9008		-5.859375
9009		-17.578125
9010		-7.812500
9011		-17.578125
9012		-11.718750
9013		-21.484375
9014		-15.625000
9015		-25.390625
9016		-17.578125
9017		-29.296875
9018		-19.531250
9019		-31.250000
9020		-21.484375
9021		-33.203125
9022		-25.390625
9023		-35.156250
9024		-27.343750
9025		-39.062500
9026		-31.250000
9027		-41.015625
9028		-33.203125
9029		-42.968750
9030		-37.109375
9031		-46.875000
9032		-41.015625
9033		-48.828125
9034		-41.015625
9035		-52.734375
9036		-44.921875
9037		-54.687500
9038		-46.875000
9039		-58.593750
9040		-48.828125
9041		-60.546875
9042		-52.734375
9043		-62.500000
9044		-54.687500
9045		-62.500000
9046		-58.593750
9047		-64.453125
9048		-60.546875
9049		-68.359375
9050		-60.546875
9051		-72.265625
9052		-62.500000
9053		-74.218750
9054		-66.406250
9055		-76.171875
9056		-68.359375
9057		-78.125000
9058		-70.312500
9059		-80.078125
9060		-72.265625
9061		-80.078125
9062		-74.218750
9063		-82.031250
9064		-78.125000
9065		-85.937500
9066		-80.078125
9067		-87.890625
9068		-80.078125
9069		-89.843750
9070		-82.031250
9071		-91.796875
9072		-83.984375
9073		-93.750000
9074		-85.937500
9075		-95.703125
9076		-87.890625
9077		-97.656250
9078		-89.843750
9079		-97.656250
9080		-93.750000
9081		-99.609375
9082		-93.750000
9083		-101.562500
9084		-93.750000
9085		-103.515625
9086		-95.703125
9087		-105.468750
9088		-97.656250
9089		-105.468750
9090		-99.609375
9091		-107.421875
9092		-99.609375
9093		-107.421875
9094		-101.562500
9095		-109.375000
9096		-101.562500
9097		-107.421875
9098		-103.515625
9099		-111.328125
9100		-103.515625
9101		-111.328125
9102		-103.515625
9103		-111.328125
9104		-103.515625
9105		-113.281250
9106		-105.468750
9107		-113.281250
9108		-105.468750
9109		-113.281250
9110		-107.421875
9111		-113.281250
9112		-105.468750
9113		-111.328125
9114		-109.375000
9115		-113.281250
9116		-107.421875
9117		-115.234375
9118		-107.421875
9119		-115.234375
9120		-107.421875
9121		-115.234375
9122		-107.421875
9123		-115.234375
9124		-107.421875
9125		-115.234375
9126		-107.421875
9127		-113.281250
9128		-107.421875
9129		-111.328125
9130		-107.421875
9131		-111.328125
9132		-107.421875
9133		-113.281250
9134		-105.468750
9135		-111.328125
9136		-103.515625
9137		-111.328125
9138		-103.515625
9139		-109.375000
9140		-103.515625
9141		-109.375000
9142		-103.515625
9143		-109.375000
9144		-101.562500
9145		-105.468750
9146		-101.562500
9147		-103.515625
9148		-99.609375
9149		-105.468750
9150		-97.656250
9151		-103.515625
9152		-97.656250
9153		-101.562500
9154		-95.703125
9155		-101.562500
9156		-93.750000
9157		-99.609375
9158		-91.796875
9159		-99.609375
9160		-89.843750
9161		-95.703125
9162		-89.843750
9163		-93.750000
9164		-89.843750
9165		-91.796875
9166		-87.890625
9167		-91.796875
9168		-83.984375
9169		-89.843750
9170		-82.031250
9171		-85.937500
9172		-80.078125
9173		-85.937500
9174		-78.125000
9175		-83.984375
9176		-74.218750
9177		-80.078125
9178		-74.218750
9179		-80.078125
9180		-72.265625
9181		-76.171875
9182		-70.312500
9183		-74.218750
9184		-66.406250
9185		-72.265625
9186		-66.406250
9187		-70.312500
9188		-62.500000
9189		-68.359375
9190		-60.546875
9191		-66.406250
9192		-58.593750
9193		-64.453125
9194		-56.640625
9195		-60.546875
9196		-54.687500
9197		-56.640625
9198		-50.781250
9199		-54.687500
9200		-46.875000
9201		-52.734375
9202		-44.921875
9203		-50.781250
9204		-42.968750
9205		-48.828125
9206		-39.062500
9207		-44.921875
9208		-37.109375
9209		-42.968750
9210		-33.203125
9211		-39.062500
9212		-31.250000
9213		-35.156250
9214		-29.296875
9215		-33.203125
9216		-27.343750
9217		-31.250000
9218		-23.437500
9219		-29.296875
9220		-21.484375
9221		-25.390625
9222		-17.578125
9223		-23.437500
9224		-15.625000
9225		-21.484375
9226		-13.671875
9227		-17.578125
9228		-9.765625
9229		-15.625000
9230		-7.812500
9231		-11.718750
9232		-5.859375
9233		-7.812500
9234		-1.953125
9235		-5.859375
9236		1.953125
9237		-3.906250
9238		3.906250
9239		-1.953125
9240		5.859375
9241		1.953125
9242		7.812500
9243		3.906250
9244		11.718750
9245		5.859375
9246		13.671875
9247		9.765625
9248		15.625000
9249		13.671875
9250		17.578125
9251		13.671875
9252		21.484375
9253		15.625000
9254		25.390625
9255		17.578125
9256		27.343750
9257		21.484375
9258		29.296875
9259		23.437500
9260		33.203125
9261		25.390625
9262		33.203125
9263		29.296875
9264		35.156250
9265		33.203125
9266		37.109375
9267		35.156250
9268		41.015625
9269		35.156250
9270		42.968750
9271		39.062500
9272		46.875000
9273		41.015625
9274		46.875000
9275		42.968750
9276		50.781250
9277		44.921875
9278		52.734375
9279		46.875000
9280		54.687500
9281		50.781250
9282		54.687500
9283		52.734375
9284		58.593750
9285		52.734375
9286		60.546875
9287		54.687500
9288		62.500000
9289		56.640625
9290		64.453125
9291		58.593750
9292		66.406250
9293		60.546875
9294		68.359375
9295		62.500000
9296		68.359375
9297		64.453125
9298		70.312500
9299		66.406250
9300		70.312500
9301		66.406250
9302		74.218750
9303		68.359375
9304		76.171875
9305		70.312500
9306		78.125000
9307		70.312500
9308		78.125000
9309		72.265625
9310		80.078125
9311		74.218750
9312		82.031250
9313		76.171875
9314		82.031250
9315		78.125000
9316		82.031250
9317		78.125000
9318		85.937500
9319		78.125000
9320		85.937500
9321		80.078125
9322		87.890625
9323		82.031250
9324		87.890625
9325		82.031250
9326		89.843750
9327		83.984375
9328		89.843750
9329		83.984375
9330		91.796875
9331		85.937500
9332		89.843750
9333		85.937500
9334		89.843750
9335		85.937500
9336		93.750000
9337		85.937500
9338		91.796875
9339		85.937500
9340		93.750000
9341		85.937500
9342		95.703125
9343		87.890625
9344		93.750000
9345		87.890625
9346		93.750000
9347		89.843750
9348		93.750000
9349		89.843750
9350		93.750000
9351		87.890625
9352		95.703125
9353		87.890625
9354		95.703125
9355		89.843750
9356		95.703125
9357		87.890625
9358		95.703125
9359		87.890625
9360		95.703125
9361		87.890625
9362		95.703125
9363		87.890625
9364		95.703125
9365		89.843750
9366		93.750000
9367		87.890625
9368		93.750000
9369		85.937500
9370		93.750000
9371		85.937500
9372		93.750000
9373		85.937500
9374		93.750000
9375		83.984375
9376		91.796875
9377		85.937500
9378		91.796875
9379		83.984375
9380		91.796875
9381		85.937500
9382		89.843750
9383		83.984375
9384		87.890625
9385		82.031250
9386		87.890625
9387		80.078125
9388		87.890625
9389		80.078125
9390		87.890625
9391		78.125000
9392		85.937500
9393		76.171875
9394		85.937500
9395		76.171875
9396		83.984375
9397		74.218750
9398		83.984375
9399		76.171875
9400		80.078125
9401		74.218750
9402		78.125000
9403		70.312500
9404		78.125000
9405		70.312500
9406		76.171875
9407		68.359375
9408		76.171875
9409		66.406250
9410		74.218750
9411		64.453125
9412		72.265625
9413		64.453125
9414		70.312500
9415		62.500000
9416		68.359375
9417		60.546875
9418		64.453125
9419		58.593750
9420		66.406250
9421		56.640625
9422		62.500000
9423		54.687500
9424		60.546875
9425		50.781250
9426		58.593750
9427		50.781250
9428		58.593750
9429		46.875000
9430		56.640625
9431		46.875000
9432		52.734375
9433		44.921875
9434		50.781250
9435		41.015625
9436		48.828125
9437		39.062500
9438		46.875000
9439		35.156250
9440		44.921875
9441		35.156250
9442		41.015625
9443		31.250000
9444		39.062500
9445		29.296875
9446		37.109375
9447		27.343750
9448		33.203125
9449		25.390625
9450		31.250000
9451		23.437500
9452		29.296875
9453		17.578125
9454		27.343750
9455		15.625000
9456		25.390625
9457		13.671875
9458		21.484375
9459		11.718750
9460		19.531250
9461		7.812500
9462		17.578125
9463		5.859375
9464		15.625000
9465		5.859375
9466		9.765625
9467		1.953125
9468		7.812500
9469		-1.953125
9470		5.859375
9471		-3.906250
9472		3.906250
9473		-7.812500
9474		0.000000
9475		-9.765625
9476		-1.953125
9477		-11.718750
9478		-3.906250
9479		-17.578125
9480		-7.812500
9481		-15.625000
9482		-9.765625
9483		-19.531250
9484		-13.671875
9485		-23.437500
9486		-17.578125
9487		-27.343750
9488		-17.578125
9489		-29.296875
9490		-21.484375
9491		-33.203125
9492		-23.437500
9493		-35.156250
9494		-27.343750
9495		-37.109375
9496		-29.296875
9497		-39.062500
9498		-31.250000
9499		-41.015625
9500		-37.109375
9501		-42.968750
9502		-39.062500
9503		-48.828125
9504		-41.015625
9505		-50.781250
9506		-42.968750
9507		-54.687500
9508		-44.921875
9509		-56.640625
9510		-48.828125
9511		-58.593750
9512		-50.781250
9513		-60.546875
9514		-54.687500
9515		-62.500000
9516		-54.687500
9517		-64.453125
9518		-58.593750
9519		-68.359375
9520		-60.546875
9521		-70.312500
9522		-62.500000
9523		-74.218750
9524		-64.453125
9525		-76.171875
9526		-66.406250
9527		-78.125000
9528		-68.359375
9529		-80.078125
9530		-72.265625
9531		-80.078125
9532		-74.218750
9533		-82.031250
9534		-78.125000
9535		-83.984375
9536		-80.078125
9537		-87.890625
9538		-80.078125
9539		-89.843750
9540		-82.031250
9541		-91.796875
9542		-83.984375
9543		-93.750000
9544		-85.937500
9545		-95.703125
9546		-87.890625
9547		-97.656250
9548		-89.843750
9549		-95.703125
9550		-91.796875
9551		-97.656250
9552		-93.750000
9553		-101.562500
9554		-93.750000
9555		-103.515625
9556		-95.703125
9557		-103.515625
9558		-97.656250
9559		-105.468750
9560		-97.656250
9561		-107.421875
9562		-99.609375
9563		-107.421875
9564		-101.562500
9565		-107.421875
9566		-101.562500
9567		-107.421875
9568		-103.515625
9569		-109.375000
9570		-105.468750
9571		-111.328125
9572		-103.515625
9573		-113.281250
9574		-103.515625
9575		-113.281250
9576		-105.468750
9577		-113.281250
9578		-105.468750
9579		-113.281250
9580		-107.421875
9581		-115.234375
9582		-105.468750
9583		-113.281250
9584		-109.375000
9585		-113.281250
9586		-109.375000
9587		-115.234375
9588		-107.421875
9589		-115.234375
9590		-107.421875
9591		-115.234375
9592		-107.421875
9593		-115.234375
9594		-107.421875
9595		-115.234375
9596		-107.421875
9597		-115.234375
9598		-107.421875
9599		-115.234375
9600		-107.421875
9601		-111.328125
9602		-107.421875
9603		-111.328125
9604		-105.468750
9605		-111.328125
9606		-105.468750
9607		-111.328125
9608		-103.515625
9609		-111.328125
9610		-103.515625
9611		-109.375000
9612		-103.515625
9613		-109.375000
9614		-101.562500
9615		-107.421875
9616		-101.562500
9617		-105.468750
9618		-101.562500
9619		-103.515625
9620		-101.562500
9621		-105.468750
9622		-97.656250
9623		-103.515625
9624		-95.703125
9625		-103.515625
9626		-95.703125
9627		-101.562500
9628		-93.750000
9629		-99.609375
9630		-91.796875
9631		-99.609375
9632		-89.843750
9633		-95.703125
9634		-89.843750
9635		-93.750000
9636		-87.890625
9637		-91.796875
9638		-85.937500
9639		-91.796875
9640		-83.984375
9641		-87.890625
9642		-82.031250
9643		-87.890625
9644		-80.078125
9645		-85.937500
9646		-76.171875
9647		-83.984375
9648		-76.171875
9649		-80.078125
9650		-74.218750
9651		-78.125000
9652		-72.265625
9653		-76.171875
9654		-68.359375
9655		-76.171875
9656		-66.406250
9657		-72.265625
9658		-64.453125
9659		-70.312500
9660		-62.500000
9661		-68.359375
9662		-60.546875
9663		-66.406250
9664		-56.640625
9665		-62.500000
9666		-54.687500
9667		-58.593750
9668		-52.734375
9669		-56.640625
9670		-50.781250
9671		-54.687500
9672		-46.875000
9673		-52.734375
9674		-44.921875
9675		-48.828125
9676		-42.968750
9677		-46.875000
9678		-39.062500
9679		-44.921875
9680		-37.109375
9681		-42.968750
9682		-33.203125
9683		-41.015625
9684		-33.203125
9685		-35.156250
9686		-29.296875
9687		-33.203125
9688		-25.390625
9689		-31.250000
9690		-23.437500
9691		-29.296875
9692		-21.484375
9693		-25.390625
9694		-17.578125
9695		-21.484375
9696		-15.625000
9697		-19.531250
9698		-11.718750
9699		-17.578125
9700		-9.765625
9701		-13.671875
9702		-7.812500
9703		-9.765625
9704		-5.859375
9705		-7.812500
9706		-1.953125
9707		-7.812500
9708		1.953125
9709		-3.906250
9710		3.906250
9711		-1.953125
9712		7.812500
9713		1.953125
9714		9.765625
9715		3.906250
9716		11.718750
9717		7.812500
9718		13.671875
9719		11.718750
9720		15.625000
9721		11.718750
9722		21.484375
9723		15.625000
9724		23.437500
9725		17.578125
9726		25.390625
9727		17.578125
9728		27.343750
9729		21.484375
9730		31.250000
9731		25.390625
9732		31.250000
9733		27.343750
9734		33.203125
9735		31.250000
9736		37.109375
9737		33.203125
9738		39.062500
9739		35.156250
9740		41.015625
9741		37.109375
9742		42.968750
9743		39.062500
9744		46.875000
9745		41.015625
9746		48.828125
9747		42.968750
9748		50.781250
9749		44.921875
9750		52.734375
9751		48.828125
9752		52.734375
9753		50.781250
9754		56.640625
9755		52.734375
9756		58.593750
9757		52.734375
9758		60.546875
9759		54.687500
9760		62.500000
9761		56.640625
9762		64.453125
9763		58.593750
9764		66.406250
9765		60.546875
9766		68.359375
9767		62.500000
9768		68.359375
9769		66.406250
9770		70.312500
9771		66.406250
9772		72.265625
9773		66.406250
9774		74.218750
9775		68.359375
9776		76.171875
9777		70.312500
9778		78.125000
9779		70.312500
9780		80.078125
9781		72.265625
9782		80.078125
9783		74.218750
9784		80.078125
9785		78.125000
9786		82.031250
9787		78.125000
9788		82.031250
9789		78.125000
9790		85.937500
9791		78.125000
9792		85.937500
9793		80.078125
9794		87.890625
9795		80.078125
9796		87.890625
9797		82.031250
9798		87.890625
9799		82.031250
9800		89.843750
9801		83.984375
9802		89.843750
9803		85.937500
9804		89.843750
9805		85.937500
9806		91.796875
9807		85.937500
9808		91.796875
9809		85.937500
9810		93.750000
9811		85.937500
9812		93.750000
9813		87.890625
9814		93.750000
9815		85.937500
9816		95.703125
9817		87.890625
9818		95.703125
9819		89.843750
9820		93.750000
9821		89.843750
9822		93.750000
9823		87.890625
9824		95.703125
9825		87.890625
9826		95.703125
9827		87.890625
9828		95.703125
9829		87.890625
9830		95.703125
9831		87.890625
9832		95.703125
9833		87.890625
9834		95.703125
9835		89.843750
9836		93.750000
9837		89.843750
9838		93.750000
9839		85.937500
9840		93.750000
9841		85.937500
9842		93.750000
9843		85.937500
9844		93.750000
9845		85.937500
9846		93.750000
9847		83.984375
9848		91.796875
9849		83.984375
9850		91.796875
9851		83.984375
9852		89.843750
9853		83.984375
9854		87.890625
9855		82.031250
9856		87.890625
9857		80.078125
9858		87.890625
9859		80.078125
9860		87.890625
9861		80.078125
9862		87.890625
9863		78.125000
9864		85.937500
9865		78.125000
9866		83.984375
9867		76.171875
9868		82.031250
9869		76.171875
9870		80.078125
9871		74.218750
9872		80.078125
9873		72.265625
9874		80.078125
9875		70.312500
9876		78.125000
9877		68.359375
9878		76.171875
9879		68.359375
9880		74.218750
9881		64.453125
9882		74.218750
9883		64.453125
9884		72.265625
9885		64.453125
9886		70.312500
9887		62.500000
9888		66.406250
9889		58.593750
9890		66.406250
9891		56.640625
9892		64.453125
9893		54.687500
9894		62.500000
9895		52.734375
9896		60.546875
9897		50.781250
9898		58.593750
9899		50.781250
9900		56.640625
9901		46.875000
9902		54.687500
9903		46.875000
9904		50.781250
9905		42.968750
9906		48.828125
9907		41.015625
9908		46.875000
9909		37.109375
9910		44.921875
9911		35.156250
9912		42.968750
9913		33.203125
9914		41.015625
9915		29.296875
9916		39.062500
9917		29.296875
9918		35.156250
9919		27.343750
9920		33.203125
9921		25.390625
9922		29.296875
9923		21.484375
9924		29.296875
9925		19.531250
9926		27.343750
9927		15.625000
9928		23.437500
9929		11.718750
9930		21.484375
9931		9.765625
9932		17.578125
9933		7.812500
9934		15.625000
9935		5.859375
9936		13.671875
9937		3.906250
9938		9.765625
9939		0.000000
9940		5.859375
9941		-1.953125
9942		5.859375
9943		-5.859375
9944		1.953125
9945		-7.812500
9946		0.000000
9947		-11.718750
9948		-3.906250
9949		-15.625000
9950		-3.906250
9951		-17.578125
9952		-7.812500
9953		-17.578125
9954		-13.671875
9955		-19.531250
9956		-15.625000
9957		-25.390625
9958		-17.578125
9959		-27.343750
9960		-19.531250
9961		-31.250000
9962		-21.484375
9963		-33.203125
9964		-25.390625
9965		-37.109375
9966		-27.343750
9967		-39.062500
9968		-31.250000
9969		-39.062500
9970		-33.203125
9971		-42.968750
9972		-37.109375
9973		-46.875000
9974		-39.062500
9975		-48.828125
9976		-41.015625
9977		-52.734375
9978		-44.921875
9979		-54.687500
9980		-46.875000
9981		-56.640625
9982		-48.828125
9983		-60.546875
9984		-50.781250
9985		-60.546875
9986		-54.687500
9987		-62.500000
9988		-58.593750
9989		-66.406250
9990		-60.546875
9991		-68.359375
9992		-60.546875
9993		-72.265625
9994		-62.500000
9995		-74.218750
9996		-66.406250
9997		-76.171875
9998		-68.359375
9999		-78.125000
10000		-70.312500
