Channel              :		CH1
Frequency            :		1.975kHz
Period               :		0.506ms
PK-PK                :		195.3mV
Probe attenuation    :		1X
Voltage per ADC value:		0.122070mV
Time interval        :		2.00000us

index		CH1_Voltage(mV)
1		97.656250
2		97.656250
3		101.562500
4		97.656250
5		101.562500
6		97.656250
7		99.609375
8		97.656250
9		99.609375
10		95.703125
11		99.609375
12		95.703125
13		99.609375
14		93.750000
15		97.656250
16		91.796875
17		97.656250
18		89.843750
19		93.750000
20		87.890625
21		91.796875
22		85.937500
23		91.796875
24		83.984375
25		87.890625
26		82.031250
27		85.937500
28		80.078125
29		83.984375
30		76.171875
31		80.078125
32		74.218750
33		78.125000
34		70.312500
35		76.171875
36		68.359375
37		74.218750
38		64.453125
39		68.359375
40		60.546875
41		64.453125
42		56.640625
43		62.500000
44		50.781250
45		58.593750
46		48.828125
47		54.687500
48		44.921875
49		50.781250
50		41.015625
51		46.875000
52		37.109375
53		41.015625
54		31.250000
55		37.109375
56		27.343750
57		33.203125
58		23.437500
59		29.296875
60		17.578125
61		25.390625
62		13.671875
63		19.531250
64		9.765625
65		15.625000
66		3.906250
67		9.765625
68		0.000000
69		5.859375
70		-5.859375
71		1.953125
72		-9.765625
73		-3.906250
74		-13.671875
75		-7.812500
76		-19.531250
77		-11.718750
78		-23.437500
79		-17.578125
80		-27.343750
81		-21.484375
82		-33.203125
83		-27.343750
84		-37.109375
85		-31.250000
86		-41.015625
87		-35.156250
88		-44.921875
89		-39.062500
90		-48.828125
91		-42.968750
92		-52.734375
93		-46.875000
94		-56.640625
95		-50.781250
96		-60.546875
97		-54.687500
98		-62.500000
99		-58.593750
100		-66.406250
101		-62.500000
102		-70.312500
103		-64.453125
104		-72.265625
105		-68.359375
106		-76.171875
107		-70.312500
108		-78.125000
109		-72.265625
110		-80.078125
111		-74.218750
112		-82.031250
113		-78.125000
114		-82.031250
115		-80.078125
116		-83.984375
117		-82.031250
118		-85.937500
119		-82.031250
120		-85.937500
121		-83.984375
122		-87.890625
123		-83.984375
124		-87.890625
125		-83.984375
126		-87.890625
127		-85.937500
128		-87.890625
129		-83.984375
130		-87.890625
131		-85.937500
132		-87.890625
133		-83.984375
134		-87.890625
135		-83.984375
136		-85.937500
137		-82.031250
138		-83.984375
139		-80.078125
140		-83.984375
141		-80.078125
142		-82.031250
143		-78.125000
144		-80.078125
145		-76.171875
146		-78.125000
147		-74.218750
148		-76.171875
149		-72.265625
150		-72.265625
151		-68.359375
152		-70.312500
153		-66.406250
154		-66.406250
155		-62.500000
156		-64.453125
157		-58.593750
158		-60.546875
159		-54.687500
160		-56.640625
161		-52.734375
162		-54.687500
163		-48.828125
164		-50.781250
165		-44.921875
166		-46.875000
167		-41.015625
168		-42.968750
169		-37.109375
170		-39.062500
171		-31.250000
172		-33.203125
173		-27.343750
174		-29.296875
175		-23.437500
176		-25.390625
177		-19.531250
178		-19.531250
179		-13.671875
180		-17.578125
181		-9.765625
182		-11.718750
183		-5.859375
184		-5.859375
185		0.000000
186		-1.953125
187		3.906250
188		1.953125
189		7.812500
190		7.812500
191		13.671875
192		11.718750
193		17.578125
194		15.625000
195		23.437500
196		21.484375
197		27.343750
198		25.390625
199		31.250000
200		29.296875
201		37.109375
202		35.156250
203		41.015625
204		39.062500
205		44.921875
206		42.968750
207		48.828125
208		46.875000
209		52.734375
210		50.781250
211		56.640625
212		54.687500
213		60.546875
214		58.593750
215		64.453125
216		62.500000
217		66.406250
218		64.453125
219		70.312500
220		68.359375
221		74.218750
222		72.265625
223		76.171875
224		76.171875
225		80.078125
226		78.125000
227		82.031250
228		80.078125
229		83.984375
230		83.984375
231		85.937500
232		85.937500
233		89.843750
234		87.890625
235		91.796875
236		87.890625
237		93.750000
238		91.796875
239		95.703125
240		93.750000
241		95.703125
242		93.750000
243		97.656250
244		95.703125
245		97.656250
246		95.703125
247		99.609375
248		97.656250
249		99.609375
250		97.656250
251		99.609375
252		97.656250
253		101.562500
254		97.656250
255		101.562500
256		97.656250
257		101.562500
258		97.656250
259		101.562500
260		97.656250
261		99.609375
262		95.703125
263		99.609375
264		95.703125
265		99.609375
266		93.750000
267		97.656250
268		91.796875
269		95.703125
270		91.796875
271		95.703125
272		89.843750
273		93.750000
274		87.890625
275		91.796875
276		85.937500
277		89.843750
278		83.984375
279		87.890625
280		82.031250
281		85.937500
282		78.125000
283		82.031250
284		74.218750
285		80.078125
286		72.265625
287		76.171875
288		70.312500
289		74.218750
290		66.406250
291		70.312500
292		62.500000
293		68.359375
294		58.593750
295		64.453125
296		54.687500
297		60.546875
298		50.781250
299		56.640625
300		46.875000
301		52.734375
302		42.968750
303		48.828125
304		39.062500
305		44.921875
306		35.156250
307		41.015625
308		29.296875
309		37.109375
310		25.390625
311		31.250000
312		21.484375
313		27.343750
314		15.625000
315		23.437500
316		11.718750
317		17.578125
318		5.859375
319		13.671875
320		1.953125
321		9.765625
322		-3.906250
323		3.906250
324		-7.812500
325		0.000000
326		-11.718750
327		-5.859375
328		-15.625000
329		-9.765625
330		-21.484375
331		-15.625000
332		-25.390625
333		-19.531250
334		-29.296875
335		-23.437500
336		-35.156250
337		-27.343750
338		-39.062500
339		-33.203125
340		-42.968750
341		-37.109375
342		-46.875000
343		-41.015625
344		-50.781250
345		-44.921875
346		-54.687500
347		-48.828125
348		-58.593750
349		-52.734375
350		-62.500000
351		-56.640625
352		-64.453125
353		-60.546875
354		-68.359375
355		-62.500000
356		-70.312500
357		-64.453125
358		-74.218750
359		-68.359375
360		-76.171875
361		-72.265625
362		-78.125000
363		-74.218750
364		-80.078125
365		-76.171875
366		-82.031250
367		-78.125000
368		-83.984375
369		-80.078125
370		-83.984375
371		-82.031250
372		-85.937500
373		-82.031250
374		-85.937500
375		-83.984375
376		-87.890625
377		-83.984375
378		-87.890625
379		-83.984375
380		-89.843750
381		-83.984375
382		-87.890625
383		-85.937500
384		-87.890625
385		-85.937500
386		-87.890625
387		-83.984375
388		-87.890625
389		-83.984375
390		-85.937500
391		-82.031250
392		-83.984375
393		-80.078125
394		-83.984375
395		-80.078125
396		-82.031250
397		-78.125000
398		-80.078125
399		-76.171875
400		-76.171875
401		-72.265625
402		-74.218750
403		-70.312500
404		-72.265625
405		-68.359375
406		-70.312500
407		-64.453125
408		-66.406250
409		-60.546875
410		-62.500000
411		-58.593750
412		-60.546875
413		-54.687500
414		-56.640625
415		-50.781250
416		-52.734375
417		-46.875000
418		-48.828125
419		-42.968750
420		-44.921875
421		-39.062500
422		-41.015625
423		-35.156250
424		-37.109375
425		-31.250000
426		-33.203125
427		-25.390625
428		-27.343750
429		-21.484375
430		-23.437500
431		-17.578125
432		-19.531250
433		-13.671875
434		-13.671875
435		-7.812500
436		-9.765625
437		-3.906250
438		-5.859375
439		1.953125
440		-1.953125
441		5.859375
442		3.906250
443		9.765625
444		9.765625
445		15.625000
446		13.671875
447		19.531250
448		17.578125
449		23.437500
450		23.437500
451		29.296875
452		27.343750
453		33.203125
454		31.250000
455		37.109375
456		35.156250
457		42.968750
458		41.015625
459		44.921875
460		44.921875
461		48.828125
462		48.828125
463		54.687500
464		52.734375
465		58.593750
466		56.640625
467		60.546875
468		60.546875
469		64.453125
470		62.500000
471		68.359375
472		66.406250
473		72.265625
474		70.312500
475		74.218750
476		72.265625
477		78.125000
478		76.171875
479		80.078125
480		78.125000
481		82.031250
482		82.031250
483		85.937500
484		83.984375
485		87.890625
486		85.937500
487		89.843750
488		87.890625
489		91.796875
490		89.843750
491		93.750000
492		91.796875
493		95.703125
494		93.750000
495		97.656250
496		93.750000
497		97.656250
498		95.703125
499		97.656250
500		95.703125
501		99.609375
502		97.656250
503		99.609375
504		97.656250
505		101.562500
506		97.656250
507		101.562500
508		97.656250
509		101.562500
510		97.656250
511		99.609375
512		97.656250
513		101.562500
514		95.703125
515		99.609375
516		95.703125
517		99.609375
518		95.703125
519		97.656250
520		93.750000
521		97.656250
522		91.796875
523		95.703125
524		89.843750
525		95.703125
526		89.843750
527		91.796875
528		87.890625
529		91.796875
530		83.984375
531		89.843750
532		82.031250
533		85.937500
534		80.078125
535		83.984375
536		78.125000
537		82.031250
538		74.218750
539		80.078125
540		70.312500
541		76.171875
542		66.406250
543		74.218750
544		64.453125
545		70.312500
546		60.546875
547		66.406250
548		56.640625
549		62.500000
550		54.687500
551		58.593750
552		48.828125
553		54.687500
554		44.921875
555		50.781250
556		41.015625
557		46.875000
558		37.109375
559		42.968750
560		33.203125
561		39.062500
562		29.296875
563		35.156250
564		23.437500
565		29.296875
566		19.531250
567		25.390625
568		13.671875
569		19.531250
570		9.765625
571		15.625000
572		5.859375
573		11.718750
574		0.000000
575		5.859375
576		-3.906250
577		1.953125
578		-7.812500
579		-1.953125
580		-13.671875
581		-5.859375
582		-19.531250
583		-11.718750
584		-23.437500
585		-17.578125
586		-27.343750
587		-21.484375
588		-31.250000
589		-25.390625
590		-35.156250
591		-29.296875
592		-41.015625
593		-33.203125
594		-44.921875
595		-39.062500
596		-48.828125
597		-42.968750
598		-52.734375
599		-46.875000
600		-54.687500
601		-50.781250
602		-58.593750
603		-54.687500
604		-62.500000
605		-58.593750
606		-66.406250
607		-60.546875
608		-70.312500
609		-64.453125
610		-72.265625
611		-68.359375
612		-74.218750
613		-70.312500
614		-78.125000
615		-72.265625
616		-78.125000
617		-74.218750
618		-80.078125
619		-78.125000
620		-82.031250
621		-80.078125
622		-83.984375
623		-80.078125
624		-85.937500
625		-82.031250
626		-85.937500
627		-83.984375
628		-87.890625
629		-83.984375
630		-87.890625
631		-83.984375
632		-89.843750
633		-83.984375
634		-87.890625
635		-85.937500
636		-87.890625
637		-85.937500
638		-87.890625
639		-83.984375
640		-87.890625
641		-83.984375
642		-85.937500
643		-83.984375
644		-85.937500
645		-82.031250
646		-83.984375
647		-80.078125
648		-82.031250
649		-78.125000
650		-80.078125
651		-76.171875
652		-78.125000
653		-74.218750
654		-76.171875
655		-72.265625
656		-74.218750
657		-70.312500
658		-70.312500
659		-66.406250
660		-68.359375
661		-64.453125
662		-66.406250
663		-60.546875
664		-62.500000
665		-56.640625
666		-58.593750
667		-52.734375
668		-54.687500
669		-48.828125
670		-50.781250
671		-46.875000
672		-46.875000
673		-41.015625
674		-42.968750
675		-37.109375
676		-39.062500
677		-33.203125
678		-35.156250
679		-29.296875
680		-31.250000
681		-25.390625
682		-27.343750
683		-21.484375
684		-21.484375
685		-15.625000
686		-17.578125
687		-11.718750
688		-11.718750
689		-5.859375
690		-7.812500
691		-1.953125
692		-3.906250
693		1.953125
694		1.953125
695		7.812500
696		5.859375
697		11.718750
698		11.718750
699		15.625000
700		13.671875
701		21.484375
702		19.531250
703		25.390625
704		23.437500
705		31.250000
706		27.343750
707		35.156250
708		33.203125
709		39.062500
710		37.109375
711		42.968750
712		41.015625
713		46.875000
714		44.921875
715		50.781250
716		48.828125
717		54.687500
718		52.734375
719		58.593750
720		56.640625
721		62.500000
722		60.546875
723		66.406250
724		64.453125
725		70.312500
726		68.359375
727		72.265625
728		70.312500
729		76.171875
730		74.218750
731		78.125000
732		76.171875
733		82.031250
734		80.078125
735		83.984375
736		82.031250
737		85.937500
738		83.984375
739		87.890625
740		85.937500
741		89.843750
742		89.843750
743		91.796875
744		89.843750
745		93.750000
746		91.796875
747		95.703125
748		93.750000
749		97.656250
750		95.703125
751		97.656250
752		95.703125
753		97.656250
754		95.703125
755		99.609375
756		95.703125
757		99.609375
758		97.656250
759		101.562500
760		97.656250
761		101.562500
762		97.656250
763		101.562500
764		97.656250
765		101.562500
766		97.656250
767		99.609375
768		95.703125
769		101.562500
770		95.703125
771		99.609375
772		93.750000
773		97.656250
774		93.750000
775		97.656250
776		91.796875
777		95.703125
778		89.843750
779		93.750000
780		87.890625
781		93.750000
782		85.937500
783		89.843750
784		83.984375
785		87.890625
786		82.031250
787		85.937500
788		78.125000
789		83.984375
790		76.171875
791		82.031250
792		72.265625
793		78.125000
794		68.359375
795		74.218750
796		66.406250
797		72.265625
798		64.453125
799		68.359375
800		60.546875
801		66.406250
802		56.640625
803		62.500000
804		52.734375
805		58.593750
806		48.828125
807		54.687500
808		44.921875
809		50.781250
810		41.015625
811		44.921875
812		35.156250
813		41.015625
814		31.250000
815		37.109375
816		27.343750
817		33.203125
818		23.437500
819		29.296875
820		17.578125
821		23.437500
822		11.718750
823		19.531250
824		7.812500
825		13.671875
826		3.906250
827		9.765625
828		0.000000
829		5.859375
830		-5.859375
831		0.000000
832		-9.765625
833		-3.906250
834		-15.625000
835		-9.765625
836		-19.531250
837		-13.671875
838		-23.437500
839		-17.578125
840		-29.296875
841		-21.484375
842		-33.203125
843		-27.343750
844		-37.109375
845		-31.250000
846		-41.015625
847		-35.156250
848		-44.921875
849		-39.062500
850		-48.828125
851		-42.968750
852		-52.734375
853		-46.875000
854		-56.640625
855		-50.781250
856		-60.546875
857		-54.687500
858		-64.453125
859		-58.593750
860		-68.359375
861		-62.500000
862		-70.312500
863		-64.453125
864		-74.218750
865		-68.359375
866		-76.171875
867		-70.312500
868		-78.125000
869		-72.265625
870		-80.078125
871		-76.171875
872		-82.031250
873		-78.125000
874		-83.984375
875		-80.078125
876		-83.984375
877		-80.078125
878		-85.937500
879		-80.078125
880		-87.890625
881		-82.031250
882		-87.890625
883		-82.031250
884		-89.843750
885		-83.984375
886		-89.843750
887		-83.984375
888		-87.890625
889		-85.937500
890		-87.890625
891		-83.984375
892		-89.843750
893		-82.031250
894		-89.843750
895		-82.031250
896		-87.890625
897		-80.078125
898		-85.937500
899		-78.125000
900		-85.937500
901		-78.125000
902		-83.984375
903		-78.125000
904		-80.078125
905		-76.171875
906		-78.125000
907		-72.265625
908		-76.171875
909		-70.312500
910		-74.218750
911		-66.406250
912		-70.312500
913		-62.500000
914		-68.359375
915		-60.546875
916		-64.453125
917		-56.640625
918		-62.500000
919		-54.687500
920		-56.640625
921		-52.734375
922		-54.687500
923		-48.828125
924		-50.781250
925		-42.968750
926		-46.875000
927		-39.062500
928		-42.968750
929		-35.156250
930		-39.062500
931		-31.250000
932		-35.156250
933		-25.390625
934		-29.296875
935		-21.484375
936		-25.390625
937		-17.578125
938		-19.531250
939		-13.671875
940		-15.625000
941		-7.812500
942		-11.718750
943		-3.906250
944		-7.812500
945		1.953125
946		-1.953125
947		5.859375
948		1.953125
949		11.718750
950		5.859375
951		15.625000
952		11.718750
953		19.531250
954		17.578125
955		23.437500
956		21.484375
957		27.343750
958		25.390625
959		33.203125
960		27.343750
961		39.062500
962		33.203125
963		41.015625
964		37.109375
965		46.875000
966		42.968750
967		48.828125
968		44.921875
969		54.687500
970		50.781250
971		56.640625
972		54.687500
973		60.546875
974		58.593750
975		64.453125
976		60.546875
977		68.359375
978		64.453125
979		72.265625
980		66.406250
981		76.171875
982		70.312500
983		78.125000
984		74.218750
985		82.031250
986		76.171875
987		83.984375
988		80.078125
989		83.984375
990		83.984375
991		87.890625
992		83.984375
993		91.796875
994		85.937500
995		93.750000
996		87.890625
997		95.703125
998		89.843750
999		95.703125
1000		91.796875
1001		99.609375
1002		91.796875
1003		99.609375
1004		95.703125
1005		99.609375
1006		95.703125
1007		99.609375
1008		95.703125
1009		101.562500
1010		95.703125
1011		101.562500
1012		95.703125
1013		103.515625
1014		95.703125
1015		103.515625
1016		95.703125
1017		103.515625
1018		95.703125
1019		103.515625
1020		95.703125
1021		101.562500
1022		97.656250
1023		99.609375
1024		93.750000
1025		99.609375
1026		93.750000
1027		99.609375
1028		91.796875
1029		97.656250
1030		89.843750
1031		97.656250
1032		87.890625
1033		95.703125
1034		85.937500
1035		93.750000
1036		83.984375
1037		91.796875
1038		82.031250
1039		87.890625
1040		82.031250
1041		85.937500
1042		76.171875
1043		83.984375
1044		74.218750
1045		82.031250
1046		70.312500
1047		80.078125
1048		68.359375
1049		76.171875
1050		64.453125
1051		74.218750
1052		60.546875
1053		70.312500
1054		58.593750
1055		66.406250
1056		54.687500
1057		60.546875
1058		48.828125
1059		56.640625
1060		44.921875
1061		54.687500
1062		41.015625
1063		50.781250
1064		37.109375
1065		46.875000
1066		31.250000
1067		42.968750
1068		27.343750
1069		37.109375
1070		25.390625
1071		33.203125
1072		21.484375
1073		27.343750
1074		17.578125
1075		21.484375
1076		9.765625
1077		19.531250
1078		5.859375
1079		15.625000
1080		0.000000
1081		11.718750
1082		-3.906250
1083		5.859375
1084		-9.765625
1085		1.953125
1086		-13.671875
1087		-3.906250
1088		-15.625000
1089		-9.765625
1090		-21.484375
1091		-15.625000
1092		-27.343750
1093		-19.531250
1094		-33.203125
1095		-21.484375
1096		-35.156250
1097		-25.390625
1098		-41.015625
1099		-31.250000
1100		-44.921875
1101		-35.156250
1102		-46.875000
1103		-39.062500
1104		-50.781250
1105		-42.968750
1106		-54.687500
1107		-48.828125
1108		-60.546875
1109		-52.734375
1110		-62.500000
1111		-54.687500
1112		-66.406250
1113		-58.593750
1114		-70.312500
1115		-60.546875
1116		-72.265625
1117		-62.500000
1118		-74.218750
1119		-66.406250
1120		-76.171875
1121		-70.312500
1122		-78.125000
1123		-74.218750
1124		-80.078125
1125		-76.171875
1126		-83.984375
1127		-76.171875
1128		-85.937500
1129		-78.125000
1130		-85.937500
1131		-78.125000
1132		-87.890625
1133		-80.078125
1134		-87.890625
1135		-82.031250
1136		-89.843750
1137		-82.031250
1138		-87.890625
1139		-82.031250
1140		-87.890625
1141		-85.937500
1142		-87.890625
1143		-83.984375
1144		-89.843750
1145		-82.031250
1146		-89.843750
1147		-82.031250
1148		-87.890625
1149		-80.078125
1150		-87.890625
1151		-80.078125
1152		-85.937500
1153		-78.125000
1154		-83.984375
1155		-78.125000
1156		-80.078125
1157		-76.171875
1158		-78.125000
1159		-74.218750
1160		-78.125000
1161		-70.312500
1162		-76.171875
1163		-68.359375
1164		-74.218750
1165		-64.453125
1166		-70.312500
1167		-62.500000
1168		-68.359375
1169		-58.593750
1170		-64.453125
1171		-54.687500
1172		-60.546875
1173		-54.687500
1174		-54.687500
1175		-50.781250
1176		-52.734375
1177		-44.921875
1178		-48.828125
1179		-41.015625
1180		-44.921875
1181		-37.109375
1182		-41.015625
1183		-33.203125
1184		-37.109375
1185		-29.296875
1186		-33.203125
1187		-23.437500
1188		-29.296875
1189		-21.484375
1190		-21.484375
1191		-15.625000
1192		-17.578125
1193		-9.765625
1194		-15.625000
1195		-5.859375
1196		-9.765625
1197		0.000000
1198		-5.859375
1199		3.906250
1200		-1.953125
1201		7.812500
1202		3.906250
1203		13.671875
1204		7.812500
1205		17.578125
1206		13.671875
1207		19.531250
1208		19.531250
1209		25.390625
1210		23.437500
1211		31.250000
1212		25.390625
1213		35.156250
1214		31.250000
1215		39.062500
1216		35.156250
1217		42.968750
1218		39.062500
1219		48.828125
1220		42.968750
1221		52.734375
1222		46.875000
1223		54.687500
1224		52.734375
1225		58.593750
1226		56.640625
1227		64.453125
1228		58.593750
1229		68.359375
1230		62.500000
1231		70.312500
1232		64.453125
1233		74.218750
1234		68.359375
1235		76.171875
1236		70.312500
1237		80.078125
1238		74.218750
1239		82.031250
1240		80.078125
1241		83.984375
1242		82.031250
1243		85.937500
1244		82.031250
1245		89.843750
1246		83.984375
1247		91.796875
1248		85.937500
1249		93.750000
1250		87.890625
1251		97.656250
1252		89.843750
1253		97.656250
1254		91.796875
1255		99.609375
1256		93.750000
1257		97.656250
1258		95.703125
1259		99.609375
1260		95.703125
1261		101.562500
1262		95.703125
1263		101.562500
1264		95.703125
1265		103.515625
1266		95.703125
1267		103.515625
1268		95.703125
1269		103.515625
1270		95.703125
1271		103.515625
1272		95.703125
1273		103.515625
1274		97.656250
1275		99.609375
1276		93.750000
1277		101.562500
1278		91.796875
1279		101.562500
1280		91.796875
1281		99.609375
1282		89.843750
1283		97.656250
1284		87.890625
1285		95.703125
1286		85.937500
1287		95.703125
1288		85.937500
1289		93.750000
1290		85.937500
1291		89.843750
1292		82.031250
1293		85.937500
1294		78.125000
1295		85.937500
1296		76.171875
1297		83.984375
1298		72.265625
1299		80.078125
1300		68.359375
1301		78.125000
1302		66.406250
1303		74.218750
1304		62.500000
1305		72.265625
1306		62.500000
1307		68.359375
1308		56.640625
1309		62.500000
1310		50.781250
1311		58.593750
1312		48.828125
1313		56.640625
1314		42.968750
1315		52.734375
1316		39.062500
1317		48.828125
1318		35.156250
1319		44.921875
1320		31.250000
1321		41.015625
1322		27.343750
1323		37.109375
1324		23.437500
1325		29.296875
1326		19.531250
1327		25.390625
1328		11.718750
1329		21.484375
1330		7.812500
1331		17.578125
1332		3.906250
1333		11.718750
1334		-1.953125
1335		7.812500
1336		-7.812500
1337		3.906250
1338		-9.765625
1339		0.000000
1340		-13.671875
1341		-7.812500
1342		-17.578125
1343		-11.718750
1344		-25.390625
1345		-15.625000
1346		-29.296875
1347		-19.531250
1348		-33.203125
1349		-23.437500
1350		-39.062500
1351		-27.343750
1352		-42.968750
1353		-31.250000
1354		-46.875000
1355		-37.109375
1356		-46.875000
1357		-41.015625
1358		-50.781250
1359		-46.875000
1360		-58.593750
1361		-50.781250
1362		-60.546875
1363		-52.734375
1364		-64.453125
1365		-54.687500
1366		-68.359375
1367		-58.593750
1368		-70.312500
1369		-62.500000
1370		-74.218750
1371		-64.453125
1372		-76.171875
1373		-68.359375
1374		-76.171875
1375		-72.265625
1376		-78.125000
1377		-74.218750
1378		-82.031250
1379		-76.171875
1380		-83.984375
1381		-76.171875
1382		-85.937500
1383		-78.125000
1384		-87.890625
1385		-80.078125
1386		-87.890625
1387		-80.078125
1388		-89.843750
1389		-82.031250
1390		-87.890625
1391		-82.031250
1392		-87.890625
1393		-83.984375
1394		-89.843750
1395		-83.984375
1396		-89.843750
1397		-82.031250
1398		-89.843750
1399		-82.031250
1400		-87.890625
1401		-82.031250
1402		-87.890625
1403		-80.078125
1404		-87.890625
1405		-78.125000
1406		-85.937500
1407		-78.125000
1408		-82.031250
1409		-78.125000
1410		-80.078125
1411		-76.171875
1412		-80.078125
1413		-72.265625
1414		-78.125000
1415		-70.312500
1416		-74.218750
1417		-66.406250
1418		-72.265625
1419		-64.453125
1420		-70.312500
1421		-60.546875
1422		-66.406250
1423		-58.593750
1424		-62.500000
1425		-56.640625
1426		-58.593750
1427		-52.734375
1428		-54.687500
1429		-46.875000
1430		-52.734375
1431		-42.968750
1432		-48.828125
1433		-39.062500
1434		-44.921875
1435		-35.156250
1436		-39.062500
1437		-31.250000
1438		-35.156250
1439		-25.390625
1440		-31.250000
1441		-23.437500
1442		-25.390625
1443		-19.531250
1444		-21.484375
1445		-11.718750
1446		-17.578125
1447		-7.812500
1448		-13.671875
1449		-3.906250
1450		-7.812500
1451		1.953125
1452		-3.906250
1453		5.859375
1454		0.000000
1455		11.718750
1456		3.906250
1457		13.671875
1458		11.718750
1459		17.578125
1460		15.625000
1461		23.437500
1462		19.531250
1463		29.296875
1464		23.437500
1465		33.203125
1466		27.343750
1467		37.109375
1468		31.250000
1469		41.015625
1470		35.156250
1471		44.921875
1472		41.015625
1473		50.781250
1474		44.921875
1475		52.734375
1476		50.781250
1477		56.640625
1478		54.687500
1479		60.546875
1480		56.640625
1481		66.406250
1482		60.546875
1483		68.359375
1484		62.500000
1485		72.265625
1486		66.406250
1487		76.171875
1488		70.312500
1489		78.125000
1490		72.265625
1491		80.078125
1492		78.125000
1493		82.031250
1494		80.078125
1495		83.984375
1496		80.078125
1497		89.843750
1498		83.984375
1499		91.796875
1500		83.984375
1501		93.750000
1502		85.937500
1503		95.703125
1504		89.843750
1505		95.703125
1506		91.796875
1507		99.609375
1508		93.750000
1509		97.656250
1510		95.703125
1511		97.656250
1512		95.703125
1513		101.562500
1514		95.703125
1515		101.562500
1516		95.703125
1517		101.562500
1518		95.703125
1519		103.515625
1520		95.703125
1521		103.515625
1522		95.703125
1523		103.515625
1524		95.703125
1525		103.515625
1526		97.656250
1527		99.609375
1528		95.703125
1529		99.609375
1530		93.750000
1531		101.562500
1532		91.796875
1533		99.609375
1534		91.796875
1535		99.609375
1536		89.843750
1537		97.656250
1538		87.890625
1539		95.703125
1540		85.937500
1541		93.750000
1542		85.937500
1543		89.843750
1544		83.984375
1545		87.890625
1546		80.078125
1547		87.890625
1548		78.125000
1549		85.937500
1550		74.218750
1551		83.984375
1552		72.265625
1553		80.078125
1554		68.359375
1555		76.171875
1556		64.453125
1557		74.218750
1558		64.453125
1559		70.312500
1560		60.546875
1561		64.453125
1562		54.687500
1563		62.500000
1564		50.781250
1565		60.546875
1566		46.875000
1567		56.640625
1568		41.015625
1569		50.781250
1570		37.109375
1571		46.875000
1572		35.156250
1573		42.968750
1574		31.250000
1575		39.062500
1576		27.343750
1577		33.203125
1578		21.484375
1579		29.296875
1580		15.625000
1581		25.390625
1582		11.718750
1583		21.484375
1584		5.859375
1585		15.625000
1586		1.953125
1587		11.718750
1588		-3.906250
1589		7.812500
1590		-7.812500
1591		1.953125
1592		-9.765625
1593		-1.953125
1594		-15.625000
1595		-9.765625
1596		-21.484375
1597		-13.671875
1598		-25.390625
1599		-15.625000
1600		-31.250000
1601		-19.531250
1602		-35.156250
1603		-25.390625
1604		-39.062500
1605		-29.296875
1606		-42.968750
1607		-35.156250
1608		-44.921875
1609		-37.109375
1610		-48.828125
1611		-42.968750
1612		-54.687500
1613		-48.828125
1614		-58.593750
1615		-50.781250
1616		-62.500000
1617		-52.734375
1618		-66.406250
1619		-56.640625
1620		-70.312500
1621		-60.546875
1622		-72.265625
1623		-62.500000
1624		-74.218750
1625		-66.406250
1626		-74.218750
1627		-70.312500
1628		-76.171875
1629		-74.218750
1630		-80.078125
1631		-74.218750
1632		-83.984375
1633		-76.171875
1634		-83.984375
1635		-78.125000
1636		-85.937500
1637		-78.125000
1638		-87.890625
1639		-80.078125
1640		-87.890625
1641		-82.031250
1642		-89.843750
1643		-82.031250
1644		-87.890625
1645		-83.984375
1646		-89.843750
1647		-83.984375
1648		-89.843750
1649		-82.031250
1650		-89.843750
1651		-82.031250
1652		-89.843750
1653		-82.031250
1654		-89.843750
1655		-82.031250
1656		-87.890625
1657		-80.078125
1658		-85.937500
1659		-78.125000
1660		-82.031250
1661		-80.078125
1662		-80.078125
1663		-78.125000
1664		-80.078125
1665		-72.265625
1666		-78.125000
1667		-70.312500
1668		-76.171875
1669		-68.359375
1670		-74.218750
1671		-66.406250
1672		-70.312500
1673		-62.500000
1674		-68.359375
1675		-60.546875
1676		-64.453125
1677		-58.593750
1678		-60.546875
1679		-54.687500
1680		-56.640625
1681		-48.828125
1682		-54.687500
1683		-44.921875
1684		-50.781250
1685		-41.015625
1686		-46.875000
1687		-37.109375
1688		-42.968750
1689		-33.203125
1690		-39.062500
1691		-29.296875
1692		-35.156250
1693		-25.390625
1694		-27.343750
1695		-21.484375
1696		-23.437500
1697		-17.578125
1698		-21.484375
1699		-11.718750
1700		-15.625000
1701		-7.812500
1702		-11.718750
1703		-1.953125
1704		-7.812500
1705		1.953125
1706		-3.906250
1707		7.812500
1708		1.953125
1709		11.718750
1710		7.812500
1711		13.671875
1712		13.671875
1713		19.531250
1714		17.578125
1715		27.343750
1716		19.531250
1717		29.296875
1718		25.390625
1719		35.156250
1720		29.296875
1721		39.062500
1722		33.203125
1723		42.968750
1724		39.062500
1725		46.875000
1726		42.968750
1727		48.828125
1728		48.828125
1729		52.734375
1730		52.734375
1731		58.593750
1732		54.687500
1733		62.500000
1734		58.593750
1735		66.406250
1736		60.546875
1737		70.312500
1738		64.453125
1739		72.265625
1740		68.359375
1741		76.171875
1742		70.312500
1743		78.125000
1744		76.171875
1745		80.078125
1746		80.078125
1747		82.031250
1748		80.078125
1749		87.890625
1750		82.031250
1751		89.843750
1752		83.984375
1753		91.796875
1754		85.937500
1755		93.750000
1756		87.890625
1757		95.703125
1758		89.843750
1759		97.656250
1760		91.796875
1761		97.656250
1762		95.703125
1763		97.656250
1764		95.703125
1765		99.609375
1766		95.703125
1767		101.562500
1768		95.703125
1769		101.562500
1770		97.656250
1771		101.562500
1772		97.656250
1773		101.562500
1774		97.656250
1775		101.562500
1776		97.656250
1777		101.562500
1778		97.656250
1779		101.562500
1780		97.656250
1781		101.562500
1782		95.703125
1783		101.562500
1784		93.750000
1785		99.609375
1786		93.750000
1787		99.609375
1788		91.796875
1789		99.609375
1790		89.843750
1791		97.656250
1792		87.890625
1793		95.703125
1794		87.890625
1795		93.750000
1796		85.937500
1797		89.843750
1798		82.031250
1799		87.890625
1800		80.078125
1801		87.890625
1802		76.171875
1803		83.984375
1804		74.218750
1805		82.031250
1806		70.312500
1807		80.078125
1808		66.406250
1809		76.171875
1810		66.406250
1811		72.265625
1812		62.500000
1813		68.359375
1814		56.640625
1815		64.453125
1816		52.734375
1817		62.500000
1818		48.828125
1819		58.593750
1820		44.921875
1821		54.687500
1822		41.015625
1823		50.781250
1824		37.109375
1825		46.875000
1826		33.203125
1827		42.968750
1828		29.296875
1829		35.156250
1830		25.390625
1831		31.250000
1832		19.531250
1833		27.343750
1834		15.625000
1835		23.437500
1836		9.765625
1837		19.531250
1838		5.859375
1839		13.671875
1840		0.000000
1841		9.765625
1842		-3.906250
1843		5.859375
1844		-7.812500
1845		0.000000
1846		-11.718750
1847		-5.859375
1848		-19.531250
1849		-9.765625
1850		-23.437500
1851		-13.671875
1852		-29.296875
1853		-17.578125
1854		-31.250000
1855		-21.484375
1856		-37.109375
1857		-25.390625
1858		-41.015625
1859		-31.250000
1860		-42.968750
1861		-35.156250
1862		-46.875000
1863		-41.015625
1864		-50.781250
1865		-44.921875
1866		-56.640625
1867		-46.875000
1868		-60.546875
1869		-50.781250
1870		-64.453125
1871		-54.687500
1872		-66.406250
1873		-58.593750
1874		-70.312500
1875		-60.546875
1876		-72.265625
1877		-64.453125
1878		-72.265625
1879		-68.359375
1880		-76.171875
1881		-72.265625
1882		-80.078125
1883		-72.265625
1884		-82.031250
1885		-74.218750
1886		-83.984375
1887		-76.171875
1888		-83.984375
1889		-78.125000
1890		-85.937500
1891		-80.078125
1892		-87.890625
1893		-80.078125
1894		-87.890625
1895		-82.031250
1896		-85.937500
1897		-83.984375
1898		-87.890625
1899		-82.031250
1900		-89.843750
1901		-82.031250
1902		-89.843750
1903		-82.031250
1904		-87.890625
1905		-82.031250
1906		-87.890625
1907		-82.031250
1908		-87.890625
1909		-80.078125
1910		-85.937500
1911		-80.078125
1912		-83.984375
1913		-80.078125
1914		-82.031250
1915		-78.125000
1916		-82.031250
1917		-74.218750
1918		-80.078125
1919		-72.265625
1920		-78.125000
1921		-70.312500
1922		-76.171875
1923		-68.359375
1924		-74.218750
1925		-64.453125
1926		-70.312500
1927		-62.500000
1928		-68.359375
1929		-60.546875
1930		-62.500000
1931		-56.640625
1932		-58.593750
1933		-50.781250
1934		-56.640625
1935		-46.875000
1936		-52.734375
1937		-44.921875
1938		-48.828125
1939		-39.062500
1940		-44.921875
1941		-35.156250
1942		-41.015625
1943		-31.250000
1944		-37.109375
1945		-29.296875
1946		-31.250000
1947		-25.390625
1948		-25.390625
1949		-21.484375
1950		-23.437500
1951		-13.671875
1952		-19.531250
1953		-9.765625
1954		-15.625000
1955		-5.859375
1956		-9.765625
1957		0.000000
1958		-5.859375
1959		3.906250
1960		-1.953125
1961		9.765625
1962		3.906250
1963		11.718750
1964		9.765625
1965		15.625000
1966		15.625000
1967		23.437500
1968		17.578125
1969		27.343750
1970		21.484375
1971		33.203125
1972		27.343750
1973		37.109375
1974		31.250000
1975		41.015625
1976		35.156250
1977		44.921875
1978		39.062500
1979		46.875000
1980		44.921875
1981		50.781250
1982		48.828125
1983		56.640625
1984		50.781250
1985		60.546875
1986		54.687500
1987		64.453125
1988		58.593750
1989		68.359375
1990		62.500000
1991		72.265625
1992		66.406250
1993		74.218750
1994		68.359375
1995		76.171875
1996		74.218750
1997		78.125000
1998		78.125000
1999		82.031250
2000		78.125000
2001		85.937500
2002		80.078125
2003		87.890625
2004		83.984375
2005		91.796875
2006		83.984375
2007		93.750000
2008		85.937500
2009		95.703125
2010		87.890625
2011		95.703125
2012		89.843750
2013		97.656250
2014		93.750000
2015		97.656250
2016		93.750000
2017		101.562500
2018		93.750000
2019		101.562500
2020		95.703125
2021		101.562500
2022		95.703125
2023		101.562500
2024		95.703125
2025		103.515625
2026		95.703125
2027		103.515625
2028		95.703125
2029		103.515625
2030		99.609375
2031		101.562500
2032		97.656250
2033		101.562500
2034		95.703125
2035		101.562500
2036		93.750000
2037		101.562500
2038		93.750000
2039		101.562500
2040		91.796875
2041		99.609375
2042		91.796875
2043		97.656250
2044		89.843750
2045		97.656250
2046		89.843750
2047		93.750000
2048		87.890625
2049		89.843750
2050		83.984375
2051		89.843750
2052		80.078125
2053		87.890625
2054		78.125000
2055		87.890625
2056		76.171875
2057		83.984375
2058		72.265625
2059		80.078125
2060		70.312500
2061		78.125000
2062		68.359375
2063		74.218750
2064		64.453125
2065		70.312500
2066		60.546875
2067		66.406250
2068		56.640625
2069		64.453125
2070		52.734375
2071		60.546875
2072		46.875000
2073		56.640625
2074		42.968750
2075		52.734375
2076		41.015625
2077		48.828125
2078		35.156250
2079		44.921875
2080		33.203125
2081		39.062500
2082		29.296875
2083		35.156250
2084		21.484375
2085		29.296875
2086		17.578125
2087		27.343750
2088		11.718750
2089		23.437500
2090		7.812500
2091		17.578125
2092		3.906250
2093		13.671875
2094		-1.953125
2095		9.765625
2096		-3.906250
2097		3.906250
2098		-9.765625
2099		-3.906250
2100		-15.625000
2101		-7.812500
2102		-19.531250
2103		-9.765625
2104		-25.390625
2105		-13.671875
2106		-29.296875
2107		-19.531250
2108		-33.203125
2109		-23.437500
2110		-37.109375
2111		-27.343750
2112		-41.015625
2113		-31.250000
2114		-44.921875
2115		-39.062500
2116		-48.828125
2117		-42.968750
2118		-54.687500
2119		-44.921875
2120		-58.593750
2121		-48.828125
2122		-60.546875
2123		-52.734375
2124		-64.453125
2125		-54.687500
2126		-68.359375
2127		-58.593750
2128		-70.312500
2129		-62.500000
2130		-72.265625
2131		-64.453125
2132		-74.218750
2133		-70.312500
2134		-78.125000
2135		-70.312500
2136		-80.078125
2137		-72.265625
2138		-82.031250
2139		-74.218750
2140		-83.984375
2141		-76.171875
2142		-85.937500
2143		-78.125000
2144		-87.890625
2145		-80.078125
2146		-87.890625
2147		-80.078125
2148		-85.937500
2149		-83.984375
2150		-87.890625
2151		-83.984375
2152		-89.843750
2153		-82.031250
2154		-89.843750
2155		-82.031250
2156		-89.843750
2157		-82.031250
2158		-87.890625
2159		-82.031250
2160		-89.843750
2161		-82.031250
2162		-87.890625
2163		-80.078125
2164		-83.984375
2165		-80.078125
2166		-82.031250
2167		-80.078125
2168		-82.031250
2169		-76.171875
2170		-82.031250
2171		-74.218750
2172		-78.125000
2173		-72.265625
2174		-76.171875
2175		-68.359375
2176		-76.171875
2177		-66.406250
2178		-72.265625
2179		-62.500000
2180		-70.312500
2181		-62.500000
2182		-64.453125
2183		-58.593750
2184		-60.546875
2185		-54.687500
2186		-58.593750
2187		-50.781250
2188		-56.640625
2189		-46.875000
2190		-52.734375
2191		-42.968750
2192		-48.828125
2193		-39.062500
2194		-44.921875
2195		-35.156250
2196		-39.062500
2197		-31.250000
2198		-33.203125
2199		-27.343750
2200		-29.296875
2201		-23.437500
2202		-27.343750
2203		-15.625000
2204		-21.484375
2205		-11.718750
2206		-17.578125
2207		-7.812500
2208		-11.718750
2209		-3.906250
2210		-7.812500
2211		1.953125
2212		-3.906250
2213		5.859375
2214		0.000000
2215		7.812500
2216		7.812500
2217		13.671875
2218		11.718750
2219		19.531250
2220		13.671875
2221		23.437500
2222		19.531250
2223		29.296875
2224		23.437500
2225		33.203125
2226		27.343750
2227		39.062500
2228		33.203125
2229		42.968750
2230		37.109375
2231		44.921875
2232		42.968750
2233		48.828125
2234		46.875000
2235		52.734375
2236		48.828125
2237		58.593750
2238		52.734375
2239		62.500000
2240		56.640625
2241		66.406250
2242		60.546875
2243		70.312500
2244		62.500000
2245		72.265625
2246		66.406250
2247		74.218750
2248		72.265625
2249		76.171875
2250		76.171875
2251		80.078125
2252		78.125000
2253		83.984375
2254		78.125000
2255		85.937500
2256		80.078125
2257		89.843750
2258		83.984375
2259		91.796875
2260		85.937500
2261		93.750000
2262		87.890625
2263		95.703125
2264		89.843750
2265		95.703125
2266		93.750000
2267		95.703125
2268		91.796875
2269		99.609375
2270		93.750000
2271		99.609375
2272		93.750000
2273		101.562500
2274		95.703125
2275		101.562500
2276		95.703125
2277		101.562500
2278		95.703125
2279		103.515625
2280		95.703125
2281		103.515625
2282		97.656250
2283		101.562500
2284		97.656250
2285		99.609375
2286		95.703125
2287		101.562500
2288		95.703125
2289		101.562500
2290		93.750000
2291		101.562500
2292		91.796875
2293		99.609375
2294		91.796875
2295		99.609375
2296		89.843750
2297		97.656250
2298		89.843750
2299		95.703125
2300		87.890625
2301		91.796875
2302		83.984375
2303		91.796875
2304		82.031250
2305		89.843750
2306		80.078125
2307		87.890625
2308		76.171875
2309		85.937500
2310		74.218750
2311		82.031250
2312		70.312500
2313		80.078125
2314		68.359375
2315		76.171875
2316		66.406250
2317		72.265625
2318		62.500000
2319		68.359375
2320		58.593750
2321		66.406250
2322		54.687500
2323		64.453125
2324		50.781250
2325		58.593750
2326		46.875000
2327		56.640625
2328		41.015625
2329		50.781250
2330		39.062500
2331		46.875000
2332		35.156250
2333		41.015625
2334		31.250000
2335		37.109375
2336		25.390625
2337		33.203125
2338		19.531250
2339		29.296875
2340		15.625000
2341		25.390625
2342		11.718750
2343		21.484375
2344		5.859375
2345		15.625000
2346		1.953125
2347		11.718750
2348		-1.953125
2349		5.859375
2350		-5.859375
2351		0.000000
2352		-13.671875
2353		-5.859375
2354		-17.578125
2355		-7.812500
2356		-21.484375
2357		-11.718750
2358		-27.343750
2359		-15.625000
2360		-31.250000
2361		-21.484375
2362		-35.156250
2363		-25.390625
2364		-39.062500
2365		-29.296875
2366		-42.968750
2367		-37.109375
2368		-46.875000
2369		-41.015625
2370		-52.734375
2371		-42.968750
2372		-56.640625
2373		-46.875000
2374		-58.593750
2375		-50.781250
2376		-62.500000
2377		-54.687500
2378		-66.406250
2379		-58.593750
2380		-68.359375
2381		-60.546875
2382		-70.312500
2383		-62.500000
2384		-72.265625
2385		-68.359375
2386		-78.125000
2387		-70.312500
2388		-80.078125
2389		-72.265625
2390		-82.031250
2391		-74.218750
2392		-83.984375
2393		-76.171875
2394		-85.937500
2395		-78.125000
2396		-85.937500
2397		-78.125000
2398		-87.890625
2399		-80.078125
2400		-85.937500
2401		-83.984375
2402		-85.937500
2403		-83.984375
2404		-89.843750
2405		-82.031250
2406		-89.843750
2407		-83.984375
2408		-89.843750
2409		-82.031250
2410		-89.843750
2411		-82.031250
2412		-87.890625
2413		-82.031250
2414		-87.890625
2415		-82.031250
2416		-87.890625
2417		-82.031250
2418		-83.984375
2419		-80.078125
2420		-83.984375
2421		-76.171875
2422		-83.984375
2423		-74.218750
2424		-82.031250
2425		-72.265625
2426		-80.078125
2427		-70.312500
2428		-76.171875
2429		-68.359375
2430		-74.218750
2431		-64.453125
2432		-70.312500
2433		-64.453125
2434		-66.406250
2435		-60.546875
2436		-62.500000
2437		-56.640625
2438		-60.546875
2439		-52.734375
2440		-56.640625
2441		-48.828125
2442		-54.687500
2443		-44.921875
2444		-50.781250
2445		-41.015625
2446		-46.875000
2447		-37.109375
2448		-42.968750
2449		-35.156250
2450		-37.109375
2451		-31.250000
2452		-31.250000
2453		-25.390625
2454		-27.343750
2455		-19.531250
2456		-25.390625
2457		-15.625000
2458		-21.484375
2459		-9.765625
2460		-15.625000
2461		-5.859375
2462		-11.718750
2463		-1.953125
2464		-5.859375
2465		1.953125
2466		-1.953125
2467		5.859375
2468		3.906250
2469		9.765625
2470		9.765625
2471		17.578125
2472		11.718750
2473		21.484375
2474		15.625000
2475		25.390625
2476		19.531250
2477		31.250000
2478		25.390625
2479		35.156250
2480		29.296875
2481		39.062500
2482		33.203125
2483		42.968750
2484		41.015625
2485		44.921875
2486		44.921875
2487		48.828125
2488		46.875000
2489		56.640625
2490		50.781250
2491		58.593750
2492		54.687500
2493		62.500000
2494		58.593750
2495		66.406250
2496		62.500000
2497		70.312500
2498		64.453125
2499		72.265625
2500		70.312500
2501		74.218750
2502		72.265625
2503		78.125000
2504		76.171875
2505		82.031250
2506		78.125000
2507		85.937500
2508		80.078125
2509		87.890625
2510		82.031250
2511		89.843750
2512		83.984375
2513		91.796875
2514		85.937500
2515		93.750000
2516		87.890625
2517		93.750000
2518		91.796875
2519		95.703125
2520		93.750000
2521		97.656250
2522		91.796875
2523		99.609375
2524		93.750000
2525		101.562500
2526		93.750000
2527		101.562500
2528		95.703125
2529		101.562500
2530		95.703125
2531		101.562500
2532		95.703125
2533		103.515625
2534		97.656250
2535		101.562500
2536		97.656250
2537		99.609375
2538		95.703125
2539		101.562500
2540		93.750000
2541		101.562500
2542		93.750000
2543		101.562500
2544		93.750000
2545		99.609375
2546		91.796875
2547		99.609375
2548		89.843750
2549		97.656250
2550		89.843750
2551		97.656250
2552		89.843750
2553		93.750000
2554		85.937500
2555		91.796875
2556		83.984375
2557		91.796875
2558		80.078125
2559		89.843750
2560		78.125000
2561		85.937500
2562		74.218750
2563		83.984375
2564		72.265625
2565		82.031250
2566		70.312500
2567		78.125000
2568		68.359375
2569		74.218750
2570		66.406250
2571		70.312500
2572		60.546875
2573		68.359375
2574		56.640625
2575		66.406250
2576		52.734375
2577		62.500000
2578		46.875000
2579		58.593750
2580		44.921875
2581		52.734375
2582		41.015625
2583		48.828125
2584		37.109375
2585		44.921875
2586		33.203125
2587		39.062500
2588		27.343750
2589		35.156250
2590		23.437500
2591		33.203125
2592		17.578125
2593		29.296875
2594		13.671875
2595		23.437500
2596		7.812500
2597		19.531250
2598		3.906250
2599		13.671875
2600		1.953125
2601		9.765625
2602		-3.906250
2603		3.906250
2604		-9.765625
2605		-1.953125
2606		-13.671875
2607		-3.906250
2608		-19.531250
2609		-9.765625
2610		-23.437500
2611		-13.671875
2612		-29.296875
2613		-19.531250
2614		-33.203125
2615		-23.437500
2616		-35.156250
2617		-27.343750
2618		-39.062500
2619		-33.203125
2620		-42.968750
2621		-39.062500
2622		-50.781250
2623		-41.015625
2624		-52.734375
2625		-44.921875
2626		-56.640625
2627		-48.828125
2628		-60.546875
2629		-50.781250
2630		-64.453125
2631		-54.687500
2632		-66.406250
2633		-58.593750
2634		-68.359375
2635		-62.500000
2636		-70.312500
2637		-66.406250
2638		-74.218750
2639		-68.359375
2640		-78.125000
2641		-70.312500
2642		-80.078125
2643		-72.265625
2644		-82.031250
2645		-74.218750
2646		-83.984375
2647		-76.171875
2648		-85.937500
2649		-78.125000
2650		-85.937500
2651		-80.078125
2652		-85.937500
2653		-83.984375
2654		-85.937500
2655		-83.984375
2656		-89.843750
2657		-82.031250
2658		-89.843750
2659		-83.984375
2660		-89.843750
2661		-83.984375
2662		-89.843750
2663		-83.984375
2664		-89.843750
2665		-82.031250
2666		-89.843750
2667		-82.031250
2668		-87.890625
2669		-82.031250
2670		-83.984375
2671		-82.031250
2672		-85.937500
2673		-78.125000
2674		-83.984375
2675		-76.171875
2676		-82.031250
2677		-74.218750
2678		-80.078125
2679		-72.265625
2680		-78.125000
2681		-70.312500
2682		-76.171875
2683		-68.359375
2684		-72.265625
2685		-66.406250
2686		-68.359375
2687		-64.453125
2688		-64.453125
2689		-58.593750
2690		-64.453125
2691		-54.687500
2692		-60.546875
2693		-50.781250
2694		-56.640625
2695		-48.828125
2696		-52.734375
2697		-44.921875
2698		-48.828125
2699		-41.015625
2700		-44.921875
2701		-35.156250
2702		-39.062500
2703		-33.203125
2704		-35.156250
2705		-29.296875
2706		-31.250000
2707		-23.437500
2708		-27.343750
2709		-19.531250
2710		-23.437500
2711		-13.671875
2712		-19.531250
2713		-9.765625
2714		-15.625000
2715		-5.859375
2716		-9.765625
2717		0.000000
2718		-5.859375
2719		1.953125
2720		1.953125
2721		7.812500
2722		5.859375
2723		13.671875
2724		7.812500
2725		19.531250
2726		11.718750
2727		23.437500
2728		17.578125
2729		27.343750
2730		21.484375
2731		31.250000
2732		27.343750
2733		35.156250
2734		31.250000
2735		39.062500
2736		37.109375
2737		42.968750
2738		41.015625
2739		46.875000
2740		44.921875
2741		52.734375
2742		46.875000
2743		56.640625
2744		52.734375
2745		60.546875
2746		54.687500
2747		64.453125
2748		58.593750
2749		68.359375
2750		62.500000
2751		70.312500
2752		64.453125
2753		72.265625
2754		70.312500
2755		76.171875
2756		74.218750
2757		82.031250
2758		74.218750
2759		83.984375
2760		78.125000
2761		85.937500
2762		80.078125
2763		87.890625
2764		82.031250
2765		89.843750
2766		83.984375
2767		91.796875
2768		87.890625
2769		93.750000
2770		89.843750
2771		93.750000
2772		91.796875
2773		95.703125
2774		91.796875
2775		99.609375
2776		91.796875
2777		99.609375
2778		93.750000
2779		99.609375
2780		93.750000
2781		101.562500
2782		95.703125
2783		101.562500
2784		95.703125
2785		101.562500
2786		97.656250
2787		99.609375
2788		97.656250
2789		101.562500
2790		95.703125
2791		101.562500
2792		95.703125
2793		101.562500
2794		95.703125
2795		101.562500
2796		93.750000
2797		101.562500
2798		91.796875
2799		99.609375
2800		91.796875
2801		99.609375
2802		91.796875
2803		97.656250
2804		89.843750
2805		93.750000
2806		85.937500
2807		91.796875
2808		83.984375
2809		91.796875
2810		82.031250
2811		89.843750
2812		80.078125
2813		87.890625
2814		78.125000
2815		85.937500
2816		74.218750
2817		82.031250
2818		72.265625
2819		80.078125
2820		70.312500
2821		76.171875
2822		68.359375
2823		72.265625
2824		62.500000
2825		70.312500
2826		58.593750
2827		68.359375
2828		54.687500
2829		64.453125
2830		50.781250
2831		60.546875
2832		46.875000
2833		56.640625
2834		42.968750
2835		52.734375
2836		41.015625
2837		48.828125
2838		37.109375
2839		42.968750
2840		29.296875
2841		37.109375
2842		25.390625
2843		35.156250
2844		21.484375
2845		31.250000
2846		17.578125
2847		25.390625
2848		11.718750
2849		21.484375
2850		5.859375
2851		17.578125
2852		3.906250
2853		11.718750
2854		0.000000
2855		5.859375
2856		-5.859375
2857		1.953125
2858		-11.718750
2859		-1.953125
2860		-15.625000
2861		-5.859375
2862		-21.484375
2863		-11.718750
2864		-25.390625
2865		-15.625000
2866		-31.250000
2867		-21.484375
2868		-33.203125
2869		-25.390625
2870		-37.109375
2871		-31.250000
2872		-41.015625
2873		-35.156250
2874		-46.875000
2875		-39.062500
2876		-50.781250
2877		-41.015625
2878		-54.687500
2879		-44.921875
2880		-58.593750
2881		-50.781250
2882		-62.500000
2883		-52.734375
2884		-66.406250
2885		-56.640625
2886		-66.406250
2887		-60.546875
2888		-70.312500
2889		-64.453125
2890		-74.218750
2891		-68.359375
2892		-76.171875
2893		-68.359375
2894		-80.078125
2895		-72.265625
2896		-82.031250
2897		-74.218750
2898		-83.984375
2899		-76.171875
2900		-83.984375
2901		-78.125000
2902		-85.937500
2903		-78.125000
2904		-85.937500
2905		-82.031250
2906		-85.937500
2907		-83.984375
2908		-89.843750
2909		-82.031250
2910		-89.843750
2911		-82.031250
2912		-89.843750
2913		-82.031250
2914		-89.843750
2915		-83.984375
2916		-89.843750
2917		-83.984375
2918		-89.843750
2919		-82.031250
2920		-87.890625
2921		-82.031250
2922		-85.937500
2923		-82.031250
2924		-85.937500
2925		-80.078125
2926		-85.937500
2927		-78.125000
2928		-83.984375
2929		-76.171875
2930		-82.031250
2931		-74.218750
2932		-80.078125
2933		-72.265625
2934		-78.125000
2935		-70.312500
2936		-74.218750
2937		-68.359375
2938		-70.312500
2939		-66.406250
2940		-66.406250
2941		-62.500000
2942		-66.406250
2943		-56.640625
2944		-64.453125
2945		-54.687500
2946		-60.546875
2947		-50.781250
2948		-56.640625
2949		-46.875000
2950		-52.734375
2951		-42.968750
2952		-48.828125
2953		-39.062500
2954		-42.968750
2955		-37.109375
2956		-37.109375
2957		-33.203125
2958		-33.203125
2959		-27.343750
2960		-31.250000
2961		-21.484375
2962		-27.343750
2963		-17.578125
2964		-23.437500
2965		-13.671875
2966		-17.578125
2967		-7.812500
2968		-13.671875
2969		-3.906250
2970		-7.812500
2971		0.000000
2972		-1.953125
2973		3.906250
2974		1.953125
2975		11.718750
2976		3.906250
2977		15.625000
2978		9.765625
2979		19.531250
2980		13.671875
2981		23.437500
2982		17.578125
2983		29.296875
2984		23.437500
2985		33.203125
2986		27.343750
2987		37.109375
2988		35.156250
2989		39.062500
2990		39.062500
2991		44.921875
2992		42.968750
2993		50.781250
2994		44.921875
2995		54.687500
2996		48.828125
2997		56.640625
2998		52.734375
2999		60.546875
3000		56.640625
3001		66.406250
3002		60.546875
3003		68.359375
3004		64.453125
3005		70.312500
3006		68.359375
3007		74.218750
3008		72.265625
3009		78.125000
3010		72.265625
3011		82.031250
3012		74.218750
3013		83.984375
3014		78.125000
3015		85.937500
3016		80.078125
3017		87.890625
3018		82.031250
3019		89.843750
3020		85.937500
3021		91.796875
3022		89.843750
3023		91.796875
3024		91.796875
3025		93.750000
3026		89.843750
3027		97.656250
3028		91.796875
3029		99.609375
3030		93.750000
3031		99.609375
3032		93.750000
3033		101.562500
3034		95.703125
3035		101.562500
3036		95.703125
3037		101.562500
3038		97.656250
3039		101.562500
3040		97.656250
3041		101.562500
3042		95.703125
3043		101.562500
3044		95.703125
3045		101.562500
3046		95.703125
3047		101.562500
3048		93.750000
3049		101.562500
3050		93.750000
3051		99.609375
3052		91.796875
3053		99.609375
3054		91.796875
3055		97.656250
3056		91.796875
3057		95.703125
3058		87.890625
3059		93.750000
3060		85.937500
3061		93.750000
3062		83.984375
3063		91.796875
3064		82.031250
3065		89.843750
3066		78.125000
3067		87.890625
3068		76.171875
3069		83.984375
3070		74.218750
3071		82.031250
3072		72.265625
3073		78.125000
3074		70.312500
3075		74.218750
3076		62.500000
3077		72.265625
3078		60.546875
3079		70.312500
3080		56.640625
3081		66.406250
3082		52.734375
3083		62.500000
3084		48.828125
3085		58.593750
3086		44.921875
3087		54.687500
3088		42.968750
3089		50.781250
3090		39.062500
3091		44.921875
3092		33.203125
3093		41.015625
3094		27.343750
3095		39.062500
3096		23.437500
3097		33.203125
3098		19.531250
3099		29.296875
3100		13.671875
3101		23.437500
3102		9.765625
3103		19.531250
3104		5.859375
3105		15.625000
3106		1.953125
3107		7.812500
3108		-3.906250
3109		3.906250
3110		-9.765625
3111		0.000000
3112		-13.671875
3113		-3.906250
3114		-17.578125
3115		-7.812500
3116		-21.484375
3117		-11.718750
3118		-27.343750
3119		-17.578125
3120		-31.250000
3121		-21.484375
3122		-35.156250
3123		-27.343750
3124		-39.062500
3125		-33.203125
3126		-44.921875
3127		-37.109375
3128		-48.828125
3129		-39.062500
3130		-52.734375
3131		-42.968750
3132		-56.640625
3133		-46.875000
3134		-60.546875
3135		-50.781250
3136		-64.453125
3137		-54.687500
3138		-66.406250
3139		-58.593750
3140		-68.359375
3141		-62.500000
3142		-72.265625
3143		-66.406250
3144		-76.171875
3145		-68.359375
3146		-78.125000
3147		-70.312500
3148		-80.078125
3149		-72.265625
3150		-82.031250
3151		-74.218750
3152		-83.984375
3153		-76.171875
3154		-85.937500
3155		-78.125000
3156		-85.937500
3157		-82.031250
3158		-85.937500
3159		-83.984375
3160		-89.843750
3161		-82.031250
3162		-89.843750
3163		-83.984375
3164		-89.843750
3165		-83.984375
3166		-89.843750
3167		-83.984375
3168		-89.843750
3169		-83.984375
3170		-89.843750
3171		-83.984375
3172		-89.843750
3173		-83.984375
3174		-85.937500
3175		-83.984375
3176		-87.890625
3177		-80.078125
3178		-85.937500
3179		-80.078125
3180		-85.937500
3181		-78.125000
3182		-83.984375
3183		-76.171875
3184		-82.031250
3185		-74.218750
3186		-80.078125
3187		-70.312500
3188		-76.171875
3189		-68.359375
3190		-72.265625
3191		-68.359375
3192		-70.312500
3193		-64.453125
3194		-68.359375
3195		-60.546875
3196		-66.406250
3197		-56.640625
3198		-62.500000
3199		-52.734375
3200		-58.593750
3201		-48.828125
3202		-54.687500
3203		-44.921875
3204		-50.781250
3205		-41.015625
3206		-46.875000
3207		-39.062500
3208		-41.015625
3209		-35.156250
3210		-37.109375
3211		-29.296875
3212		-33.203125
3213		-25.390625
3214		-31.250000
3215		-19.531250
3216		-25.390625
3217		-15.625000
3218		-21.484375
3219		-11.718750
3220		-15.625000
3221		-5.859375
3222		-11.718750
3223		-3.906250
3224		-5.859375
3225		0.000000
3226		0.000000
3227		5.859375
3228		1.953125
3229		11.718750
3230		7.812500
3231		15.625000
3232		11.718750
3233		21.484375
3234		15.625000
3235		25.390625
3236		21.484375
3237		29.296875
3238		25.390625
3239		35.156250
3240		31.250000
3241		37.109375
3242		35.156250
3243		41.015625
3244		39.062500
3245		46.875000
3246		42.968750
3247		50.781250
3248		46.875000
3249		54.687500
3250		50.781250
3251		58.593750
3252		52.734375
3253		62.500000
3254		56.640625
3255		66.406250
3256		60.546875
3257		68.359375
3258		66.406250
3259		72.265625
3260		68.359375
3261		76.171875
3262		70.312500
3263		80.078125
3264		74.218750
3265		82.031250
3266		76.171875
3267		85.937500
3268		80.078125
3269		87.890625
3270		80.078125
3271		89.843750
3272		83.984375
3273		91.796875
3274		87.890625
3275		91.796875
3276		89.843750
3277		95.703125
3278		89.843750
3279		97.656250
3280		91.796875
3281		97.656250
3282		91.796875
3283		99.609375
3284		91.796875
3285		99.609375
3286		93.750000
3287		101.562500
3288		95.703125
3289		101.562500
3290		95.703125
3291		101.562500
3292		97.656250
3293		99.609375
3294		95.703125
3295		101.562500
3296		95.703125
3297		101.562500
3298		93.750000
3299		101.562500
3300		93.750000
3301		101.562500
3302		93.750000
3303		101.562500
3304		93.750000
3305		99.609375
3306		91.796875
3307		99.609375
3308		91.796875
3309		95.703125
3310		89.843750
3311		93.750000
3312		87.890625
3313		95.703125
3314		85.937500
3315		93.750000
3316		83.984375
3317		91.796875
3318		80.078125
3319		87.890625
3320		78.125000
3321		85.937500
3322		74.218750
3323		83.984375
3324		74.218750
3325		78.125000
3326		72.265625
3327		76.171875
3328		66.406250
3329		72.265625
3330		62.500000
3331		70.312500
3332		58.593750
3333		68.359375
3334		54.687500
3335		64.453125
3336		52.734375
3337		60.546875
3338		48.828125
3339		56.640625
3340		44.921875
3341		52.734375
3342		41.015625
3343		46.875000
3344		35.156250
3345		42.968750
3346		31.250000
3347		41.015625
3348		25.390625
3349		37.109375
3350		21.484375
3351		31.250000
3352		15.625000
3353		27.343750
3354		11.718750
3355		23.437500
3356		9.765625
3357		17.578125
3358		5.859375
3359		11.718750
3360		0.000000
3361		5.859375
3362		-7.812500
3363		1.953125
3364		-11.718750
3365		-1.953125
3366		-15.625000
3367		-5.859375
3368		-19.531250
3369		-9.765625
3370		-23.437500
3371		-15.625000
3372		-29.296875
3373		-19.531250
3374		-31.250000
3375		-23.437500
3376		-35.156250
3377		-29.296875
3378		-42.968750
3379		-35.156250
3380		-46.875000
3381		-37.109375
3382		-50.781250
3383		-41.015625
3384		-54.687500
3385		-44.921875
3386		-58.593750
3387		-48.828125
3388		-62.500000
3389		-52.734375
3390		-64.453125
3391		-56.640625
3392		-66.406250
3393		-62.500000
3394		-70.312500
3395		-64.453125
3396		-74.218750
3397		-66.406250
3398		-76.171875
3399		-68.359375
3400		-80.078125
3401		-70.312500
3402		-80.078125
3403		-74.218750
3404		-83.984375
3405		-76.171875
3406		-85.937500
3407		-78.125000
3408		-83.984375
3409		-82.031250
3410		-85.937500
3411		-82.031250
3412		-87.890625
3413		-82.031250
3414		-89.843750
3415		-82.031250
3416		-89.843750
3417		-83.984375
3418		-89.843750
3419		-83.984375
3420		-89.843750
3421		-83.984375
3422		-89.843750
3423		-83.984375
3424		-89.843750
3425		-83.984375
3426		-87.890625
3427		-83.984375
3428		-87.890625
3429		-82.031250
3430		-87.890625
3431		-80.078125
3432		-85.937500
3433		-78.125000
3434		-83.984375
3435		-78.125000
3436		-82.031250
3437		-76.171875
3438		-82.031250
3439		-72.265625
3440		-80.078125
3441		-72.265625
3442		-74.218750
3443		-70.312500
3444		-70.312500
3445		-68.359375
3446		-68.359375
3447		-62.500000
3448		-66.406250
3449		-60.546875
3450		-62.500000
3451		-56.640625
3452		-60.546875
3453		-52.734375
3454		-56.640625
3455		-48.828125
3456		-52.734375
3457		-44.921875
3458		-48.828125
3459		-42.968750
3460		-42.968750
3461		-39.062500
3462		-39.062500
3463		-31.250000
3464		-37.109375
3465		-27.343750
3466		-33.203125
3467		-23.437500
3468		-29.296875
3469		-19.531250
3470		-23.437500
3471		-15.625000
3472		-19.531250
3473		-9.765625
3474		-15.625000
3475		-5.859375
3476		-7.812500
3477		-1.953125
3478		-3.906250
3479		1.953125
3480		0.000000
3481		7.812500
3482		3.906250
3483		13.671875
3484		7.812500
3485		17.578125
3486		13.671875
3487		23.437500
3488		17.578125
3489		27.343750
3490		21.484375
3491		31.250000
3492		29.296875
3493		33.203125
3494		33.203125
3495		39.062500
3496		37.109375
3497		44.921875
3498		39.062500
3499		48.828125
3500		42.968750
3501		52.734375
3502		46.875000
3503		56.640625
3504		50.781250
3505		60.546875
3506		54.687500
3507		64.453125
3508		58.593750
3509		66.406250
3510		64.453125
3511		68.359375
3512		68.359375
3513		74.218750
3514		68.359375
3515		78.125000
3516		72.265625
3517		80.078125
3518		74.218750
3519		83.984375
3520		78.125000
3521		85.937500
3522		80.078125
3523		87.890625
3524		82.031250
3525		89.843750
3526		85.937500
3527		89.843750
3528		87.890625
3529		91.796875
3530		87.890625
3531		95.703125
3532		89.843750
3533		97.656250
3534		91.796875
3535		97.656250
3536		91.796875
3537		99.609375
3538		93.750000
3539		99.609375
3540		93.750000
3541		101.562500
3542		95.703125
3543		101.562500
3544		97.656250
3545		99.609375
3546		95.703125
3547		101.562500
3548		95.703125
3549		101.562500
3550		95.703125
3551		101.562500
3552		95.703125
3553		101.562500
3554		93.750000
3555		101.562500
3556		93.750000
3557		99.609375
3558		93.750000
3559		99.609375
3560		93.750000
3561		95.703125
3562		91.796875
3563		95.703125
3564		87.890625
3565		95.703125
3566		85.937500
3567		93.750000
3568		83.984375
3569		91.796875
3570		82.031250
3571		89.843750
3572		80.078125
3573		87.890625
3574		76.171875
3575		85.937500
3576		76.171875
3577		80.078125
3578		74.218750
3579		78.125000
3580		68.359375
3581		74.218750
3582		64.453125
3583		74.218750
3584		60.546875
3585		70.312500
3586		56.640625
3587		66.406250
3588		54.687500
3589		62.500000
3590		48.828125
3591		58.593750
3592		48.828125
3593		54.687500
3594		44.921875
3595		48.828125
3596		39.062500
3597		44.921875
3598		33.203125
3599		42.968750
3600		29.296875
3601		39.062500
3602		25.390625
3603		35.156250
3604		19.531250
3605		29.296875
3606		15.625000
3607		25.390625
3608		11.718750
3609		21.484375
3610		7.812500
3611		13.671875
3612		3.906250
3613		9.765625
3614		-3.906250
3615		5.859375
3616		-7.812500
3617		1.953125
3618		-11.718750
3619		-1.953125
3620		-17.578125
3621		-5.859375
3622		-21.484375
3623		-11.718750
3624		-27.343750
3625		-15.625000
3626		-29.296875
3627		-21.484375
3628		-33.203125
3629		-27.343750
3630		-39.062500
3631		-31.250000
3632		-44.921875
3633		-35.156250
3634		-48.828125
3635		-39.062500
3636		-52.734375
3637		-42.968750
3638		-56.640625
3639		-46.875000
3640		-58.593750
3641		-50.781250
3642		-60.546875
3643		-54.687500
3644		-64.453125
3645		-58.593750
3646		-66.406250
3647		-62.500000
3648		-72.265625
3649		-64.453125
3650		-76.171875
3651		-66.406250
3652		-78.125000
3653		-68.359375
3654		-80.078125
3655		-70.312500
3656		-82.031250
3657		-74.218750
3658		-83.984375
3659		-76.171875
3660		-83.984375
3661		-78.125000
3662		-83.984375
3663		-82.031250
3664		-87.890625
3665		-82.031250
3666		-89.843750
3667		-82.031250
3668		-89.843750
3669		-82.031250
3670		-89.843750
3671		-83.984375
3672		-89.843750
3673		-83.984375
3674		-89.843750
3675		-83.984375
3676		-89.843750
3677		-83.984375
3678		-87.890625
3679		-85.937500
3680		-87.890625
3681		-82.031250
3682		-87.890625
3683		-80.078125
3684		-87.890625
3685		-80.078125
3686		-85.937500
3687		-78.125000
3688		-83.984375
3689		-76.171875
3690		-82.031250
3691		-74.218750
3692		-80.078125
3693		-72.265625
3694		-76.171875
3695		-72.265625
3696		-72.265625
3697		-68.359375
3698		-72.265625
3699		-62.500000
3700		-70.312500
3701		-60.546875
3702		-66.406250
3703		-58.593750
3704		-62.500000
3705		-54.687500
3706		-58.593750
3707		-50.781250
3708		-56.640625
3709		-46.875000
3710		-52.734375
3711		-44.921875
3712		-46.875000
3713		-41.015625
3714		-41.015625
3715		-35.156250
3716		-41.015625
3717		-31.250000
3718		-37.109375
3719		-25.390625
3720		-31.250000
3721		-21.484375
3722		-27.343750
3723		-15.625000
3724		-21.484375
3725		-11.718750
3726		-17.578125
3727		-9.765625
3728		-11.718750
3729		-5.859375
3730		-5.859375
3731		0.000000
3732		-3.906250
3733		5.859375
3734		0.000000
3735		9.765625
3736		3.906250
3737		15.625000
3738		9.765625
3739		19.531250
3740		13.671875
3741		25.390625
3742		17.578125
3743		29.296875
3744		23.437500
3745		31.250000
3746		31.250000
3747		35.156250
3748		35.156250
3749		42.968750
3750		37.109375
3751		46.875000
3752		41.015625
3753		50.781250
3754		44.921875
3755		54.687500
3756		48.828125
3757		58.593750
3758		52.734375
3759		62.500000
3760		56.640625
3761		64.453125
3762		62.500000
3763		66.406250
3764		66.406250
3765		70.312500
3766		66.406250
3767		76.171875
3768		70.312500
3769		78.125000
3770		72.265625
3771		82.031250
3772		76.171875
3773		83.984375
3774		78.125000
3775		87.890625
3776		80.078125
3777		89.843750
3778		85.937500
3779		87.890625
3780		87.890625
3781		89.843750
3782		87.890625
3783		93.750000
3784		87.890625
3785		95.703125
3786		89.843750
3787		97.656250
3788		91.796875
3789		99.609375
3790		93.750000
3791		99.609375
3792		93.750000
3793		101.562500
3794		93.750000
3795		99.609375
3796		97.656250
3797		99.609375
3798		95.703125
3799		101.562500
3800		95.703125
3801		103.515625
3802		95.703125
3803		101.562500
3804		95.703125
3805		101.562500
3806		95.703125
3807		101.562500
3808		93.750000
3809		101.562500
3810		93.750000
3811		99.609375
3812		93.750000
3813		97.656250
3814		91.796875
3815		95.703125
3816		89.843750
3817		95.703125
3818		87.890625
3819		95.703125
3820		85.937500
3821		93.750000
3822		83.984375
3823		91.796875
3824		80.078125
3825		89.843750
3826		78.125000
3827		85.937500
3828		78.125000
3829		83.984375
3830		74.218750
3831		80.078125
3832		70.312500
3833		76.171875
3834		66.406250
3835		76.171875
3836		64.453125
3837		72.265625
3838		60.546875
3839		70.312500
3840		56.640625
3841		66.406250
3842		52.734375
3843		62.500000
3844		50.781250
3845		58.593750
3846		46.875000
3847		52.734375
3848		42.968750
3849		48.828125
3850		37.109375
3851		46.875000
3852		33.203125
3853		41.015625
3854		27.343750
3855		37.109375
3856		23.437500
3857		33.203125
3858		19.531250
3859		27.343750
3860		13.671875
3861		25.390625
3862		11.718750
3863		17.578125
3864		5.859375
3865		11.718750
3866		0.000000
3867		7.812500
3868		-5.859375
3869		5.859375
3870		-9.765625
3871		0.000000
3872		-13.671875
3873		-3.906250
3874		-19.531250
3875		-7.812500
3876		-23.437500
3877		-13.671875
3878		-25.390625
3879		-17.578125
3880		-31.250000
3881		-25.390625
3882		-37.109375
3883		-29.296875
3884		-41.015625
3885		-31.250000
3886		-44.921875
3887		-35.156250
3888		-48.828125
3889		-41.015625
3890		-52.734375
3891		-42.968750
3892		-56.640625
3893		-46.875000
3894		-60.546875
3895		-52.734375
3896		-62.500000
3897		-56.640625
3898		-66.406250
3899		-60.546875
3900		-70.312500
3901		-62.500000
3902		-72.265625
3903		-64.453125
3904		-76.171875
3905		-68.359375
3906		-78.125000
3907		-70.312500
3908		-80.078125
3909		-72.265625
3910		-82.031250
3911		-74.218750
3912		-83.984375
3913		-76.171875
3914		-83.984375
3915		-80.078125
3916		-87.890625
3917		-80.078125
3918		-87.890625
3919		-82.031250
3920		-89.843750
3921		-82.031250
3922		-89.843750
3923		-82.031250
3924		-89.843750
3925		-83.984375
3926		-89.843750
3927		-83.984375
3928		-89.843750
3929		-83.984375
3930		-87.890625
3931		-85.937500
3932		-87.890625
3933		-83.984375
3934		-87.890625
3935		-82.031250
3936		-87.890625
3937		-80.078125
3938		-85.937500
3939		-78.125000
3940		-85.937500
3941		-78.125000
3942		-83.984375
3943		-76.171875
3944		-82.031250
3945		-72.265625
3946		-76.171875
3947		-72.265625
3948		-74.218750
3949		-70.312500
3950		-72.265625
3951		-66.406250
3952		-72.265625
3953		-62.500000
3954		-68.359375
3955		-60.546875
3956		-66.406250
3957		-56.640625
3958		-62.500000
3959		-52.734375
3960		-58.593750
3961		-48.828125
3962		-54.687500
3963		-46.875000
3964		-48.828125
3965		-42.968750
3966		-44.921875
3967		-37.109375
3968		-42.968750
3969		-33.203125
3970		-39.062500
3971		-29.296875
3972		-33.203125
3973		-25.390625
3974		-31.250000
3975		-19.531250
3976		-25.390625
3977		-15.625000
3978		-21.484375
3979		-11.718750
3980		-13.671875
3981		-7.812500
3982		-9.765625
3983		-3.906250
3984		-5.859375
3985		3.906250
3986		-1.953125
3987		7.812500
3988		1.953125
3989		13.671875
3990		7.812500
3991		17.578125
3992		11.718750
3993		21.484375
3994		17.578125
3995		27.343750
3996		21.484375
3997		29.296875
3998		27.343750
3999		33.203125
4000		31.250000
4001		39.062500
4002		35.156250
4003		42.968750
4004		39.062500
4005		48.828125
4006		42.968750
4007		52.734375
4008		46.875000
4009		56.640625
4010		50.781250
4011		58.593750
4012		54.687500
4013		62.500000
4014		60.546875
4015		64.453125
4016		64.453125
4017		68.359375
4018		64.453125
4019		74.218750
4020		68.359375
4021		76.171875
4022		70.312500
4023		80.078125
4024		74.218750
4025		82.031250
4026		76.171875
4027		83.984375
4028		80.078125
4029		87.890625
4030		83.984375
4031		87.890625
4032		85.937500
4033		89.843750
4034		85.937500
4035		95.703125
4036		87.890625
4037		95.703125
4038		89.843750
4039		95.703125
4040		91.796875
4041		97.656250
4042		91.796875
4043		99.609375
4044		93.750000
4045		99.609375
4046		93.750000
4047		99.609375
4048		97.656250
4049		99.609375
4050		95.703125
4051		101.562500
4052		95.703125
4053		101.562500
4054		95.703125
4055		103.515625
4056		95.703125
4057		101.562500
4058		95.703125
4059		101.562500
4060		93.750000
4061		101.562500
4062		93.750000
4063		101.562500
4064		95.703125
4065		97.656250
4066		93.750000
4067		97.656250
4068		89.843750
4069		97.656250
4070		87.890625
4071		95.703125
4072		85.937500
4073		93.750000
4074		83.984375
4075		91.796875
4076		82.031250
4077		89.843750
4078		80.078125
4079		87.890625
4080		80.078125
4081		85.937500
4082		78.125000
4083		80.078125
4084		72.265625
4085		78.125000
4086		68.359375
4087		76.171875
4088		64.453125
4089		74.218750
4090		62.500000
4091		70.312500
4092		60.546875
4093		66.406250
4094		56.640625
4095		62.500000
4096		52.734375
4097		58.593750
4098		48.828125
4099		54.687500
4100		44.921875
4101		50.781250
4102		39.062500
4103		46.875000
4104		35.156250
4105		42.968750
4106		31.250000
4107		39.062500
4108		27.343750
4109		33.203125
4110		23.437500
4111		29.296875
4112		17.578125
4113		25.390625
4114		13.671875
4115		19.531250
4116		9.765625
4117		15.625000
4118		1.953125
4119		9.765625
4120		-1.953125
4121		7.812500
4122		-5.859375
4123		1.953125
4124		-9.765625
4125		-3.906250
4126		-15.625000
4127		-7.812500
4128		-19.531250
4129		-13.671875
4130		-23.437500
4131		-17.578125
4132		-27.343750
4133		-21.484375
4134		-33.203125
4135		-27.343750
4136		-39.062500
4137		-29.296875
4138		-42.968750
4139		-33.203125
4140		-44.921875
4141		-39.062500
4142		-48.828125
4143		-42.968750
4144		-54.687500
4145		-46.875000
4146		-56.640625
4147		-50.781250
4148		-60.546875
4149		-54.687500
4150		-62.500000
4151		-58.593750
4152		-66.406250
4153		-60.546875
4154		-70.312500
4155		-64.453125
4156		-72.265625
4157		-68.359375
4158		-74.218750
4159		-70.312500
4160		-78.125000
4161		-72.265625
4162		-80.078125
4163		-76.171875
4164		-82.031250
4165		-78.125000
4166		-83.984375
4167		-80.078125
4168		-85.937500
4169		-80.078125
4170		-85.937500
4171		-82.031250
4172		-87.890625
4173		-83.984375
4174		-87.890625
4175		-83.984375
4176		-87.890625
4177		-85.937500
4178		-87.890625
4179		-85.937500
4180		-89.843750
4181		-85.937500
4182		-87.890625
4183		-85.937500
4184		-87.890625
4185		-85.937500
4186		-87.890625
4187		-83.984375
4188		-85.937500
4189		-82.031250
4190		-85.937500
4191		-82.031250
4192		-83.984375
4193		-80.078125
4194		-82.031250
4195		-78.125000
4196		-80.078125
4197		-74.218750
4198		-80.078125
4199		-74.218750
4200		-76.171875
4201		-72.265625
4202		-74.218750
4203		-70.312500
4204		-72.265625
4205		-66.406250
4206		-68.359375
4207		-64.453125
4208		-66.406250
4209		-60.546875
4210		-62.500000
4211		-56.640625
4212		-58.593750
4213		-52.734375
4214		-54.687500
4215		-50.781250
4216		-50.781250
4217		-46.875000
4218		-46.875000
4219		-41.015625
4220		-42.968750
4221		-37.109375
4222		-39.062500
4223		-33.203125
4224		-35.156250
4225		-29.296875
4226		-31.250000
4227		-25.390625
4228		-27.343750
4229		-21.484375
4230		-21.484375
4231		-15.625000
4232		-17.578125
4233		-11.718750
4234		-13.671875
4235		-5.859375
4236		-7.812500
4237		-1.953125
4238		-3.906250
4239		1.953125
4240		0.000000
4241		7.812500
4242		5.859375
4243		11.718750
4244		9.765625
4245		15.625000
4246		15.625000
4247		21.484375
4248		19.531250
4249		25.390625
4250		23.437500
4251		29.296875
4252		29.296875
4253		35.156250
4254		33.203125
4255		39.062500
4256		35.156250
4257		42.968750
4258		41.015625
4259		46.875000
4260		44.921875
4261		50.781250
4262		48.828125
4263		56.640625
4264		52.734375
4265		58.593750
4266		56.640625
4267		62.500000
4268		60.546875
4269		66.406250
4270		62.500000
4271		68.359375
4272		68.359375
4273		72.265625
4274		70.312500
4275		76.171875
4276		74.218750
4277		78.125000
4278		76.171875
4279		82.031250
4280		78.125000
4281		83.984375
4282		80.078125
4283		85.937500
4284		83.984375
4285		87.890625
4286		85.937500
4287		89.843750
4288		87.890625
4289		91.796875
4290		89.843750
4291		93.750000
4292		91.796875
4293		95.703125
4294		93.750000
4295		95.703125
4296		95.703125
4297		97.656250
4298		95.703125
4299		97.656250
4300		95.703125
4301		99.609375
4302		95.703125
4303		101.562500
4304		97.656250
4305		99.609375
4306		97.656250
4307		101.562500
4308		97.656250
4309		101.562500
4310		97.656250
4311		101.562500
4312		95.703125
4313		99.609375
4314		95.703125
4315		99.609375
4316		95.703125
4317		97.656250
4318		93.750000
4319		97.656250
4320		91.796875
4321		97.656250
4322		91.796875
4323		95.703125
4324		89.843750
4325		93.750000
4326		87.890625
4327		91.796875
4328		85.937500
4329		89.843750
4330		83.984375
4331		87.890625
4332		82.031250
4333		85.937500
4334		78.125000
4335		82.031250
4336		76.171875
4337		80.078125
4338		72.265625
4339		78.125000
4340		68.359375
4341		74.218750
4342		66.406250
4343		72.265625
4344		62.500000
4345		68.359375
4346		58.593750
4347		64.453125
4348		54.687500
4349		60.546875
4350		50.781250
4351		56.640625
4352		46.875000
4353		52.734375
4354		42.968750
4355		50.781250
4356		39.062500
4357		44.921875
4358		35.156250
4359		41.015625
4360		31.250000
4361		37.109375
4362		25.390625
4363		31.250000
4364		21.484375
4365		27.343750
4366		17.578125
4367		23.437500
4368		11.718750
4369		19.531250
4370		7.812500
4371		13.671875
4372		1.953125
4373		9.765625
4374		-1.953125
4375		3.906250
4376		-5.859375
4377		0.000000
4378		-11.718750
4379		-5.859375
4380		-15.625000
4381		-9.765625
4382		-19.531250
4383		-13.671875
4384		-25.390625
4385		-17.578125
4386		-29.296875
4387		-23.437500
4388		-33.203125
4389		-27.343750
4390		-39.062500
4391		-33.203125
4392		-42.968750
4393		-37.109375
4394		-46.875000
4395		-41.015625
4396		-50.781250
4397		-44.921875
4398		-54.687500
4399		-48.828125
4400		-56.640625
4401		-52.734375
4402		-60.546875
4403		-56.640625
4404		-64.453125
4405		-60.546875
4406		-68.359375
4407		-62.500000
4408		-70.312500
4409		-66.406250
4410		-74.218750
4411		-68.359375
4412		-76.171875
4413		-72.265625
4414		-78.125000
4415		-74.218750
4416		-80.078125
4417		-76.171875
4418		-82.031250
4419		-78.125000
4420		-83.984375
4421		-80.078125
4422		-85.937500
4423		-82.031250
4424		-85.937500
4425		-82.031250
4426		-87.890625
4427		-83.984375
4428		-87.890625
4429		-83.984375
4430		-89.843750
4431		-83.984375
4432		-87.890625
4433		-85.937500
4434		-87.890625
4435		-85.937500
4436		-87.890625
4437		-85.937500
4438		-89.843750
4439		-83.984375
4440		-87.890625
4441		-82.031250
4442		-85.937500
4443		-82.031250
4444		-83.984375
4445		-82.031250
4446		-83.984375
4447		-80.078125
4448		-82.031250
4449		-78.125000
4450		-80.078125
4451		-76.171875
4452		-78.125000
4453		-74.218750
4454		-76.171875
4455		-70.312500
4456		-74.218750
4457		-68.359375
4458		-70.312500
4459		-66.406250
4460		-66.406250
4461		-62.500000
4462		-64.453125
4463		-58.593750
4464		-60.546875
4465		-56.640625
4466		-56.640625
4467		-52.734375
4468		-54.687500
4469		-48.828125
4470		-50.781250
4471		-44.921875
4472		-46.875000
4473		-39.062500
4474		-41.015625
4475		-37.109375
4476		-39.062500
4477		-31.250000
4478		-33.203125
4479		-27.343750
4480		-29.296875
4481		-23.437500
4482		-23.437500
4483		-17.578125
4484		-19.531250
4485		-13.671875
4486		-15.625000
4487		-9.765625
4488		-11.718750
4489		-3.906250
4490		-5.859375
4491		0.000000
4492		-1.953125
4493		5.859375
4494		1.953125
4495		9.765625
4496		7.812500
4497		13.671875
4498		11.718750
4499		17.578125
4500		17.578125
4501		23.437500
4502		21.484375
4503		27.343750
4504		25.390625
4505		31.250000
4506		29.296875
4507		37.109375
4508		35.156250
4509		41.015625
4510		39.062500
4511		44.921875
4512		42.968750
4513		48.828125
4514		46.875000
4515		52.734375
4516		50.781250
4517		56.640625
4518		54.687500
4519		60.546875
4520		58.593750
4521		64.453125
4522		60.546875
4523		66.406250
4524		66.406250
4525		70.312500
4526		68.359375
4527		74.218750
4528		72.265625
4529		76.171875
4530		74.218750
4531		80.078125
4532		78.125000
4533		82.031250
4534		78.125000
4535		83.984375
4536		82.031250
4537		85.937500
4538		85.937500
4539		89.843750
4540		85.937500
4541		91.796875
4542		89.843750
4543		91.796875
4544		89.843750
4545		93.750000
4546		91.796875
4547		95.703125
4548		93.750000
4549		97.656250
4550		93.750000
4551		97.656250
4552		95.703125
4553		99.609375
4554		95.703125
4555		99.609375
4556		97.656250
4557		101.562500
4558		97.656250
4559		99.609375
4560		97.656250
4561		99.609375
4562		97.656250
4563		101.562500
4564		95.703125
4565		99.609375
4566		95.703125
4567		99.609375
4568		95.703125
4569		97.656250
4570		95.703125
4571		97.656250
4572		93.750000
4573		97.656250
4574		91.796875
4575		95.703125
4576		89.843750
4577		93.750000
4578		89.843750
4579		91.796875
4580		87.890625
4581		91.796875
4582		83.984375
4583		89.843750
4584		82.031250
4585		87.890625
4586		80.078125
4587		83.984375
4588		76.171875
4589		82.031250
4590		74.218750
4591		80.078125
4592		72.265625
4593		76.171875
4594		68.359375
4595		74.218750
4596		64.453125
4597		70.312500
4598		62.500000
4599		66.406250
4600		58.593750
4601		64.453125
4602		54.687500
4603		58.593750
4604		50.781250
4605		54.687500
4606		46.875000
4607		52.734375
4608		41.015625
4609		46.875000
4610		37.109375
4611		42.968750
4612		33.203125
4613		39.062500
4614		27.343750
4615		35.156250
4616		23.437500
4617		29.296875
4618		19.531250
4619		25.390625
4620		15.625000
4621		21.484375
4622		9.765625
4623		15.625000
4624		5.859375
4625		11.718750
4626		0.000000
4627		7.812500
4628		-3.906250
4629		1.953125
4630		-7.812500
4631		-1.953125
4632		-13.671875
4633		-5.859375
4634		-17.578125
4635		-11.718750
4636		-21.484375
4637		-15.625000
4638		-27.343750
4639		-21.484375
4640		-31.250000
4641		-25.390625
4642		-35.156250
4643		-29.296875
4644		-39.062500
4645		-33.203125
4646		-42.968750
4647		-39.062500
4648		-48.828125
4649		-42.968750
4650		-52.734375
4651		-46.875000
4652		-56.640625
4653		-50.781250
4654		-58.593750
4655		-54.687500
4656		-62.500000
4657		-56.640625
4658		-66.406250
4659		-60.546875
4660		-70.312500
4661		-64.453125
4662		-72.265625
4663		-66.406250
4664		-74.218750
4665		-70.312500
4666		-78.125000
4667		-72.265625
4668		-80.078125
4669		-74.218750
4670		-82.031250
4671		-78.125000
4672		-83.984375
4673		-80.078125
4674		-83.984375
4675		-80.078125
4676		-85.937500
4677		-82.031250
4678		-85.937500
4679		-83.984375
4680		-87.890625
4681		-83.984375
4682		-87.890625
4683		-85.937500
4684		-89.843750
4685		-85.937500
4686		-87.890625
4687		-85.937500
4688		-87.890625
4689		-85.937500
4690		-87.890625
4691		-83.984375
4692		-87.890625
4693		-83.984375
4694		-87.890625
4695		-83.984375
4696		-85.937500
4697		-82.031250
4698		-83.984375
4699		-82.031250
4700		-83.984375
4701		-80.078125
4702		-82.031250
4703		-78.125000
4704		-80.078125
4705		-76.171875
4706		-78.125000
4707		-74.218750
4708		-74.218750
4709		-70.312500
4710		-72.265625
4711		-68.359375
4712		-70.312500
4713		-64.453125
4714		-66.406250
4715		-62.500000
4716		-64.453125
4717		-58.593750
4718		-60.546875
4719		-54.687500
4720		-56.640625
4721		-50.781250
4722		-52.734375
4723		-46.875000
4724		-50.781250
4725		-42.968750
4726		-44.921875
4727		-39.062500
4728		-41.015625
4729		-35.156250
4730		-37.109375
4731		-31.250000
4732		-31.250000
4733		-25.390625
4734		-29.296875
4735		-21.484375
4736		-23.437500
4737		-17.578125
4738		-19.531250
4739		-13.671875
4740		-13.671875
4741		-7.812500
4742		-9.765625
4743		-3.906250
4744		-5.859375
4745		0.000000
4746		0.000000
4747		5.859375
4748		3.906250
4749		11.718750
4750		9.765625
4751		15.625000
4752		13.671875
4753		19.531250
4754		17.578125
4755		23.437500
4756		23.437500
4757		29.296875
4758		27.343750
4759		33.203125
4760		31.250000
4761		37.109375
4762		35.156250
4763		41.015625
4764		41.015625
4765		46.875000
4766		42.968750
4767		50.781250
4768		48.828125
4769		54.687500
4770		52.734375
4771		56.640625
4772		56.640625
4773		60.546875
4774		58.593750
4775		64.453125
4776		62.500000
4777		68.359375
4778		66.406250
4779		72.265625
4780		70.312500
4781		74.218750
4782		72.265625
4783		78.125000
4784		76.171875
4785		80.078125
4786		78.125000
4787		82.031250
4788		82.031250
4789		85.937500
4790		83.984375
4791		87.890625
4792		85.937500
4793		89.843750
4794		87.890625
4795		91.796875
4796		87.890625
4797		93.750000
4798		91.796875
4799		93.750000
4800		91.796875
4801		95.703125
4802		93.750000
4803		97.656250
4804		95.703125
4805		97.656250
4806		95.703125
4807		99.609375
4808		95.703125
4809		99.609375
4810		97.656250
4811		99.609375
4812		97.656250
4813		99.609375
4814		97.656250
4815		99.609375
4816		97.656250
4817		99.609375
4818		95.703125
4819		99.609375
4820		95.703125
4821		99.609375
4822		95.703125
4823		97.656250
4824		93.750000
4825		97.656250
4826		91.796875
4827		97.656250
4828		91.796875
4829		95.703125
4830		89.843750
4831		93.750000
4832		87.890625
4833		91.796875
4834		85.937500
4835		89.843750
4836		83.984375
4837		87.890625
4838		82.031250
4839		85.937500
4840		78.125000
4841		83.984375
4842		76.171875
4843		80.078125
4844		74.218750
4845		78.125000
4846		70.312500
4847		76.171875
4848		66.406250
4849		72.265625
4850		64.453125
4851		68.359375
4852		60.546875
4853		64.453125
4854		56.640625
4855		60.546875
4856		52.734375
4857		58.593750
4858		48.828125
4859		54.687500
4860		44.921875
4861		50.781250
4862		41.015625
4863		46.875000
4864		35.156250
4865		41.015625
4866		31.250000
4867		37.109375
4868		25.390625
4869		33.203125
4870		21.484375
4871		27.343750
4872		17.578125
4873		23.437500
4874		13.671875
4875		19.531250
4876		7.812500
4877		13.671875
4878		3.906250
4879		9.765625
4880		-1.953125
4881		5.859375
4882		-5.859375
4883		0.000000
4884		-9.765625
4885		-3.906250
4886		-15.625000
4887		-9.765625
4888		-19.531250
4889		-13.671875
4890		-23.437500
4891		-17.578125
4892		-29.296875
4893		-21.484375
4894		-33.203125
4895		-27.343750
4896		-37.109375
4897		-31.250000
4898		-42.968750
4899		-35.156250
4900		-44.921875
4901		-41.015625
4902		-50.781250
4903		-42.968750
4904		-52.734375
4905		-46.875000
4906		-56.640625
4907		-52.734375
4908		-60.546875
4909		-56.640625
4910		-64.453125
4911		-58.593750
4912		-66.406250
4913		-62.500000
4914		-70.312500
4915		-64.453125
4916		-74.218750
4917		-68.359375
4918		-76.171875
4919		-70.312500
4920		-78.125000
4921		-74.218750
4922		-80.078125
4923		-76.171875
4924		-83.984375
4925		-78.125000
4926		-83.984375
4927		-80.078125
4928		-85.937500
4929		-82.031250
4930		-85.937500
4931		-83.984375
4932		-87.890625
4933		-83.984375
4934		-87.890625
4935		-83.984375
4936		-89.843750
4937		-85.937500
4938		-87.890625
4939		-85.937500
4940		-89.843750
4941		-85.937500
4942		-89.843750
4943		-85.937500
4944		-87.890625
4945		-85.937500
4946		-87.890625
4947		-83.984375
4948		-87.890625
4949		-83.984375
4950		-85.937500
4951		-82.031250
4952		-83.984375
4953		-80.078125
4954		-83.984375
4955		-78.125000
4956		-82.031250
4957		-76.171875
4958		-78.125000
4959		-74.218750
4960		-76.171875
4961		-72.265625
4962		-74.218750
4963		-70.312500
4964		-72.265625
4965		-66.406250
4966		-68.359375
4967		-64.453125
4968		-66.406250
4969		-60.546875
4970		-62.500000
4971		-56.640625
4972		-58.593750
4973		-52.734375
4974		-54.687500
4975		-48.828125
4976		-52.734375
4977		-46.875000
4978		-48.828125
4979		-42.968750
4980		-42.968750
4981		-39.062500
4982		-39.062500
4983		-33.203125
4984		-35.156250
4985		-29.296875
4986		-31.250000
4987		-25.390625
4988		-25.390625
4989		-19.531250
4990		-21.484375
4991		-15.625000
4992		-17.578125
4993		-11.718750
4994		-13.671875
4995		-5.859375
4996		-7.812500
4997		-1.953125
4998		-3.906250
4999		3.906250
5000		1.953125
5001		7.812500
5002		5.859375
5003		11.718750
5004		9.765625
5005		15.625000
5006		15.625000
5007		21.484375
5008		19.531250
5009		27.343750
5010		23.437500
5011		29.296875
5012		29.296875
5013		35.156250
5014		33.203125
5015		39.062500
5016		37.109375
5017		42.968750
5018		41.015625
5019		46.875000
5020		44.921875
5021		52.734375
5022		48.828125
5023		54.687500
5024		52.734375
5025		58.593750
5026		56.640625
5027		62.500000
5028		60.546875
5029		66.406250
5030		64.453125
5031		70.312500
5032		68.359375
5033		72.265625
5034		70.312500
5035		76.171875
5036		74.218750
5037		78.125000
5038		76.171875
5039		80.078125
5040		80.078125
5041		83.984375
5042		82.031250
5043		85.937500
5044		83.984375
5045		87.890625
5046		85.937500
5047		89.843750
5048		87.890625
5049		91.796875
5050		89.843750
5051		93.750000
5052		91.796875
5053		95.703125
5054		91.796875
5055		97.656250
5056		93.750000
5057		97.656250
5058		95.703125
5059		97.656250
5060		95.703125
5061		99.609375
5062		95.703125
5063		99.609375
5064		97.656250
5065		99.609375
5066		97.656250
5067		99.609375
5068		95.703125
5069		99.609375
5070		97.656250
5071		99.609375
5072		95.703125
5073		101.562500
5074		95.703125
5075		99.609375
5076		93.750000
5077		97.656250
5078		93.750000
5079		97.656250
5080		91.796875
5081		95.703125
5082		89.843750
5083		93.750000
5084		89.843750
5085		93.750000
5086		87.890625
5087		91.796875
5088		83.984375
5089		89.843750
5090		83.984375
5091		87.890625
5092		80.078125
5093		83.984375
5094		78.125000
5095		82.031250
5096		76.171875
5097		80.078125
5098		72.265625
5099		78.125000
5100		68.359375
5101		74.218750
5102		66.406250
5103		70.312500
5104		62.500000
5105		68.359375
5106		58.593750
5107		64.453125
5108		54.687500
5109		60.546875
5110		50.781250
5111		56.640625
5112		46.875000
5113		52.734375
5114		41.015625
5115		48.828125
5116		39.062500
5117		44.921875
5118		33.203125
5119		41.015625
5120		29.296875
5121		35.156250
5122		25.390625
5123		31.250000
5124		19.531250
5125		27.343750
5126		15.625000
5127		21.484375
5128		11.718750
5129		17.578125
5130		5.859375
5131		13.671875
5132		1.953125
5133		7.812500
5134		-1.953125
5135		3.906250
5136		-7.812500
5137		-1.953125
5138		-11.718750
5139		-5.859375
5140		-17.578125
5141		-9.765625
5142		-21.484375
5143		-15.625000
5144		-25.390625
5145		-19.531250
5146		-31.250000
5147		-23.437500
5148		-35.156250
5149		-29.296875
5150		-39.062500
5151		-33.203125
5152		-42.968750
5153		-37.109375
5154		-46.875000
5155		-41.015625
5156		-50.781250
5157		-44.921875
5158		-54.687500
5159		-48.828125
5160		-58.593750
5161		-52.734375
5162		-62.500000
5163		-56.640625
5164		-64.453125
5165		-60.546875
5166		-68.359375
5167		-64.453125
5168		-70.312500
5169		-66.406250
5170		-74.218750
5171		-68.359375
5172		-76.171875
5173		-72.265625
5174		-78.125000
5175		-74.218750
5176		-82.031250
5177		-78.125000
5178		-82.031250
5179		-78.125000
5180		-83.984375
5181		-80.078125
5182		-85.937500
5183		-82.031250
5184		-85.937500
5185		-83.984375
5186		-87.890625
5187		-83.984375
5188		-89.843750
5189		-85.937500
5190		-89.843750
5191		-85.937500
5192		-89.843750
5193		-85.937500
5194		-89.843750
5195		-85.937500
5196		-87.890625
5197		-85.937500
5198		-87.890625
5199		-83.984375
5200		-87.890625
5201		-83.984375
5202		-85.937500
5203		-82.031250
5204		-85.937500
5205		-82.031250
5206		-83.984375
5207		-80.078125
5208		-82.031250
5209		-78.125000
5210		-80.078125
5211		-76.171875
5212		-78.125000
5213		-74.218750
5214		-76.171875
5215		-70.312500
5216		-74.218750
5217		-68.359375
5218		-70.312500
5219		-66.406250
5220		-66.406250
5221		-62.500000
5222		-64.453125
5223		-60.546875
5224		-60.546875
5225		-54.687500
5226		-56.640625
5227		-52.734375
5228		-54.687500
5229		-48.828125
5230		-50.781250
5231		-42.968750
5232		-46.875000
5233		-41.015625
5234		-42.968750
5235		-37.109375
5236		-39.062500
5237		-31.250000
5238		-33.203125
5239		-27.343750
5240		-29.296875
5241		-23.437500
5242		-25.390625
5243		-19.531250
5244		-19.531250
5245		-13.671875
5246		-15.625000
5247		-9.765625
5248		-11.718750
5249		-3.906250
5250		-5.859375
5251		0.000000
5252		-1.953125
5253		3.906250
5254		1.953125
5255		9.765625
5256		7.812500
5257		13.671875
5258		11.718750
5259		17.578125
5260		17.578125
5261		23.437500
5262		19.531250
5263		27.343750
5264		25.390625
5265		31.250000
5266		31.250000
5267		35.156250
5268		35.156250
5269		41.015625
5270		39.062500
5271		44.921875
5272		42.968750
5273		48.828125
5274		46.875000
5275		52.734375
5276		50.781250
5277		56.640625
5278		54.687500
5279		60.546875
5280		56.640625
5281		64.453125
5282		62.500000
5283		68.359375
5284		66.406250
5285		70.312500
5286		68.359375
5287		74.218750
5288		72.265625
5289		76.171875
5290		74.218750
5291		80.078125
5292		78.125000
5293		82.031250
5294		80.078125
5295		85.937500
5296		82.031250
5297		87.890625
5298		85.937500
5299		87.890625
5300		85.937500
5301		91.796875
5302		87.890625
5303		93.750000
5304		89.843750
5305		93.750000
5306		91.796875
5307		95.703125
5308		93.750000
5309		95.703125
5310		95.703125
5311		97.656250
5312		95.703125
5313		99.609375
5314		95.703125
5315		99.609375
5316		97.656250
5317		99.609375
5318		95.703125
5319		99.609375
5320		97.656250
5321		99.609375
5322		97.656250
5323		99.609375
5324		95.703125
5325		99.609375
5326		95.703125
5327		99.609375
5328		95.703125
5329		97.656250
5330		93.750000
5331		97.656250
5332		93.750000
5333		97.656250
5334		91.796875
5335		95.703125
5336		89.843750
5337		93.750000
5338		87.890625
5339		91.796875
5340		85.937500
5341		89.843750
5342		83.984375
5343		87.890625
5344		82.031250
5345		85.937500
5346		80.078125
5347		85.937500
5348		76.171875
5349		82.031250
5350		74.218750
5351		78.125000
5352		70.312500
5353		76.171875
5354		68.359375
5355		72.265625
5356		62.500000
5357		70.312500
5358		60.546875
5359		66.406250
5360		56.640625
5361		62.500000
5362		52.734375
5363		58.593750
5364		48.828125
5365		54.687500
5366		44.921875
5367		50.781250
5368		41.015625
5369		46.875000
5370		37.109375
5371		42.968750
5372		33.203125
5373		39.062500
5374		29.296875
5375		35.156250
5376		23.437500
5377		29.296875
5378		19.531250
5379		25.390625
5380		13.671875
5381		19.531250
5382		9.765625
5383		15.625000
5384		5.859375
5385		11.718750
5386		0.000000
5387		5.859375
5388		-3.906250
5389		1.953125
5390		-9.765625
5391		-1.953125
5392		-13.671875
5393		-7.812500
5394		-17.578125
5395		-11.718750
5396		-23.437500
5397		-17.578125
5398		-27.343750
5399		-21.484375
5400		-31.250000
5401		-25.390625
5402		-35.156250
5403		-31.250000
5404		-41.015625
5405		-33.203125
5406		-44.921875
5407		-39.062500
5408		-48.828125
5409		-42.968750
5410		-52.734375
5411		-46.875000
5412		-56.640625
5413		-50.781250
5414		-60.546875
5415		-54.687500
5416		-62.500000
5417		-56.640625
5418		-66.406250
5419		-62.500000
5420		-70.312500
5421		-64.453125
5422		-72.265625
5423		-68.359375
5424		-74.218750
5425		-70.312500
5426		-78.125000
5427		-74.218750
5428		-80.078125
5429		-76.171875
5430		-82.031250
5431		-76.171875
5432		-83.984375
5433		-80.078125
5434		-83.984375
5435		-82.031250
5436		-85.937500
5437		-82.031250
5438		-87.890625
5439		-83.984375
5440		-87.890625
5441		-85.937500
5442		-87.890625
5443		-83.984375
5444		-87.890625
5445		-85.937500
5446		-89.843750
5447		-85.937500
5448		-89.843750
5449		-85.937500
5450		-87.890625
5451		-85.937500
5452		-87.890625
5453		-83.984375
5454		-87.890625
5455		-83.984375
5456		-85.937500
5457		-82.031250
5458		-83.984375
5459		-80.078125
5460		-83.984375
5461		-80.078125
5462		-82.031250
5463		-78.125000
5464		-80.078125
5465		-74.218750
5466		-78.125000
5467		-74.218750
5468		-74.218750
5469		-70.312500
5470		-72.265625
5471		-68.359375
5472		-70.312500
5473		-64.453125
5474		-66.406250
5475		-60.546875
5476		-62.500000
5477		-58.593750
5478		-60.546875
5479		-54.687500
5480		-56.640625
5481		-50.781250
5482		-52.734375
5483		-46.875000
5484		-48.828125
5485		-42.968750
5486		-44.921875
5487		-39.062500
5488		-41.015625
5489		-35.156250
5490		-37.109375
5491		-29.296875
5492		-31.250000
5493		-25.390625
5494		-27.343750
5495		-21.484375
5496		-23.437500
5497		-15.625000
5498		-17.578125
5499		-11.718750
5500		-13.671875
5501		-7.812500
5502		-9.765625
5503		-3.906250
5504		-5.859375
5505		1.953125
5506		0.000000
5507		7.812500
5508		3.906250
5509		11.718750
5510		9.765625
5511		15.625000
5512		13.671875
5513		19.531250
5514		17.578125
5515		25.390625
5516		23.437500
5517		29.296875
5518		27.343750
5519		33.203125
5520		31.250000
5521		37.109375
5522		37.109375
5523		42.968750
5524		39.062500
5525		46.875000
5526		42.968750
5527		50.781250
5528		48.828125
5529		54.687500
5530		52.734375
5531		58.593750
5532		56.640625
5533		62.500000
5534		60.546875
5535		64.453125
5536		62.500000
5537		68.359375
5538		66.406250
5539		72.265625
5540		70.312500
5541		74.218750
5542		72.265625
5543		78.125000
5544		76.171875
5545		80.078125
5546		78.125000
5547		83.984375
5548		80.078125
5549		85.937500
5550		83.984375
5551		87.890625
5552		85.937500
5553		89.843750
5554		87.890625
5555		91.796875
5556		89.843750
5557		93.750000
5558		91.796875
5559		95.703125
5560		93.750000
5561		95.703125
5562		93.750000
5563		97.656250
5564		93.750000
5565		99.609375
5566		95.703125
5567		99.609375
5568		95.703125
5569		99.609375
5570		97.656250
5571		99.609375
5572		97.656250
5573		101.562500
5574		97.656250
5575		99.609375
5576		95.703125
5577		101.562500
5578		97.656250
5579		99.609375
5580		95.703125
5581		99.609375
5582		95.703125
5583		99.609375
5584		93.750000
5585		97.656250
5586		91.796875
5587		95.703125
5588		91.796875
5589		95.703125
5590		89.843750
5591		93.750000
5592		87.890625
5593		91.796875
5594		85.937500
5595		89.843750
5596		83.984375
5597		87.890625
5598		82.031250
5599		85.937500
5600		78.125000
5601		83.984375
5602		76.171875
5603		80.078125
5604		72.265625
5605		78.125000
5606		70.312500
5607		74.218750
5608		66.406250
5609		72.265625
5610		62.500000
5611		68.359375
5612		60.546875
5613		64.453125
5614		56.640625
5615		60.546875
5616		50.781250
5617		56.640625
5618		46.875000
5619		52.734375
5620		44.921875
5621		50.781250
5622		39.062500
5623		44.921875
5624		35.156250
5625		41.015625
5626		31.250000
5627		37.109375
5628		27.343750
5629		33.203125
5630		21.484375
5631		27.343750
5632		17.578125
5633		23.437500
5634		13.671875
5635		19.531250
5636		7.812500
5637		13.671875
5638		3.906250
5639		9.765625
5640		-1.953125
5641		5.859375
5642		-7.812500
5643		0.000000
5644		-9.765625
5645		-3.906250
5646		-15.625000
5647		-9.765625
5648		-21.484375
5649		-13.671875
5650		-25.390625
5651		-17.578125
5652		-29.296875
5653		-23.437500
5654		-33.203125
5655		-27.343750
5656		-37.109375
5657		-31.250000
5658		-41.015625
5659		-37.109375
5660		-46.875000
5661		-41.015625
5662		-50.781250
5663		-44.921875
5664		-54.687500
5665		-48.828125
5666		-56.640625
5667		-52.734375
5668		-62.500000
5669		-56.640625
5670		-64.453125
5671		-60.546875
5672		-68.359375
5673		-62.500000
5674		-70.312500
5675		-66.406250
5676		-74.218750
5677		-68.359375
5678		-76.171875
5679		-72.265625
5680		-78.125000
5681		-74.218750
5682		-80.078125
5683		-76.171875
5684		-82.031250
5685		-78.125000
5686		-83.984375
5687		-80.078125
5688		-85.937500
5689		-82.031250
5690		-85.937500
5691		-83.984375
5692		-87.890625
5693		-83.984375
5694		-87.890625
5695		-83.984375
5696		-87.890625
5697		-85.937500
5698		-89.843750
5699		-85.937500
5700		-89.843750
5701		-85.937500
5702		-89.843750
5703		-85.937500
5704		-89.843750
5705		-85.937500
5706		-87.890625
5707		-83.984375
5708		-87.890625
5709		-83.984375
5710		-85.937500
5711		-82.031250
5712		-83.984375
5713		-82.031250
5714		-82.031250
5715		-78.125000
5716		-80.078125
5717		-76.171875
5718		-78.125000
5719		-74.218750
5720		-78.125000
5721		-72.265625
5722		-74.218750
5723		-70.312500
5724		-72.265625
5725		-66.406250
5726		-68.359375
5727		-64.453125
5728		-66.406250
5729		-60.546875
5730		-62.500000
5731		-56.640625
5732		-58.593750
5733		-52.734375
5734		-54.687500
5735		-50.781250
5736		-50.781250
5737		-44.921875
5738		-46.875000
5739		-41.015625
5740		-42.968750
5741		-37.109375
5742		-39.062500
5743		-33.203125
5744		-35.156250
5745		-29.296875
5746		-31.250000
5747		-25.390625
5748		-27.343750
5749		-19.531250
5750		-21.484375
5751		-15.625000
5752		-17.578125
5753		-9.765625
5754		-13.671875
5755		-5.859375
5756		-7.812500
5757		-1.953125
5758		-3.906250
5759		1.953125
5760		0.000000
5761		7.812500
5762		5.859375
5763		11.718750
5764		11.718750
5765		17.578125
5766		15.625000
5767		21.484375
5768		19.531250
5769		27.343750
5770		25.390625
5771		29.296875
5772		29.296875
5773		35.156250
5774		33.203125
5775		39.062500
5776		37.109375
5777		42.968750
5778		41.015625
5779		46.875000
5780		44.921875
5781		50.781250
5782		50.781250
5783		54.687500
5784		52.734375
5785		60.546875
5786		56.640625
5787		62.500000
5788		60.546875
5789		66.406250
5790		64.453125
5791		68.359375
5792		68.359375
5793		72.265625
5794		70.312500
5795		76.171875
5796		74.218750
5797		78.125000
5798		76.171875
5799		82.031250
5800		78.125000
5801		83.984375
5802		82.031250
5803		85.937500
5804		83.984375
5805		89.843750
5806		85.937500
5807		89.843750
5808		87.890625
5809		91.796875
5810		89.843750
5811		93.750000
5812		91.796875
5813		95.703125
5814		93.750000
5815		95.703125
5816		93.750000
5817		97.656250
5818		95.703125
5819		97.656250
5820		95.703125
5821		99.609375
5822		95.703125
5823		99.609375
5824		97.656250
5825		99.609375
5826		95.703125
5827		99.609375
5828		97.656250
5829		99.609375
5830		97.656250
5831		99.609375
5832		95.703125
5833		99.609375
5834		95.703125
5835		99.609375
5836		93.750000
5837		97.656250
5838		93.750000
5839		97.656250
5840		91.796875
5841		95.703125
5842		91.796875
5843		93.750000
5844		87.890625
5845		91.796875
5846		87.890625
5847		91.796875
5848		85.937500
5849		87.890625
5850		82.031250
5851		87.890625
5852		80.078125
5853		83.984375
5854		78.125000
5855		83.984375
5856		74.218750
5857		80.078125
5858		72.265625
5859		76.171875
5860		68.359375
5861		74.218750
5862		66.406250
5863		70.312500
5864		62.500000
5865		66.406250
5866		58.593750
5867		62.500000
5868		54.687500
5869		60.546875
5870		50.781250
5871		56.640625
5872		44.921875
5873		52.734375
5874		42.968750
5875		48.828125
5876		37.109375
5877		44.921875
5878		33.203125
5879		39.062500
5880		29.296875
5881		35.156250
5882		23.437500
5883		31.250000
5884		19.531250
5885		27.343750
5886		15.625000
5887		23.437500
5888		9.765625
5889		17.578125
5890		5.859375
5891		11.718750
5892		0.000000
5893		7.812500
5894		-3.906250
5895		3.906250
5896		-7.812500
5897		-1.953125
5898		-11.718750
5899		-5.859375
5900		-17.578125
5901		-11.718750
5902		-23.437500
5903		-15.625000
5904		-27.343750
5905		-19.531250
5906		-31.250000
5907		-23.437500
5908		-35.156250
5909		-29.296875
5910		-41.015625
5911		-33.203125
5912		-42.968750
5913		-37.109375
5914		-46.875000
5915		-42.968750
5916		-52.734375
5917		-46.875000
5918		-56.640625
5919		-48.828125
5920		-60.546875
5921		-52.734375
5922		-62.500000
5923		-56.640625
5924		-66.406250
5925		-58.593750
5926		-68.359375
5927		-62.500000
5928		-72.265625
5929		-66.406250
5930		-74.218750
5931		-70.312500
5932		-76.171875
5933		-72.265625
5934		-80.078125
5935		-74.218750
5936		-82.031250
5937		-76.171875
5938		-83.984375
5939		-78.125000
5940		-85.937500
5941		-80.078125
5942		-87.890625
5943		-82.031250
5944		-87.890625
5945		-82.031250
5946		-87.890625
5947		-83.984375
5948		-87.890625
5949		-83.984375
5950		-89.843750
5951		-85.937500
5952		-89.843750
5953		-83.984375
5954		-89.843750
5955		-85.937500
5956		-89.843750
5957		-83.984375
5958		-89.843750
5959		-83.984375
5960		-87.890625
5961		-83.984375
5962		-87.890625
5963		-82.031250
5964		-85.937500
5965		-82.031250
5966		-83.984375
5967		-80.078125
5968		-83.984375
5969		-78.125000
5970		-80.078125
5971		-76.171875
5972		-78.125000
5973		-74.218750
5974		-76.171875
5975		-72.265625
5976		-72.265625
5977		-68.359375
5978		-70.312500
5979		-64.453125
5980		-66.406250
5981		-62.500000
5982		-64.453125
5983		-58.593750
5984		-60.546875
5985		-56.640625
5986		-56.640625
5987		-52.734375
5988		-54.687500
5989		-48.828125
5990		-48.828125
5991		-44.921875
5992		-46.875000
5993		-39.062500
5994		-41.015625
5995		-37.109375
5996		-37.109375
5997		-31.250000
5998		-33.203125
5999		-27.343750
6000		-29.296875
6001		-23.437500
6002		-23.437500
6003		-17.578125
6004		-19.531250
6005		-13.671875
6006		-15.625000
6007		-9.765625
6008		-11.718750
6009		-3.906250
6010		-5.859375
6011		0.000000
6012		-1.953125
6013		3.906250
6014		1.953125
6015		9.765625
6016		7.812500
6017		13.671875
6018		11.718750
6019		19.531250
6020		17.578125
6021		23.437500
6022		21.484375
6023		27.343750
6024		25.390625
6025		31.250000
6026		31.250000
6027		37.109375
6028		33.203125
6029		41.015625
6030		39.062500
6031		44.921875
6032		42.968750
6033		48.828125
6034		46.875000
6035		52.734375
6036		50.781250
6037		56.640625
6038		54.687500
6039		60.546875
6040		58.593750
6041		64.453125
6042		62.500000
6043		66.406250
6044		66.406250
6045		70.312500
6046		68.359375
6047		74.218750
6048		72.265625
6049		76.171875
6050		74.218750
6051		80.078125
6052		78.125000
6053		82.031250
6054		80.078125
6055		83.984375
6056		83.984375
6057		87.890625
6058		85.937500
6059		89.843750
6060		87.890625
6061		91.796875
6062		87.890625
6063		91.796875
6064		91.796875
6065		93.750000
6066		91.796875
6067		95.703125
6068		91.796875
6069		99.609375
6070		91.796875
6071		101.562500
6072		93.750000
6073		101.562500
6074		95.703125
6075		99.609375
6076		97.656250
6077		99.609375
6078		97.656250
6079		99.609375
6080		97.656250
6081		99.609375
6082		97.656250
6083		99.609375
6084		93.750000
6085		101.562500
6086		93.750000
6087		101.562500
6088		91.796875
6089		101.562500
6090		91.796875
6091		99.609375
6092		93.750000
6093		95.703125
6094		91.796875
6095		95.703125
6096		89.843750
6097		93.750000
6098		87.890625
6099		91.796875
6100		85.937500
6101		89.843750
6102		82.031250
6103		89.843750
6104		80.078125
6105		89.843750
6106		78.125000
6107		85.937500
6108		76.171875
6109		82.031250
6110		74.218750
6111		78.125000
6112		70.312500
6113		76.171875
6114		68.359375
6115		72.265625
6116		64.453125
6117		68.359375
6118		58.593750
6119		66.406250
6120		54.687500
6121		66.406250
6122		50.781250
6123		62.500000
6124		48.828125
6125		58.593750
6126		44.921875
6127		50.781250
6128		41.015625
6129		46.875000
6130		37.109375
6131		42.968750
6132		33.203125
6133		39.062500
6134		27.343750
6135		33.203125
6136		21.484375
6137		33.203125
6138		15.625000
6139		27.343750
6140		13.671875
6141		23.437500
6142		9.765625
6143		15.625000
6144		3.906250
6145		11.718750
6146		0.000000
6147		5.859375
6148		-3.906250
6149		1.953125
6150		-9.765625
6151		-3.906250
6152		-15.625000
6153		-5.859375
6154		-21.484375
6155		-11.718750
6156		-25.390625
6157		-15.625000
6158		-27.343750
6159		-21.484375
6160		-31.250000
6161		-25.390625
6162		-37.109375
6163		-31.250000
6164		-41.015625
6165		-35.156250
6166		-44.921875
6167		-39.062500
6168		-52.734375
6169		-42.968750
6170		-54.687500
6171		-44.921875
6172		-60.546875
6173		-46.875000
6174		-60.546875
6175		-50.781250
6176		-62.500000
6177		-58.593750
6178		-66.406250
6179		-62.500000
6180		-70.312500
6181		-64.453125
6182		-72.265625
6183		-68.359375
6184		-74.218750
6185		-70.312500
6186		-80.078125
6187		-70.312500
6188		-82.031250
6189		-74.218750
6190		-83.984375
6191		-74.218750
6192		-83.984375
6193		-80.078125
6194		-83.984375
6195		-82.031250
6196		-85.937500
6197		-83.984375
6198		-87.890625
6199		-83.984375
6200		-87.890625
6201		-85.937500
6202		-91.796875
6203		-82.031250
6204		-91.796875
6205		-82.031250
6206		-91.796875
6207		-82.031250
6208		-91.796875
6209		-83.984375
6210		-87.890625
6211		-85.937500
6212		-87.890625
6213		-85.937500
6214		-87.890625
6215		-83.984375
6216		-85.937500
6217		-83.984375
6218		-83.984375
6219		-82.031250
6220		-85.937500
6221		-78.125000
6222		-83.984375
6223		-74.218750
6224		-82.031250
6225		-72.265625
6226		-78.125000
6227		-74.218750
6228		-74.218750
6229		-70.312500
6230		-72.265625
6231		-68.359375
6232		-70.312500
6233		-64.453125
6234		-66.406250
6235		-62.500000
6236		-64.453125
6237		-54.687500
6238		-60.546875
6239		-52.734375
6240		-58.593750
6241		-48.828125
6242		-52.734375
6243		-46.875000
6244		-48.828125
6245		-42.968750
6246		-44.921875
6247		-39.062500
6248		-41.015625
6249		-35.156250
6250		-35.156250
6251		-31.250000
6252		-31.250000
6253		-25.390625
6254		-27.343750
6255		-19.531250
6256		-23.437500
6257		-13.671875
6258		-19.531250
6259		-11.718750
6260		-13.671875
6261		-7.812500
6262		-9.765625
6263		-3.906250
6264		-3.906250
6265		1.953125
6266		0.000000
6267		5.859375
6268		5.859375
6269		11.718750
6270		9.765625
6271		15.625000
6272		13.671875
6273		23.437500
6274		17.578125
6275		25.390625
6276		23.437500
6277		29.296875
6278		27.343750
6279		33.203125
6280		33.203125
6281		37.109375
6282		37.109375
6283		42.968750
6284		41.015625
6285		46.875000
6286		44.921875
6287		50.781250
6288		48.828125
6289		54.687500
6290		52.734375
6291		58.593750
6292		56.640625
6293		60.546875
6294		60.546875
6295		64.453125
6296		64.453125
6297		68.359375
6298		66.406250
6299		72.265625
6300		70.312500
6301		74.218750
6302		72.265625
6303		78.125000
6304		76.171875
6305		80.078125
6306		78.125000
6307		82.031250
6308		82.031250
6309		85.937500
6310		83.984375
6311		87.890625
6312		85.937500
6313		89.843750
6314		87.890625
6315		91.796875
6316		89.843750
6317		93.750000
6318		91.796875
6319		93.750000
6320		91.796875
6321		95.703125
6322		93.750000
6323		97.656250
6324		95.703125
6325		97.656250
6326		95.703125
6327		97.656250
6328		97.656250
6329		99.609375
6330		97.656250
6331		99.609375
6332		97.656250
6333		99.609375
6334		97.656250
6335		99.609375
6336		97.656250
6337		99.609375
6338		95.703125
6339		99.609375
6340		95.703125
6341		97.656250
6342		95.703125
6343		97.656250
6344		93.750000
6345		97.656250
6346		91.796875
6347		95.703125
6348		91.796875
6349		93.750000
6350		89.843750
6351		93.750000
6352		87.890625
6353		91.796875
6354		85.937500
6355		89.843750
6356		83.984375
6357		87.890625
6358		80.078125
6359		85.937500
6360		78.125000
6361		82.031250
6362		76.171875
6363		80.078125
6364		72.265625
6365		78.125000
6366		70.312500
6367		74.218750
6368		66.406250
6369		70.312500
6370		62.500000
6371		68.359375
6372		58.593750
6373		64.453125
6374		54.687500
6375		60.546875
6376		50.781250
6377		56.640625
6378		46.875000
6379		54.687500
6380		42.968750
6381		48.828125
6382		39.062500
6383		44.921875
6384		35.156250
6385		41.015625
6386		31.250000
6387		37.109375
6388		25.390625
6389		33.203125
6390		21.484375
6391		27.343750
6392		17.578125
6393		23.437500
6394		11.718750
6395		17.578125
6396		7.812500
6397		13.671875
6398		1.953125
6399		7.812500
6400		-1.953125
6401		3.906250
6402		-5.859375
6403		0.000000
6404		-11.718750
6405		-5.859375
6406		-15.625000
6407		-9.765625
6408		-19.531250
6409		-13.671875
6410		-25.390625
6411		-19.531250
6412		-29.296875
6413		-23.437500
6414		-33.203125
6415		-27.343750
6416		-39.062500
6417		-33.203125
6418		-42.968750
6419		-37.109375
6420		-48.828125
6421		-41.015625
6422		-50.781250
6423		-44.921875
6424		-54.687500
6425		-48.828125
6426		-58.593750
6427		-52.734375
6428		-62.500000
6429		-56.640625
6430		-64.453125
6431		-58.593750
6432		-68.359375
6433		-62.500000
6434		-70.312500
6435		-66.406250
6436		-74.218750
6437		-70.312500
6438		-76.171875
6439		-70.312500
6440		-78.125000
6441		-74.218750
6442		-80.078125
6443		-76.171875
6444		-83.984375
6445		-78.125000
6446		-83.984375
6447		-80.078125
6448		-85.937500
6449		-82.031250
6450		-85.937500
6451		-83.984375
6452		-87.890625
6453		-85.937500
6454		-89.843750
6455		-83.984375
6456		-89.843750
6457		-85.937500
6458		-89.843750
6459		-85.937500
6460		-89.843750
6461		-85.937500
6462		-89.843750
6463		-85.937500
6464		-87.890625
6465		-85.937500
6466		-87.890625
6467		-85.937500
6468		-85.937500
6469		-83.984375
6470		-85.937500
6471		-82.031250
6472		-87.890625
6473		-80.078125
6474		-82.031250
6475		-80.078125
6476		-80.078125
6477		-78.125000
6478		-78.125000
6479		-74.218750
6480		-78.125000
6481		-72.265625
6482		-74.218750
6483		-70.312500
6484		-70.312500
6485		-66.406250
6486		-68.359375
6487		-64.453125
6488		-64.453125
6489		-58.593750
6490		-62.500000
6491		-56.640625
6492		-58.593750
6493		-52.734375
6494		-54.687500
6495		-48.828125
6496		-50.781250
6497		-44.921875
6498		-46.875000
6499		-41.015625
6500		-42.968750
6501		-37.109375
6502		-39.062500
6503		-33.203125
6504		-35.156250
6505		-27.343750
6506		-31.250000
6507		-23.437500
6508		-25.390625
6509		-19.531250
6510		-21.484375
6511		-15.625000
6512		-17.578125
6513		-9.765625
6514		-11.718750
6515		-5.859375
6516		-7.812500
6517		-1.953125
6518		-1.953125
6519		3.906250
6520		1.953125
6521		7.812500
6522		5.859375
6523		11.718750
6524		11.718750
6525		17.578125
6526		15.625000
6527		21.484375
6528		21.484375
6529		27.343750
6530		25.390625
6531		31.250000
6532		29.296875
6533		35.156250
6534		33.203125
6535		39.062500
6536		37.109375
6537		42.968750
6538		42.968750
6539		48.828125
6540		46.875000
6541		52.734375
6542		50.781250
6543		54.687500
6544		54.687500
6545		58.593750
6546		58.593750
6547		62.500000
6548		60.546875
6549		66.406250
6550		64.453125
6551		70.312500
6552		68.359375
6553		72.265625
6554		70.312500
6555		76.171875
6556		74.218750
6557		78.125000
6558		78.125000
6559		82.031250
6560		80.078125
6561		83.984375
6562		82.031250
6563		85.937500
6564		83.984375
6565		87.890625
6566		85.937500
6567		89.843750
6568		87.890625
6569		91.796875
6570		89.843750
6571		93.750000
6572		91.796875
6573		95.703125
6574		93.750000
6575		95.703125
6576		93.750000
6577		97.656250
6578		95.703125
6579		97.656250
6580		95.703125
6581		99.609375
6582		97.656250
6583		99.609375
6584		97.656250
6585		99.609375
6586		97.656250
6587		99.609375
6588		97.656250
6589		99.609375
6590		97.656250
6591		99.609375
6592		95.703125
6593		99.609375
6594		95.703125
6595		97.656250
6596		95.703125
6597		97.656250
6598		93.750000
6599		95.703125
6600		91.796875
6601		95.703125
6602		89.843750
6603		93.750000
6604		89.843750
6605		91.796875
6606		85.937500
6607		89.843750
6608		85.937500
6609		87.890625
6610		82.031250
6611		85.937500
6612		80.078125
6613		83.984375
6614		78.125000
6615		82.031250
6616		74.218750
6617		80.078125
6618		72.265625
6619		76.171875
6620		68.359375
6621		72.265625
6622		64.453125
6623		70.312500
6624		62.500000
6625		66.406250
6626		58.593750
6627		62.500000
6628		54.687500
6629		58.593750
6630		50.781250
6631		56.640625
6632		46.875000
6633		50.781250
6634		42.968750
6635		46.875000
6636		37.109375
6637		42.968750
6638		33.203125
6639		39.062500
6640		29.296875
6641		35.156250
6642		25.390625
6643		31.250000
6644		19.531250
6645		25.390625
6646		15.625000
6647		21.484375
6648		9.765625
6649		17.578125
6650		5.859375
6651		11.718750
6652		1.953125
6653		7.812500
6654		-3.906250
6655		1.953125
6656		-7.812500
6657		-1.953125
6658		-13.671875
6659		-7.812500
6660		-17.578125
6661		-11.718750
6662		-21.484375
6663		-15.625000
6664		-25.390625
6665		-21.484375
6666		-31.250000
6667		-25.390625
6668		-35.156250
6669		-29.296875
6670		-39.062500
6671		-33.203125
6672		-44.921875
6673		-39.062500
6674		-48.828125
6675		-41.015625
6676		-52.734375
6677		-46.875000
6678		-54.687500
6679		-50.781250
6680		-58.593750
6681		-54.687500
6682		-62.500000
6683		-58.593750
6684		-66.406250
6685		-60.546875
6686		-68.359375
6687		-64.453125
6688		-72.265625
6689		-68.359375
6690		-76.171875
6691		-70.312500
6692		-78.125000
6693		-72.265625
6694		-78.125000
6695		-76.171875
6696		-82.031250
6697		-78.125000
6698		-83.984375
6699		-80.078125
6700		-83.984375
6701		-82.031250
6702		-85.937500
6703		-83.984375
6704		-87.890625
6705		-83.984375
6706		-89.843750
6707		-83.984375
6708		-89.843750
6709		-83.984375
6710		-89.843750
6711		-85.937500
6712		-89.843750
6713		-87.890625
6714		-89.843750
6715		-85.937500
6716		-87.890625
6717		-85.937500
6718		-87.890625
6719		-85.937500
6720		-87.890625
6721		-83.984375
6722		-85.937500
6723		-83.984375
6724		-87.890625
6725		-82.031250
6726		-85.937500
6727		-80.078125
6728		-82.031250
6729		-78.125000
6730		-80.078125
6731		-76.171875
6732		-78.125000
6733		-74.218750
6734		-76.171875
6735		-72.265625
6736		-74.218750
6737		-68.359375
6738		-70.312500
6739		-66.406250
6740		-68.359375
6741		-60.546875
6742		-66.406250
6743		-58.593750
6744		-60.546875
6745		-56.640625
6746		-56.640625
6747		-50.781250
6748		-52.734375
6749		-46.875000
6750		-50.781250
6751		-44.921875
6752		-44.921875
6753		-41.015625
6754		-41.015625
6755		-37.109375
6756		-37.109375
6757		-31.250000
6758		-35.156250
6759		-25.390625
6760		-31.250000
6761		-23.437500
6762		-25.390625
6763		-17.578125
6764		-19.531250
6765		-13.671875
6766		-15.625000
6767		-9.765625
6768		-9.765625
6769		-3.906250
6770		-5.859375
6771		0.000000
6772		-1.953125
6773		3.906250
6774		3.906250
6775		9.765625
6776		7.812500
6777		13.671875
6778		11.718750
6779		19.531250
6780		17.578125
6781		23.437500
6782		21.484375
6783		27.343750
6784		25.390625
6785		31.250000
6786		31.250000
6787		37.109375
6788		35.156250
6789		41.015625
6790		39.062500
6791		46.875000
6792		42.968750
6793		50.781250
6794		46.875000
6795		52.734375
6796		50.781250
6797		56.640625
6798		54.687500
6799		60.546875
6800		58.593750
6801		64.453125
6802		62.500000
6803		66.406250
6804		66.406250
6805		70.312500
6806		68.359375
6807		74.218750
6808		70.312500
6809		78.125000
6810		74.218750
6811		80.078125
6812		78.125000
6813		82.031250
6814		80.078125
6815		83.984375
6816		83.984375
6817		87.890625
6818		85.937500
6819		89.843750
6820		87.890625
6821		89.843750
6822		87.890625
6823		91.796875
6824		89.843750
6825		95.703125
6826		91.796875
6827		97.656250
6828		93.750000
6829		97.656250
6830		95.703125
6831		97.656250
6832		95.703125
6833		97.656250
6834		95.703125
6835		99.609375
6836		97.656250
6837		99.609375
6838		97.656250
6839		99.609375
6840		95.703125
6841		99.609375
6842		95.703125
6843		101.562500
6844		95.703125
6845		101.562500
6846		95.703125
6847		99.609375
6848		95.703125
6849		97.656250
6850		93.750000
6851		97.656250
6852		93.750000
6853		95.703125
6854		91.796875
6855		93.750000
6856		89.843750
6857		93.750000
6858		87.890625
6859		93.750000
6860		85.937500
6861		89.843750
6862		83.984375
6863		87.890625
6864		82.031250
6865		85.937500
6866		80.078125
6867		83.984375
6868		76.171875
6869		80.078125
6870		74.218750
6871		78.125000
6872		70.312500
6873		74.218750
6874		66.406250
6875		72.265625
6876		64.453125
6877		68.359375
6878		60.546875
6879		64.453125
6880		56.640625
6881		60.546875
6882		52.734375
6883		58.593750
6884		48.828125
6885		54.687500
6886		44.921875
6887		50.781250
6888		41.015625
6889		46.875000
6890		35.156250
6891		42.968750
6892		31.250000
6893		37.109375
6894		27.343750
6895		33.203125
6896		23.437500
6897		29.296875
6898		17.578125
6899		23.437500
6900		13.671875
6901		19.531250
6902		9.765625
6903		15.625000
6904		3.906250
6905		9.765625
6906		0.000000
6907		5.859375
6908		-5.859375
6909		0.000000
6910		-9.765625
6911		-3.906250
6912		-15.625000
6913		-7.812500
6914		-19.531250
6915		-13.671875
6916		-23.437500
6917		-17.578125
6918		-27.343750
6919		-21.484375
6920		-33.203125
6921		-27.343750
6922		-37.109375
6923		-31.250000
6924		-41.015625
6925		-35.156250
6926		-44.921875
6927		-39.062500
6928		-50.781250
6929		-42.968750
6930		-52.734375
6931		-46.875000
6932		-56.640625
6933		-52.734375
6934		-60.546875
6935		-54.687500
6936		-64.453125
6937		-58.593750
6938		-66.406250
6939		-62.500000
6940		-70.312500
6941		-66.406250
6942		-72.265625
6943		-68.359375
6944		-76.171875
6945		-72.265625
6946		-78.125000
6947		-74.218750
6948		-80.078125
6949		-76.171875
6950		-82.031250
6951		-78.125000
6952		-83.984375
6953		-80.078125
6954		-85.937500
6955		-82.031250
6956		-85.937500
6957		-83.984375
6958		-87.890625
6959		-83.984375
6960		-87.890625
6961		-85.937500
6962		-89.843750
6963		-85.937500
6964		-89.843750
6965		-85.937500
6966		-89.843750
6967		-85.937500
6968		-89.843750
6969		-85.937500
6970		-87.890625
6971		-85.937500
6972		-87.890625
6973		-85.937500
6974		-87.890625
6975		-83.984375
6976		-85.937500
6977		-83.984375
6978		-85.937500
6979		-82.031250
6980		-83.984375
6981		-80.078125
6982		-82.031250
6983		-78.125000
6984		-80.078125
6985		-76.171875
6986		-78.125000
6987		-74.218750
6988		-76.171875
6989		-70.312500
6990		-72.265625
6991		-68.359375
6992		-70.312500
6993		-64.453125
6994		-66.406250
6995		-62.500000
6996		-62.500000
6997		-58.593750
6998		-60.546875
6999		-54.687500
7000		-56.640625
7001		-50.781250
7002		-52.734375
7003		-46.875000
7004		-48.828125
7005		-42.968750
7006		-44.921875
7007		-39.062500
7008		-41.015625
7009		-35.156250
7010		-35.156250
7011		-29.296875
7012		-31.250000
7013		-25.390625
7014		-27.343750
7015		-21.484375
7016		-23.437500
7017		-17.578125
7018		-17.578125
7019		-11.718750
7020		-13.671875
7021		-7.812500
7022		-9.765625
7023		-1.953125
7024		-3.906250
7025		1.953125
7026		0.000000
7027		5.859375
7028		5.859375
7029		11.718750
7030		9.765625
7031		15.625000
7032		13.671875
7033		19.531250
7034		19.531250
7035		25.390625
7036		23.437500
7037		29.296875
7038		27.343750
7039		33.203125
7040		33.203125
7041		37.109375
7042		37.109375
7043		42.968750
7044		41.015625
7045		46.875000
7046		44.921875
7047		50.781250
7048		48.828125
7049		54.687500
7050		52.734375
7051		58.593750
7052		56.640625
7053		62.500000
7054		60.546875
7055		64.453125
7056		64.453125
7057		68.359375
7058		66.406250
7059		72.265625
7060		70.312500
7061		74.218750
7062		74.218750
7063		78.125000
7064		76.171875
7065		80.078125
7066		78.125000
7067		83.984375
7068		82.031250
7069		85.937500
7070		83.984375
7071		87.890625
7072		85.937500
7073		89.843750
7074		87.890625
7075		91.796875
7076		89.843750
7077		93.750000
7078		91.796875
7079		93.750000
7080		93.750000
7081		95.703125
7082		93.750000
7083		97.656250
7084		95.703125
7085		97.656250
7086		95.703125
7087		97.656250
7088		95.703125
7089		99.609375
7090		97.656250
7091		99.609375
7092		97.656250
7093		99.609375
7094		97.656250
7095		99.609375
7096		97.656250
7097		99.609375
7098		95.703125
7099		99.609375
7100		95.703125
7101		97.656250
7102		95.703125
7103		97.656250
7104		93.750000
7105		97.656250
7106		91.796875
7107		95.703125
7108		91.796875
7109		95.703125
7110		89.843750
7111		93.750000
7112		87.890625
7113		91.796875
7114		85.937500
7115		89.843750
7116		82.031250
7117		85.937500
7118		80.078125
7119		83.984375
7120		78.125000
7121		82.031250
7122		76.171875
7123		80.078125
7124		72.265625
7125		76.171875
7126		68.359375
7127		74.218750
7128		64.453125
7129		70.312500
7130		62.500000
7131		68.359375
7132		58.593750
7133		64.453125
7134		54.687500
7135		60.546875
7136		50.781250
7137		56.640625
7138		46.875000
7139		52.734375
7140		42.968750
7141		48.828125
7142		39.062500
7143		44.921875
7144		35.156250
7145		41.015625
7146		29.296875
7147		35.156250
7148		25.390625
7149		31.250000
7150		21.484375
7151		27.343750
7152		15.625000
7153		21.484375
7154		11.718750
7155		17.578125
7156		7.812500
7157		13.671875
7158		1.953125
7159		7.812500
7160		-1.953125
7161		3.906250
7162		-7.812500
7163		-1.953125
7164		-11.718750
7165		-5.859375
7166		-15.625000
7167		-9.765625
7168		-21.484375
7169		-15.625000
7170		-25.390625
7171		-19.531250
7172		-29.296875
7173		-23.437500
7174		-35.156250
7175		-29.296875
7176		-39.062500
7177		-33.203125
7178		-42.968750
7179		-37.109375
7180		-46.875000
7181		-41.015625
7182		-50.781250
7183		-44.921875
7184		-54.687500
7185		-48.828125
7186		-58.593750
7187		-52.734375
7188		-62.500000
7189		-56.640625
7190		-64.453125
7191		-60.546875
7192		-68.359375
7193		-64.453125
7194		-70.312500
7195		-66.406250
7196		-74.218750
7197		-70.312500
7198		-76.171875
7199		-72.265625
7200		-78.125000
7201		-74.218750
7202		-80.078125
7203		-78.125000
7204		-82.031250
7205		-80.078125
7206		-85.937500
7207		-82.031250
7208		-85.937500
7209		-83.984375
7210		-87.890625
7211		-83.984375
7212		-87.890625
7213		-85.937500
7214		-89.843750
7215		-85.937500
7216		-89.843750
7217		-85.937500
7218		-89.843750
7219		-87.890625
7220		-89.843750
7221		-87.890625
7222		-89.843750
7223		-85.937500
7224		-87.890625
7225		-85.937500
7226		-87.890625
7227		-85.937500
7228		-87.890625
7229		-83.984375
7230		-85.937500
7231		-82.031250
7232		-85.937500
7233		-82.031250
7234		-83.984375
7235		-80.078125
7236		-82.031250
7237		-78.125000
7238		-80.078125
7239		-74.218750
7240		-76.171875
7241		-72.265625
7242		-74.218750
7243		-70.312500
7244		-72.265625
7245		-66.406250
7246		-68.359375
7247		-64.453125
7248		-66.406250
7249		-60.546875
7250		-62.500000
7251		-56.640625
7252		-58.593750
7253		-54.687500
7254		-54.687500
7255		-50.781250
7256		-50.781250
7257		-44.921875
7258		-46.875000
7259		-42.968750
7260		-42.968750
7261		-37.109375
7262		-39.062500
7263		-33.203125
7264		-35.156250
7265		-29.296875
7266		-31.250000
7267		-25.390625
7268		-25.390625
7269		-19.531250
7270		-21.484375
7271		-15.625000
7272		-17.578125
7273		-11.718750
7274		-11.718750
7275		-5.859375
7276		-7.812500
7277		-1.953125
7278		-1.953125
7279		1.953125
7280		1.953125
7281		7.812500
7282		5.859375
7283		11.718750
7284		11.718750
7285		17.578125
7286		15.625000
7287		21.484375
7288		19.531250
7289		25.390625
7290		25.390625
7291		31.250000
7292		29.296875
7293		35.156250
7294		33.203125
7295		39.062500
7296		37.109375
7297		42.968750
7298		41.015625
7299		46.875000
7300		44.921875
7301		50.781250
7302		50.781250
7303		54.687500
7304		52.734375
7305		58.593750
7306		56.640625
7307		62.500000
7308		60.546875
7309		66.406250
7310		64.453125
7311		68.359375
7312		68.359375
7313		72.265625
7314		70.312500
7315		76.171875
7316		74.218750
7317		78.125000
7318		76.171875
7319		80.078125
7320		80.078125
7321		83.984375
7322		82.031250
7323		85.937500
7324		83.984375
7325		87.890625
7326		85.937500
7327		89.843750
7328		87.890625
7329		91.796875
7330		89.843750
7331		93.750000
7332		91.796875
7333		93.750000
7334		93.750000
7335		95.703125
7336		93.750000
7337		97.656250
7338		95.703125
7339		97.656250
7340		95.703125
7341		97.656250
7342		95.703125
7343		99.609375
7344		97.656250
7345		99.609375
7346		97.656250
7347		99.609375
7348		97.656250
7349		99.609375
7350		97.656250
7351		99.609375
7352		95.703125
7353		97.656250
7354		95.703125
7355		97.656250
7356		93.750000
7357		97.656250
7358		93.750000
7359		95.703125
7360		91.796875
7361		95.703125
7362		89.843750
7363		93.750000
7364		87.890625
7365		91.796875
7366		85.937500
7367		89.843750
7368		83.984375
7369		87.890625
7370		82.031250
7371		85.937500
7372		80.078125
7373		83.984375
7374		76.171875
7375		80.078125
7376		74.218750
7377		78.125000
7378		70.312500
7379		76.171875
7380		68.359375
7381		72.265625
7382		64.453125
7383		68.359375
7384		60.546875
7385		66.406250
7386		56.640625
7387		62.500000
7388		52.734375
7389		58.593750
7390		48.828125
7391		54.687500
7392		44.921875
7393		50.781250
7394		41.015625
7395		46.875000
7396		37.109375
7397		42.968750
7398		33.203125
7399		39.062500
7400		27.343750
7401		33.203125
7402		23.437500
7403		29.296875
7404		19.531250
7405		25.390625
7406		13.671875
7407		21.484375
7408		9.765625
7409		15.625000
7410		5.859375
7411		11.718750
7412		0.000000
7413		5.859375
7414		-3.906250
7415		1.953125
7416		-9.765625
7417		-1.953125
7418		-13.671875
7419		-7.812500
7420		-17.578125
7421		-11.718750
7422		-23.437500
7423		-17.578125
7424		-27.343750
7425		-21.484375
7426		-31.250000
7427		-25.390625
7428		-37.109375
7429		-31.250000
7430		-41.015625
7431		-35.156250
7432		-44.921875
7433		-39.062500
7434		-48.828125
7435		-42.968750
7436		-52.734375
7437		-46.875000
7438		-56.640625
7439		-50.781250
7440		-60.546875
7441		-54.687500
7442		-62.500000
7443		-58.593750
7444		-66.406250
7445		-62.500000
7446		-70.312500
7447		-64.453125
7448		-72.265625
7449		-68.359375
7450		-76.171875
7451		-70.312500
7452		-78.125000
7453		-74.218750
7454		-80.078125
7455		-76.171875
7456		-82.031250
7457		-78.125000
7458		-83.984375
7459		-80.078125
7460		-85.937500
7461		-82.031250
7462		-85.937500
7463		-83.984375
7464		-87.890625
7465		-83.984375
7466		-87.890625
7467		-85.937500
7468		-89.843750
7469		-85.937500
7470		-89.843750
7471		-87.890625
7472		-89.843750
7473		-87.890625
7474		-89.843750
7475		-87.890625
7476		-89.843750
7477		-87.890625
7478		-87.890625
7479		-85.937500
7480		-87.890625
7481		-85.937500
7482		-87.890625
7483		-83.984375
7484		-85.937500
7485		-82.031250
7486		-83.984375
7487		-80.078125
7488		-82.031250
7489		-78.125000
7490		-80.078125
7491		-76.171875
7492		-78.125000
7493		-74.218750
7494		-76.171875
7495		-72.265625
7496		-74.218750
7497		-68.359375
7498		-70.312500
7499		-66.406250
7500		-68.359375
7501		-62.500000
7502		-64.453125
7503		-58.593750
7504		-60.546875
7505		-56.640625
7506		-56.640625
7507		-52.734375
7508		-54.687500
7509		-48.828125
7510		-48.828125
7511		-44.921875
7512		-44.921875
7513		-41.015625
7514		-41.015625
7515		-37.109375
7516		-37.109375
7517		-31.250000
7518		-33.203125
7519		-27.343750
7520		-29.296875
7521		-23.437500
7522		-23.437500
7523		-17.578125
7524		-19.531250
7525		-13.671875
7526		-15.625000
7527		-9.765625
7528		-9.765625
7529		-3.906250
7530		-5.859375
7531		0.000000
7532		-1.953125
7533		5.859375
7534		3.906250
7535		9.765625
7536		7.812500
7537		13.671875
7538		11.718750
7539		19.531250
7540		17.578125
7541		23.437500
7542		21.484375
7543		27.343750
7544		25.390625
7545		31.250000
7546		31.250000
7547		37.109375
7548		35.156250
7549		41.015625
7550		39.062500
7551		44.921875
7552		42.968750
7553		48.828125
7554		46.875000
7555		52.734375
7556		50.781250
7557		56.640625
7558		54.687500
7559		60.546875
7560		58.593750
7561		64.453125
7562		62.500000
7563		66.406250
7564		66.406250
7565		70.312500
7566		68.359375
7567		74.218750
7568		72.265625
7569		76.171875
7570		74.218750
7571		80.078125
7572		78.125000
7573		82.031250
7574		80.078125
7575		83.984375
7576		82.031250
7577		85.937500
7578		85.937500
7579		87.890625
7580		87.890625
7581		89.843750
7582		89.843750
7583		91.796875
7584		89.843750
7585		93.750000
7586		91.796875
7587		95.703125
7588		93.750000
7589		95.703125
7590		93.750000
7591		97.656250
7592		95.703125
7593		97.656250
7594		95.703125
7595		97.656250
7596		95.703125
7597		99.609375
7598		97.656250
7599		99.609375
7600		97.656250
7601		99.609375
7602		97.656250
7603		99.609375
7604		95.703125
7605		99.609375
7606		95.703125
7607		97.656250
7608		95.703125
7609		97.656250
7610		93.750000
7611		97.656250
7612		93.750000
7613		95.703125
7614		91.796875
7615		93.750000
7616		89.843750
7617		91.796875
7618		87.890625
7619		91.796875
7620		85.937500
7621		89.843750
7622		83.984375
7623		87.890625
7624		82.031250
7625		85.937500
7626		78.125000
7627		82.031250
7628		76.171875
7629		80.078125
7630		72.265625
7631		78.125000
7632		70.312500
7633		74.218750
7634		66.406250
7635		72.265625
7636		62.500000
7637		68.359375
7638		58.593750
7639		64.453125
7640		56.640625
7641		62.500000
7642		52.734375
7643		56.640625
7644		48.828125
7645		52.734375
7646		42.968750
7647		48.828125
7648		39.062500
7649		44.921875
7650		35.156250
7651		41.015625
7652		31.250000
7653		37.109375
7654		27.343750
7655		33.203125
7656		21.484375
7657		27.343750
7658		17.578125
7659		23.437500
7660		11.718750
7661		19.531250
7662		7.812500
7663		13.671875
7664		3.906250
7665		9.765625
7666		-1.953125
7667		3.906250
7668		-5.859375
7669		0.000000
7670		-11.718750
7671		-3.906250
7672		-15.625000
7673		-9.765625
7674		-19.531250
7675		-13.671875
7676		-25.390625
7677		-19.531250
7678		-29.296875
7679		-23.437500
7680		-33.203125
7681		-27.343750
7682		-37.109375
7683		-33.203125
7684		-42.968750
7685		-37.109375
7686		-46.875000
7687		-41.015625
7688		-50.781250
7689		-44.921875
7690		-54.687500
7691		-48.828125
7692		-56.640625
7693		-52.734375
7694		-60.546875
7695		-56.640625
7696		-64.453125
7697		-60.546875
7698		-68.359375
7699		-62.500000
7700		-70.312500
7701		-66.406250
7702		-74.218750
7703		-68.359375
7704		-76.171875
7705		-72.265625
7706		-78.125000
7707		-74.218750
7708		-80.078125
7709		-76.171875
7710		-82.031250
7711		-78.125000
7712		-83.984375
7713		-82.031250
7714		-85.937500
7715		-82.031250
7716		-87.890625
7717		-83.984375
7718		-87.890625
7719		-85.937500
7720		-89.843750
7721		-83.984375
7722		-89.843750
7723		-85.937500
7724		-91.796875
7725		-85.937500
7726		-89.843750
7727		-87.890625
7728		-89.843750
7729		-87.890625
7730		-87.890625
7731		-85.937500
7732		-87.890625
7733		-85.937500
7734		-87.890625
7735		-83.984375
7736		-87.890625
7737		-82.031250
7738		-85.937500
7739		-82.031250
7740		-83.984375
7741		-78.125000
7742		-82.031250
7743		-78.125000
7744		-80.078125
7745		-74.218750
7746		-78.125000
7747		-72.265625
7748		-74.218750
7749		-70.312500
7750		-72.265625
7751		-68.359375
7752		-68.359375
7753		-64.453125
7754		-66.406250
7755		-60.546875
7756		-64.453125
7757		-56.640625
7758		-60.546875
7759		-54.687500
7760		-56.640625
7761		-48.828125
7762		-52.734375
7763		-46.875000
7764		-48.828125
7765		-42.968750
7766		-44.921875
7767		-37.109375
7768		-41.015625
7769		-35.156250
7770		-37.109375
7771		-29.296875
7772		-31.250000
7773		-25.390625
7774		-27.343750
7775		-21.484375
7776		-21.484375
7777		-15.625000
7778		-19.531250
7779		-11.718750
7780		-13.671875
7781		-7.812500
7782		-9.765625
7783		-1.953125
7784		-5.859375
7785		5.859375
7786		0.000000
7787		7.812500
7788		5.859375
7789		11.718750
7790		9.765625
7791		17.578125
7792		13.671875
7793		19.531250
7794		19.531250
7795		27.343750
7796		23.437500
7797		29.296875
7798		27.343750
7799		33.203125
7800		33.203125
7801		39.062500
7802		35.156250
7803		42.968750
7804		39.062500
7805		46.875000
7806		44.921875
7807		50.781250
7808		48.828125
7809		56.640625
7810		52.734375
7811		58.593750
7812		54.687500
7813		62.500000
7814		60.546875
7815		64.453125
7816		64.453125
7817		68.359375
7818		66.406250
7819		72.265625
7820		70.312500
7821		76.171875
7822		74.218750
7823		78.125000
7824		76.171875
7825		82.031250
7826		76.171875
7827		83.984375
7828		78.125000
7829		85.937500
7830		83.984375
7831		87.890625
7832		85.937500
7833		89.843750
7834		87.890625
7835		93.750000
7836		85.937500
7837		95.703125
7838		91.796875
7839		93.750000
7840		91.796875
7841		97.656250
7842		91.796875
7843		99.609375
7844		91.796875
7845		101.562500
7846		95.703125
7847		97.656250
7848		95.703125
7849		99.609375
7850		95.703125
7851		99.609375
7852		93.750000
7853		101.562500
7854		93.750000
7855		101.562500
7856		97.656250
7857		99.609375
7858		93.750000
7859		101.562500
7860		91.796875
7861		101.562500
7862		91.796875
7863		101.562500
7864		93.750000
7865		95.703125
7866		91.796875
7867		95.703125
7868		87.890625
7869		95.703125
7870		87.890625
7871		95.703125
7872		85.937500
7873		91.796875
7874		83.984375
7875		89.843750
7876		80.078125
7877		89.843750
7878		78.125000
7879		85.937500
7880		78.125000
7881		82.031250
7882		74.218750
7883		80.078125
7884		70.312500
7885		78.125000
7886		66.406250
7887		76.171875
7888		64.453125
7889		72.265625
7890		62.500000
7891		66.406250
7892		54.687500
7893		64.453125
7894		54.687500
7895		60.546875
7896		50.781250
7897		58.593750
7898		46.875000
7899		52.734375
7900		41.015625
7901		48.828125
7902		37.109375
7903		44.921875
7904		33.203125
7905		39.062500
7906		29.296875
7907		35.156250
7908		21.484375
7909		31.250000
7910		19.531250
7911		29.296875
7912		15.625000
7913		23.437500
7914		11.718750
7915		17.578125
7916		5.859375
7917		13.671875
7918		1.953125
7919		7.812500
7920		-5.859375
7921		5.859375
7922		-7.812500
7923		-1.953125
7924		-11.718750
7925		-5.859375
7926		-19.531250
7927		-9.765625
7928		-25.390625
7929		-15.625000
7930		-25.390625
7931		-19.531250
7932		-31.250000
7933		-25.390625
7934		-35.156250
7935		-29.296875
7936		-41.015625
7937		-33.203125
7938		-42.968750
7939		-37.109375
7940		-48.828125
7941		-41.015625
7942		-54.687500
7943		-44.921875
7944		-54.687500
7945		-44.921875
7946		-58.593750
7947		-50.781250
7948		-62.500000
7949		-56.640625
7950		-66.406250
7951		-60.546875
7952		-70.312500
7953		-64.453125
7954		-72.265625
7955		-64.453125
7956		-74.218750
7957		-68.359375
7958		-76.171875
7959		-72.265625
7960		-82.031250
7961		-72.265625
7962		-82.031250
7963		-76.171875
7964		-82.031250
7965		-80.078125
7966		-85.937500
7967		-82.031250
7968		-85.937500
7969		-82.031250
7970		-89.843750
7971		-82.031250
7972		-89.843750
7973		-83.984375
7974		-87.890625
7975		-85.937500
7976		-91.796875
7977		-83.984375
7978		-91.796875
7979		-85.937500
7980		-91.796875
7981		-85.937500
7982		-89.843750
7983		-85.937500
7984		-89.843750
7985		-85.937500
7986		-89.843750
7987		-82.031250
7988		-89.843750
7989		-82.031250
7990		-85.937500
7991		-82.031250
7992		-85.937500
7993		-80.078125
7994		-82.031250
7995		-80.078125
7996		-82.031250
7997		-76.171875
7998		-78.125000
7999		-74.218750
8000		-76.171875
8001		-72.265625
8002		-74.218750
8003		-70.312500
8004		-72.265625
8005		-64.453125
8006		-68.359375
8007		-64.453125
8008		-64.453125
8009		-58.593750
8010		-62.500000
8011		-56.640625
8012		-58.593750
8013		-52.734375
8014		-54.687500
8015		-48.828125
8016		-50.781250
8017		-44.921875
8018		-46.875000
8019		-41.015625
8020		-42.968750
8021		-37.109375
8022		-39.062500
8023		-33.203125
8024		-35.156250
8025		-29.296875
8026		-29.296875
8027		-23.437500
8028		-25.390625
8029		-19.531250
8030		-21.484375
8031		-15.625000
8032		-15.625000
8033		-9.765625
8034		-11.718750
8035		-5.859375
8036		-7.812500
8037		0.000000
8038		-1.953125
8039		3.906250
8040		1.953125
8041		7.812500
8042		5.859375
8043		13.671875
8044		11.718750
8045		17.578125
8046		15.625000
8047		21.484375
8048		21.484375
8049		27.343750
8050		25.390625
8051		31.250000
8052		29.296875
8053		35.156250
8054		33.203125
8055		39.062500
8056		37.109375
8057		42.968750
8058		42.968750
8059		46.875000
8060		46.875000
8061		52.734375
8062		50.781250
8063		56.640625
8064		52.734375
8065		58.593750
8066		58.593750
8067		62.500000
8068		62.500000
8069		66.406250
8070		64.453125
8071		70.312500
8072		68.359375
8073		74.218750
8074		70.312500
8075		78.125000
8076		72.265625
8077		80.078125
8078		76.171875
8079		82.031250
8080		80.078125
8081		83.984375
8082		82.031250
8083		85.937500
8084		83.984375
8085		87.890625
8086		85.937500
8087		91.796875
8088		87.890625
8089		93.750000
8090		89.843750
8091		95.703125
8092		89.843750
8093		95.703125
8094		91.796875
8095		97.656250
8096		93.750000
8097		99.609375
8098		93.750000
8099		97.656250
8100		95.703125
8101		99.609375
8102		95.703125
8103		99.609375
8104		95.703125
8105		99.609375
8106		95.703125
8107		101.562500
8108		95.703125
8109		101.562500
8110		95.703125
8111		99.609375
8112		95.703125
8113		99.609375
8114		95.703125
8115		99.609375
8116		93.750000
8117		97.656250
8118		91.796875
8119		95.703125
8120		91.796875
8121		95.703125
8122		89.843750
8123		93.750000
8124		85.937500
8125		93.750000
8126		85.937500
8127		91.796875
8128		83.984375
8129		89.843750
8130		80.078125
8131		87.890625
8132		80.078125
8133		83.984375
8134		76.171875
8135		80.078125
8136		72.265625
8137		78.125000
8138		70.312500
8139		76.171875
8140		66.406250
8141		72.265625
8142		64.453125
8143		70.312500
8144		60.546875
8145		66.406250
8146		56.640625
8147		62.500000
8148		52.734375
8149		58.593750
8150		48.828125
8151		54.687500
8152		44.921875
8153		50.781250
8154		41.015625
8155		46.875000
8156		37.109375
8157		42.968750
8158		31.250000
8159		39.062500
8160		27.343750
8161		35.156250
8162		23.437500
8163		29.296875
8164		19.531250
8165		25.390625
8166		13.671875
8167		21.484375
8168		9.765625
8169		15.625000
8170		5.859375
8171		11.718750
8172		0.000000
8173		7.812500
8174		-3.906250
8175		1.953125
8176		-9.765625
8177		-1.953125
8178		-13.671875
8179		-7.812500
8180		-19.531250
8181		-11.718750
8182		-23.437500
8183		-17.578125
8184		-27.343750
8185		-21.484375
8186		-31.250000
8187		-25.390625
8188		-37.109375
8189		-31.250000
8190		-41.015625
8191		-35.156250
8192		-44.921875
8193		-39.062500
8194		-48.828125
8195		-42.968750
8196		-52.734375
8197		-46.875000
8198		-56.640625
8199		-50.781250
8200		-60.546875
8201		-54.687500
8202		-64.453125
8203		-58.593750
8204		-66.406250
8205		-62.500000
8206		-70.312500
8207		-64.453125
8208		-74.218750
8209		-68.359375
8210		-74.218750
8211		-70.312500
8212		-78.125000
8213		-74.218750
8214		-82.031250
8215		-76.171875
8216		-82.031250
8217		-78.125000
8218		-83.984375
8219		-80.078125
8220		-85.937500
8221		-82.031250
8222		-85.937500
8223		-83.984375
8224		-87.890625
8225		-83.984375
8226		-89.843750
8227		-83.984375
8228		-87.890625
8229		-85.937500
8230		-89.843750
8231		-85.937500
8232		-89.843750
8233		-85.937500
8234		-89.843750
8235		-85.937500
8236		-89.843750
8237		-85.937500
8238		-87.890625
8239		-85.937500
8240		-87.890625
8241		-83.984375
8242		-87.890625
8243		-82.031250
8244		-85.937500
8245		-82.031250
8246		-83.984375
8247		-80.078125
8248		-82.031250
8249		-78.125000
8250		-80.078125
8251		-76.171875
8252		-78.125000
8253		-74.218750
8254		-76.171875
8255		-70.312500
8256		-72.265625
8257		-68.359375
8258		-70.312500
8259		-64.453125
8260		-68.359375
8261		-62.500000
8262		-64.453125
8263		-58.593750
8264		-60.546875
8265		-54.687500
8266		-58.593750
8267		-50.781250
8268		-52.734375
8269		-48.828125
8270		-48.828125
8271		-42.968750
8272		-44.921875
8273		-39.062500
8274		-41.015625
8275		-35.156250
8276		-37.109375
8277		-31.250000
8278		-33.203125
8279		-27.343750
8280		-27.343750
8281		-21.484375
8282		-23.437500
8283		-17.578125
8284		-19.531250
8285		-13.671875
8286		-13.671875
8287		-7.812500
8288		-9.765625
8289		-3.906250
8290		-5.859375
8291		1.953125
8292		0.000000
8293		5.859375
8294		3.906250
8295		9.765625
8296		9.765625
8297		15.625000
8298		13.671875
8299		19.531250
8300		17.578125
8301		23.437500
8302		23.437500
8303		29.296875
8304		27.343750
8305		33.203125
8306		31.250000
8307		37.109375
8308		35.156250
8309		42.968750
8310		39.062500
8311		44.921875
8312		42.968750
8313		50.781250
8314		48.828125
8315		52.734375
8316		50.781250
8317		56.640625
8318		56.640625
8319		60.546875
8320		60.546875
8321		64.453125
8322		62.500000
8323		68.359375
8324		66.406250
8325		72.265625
8326		70.312500
8327		74.218750
8328		72.265625
8329		78.125000
8330		76.171875
8331		80.078125
8332		78.125000
8333		83.984375
8334		82.031250
8335		85.937500
8336		83.984375
8337		87.890625
8338		85.937500
8339		89.843750
8340		87.890625
8341		91.796875
8342		87.890625
8343		91.796875
8344		91.796875
8345		95.703125
8346		91.796875
8347		95.703125
8348		93.750000
8349		97.656250
8350		93.750000
8351		97.656250
8352		95.703125
8353		97.656250
8354		95.703125
8355		99.609375
8356		95.703125
8357		99.609375
8358		97.656250
8359		99.609375
8360		95.703125
8361		99.609375
8362		97.656250
8363		99.609375
8364		95.703125
8365		99.609375
8366		95.703125
8367		99.609375
8368		95.703125
8369		97.656250
8370		93.750000
8371		97.656250
8372		91.796875
8373		97.656250
8374		91.796875
8375		95.703125
8376		89.843750
8377		93.750000
8378		87.890625
8379		91.796875
8380		85.937500
8381		89.843750
8382		83.984375
8383		87.890625
8384		82.031250
8385		85.937500
8386		78.125000
8387		82.031250
8388		76.171875
8389		80.078125
8390		72.265625
8391		78.125000
8392		70.312500
8393		74.218750
8394		66.406250
8395		72.265625
8396		62.500000
8397		68.359375
8398		58.593750
8399		64.453125
8400		54.687500
8401		62.500000
8402		52.734375
8403		56.640625
8404		46.875000
8405		52.734375
8406		44.921875
8407		48.828125
8408		39.062500
8409		44.921875
8410		35.156250
8411		41.015625
8412		31.250000
8413		37.109375
8414		27.343750
8415		33.203125
8416		21.484375
8417		27.343750
8418		17.578125
8419		23.437500
8420		13.671875
8421		19.531250
8422		7.812500
8423		13.671875
8424		3.906250
8425		9.765625
8426		-1.953125
8427		5.859375
8428		-5.859375
8429		0.000000
8430		-11.718750
8431		-3.906250
8432		-15.625000
8433		-9.765625
8434		-19.531250
8435		-13.671875
8436		-25.390625
8437		-17.578125
8438		-29.296875
8439		-23.437500
8440		-33.203125
8441		-27.343750
8442		-39.062500
8443		-31.250000
8444		-41.015625
8445		-37.109375
8446		-46.875000
8447		-39.062500
8448		-50.781250
8449		-44.921875
8450		-54.687500
8451		-48.828125
8452		-56.640625
8453		-52.734375
8454		-60.546875
8455		-56.640625
8456		-64.453125
8457		-58.593750
8458		-68.359375
8459		-62.500000
8460		-70.312500
8461		-66.406250
8462		-74.218750
8463		-68.359375
8464		-76.171875
8465		-70.312500
8466		-78.125000
8467		-74.218750
8468		-80.078125
8469		-76.171875
8470		-82.031250
8471		-78.125000
8472		-83.984375
8473		-80.078125
8474		-85.937500
8475		-82.031250
8476		-85.937500
8477		-83.984375
8478		-87.890625
8479		-83.984375
8480		-89.843750
8481		-83.984375
8482		-89.843750
8483		-85.937500
8484		-89.843750
8485		-85.937500
8486		-89.843750
8487		-85.937500
8488		-89.843750
8489		-85.937500
8490		-87.890625
8491		-85.937500
8492		-87.890625
8493		-85.937500
8494		-87.890625
8495		-83.984375
8496		-87.890625
8497		-82.031250
8498		-83.984375
8499		-82.031250
8500		-83.984375
8501		-78.125000
8502		-80.078125
8503		-78.125000
8504		-80.078125
8505		-76.171875
8506		-78.125000
8507		-72.265625
8508		-74.218750
8509		-70.312500
8510		-72.265625
8511		-66.406250
8512		-68.359375
8513		-64.453125
8514		-66.406250
8515		-60.546875
8516		-62.500000
8517		-56.640625
8518		-58.593750
8519		-54.687500
8520		-56.640625
8521		-50.781250
8522		-50.781250
8523		-44.921875
8524		-46.875000
8525		-42.968750
8526		-42.968750
8527		-37.109375
8528		-39.062500
8529		-33.203125
8530		-35.156250
8531		-29.296875
8532		-31.250000
8533		-25.390625
8534		-27.343750
8535		-21.484375
8536		-21.484375
8537		-15.625000
8538		-17.578125
8539		-11.718750
8540		-13.671875
8541		-5.859375
8542		-7.812500
8543		-1.953125
8544		-3.906250
8545		1.953125
8546		1.953125
8547		7.812500
8548		5.859375
8549		11.718750
8550		9.765625
8551		15.625000
8552		13.671875
8553		21.484375
8554		19.531250
8555		25.390625
8556		23.437500
8557		29.296875
8558		27.343750
8559		35.156250
8560		33.203125
8561		39.062500
8562		37.109375
8563		42.968750
8564		41.015625
8565		46.875000
8566		44.921875
8567		50.781250
8568		48.828125
8569		54.687500
8570		52.734375
8571		58.593750
8572		56.640625
8573		62.500000
8574		60.546875
8575		66.406250
8576		64.453125
8577		68.359375
8578		66.406250
8579		72.265625
8580		70.312500
8581		76.171875
8582		72.265625
8583		78.125000
8584		76.171875
8585		82.031250
8586		80.078125
8587		83.984375
8588		82.031250
8589		85.937500
8590		83.984375
8591		87.890625
8592		85.937500
8593		89.843750
8594		87.890625
8595		91.796875
8596		89.843750
8597		93.750000
8598		91.796875
8599		95.703125
8600		93.750000
8601		95.703125
8602		93.750000
8603		97.656250
8604		95.703125
8605		97.656250
8606		95.703125
8607		99.609375
8608		95.703125
8609		99.609375
8610		95.703125
8611		99.609375
8612		95.703125
8613		99.609375
8614		95.703125
8615		99.609375
8616		97.656250
8617		99.609375
8618		95.703125
8619		99.609375
8620		95.703125
8621		97.656250
8622		93.750000
8623		97.656250
8624		93.750000
8625		97.656250
8626		91.796875
8627		95.703125
8628		91.796875
8629		93.750000
8630		87.890625
8631		91.796875
8632		87.890625
8633		91.796875
8634		83.984375
8635		89.843750
8636		82.031250
8637		87.890625
8638		80.078125
8639		83.984375
8640		78.125000
8641		82.031250
8642		74.218750
8643		80.078125
8644		72.265625
8645		76.171875
8646		68.359375
8647		74.218750
8648		64.453125
8649		70.312500
8650		62.500000
8651		66.406250
8652		58.593750
8653		62.500000
8654		54.687500
8655		60.546875
8656		48.828125
8657		54.687500
8658		46.875000
8659		52.734375
8660		42.968750
8661		46.875000
8662		37.109375
8663		42.968750
8664		33.203125
8665		39.062500
8666		29.296875
8667		35.156250
8668		23.437500
8669		31.250000
8670		19.531250
8671		25.390625
8672		15.625000
8673		21.484375
8674		9.765625
8675		17.578125
8676		5.859375
8677		11.718750
8678		1.953125
8679		7.812500
8680		-3.906250
8681		1.953125
8682		-7.812500
8683		-1.953125
8684		-11.718750
8685		-5.859375
8686		-17.578125
8687		-9.765625
8688		-21.484375
8689		-15.625000
8690		-27.343750
8691		-19.531250
8692		-31.250000
8693		-25.390625
8694		-35.156250
8695		-29.296875
8696		-39.062500
8697		-33.203125
8698		-44.921875
8699		-37.109375
8700		-46.875000
8701		-42.968750
8702		-50.781250
8703		-46.875000
8704		-54.687500
8705		-50.781250
8706		-58.593750
8707		-54.687500
8708		-62.500000
8709		-56.640625
8710		-66.406250
8711		-60.546875
8712		-70.312500
8713		-64.453125
8714		-72.265625
8715		-68.359375
8716		-74.218750
8717		-70.312500
8718		-78.125000
8719		-72.265625
8720		-80.078125
8721		-74.218750
8722		-82.031250
8723		-78.125000
8724		-83.984375
8725		-78.125000
8726		-85.937500
8727		-82.031250
8728		-85.937500
8729		-82.031250
8730		-87.890625
8731		-83.984375
8732		-87.890625
8733		-85.937500
8734		-89.843750
8735		-85.937500
8736		-89.843750
8737		-85.937500
8738		-89.843750
8739		-85.937500
8740		-89.843750
8741		-85.937500
8742		-89.843750
8743		-85.937500
8744		-87.890625
8745		-85.937500
8746		-87.890625
8747		-83.984375
8748		-85.937500
8749		-83.984375
8750		-85.937500
8751		-82.031250
8752		-83.984375
8753		-80.078125
8754		-82.031250
8755		-78.125000
8756		-80.078125
8757		-76.171875
8758		-80.078125
8759		-74.218750
8760		-76.171875
8761		-72.265625
8762		-74.218750
8763		-70.312500
8764		-70.312500
8765		-66.406250
8766		-68.359375
8767		-62.500000
8768		-64.453125
8769		-60.546875
8770		-62.500000
8771		-56.640625
8772		-58.593750
8773		-52.734375
8774		-54.687500
8775		-48.828125
8776		-50.781250
8777		-44.921875
8778		-46.875000
8779		-39.062500
8780		-42.968750
8781		-37.109375
8782		-39.062500
8783		-31.250000
8784		-33.203125
8785		-27.343750
8786		-29.296875
8787		-23.437500
8788		-25.390625
8789		-19.531250
8790		-19.531250
8791		-13.671875
8792		-17.578125
8793		-9.765625
8794		-11.718750
8795		-3.906250
8796		-5.859375
8797		0.000000
8798		-1.953125
8799		3.906250
8800		3.906250
8801		9.765625
8802		7.812500
8803		13.671875
8804		11.718750
8805		17.578125
8806		17.578125
8807		21.484375
8808		21.484375
8809		27.343750
8810		25.390625
8811		31.250000
8812		29.296875
8813		35.156250
8814		35.156250
8815		41.015625
8816		39.062500
8817		44.921875
8818		42.968750
8819		48.828125
8820		46.875000
8821		52.734375
8822		50.781250
8823		56.640625
8824		54.687500
8825		60.546875
8826		58.593750
8827		64.453125
8828		60.546875
8829		66.406250
8830		64.453125
8831		70.312500
8832		68.359375
8833		74.218750
8834		72.265625
8835		76.171875
8836		74.218750
8837		80.078125
8838		78.125000
8839		82.031250
8840		80.078125
8841		83.984375
8842		82.031250
8843		85.937500
8844		83.984375
8845		87.890625
8846		85.937500
8847		89.843750
8848		87.890625
8849		91.796875
8850		89.843750
8851		93.750000
8852		91.796875
8853		95.703125
8854		91.796875
8855		95.703125
8856		93.750000
8857		97.656250
8858		93.750000
8859		99.609375
8860		95.703125
8861		99.609375
8862		95.703125
8863		99.609375
8864		97.656250
8865		99.609375
8866		97.656250
8867		99.609375
8868		97.656250
8869		99.609375
8870		95.703125
8871		99.609375
8872		95.703125
8873		99.609375
8874		95.703125
8875		97.656250
8876		93.750000
8877		97.656250
8878		93.750000
8879		95.703125
8880		91.796875
8881		95.703125
8882		89.843750
8883		93.750000
8884		87.890625
8885		91.796875
8886		85.937500
8887		89.843750
8888		83.984375
8889		87.890625
8890		82.031250
8891		85.937500
8892		78.125000
8893		83.984375
8894		76.171875
8895		82.031250
8896		74.218750
8897		78.125000
8898		70.312500
8899		76.171875
8900		68.359375
8901		72.265625
8902		64.453125
8903		68.359375
8904		60.546875
8905		66.406250
8906		56.640625
8907		62.500000
8908		52.734375
8909		58.593750
8910		48.828125
8911		54.687500
8912		44.921875
8913		50.781250
8914		41.015625
8915		46.875000
8916		37.109375
8917		41.015625
8918		33.203125
8919		39.062500
8920		27.343750
8921		33.203125
8922		23.437500
8923		29.296875
8924		19.531250
8925		25.390625
8926		13.671875
8927		19.531250
8928		9.765625
8929		15.625000
8930		3.906250
8931		9.765625
8932		0.000000
8933		5.859375
8934		-5.859375
8935		1.953125
8936		-9.765625
8937		-3.906250
8938		-13.671875
8939		-7.812500
8940		-19.531250
8941		-11.718750
8942		-23.437500
8943		-17.578125
8944		-27.343750
8945		-21.484375
8946		-33.203125
8947		-27.343750
8948		-37.109375
8949		-31.250000
8950		-41.015625
8951		-35.156250
8952		-44.921875
8953		-39.062500
8954		-50.781250
8955		-42.968750
8956		-52.734375
8957		-46.875000
8958		-56.640625
8959		-50.781250
8960		-60.546875
8961		-54.687500
8962		-64.453125
8963		-58.593750
8964		-66.406250
8965		-60.546875
8966		-70.312500
8967		-66.406250
8968		-72.265625
8969		-68.359375
8970		-76.171875
8971		-70.312500
8972		-78.125000
8973		-72.265625
8974		-80.078125
8975		-76.171875
8976		-82.031250
8977		-78.125000
8978		-83.984375
8979		-80.078125
8980		-85.937500
8981		-82.031250
8982		-87.890625
8983		-82.031250
8984		-87.890625
8985		-83.984375
8986		-89.843750
8987		-83.984375
8988		-89.843750
8989		-85.937500
8990		-89.843750
8991		-85.937500
8992		-89.843750
8993		-87.890625
8994		-89.843750
8995		-85.937500
8996		-89.843750
8997		-85.937500
8998		-87.890625
8999		-85.937500
9000		-87.890625
9001		-83.984375
9002		-85.937500
9003		-82.031250
9004		-85.937500
9005		-80.078125
9006		-83.984375
9007		-80.078125
9008		-82.031250
9009		-78.125000
9010		-80.078125
9011		-76.171875
9012		-78.125000
9013		-74.218750
9014		-74.218750
9015		-70.312500
9016		-72.265625
9017		-68.359375
9018		-70.312500
9019		-64.453125
9020		-66.406250
9021		-62.500000
9022		-64.453125
9023		-58.593750
9024		-60.546875
9025		-54.687500
9026		-56.640625
9027		-50.781250
9028		-52.734375
9029		-46.875000
9030		-48.828125
9031		-42.968750
9032		-44.921875
9033		-39.062500
9034		-41.015625
9035		-33.203125
9036		-37.109375
9037		-31.250000
9038		-33.203125
9039		-25.390625
9040		-27.343750
9041		-21.484375
9042		-23.437500
9043		-17.578125
9044		-19.531250
9045		-11.718750
9046		-13.671875
9047		-7.812500
9048		-9.765625
9049		-3.906250
9050		-3.906250
9051		1.953125
9052		-1.953125
9053		5.859375
9054		3.906250
9055		11.718750
9056		9.765625
9057		15.625000
9058		13.671875
9059		19.531250
9060		19.531250
9061		23.437500
9062		23.437500
9063		29.296875
9064		27.343750
9065		33.203125
9066		31.250000
9067		37.109375
9068		35.156250
9069		41.015625
9070		41.015625
9071		46.875000
9072		44.921875
9073		50.781250
9074		48.828125
9075		52.734375
9076		52.734375
9077		56.640625
9078		54.687500
9079		60.546875
9080		58.593750
9081		64.453125
9082		64.453125
9083		68.359375
9084		66.406250
9085		70.312500
9086		70.312500
9087		74.218750
9088		72.265625
9089		78.125000
9090		76.171875
9091		80.078125
9092		78.125000
9093		82.031250
9094		80.078125
9095		85.937500
9096		82.031250
9097		87.890625
9098		85.937500
9099		89.843750
9100		87.890625
9101		91.796875
9102		89.843750
9103		93.750000
9104		91.796875
9105		93.750000
9106		91.796875
9107		95.703125
9108		93.750000
9109		95.703125
9110		93.750000
9111		99.609375
9112		95.703125
9113		99.609375
9114		95.703125
9115		99.609375
9116		95.703125
9117		99.609375
9118		97.656250
9119		99.609375
9120		97.656250
9121		99.609375
9122		95.703125
9123		99.609375
9124		95.703125
9125		99.609375
9126		95.703125
9127		97.656250
9128		95.703125
9129		97.656250
9130		93.750000
9131		97.656250
9132		91.796875
9133		95.703125
9134		91.796875
9135		93.750000
9136		89.843750
9137		93.750000
9138		87.890625
9139		91.796875
9140		85.937500
9141		89.843750
9142		83.984375
9143		87.890625
9144		80.078125
9145		85.937500
9146		78.125000
9147		82.031250
9148		76.171875
9149		80.078125
9150		72.265625
9151		78.125000
9152		70.312500
9153		74.218750
9154		66.406250
9155		72.265625
9156		62.500000
9157		68.359375
9158		58.593750
9159		64.453125
9160		54.687500
9161		60.546875
9162		50.781250
9163		58.593750
9164		46.875000
9165		52.734375
9166		42.968750
9167		48.828125
9168		39.062500
9169		44.921875
9170		35.156250
9171		41.015625
9172		31.250000
9173		37.109375
9174		25.390625
9175		33.203125
9176		21.484375
9177		27.343750
9178		17.578125
9179		23.437500
9180		11.718750
9181		17.578125
9182		7.812500
9183		13.671875
9184		1.953125
9185		9.765625
9186		-1.953125
9187		3.906250
9188		-5.859375
9189		0.000000
9190		-11.718750
9191		-3.906250
9192		-15.625000
9193		-9.765625
9194		-21.484375
9195		-13.671875
9196		-25.390625
9197		-19.531250
9198		-29.296875
9199		-23.437500
9200		-33.203125
9201		-27.343750
9202		-37.109375
9203		-33.203125
9204		-42.968750
9205		-35.156250
9206		-46.875000
9207		-41.015625
9208		-50.781250
9209		-44.921875
9210		-54.687500
9211		-48.828125
9212		-58.593750
9213		-52.734375
9214		-60.546875
9215		-56.640625
9216		-64.453125
9217		-60.546875
9218		-68.359375
9219		-62.500000
9220		-70.312500
9221		-66.406250
9222		-74.218750
9223		-70.312500
9224		-76.171875
9225		-72.265625
9226		-78.125000
9227		-74.218750
9228		-82.031250
9229		-76.171875
9230		-82.031250
9231		-78.125000
9232		-83.984375
9233		-80.078125
9234		-85.937500
9235		-82.031250
9236		-87.890625
9237		-83.984375
9238		-87.890625
9239		-83.984375
9240		-89.843750
9241		-85.937500
9242		-89.843750
9243		-85.937500
9244		-89.843750
9245		-85.937500
9246		-89.843750
9247		-85.937500
9248		-89.843750
9249		-85.937500
9250		-89.843750
9251		-85.937500
9252		-87.890625
9253		-83.984375
9254		-87.890625
9255		-83.984375
9256		-85.937500
9257		-82.031250
9258		-85.937500
9259		-82.031250
9260		-82.031250
9261		-78.125000
9262		-82.031250
9263		-78.125000
9264		-78.125000
9265		-74.218750
9266		-76.171875
9267		-72.265625
9268		-74.218750
9269		-70.312500
9270		-72.265625
9271		-66.406250
9272		-68.359375
9273		-64.453125
9274		-64.453125
9275		-60.546875
9276		-62.500000
9277		-56.640625
9278		-60.546875
9279		-52.734375
9280		-54.687500
9281		-48.828125
9282		-50.781250
9283		-44.921875
9284		-48.828125
9285		-42.968750
9286		-42.968750
9287		-37.109375
9288		-39.062500
9289		-33.203125
9290		-35.156250
9291		-29.296875
9292		-31.250000
9293		-25.390625
9294		-25.390625
9295		-19.531250
9296		-21.484375
9297		-15.625000
9298		-17.578125
9299		-11.718750
9300		-11.718750
9301		-5.859375
9302		-7.812500
9303		-1.953125
9304		-3.906250
9305		1.953125
9306		1.953125
9307		7.812500
9308		5.859375
9309		11.718750
9310		11.718750
9311		17.578125
9312		15.625000
9313		21.484375
9314		19.531250
9315		25.390625
9316		25.390625
9317		31.250000
9318		29.296875
9319		35.156250
9320		33.203125
9321		39.062500
9322		37.109375
9323		42.968750
9324		41.015625
9325		46.875000
9326		46.875000
9327		50.781250
9328		48.828125
9329		54.687500
9330		52.734375
9331		58.593750
9332		56.640625
9333		64.453125
9334		60.546875
9335		66.406250
9336		64.453125
9337		70.312500
9338		68.359375
9339		72.265625
9340		70.312500
9341		76.171875
9342		74.218750
9343		78.125000
9344		76.171875
9345		80.078125
9346		80.078125
9347		83.984375
9348		82.031250
9349		85.937500
9350		83.984375
9351		87.890625
9352		85.937500
9353		89.843750
9354		87.890625
9355		91.796875
9356		89.843750
9357		93.750000
9358		91.796875
9359		95.703125
9360		93.750000
9361		95.703125
9362		93.750000
9363		97.656250
9364		95.703125
9365		97.656250
9366		95.703125
9367		99.609375
9368		95.703125
9369		99.609375
9370		95.703125
9371		99.609375
9372		95.703125
9373		99.609375
9374		95.703125
9375		99.609375
9376		97.656250
9377		99.609375
9378		95.703125
9379		97.656250
9380		93.750000
9381		99.609375
9382		93.750000
9383		97.656250
9384		93.750000
9385		95.703125
9386		91.796875
9387		95.703125
9388		89.843750
9389		93.750000
9390		87.890625
9391		91.796875
9392		85.937500
9393		89.843750
9394		83.984375
9395		87.890625
9396		82.031250
9397		85.937500
9398		80.078125
9399		83.984375
9400		76.171875
9401		82.031250
9402		74.218750
9403		78.125000
9404		70.312500
9405		76.171875
9406		68.359375
9407		72.265625
9408		64.453125
9409		70.312500
9410		60.546875
9411		66.406250
9412		56.640625
9413		62.500000
9414		54.687500
9415		60.546875
9416		48.828125
9417		54.687500
9418		46.875000
9419		50.781250
9420		41.015625
9421		46.875000
9422		37.109375
9423		42.968750
9424		33.203125
9425		39.062500
9426		27.343750
9427		35.156250
9428		25.390625
9429		31.250000
9430		19.531250
9431		25.390625
9432		13.671875
9433		21.484375
9434		9.765625
9435		15.625000
9436		5.859375
9437		11.718750
9438		0.000000
9439		7.812500
9440		-3.906250
9441		1.953125
9442		-7.812500
9443		-1.953125
9444		-13.671875
9445		-7.812500
9446		-17.578125
9447		-11.718750
9448		-23.437500
9449		-15.625000
9450		-27.343750
9451		-19.531250
9452		-31.250000
9453		-25.390625
9454		-35.156250
9455		-29.296875
9456		-41.015625
9457		-33.203125
9458		-44.921875
9459		-39.062500
9460		-48.828125
9461		-42.968750
9462		-52.734375
9463		-46.875000
9464		-54.687500
9465		-50.781250
9466		-58.593750
9467		-52.734375
9468		-64.453125
9469		-58.593750
9470		-66.406250
9471		-60.546875
9472		-70.312500
9473		-64.453125
9474		-72.265625
9475		-66.406250
9476		-74.218750
9477		-70.312500
9478		-78.125000
9479		-72.265625
9480		-80.078125
9481		-76.171875
9482		-82.031250
9483		-76.171875
9484		-83.984375
9485		-80.078125
9486		-83.984375
9487		-82.031250
9488		-85.937500
9489		-82.031250
9490		-87.890625
9491		-83.984375
9492		-87.890625
9493		-83.984375
9494		-89.843750
9495		-85.937500
9496		-89.843750
9497		-85.937500
9498		-89.843750
9499		-85.937500
9500		-89.843750
9501		-85.937500
9502		-89.843750
9503		-85.937500
9504		-87.890625
9505		-85.937500
9506		-87.890625
9507		-83.984375
9508		-87.890625
9509		-82.031250
9510		-87.890625
9511		-82.031250
9512		-83.984375
9513		-80.078125
9514		-82.031250
9515		-78.125000
9516		-80.078125
9517		-76.171875
9518		-78.125000
9519		-74.218750
9520		-76.171875
9521		-70.312500
9522		-72.265625
9523		-68.359375
9524		-70.312500
9525		-66.406250
9526		-68.359375
9527		-62.500000
9528		-64.453125
9529		-58.593750
9530		-60.546875
9531		-54.687500
9532		-56.640625
9533		-52.734375
9534		-54.687500
9535		-48.828125
9536		-50.781250
9537		-44.921875
9538		-44.921875
9539		-41.015625
9540		-41.015625
9541		-35.156250
9542		-37.109375
9543		-31.250000
9544		-33.203125
9545		-27.343750
9546		-29.296875
9547		-23.437500
9548		-23.437500
9549		-17.578125
9550		-19.531250
9551		-13.671875
9552		-15.625000
9553		-7.812500
9554		-11.718750
9555		-3.906250
9556		-5.859375
9557		0.000000
9558		-1.953125
9559		3.906250
9560		3.906250
9561		9.765625
9562		7.812500
9563		13.671875
9564		11.718750
9565		19.531250
9566		15.625000
9567		23.437500
9568		21.484375
9569		27.343750
9570		25.390625
9571		31.250000
9572		31.250000
9573		37.109375
9574		35.156250
9575		41.015625
9576		39.062500
9577		44.921875
9578		42.968750
9579		48.828125
9580		46.875000
9581		52.734375
9582		50.781250
9583		56.640625
9584		54.687500
9585		60.546875
9586		58.593750
9587		64.453125
9588		62.500000
9589		68.359375
9590		66.406250
9591		70.312500
9592		70.312500
9593		74.218750
9594		70.312500
9595		76.171875
9596		74.218750
9597		80.078125
9598		78.125000
9599		82.031250
9600		80.078125
9601		83.984375
9602		82.031250
9603		87.890625
9604		83.984375
9605		89.843750
9606		87.890625
9607		89.843750
9608		87.890625
9609		93.750000
9610		89.843750
9611		93.750000
9612		91.796875
9613		95.703125
9614		93.750000
9615		95.703125
9616		93.750000
9617		97.656250
9618		95.703125
9619		97.656250
9620		95.703125
9621		99.609375
9622		95.703125
9623		99.609375
9624		95.703125
9625		99.609375
9626		95.703125
9627		99.609375
9628		97.656250
9629		99.609375
9630		95.703125
9631		99.609375
9632		95.703125
9633		99.609375
9634		95.703125
9635		99.609375
9636		93.750000
9637		97.656250
9638		93.750000
9639		95.703125
9640		91.796875
9641		95.703125
9642		89.843750
9643		93.750000
9644		87.890625
9645		91.796875
9646		85.937500
9647		89.843750
9648		83.984375
9649		87.890625
9650		82.031250
9651		85.937500
9652		78.125000
9653		83.984375
9654		76.171875
9655		82.031250
9656		72.265625
9657		78.125000
9658		70.312500
9659		74.218750
9660		66.406250
9661		72.265625
9662		62.500000
9663		68.359375
9664		60.546875
9665		64.453125
9666		56.640625
9667		62.500000
9668		52.734375
9669		58.593750
9670		48.828125
9671		54.687500
9672		44.921875
9673		50.781250
9674		41.015625
9675		46.875000
9676		35.156250
9677		41.015625
9678		31.250000
9679		37.109375
9680		27.343750
9681		33.203125
9682		23.437500
9683		29.296875
9684		17.578125
9685		23.437500
9686		13.671875
9687		19.531250
9688		7.812500
9689		15.625000
9690		3.906250
9691		11.718750
9692		-1.953125
9693		5.859375
9694		-5.859375
9695		1.953125
9696		-9.765625
9697		-3.906250
9698		-15.625000
9699		-7.812500
9700		-19.531250
9701		-11.718750
9702		-23.437500
9703		-17.578125
9704		-27.343750
9705		-21.484375
9706		-35.156250
9707		-27.343750
9708		-37.109375
9709		-31.250000
9710		-41.015625
9711		-33.203125
9712		-44.921875
9713		-39.062500
9714		-48.828125
9715		-42.968750
9716		-54.687500
9717		-46.875000
9718		-58.593750
9719		-50.781250
9720		-60.546875
9721		-54.687500
9722		-64.453125
9723		-58.593750
9724		-68.359375
9725		-60.546875
9726		-72.265625
9727		-62.500000
9728		-74.218750
9729		-66.406250
9730		-76.171875
9731		-72.265625
9732		-80.078125
9733		-74.218750
9734		-82.031250
9735		-76.171875
9736		-83.984375
9737		-76.171875
9738		-85.937500
9739		-80.078125
9740		-87.890625
9741		-80.078125
9742		-87.890625
9743		-82.031250
9744		-89.843750
9745		-83.984375
9746		-89.843750
9747		-85.937500
9748		-87.890625
9749		-85.937500
9750		-89.843750
9751		-85.937500
9752		-89.843750
9753		-85.937500
9754		-89.843750
9755		-85.937500
9756		-89.843750
9757		-85.937500
9758		-89.843750
9759		-83.984375
9760		-87.890625
9761		-83.984375
9762		-85.937500
9763		-83.984375
9764		-85.937500
9765		-82.031250
9766		-83.984375
9767		-78.125000
9768		-83.984375
9769		-76.171875
9770		-82.031250
9771		-74.218750
9772		-80.078125
9773		-72.265625
9774		-76.171875
9775		-68.359375
9776		-74.218750
9777		-66.406250
9778		-72.265625
9779		-64.453125
9780		-66.406250
9781		-60.546875
9782		-62.500000
9783		-58.593750
9784		-62.500000
9785		-52.734375
9786		-58.593750
9787		-48.828125
9788		-54.687500
9789		-44.921875
9790		-50.781250
9791		-41.015625
9792		-46.875000
9793		-37.109375
9794		-42.968750
9795		-33.203125
9796		-37.109375
9797		-31.250000
9798		-31.250000
9799		-25.390625
9800		-27.343750
9801		-19.531250
9802		-23.437500
9803		-15.625000
9804		-19.531250
9805		-11.718750
9806		-15.625000
9807		-5.859375
9808		-11.718750
9809		-1.953125
9810		-5.859375
9811		3.906250
9812		-1.953125
9813		5.859375
9814		5.859375
9815		11.718750
9816		9.765625
9817		17.578125
9818		11.718750
9819		21.484375
9820		17.578125
9821		25.390625
9822		21.484375
9823		31.250000
9824		25.390625
9825		35.156250
9826		29.296875
9827		39.062500
9828		35.156250
9829		42.968750
9830		41.015625
9831		46.875000
9832		44.921875
9833		50.781250
9834		48.828125
9835		56.640625
9836		50.781250
9837		60.546875
9838		54.687500
9839		62.500000
9840		58.593750
9841		66.406250
9842		60.546875
9843		70.312500
9844		64.453125
9845		74.218750
9846		68.359375
9847		74.218750
9848		72.265625
9849		78.125000
9850		76.171875
9851		82.031250
9852		78.125000
9853		83.984375
9854		80.078125
9855		87.890625
9856		82.031250
9857		89.843750
9858		83.984375
9859		91.796875
9860		85.937500
9861		93.750000
9862		85.937500
9863		95.703125
9864		91.796875
9865		93.750000
9866		91.796875
9867		95.703125
9868		91.796875
9869		99.609375
9870		91.796875
9871		99.609375
9872		93.750000
9873		101.562500
9874		93.750000
9875		101.562500
9876		93.750000
9877		101.562500
9878		95.703125
9879		101.562500
9880		95.703125
9881		99.609375
9882		97.656250
9883		99.609375
9884		93.750000
9885		101.562500
9886		93.750000
9887		99.609375
9888		91.796875
9889		99.609375
9890		91.796875
9891		99.609375
9892		89.843750
9893		97.656250
9894		87.890625
9895		95.703125
9896		87.890625
9897		95.703125
9898		87.890625
9899		91.796875
9900		83.984375
9901		89.843750
9902		80.078125
9903		89.843750
9904		78.125000
9905		85.937500
9906		76.171875
9907		83.984375
9908		72.265625
9909		82.031250
9910		70.312500
9911		78.125000
9912		66.406250
9913		76.171875
9914		66.406250
9915		70.312500
9916		62.500000
9917		66.406250
9918		56.640625
9919		64.453125
9920		52.734375
9921		62.500000
9922		48.828125
9923		58.593750
9924		44.921875
9925		54.687500
9926		41.015625
9927		50.781250
9928		37.109375
9929		46.875000
9930		35.156250
9931		42.968750
9932		29.296875
9933		35.156250
9934		23.437500
9935		31.250000
9936		17.578125
9937		29.296875
9938		13.671875
9939		25.390625
9940		7.812500
9941		19.531250
9942		3.906250
9943		13.671875
9944		0.000000
9945		9.765625
9946		-1.953125
9947		5.859375
9948		-7.812500
9949		-1.953125
9950		-11.718750
9951		-5.859375
9952		-17.578125
9953		-7.812500
9954		-23.437500
9955		-13.671875
9956		-27.343750
9957		-17.578125
9958		-33.203125
9959		-23.437500
9960		-37.109375
9961		-27.343750
9962		-41.015625
9963		-31.250000
9964		-42.968750
9965		-37.109375
9966		-46.875000
9967		-41.015625
9968		-52.734375
9969		-44.921875
9970		-56.640625
9971		-46.875000
9972		-60.546875
9973		-50.781250
9974		-64.453125
9975		-54.687500
9976		-68.359375
9977		-58.593750
9978		-70.312500
9979		-62.500000
9980		-72.265625
9981		-64.453125
9982		-74.218750
9983		-70.312500
9984		-78.125000
9985		-72.265625
9986		-82.031250
9987		-72.265625
9988		-82.031250
9989		-74.218750
9990		-83.984375
9991		-78.125000
9992		-85.937500
9993		-80.078125
9994		-87.890625
9995		-80.078125
9996		-89.843750
9997		-82.031250
9998		-87.890625
9999		-85.937500
10000		-87.890625
