Channel              :		CH1
Frequency            :		1.970kHz
Period               :		0.508ms
PK-PK                :		91.80mV
Probe attenuation    :		1X
Voltage per ADC value:		0.122070mV
Time interval        :		2.00000us

index		CH1_Voltage(mV)
1		54.687500
2		54.687500
3		50.781250
4		52.734375
5		48.828125
6		52.734375
7		48.828125
8		52.734375
9		48.828125
10		52.734375
11		48.828125
12		50.781250
13		48.828125
14		50.781250
15		46.875000
16		50.781250
17		44.921875
18		48.828125
19		44.921875
20		48.828125
21		44.921875
22		46.875000
23		42.968750
24		46.875000
25		41.015625
26		44.921875
27		41.015625
28		42.968750
29		39.062500
30		42.968750
31		37.109375
32		41.015625
33		37.109375
34		39.062500
35		33.203125
36		39.062500
37		33.203125
38		37.109375
39		31.250000
40		35.156250
41		29.296875
42		33.203125
43		29.296875
44		31.250000
45		25.390625
46		29.296875
47		23.437500
48		27.343750
49		21.484375
50		27.343750
51		19.531250
52		23.437500
53		19.531250
54		23.437500
55		17.578125
56		19.531250
57		13.671875
58		17.578125
59		13.671875
60		17.578125
61		9.765625
62		15.625000
63		9.765625
64		11.718750
65		5.859375
66		11.718750
67		3.906250
68		9.765625
69		3.906250
70		5.859375
71		1.953125
72		3.906250
73		0.000000
74		1.953125
75		-1.953125
76		1.953125
77		-3.906250
78		0.000000
79		-5.859375
80		-1.953125
81		-7.812500
82		-3.906250
83		-9.765625
84		-5.859375
85		-11.718750
86		-7.812500
87		-13.671875
88		-7.812500
89		-15.625000
90		-11.718750
91		-15.625000
92		-11.718750
93		-17.578125
94		-13.671875
95		-19.531250
96		-15.625000
97		-19.531250
98		-15.625000
99		-21.484375
100		-17.578125
101		-21.484375
102		-17.578125
103		-23.437500
104		-17.578125
105		-23.437500
106		-21.484375
107		-25.390625
108		-21.484375
109		-25.390625
110		-23.437500
111		-25.390625
112		-23.437500
113		-27.343750
114		-23.437500
115		-27.343750
116		-23.437500
117		-27.343750
118		-25.390625
119		-27.343750
120		-23.437500
121		-27.343750
122		-25.390625
123		-27.343750
124		-25.390625
125		-27.343750
126		-25.390625
127		-27.343750
128		-23.437500
129		-27.343750
130		-23.437500
131		-27.343750
132		-23.437500
133		-25.390625
134		-23.437500
135		-25.390625
136		-21.484375
137		-25.390625
138		-21.484375
139		-23.437500
140		-21.484375
141		-23.437500
142		-19.531250
143		-21.484375
144		-19.531250
145		-21.484375
146		-17.578125
147		-21.484375
148		-17.578125
149		-19.531250
150		-15.625000
151		-17.578125
152		-13.671875
153		-17.578125
154		-13.671875
155		-15.625000
156		-11.718750
157		-13.671875
158		-9.765625
159		-13.671875
160		-7.812500
161		-9.765625
162		-5.859375
163		-9.765625
164		-5.859375
165		-7.812500
166		-3.906250
167		-5.859375
168		-1.953125
169		-3.906250
170		0.000000
171		-3.906250
172		1.953125
173		0.000000
174		3.906250
175		1.953125
176		5.859375
177		3.906250
178		7.812500
179		5.859375
180		9.765625
181		7.812500
182		11.718750
183		9.765625
184		13.671875
185		11.718750
186		15.625000
187		13.671875
188		17.578125
189		15.625000
190		19.531250
191		17.578125
192		21.484375
193		19.531250
194		23.437500
195		21.484375
196		25.390625
197		23.437500
198		27.343750
199		25.390625
200		29.296875
201		25.390625
202		31.250000
203		29.296875
204		33.203125
205		31.250000
206		33.203125
207		31.250000
208		35.156250
209		33.203125
210		37.109375
211		35.156250
212		39.062500
213		37.109375
214		41.015625
215		39.062500
216		41.015625
217		39.062500
218		42.968750
219		41.015625
220		44.921875
221		41.015625
222		44.921875
223		42.968750
224		46.875000
225		42.968750
226		48.828125
227		44.921875
228		48.828125
229		46.875000
230		48.828125
231		46.875000
232		50.781250
233		46.875000
234		50.781250
235		48.828125
236		50.781250
237		48.828125
238		52.734375
239		50.781250
240		52.734375
241		50.781250
242		52.734375
243		50.781250
244		54.687500
245		50.781250
246		54.687500
247		50.781250
248		54.687500
249		50.781250
250		54.687500
251		50.781250
252		54.687500
253		50.781250
254		54.687500
255		48.828125
256		54.687500
257		50.781250
258		52.734375
259		48.828125
260		54.687500
261		48.828125
262		52.734375
263		48.828125
264		52.734375
265		48.828125
266		50.781250
267		46.875000
268		50.781250
269		46.875000
270		50.781250
271		44.921875
272		48.828125
273		44.921875
274		46.875000
275		42.968750
276		46.875000
277		42.968750
278		46.875000
279		41.015625
280		44.921875
281		39.062500
282		42.968750
283		39.062500
284		42.968750
285		37.109375
286		41.015625
287		35.156250
288		39.062500
289		33.203125
290		37.109375
291		33.203125
292		35.156250
293		29.296875
294		35.156250
295		29.296875
296		33.203125
297		27.343750
298		31.250000
299		25.390625
300		29.296875
301		23.437500
302		27.343750
303		21.484375
304		25.390625
305		19.531250
306		23.437500
307		17.578125
308		21.484375
309		15.625000
310		19.531250
311		13.671875
312		17.578125
313		11.718750
314		15.625000
315		9.765625
316		13.671875
317		7.812500
318		11.718750
319		5.859375
320		9.765625
321		3.906250
322		7.812500
323		1.953125
324		5.859375
325		0.000000
326		3.906250
327		-1.953125
328		1.953125
329		-3.906250
330		0.000000
331		-5.859375
332		-1.953125
333		-7.812500
334		-3.906250
335		-9.765625
336		-5.859375
337		-9.765625
338		-5.859375
339		-11.718750
340		-7.812500
341		-13.671875
342		-9.765625
343		-15.625000
344		-11.718750
345		-17.578125
346		-13.671875
347		-17.578125
348		-15.625000
349		-19.531250
350		-15.625000
351		-21.484375
352		-17.578125
353		-21.484375
354		-17.578125
355		-23.437500
356		-19.531250
357		-23.437500
358		-21.484375
359		-25.390625
360		-21.484375
361		-25.390625
362		-21.484375
363		-25.390625
364		-23.437500
365		-27.343750
366		-23.437500
367		-27.343750
368		-23.437500
369		-27.343750
370		-25.390625
371		-27.343750
372		-23.437500
373		-27.343750
374		-25.390625
375		-27.343750
376		-25.390625
377		-27.343750
378		-25.390625
379		-27.343750
380		-25.390625
381		-27.343750
382		-25.390625
383		-27.343750
384		-25.390625
385		-27.343750
386		-23.437500
387		-27.343750
388		-23.437500
389		-27.343750
390		-23.437500
391		-25.390625
392		-23.437500
393		-23.437500
394		-21.484375
395		-23.437500
396		-19.531250
397		-23.437500
398		-19.531250
399		-21.484375
400		-19.531250
401		-21.484375
402		-15.625000
403		-19.531250
404		-15.625000
405		-19.531250
406		-13.671875
407		-17.578125
408		-13.671875
409		-15.625000
410		-11.718750
411		-15.625000
412		-9.765625
413		-11.718750
414		-7.812500
415		-9.765625
416		-5.859375
417		-7.812500
418		-3.906250
419		-7.812500
420		-3.906250
421		-5.859375
422		-1.953125
423		-3.906250
424		0.000000
425		-1.953125
426		1.953125
427		0.000000
428		3.906250
429		1.953125
430		7.812500
431		3.906250
432		7.812500
433		5.859375
434		9.765625
435		7.812500
436		11.718750
437		9.765625
438		13.671875
439		11.718750
440		15.625000
441		13.671875
442		17.578125
443		15.625000
444		19.531250
445		17.578125
446		21.484375
447		19.531250
448		23.437500
449		21.484375
450		25.390625
451		23.437500
452		27.343750
453		25.390625
454		29.296875
455		27.343750
456		31.250000
457		29.296875
458		33.203125
459		31.250000
460		33.203125
461		33.203125
462		35.156250
463		33.203125
464		37.109375
465		35.156250
466		39.062500
467		37.109375
468		41.015625
469		37.109375
470		42.968750
471		39.062500
472		42.968750
473		41.015625
474		44.921875
475		42.968750
476		44.921875
477		42.968750
478		46.875000
479		42.968750
480		48.828125
481		44.921875
482		48.828125
483		44.921875
484		48.828125
485		46.875000
486		50.781250
487		48.828125
488		50.781250
489		48.828125
490		52.734375
491		48.828125
492		52.734375
493		50.781250
494		52.734375
495		48.828125
496		52.734375
497		50.781250
498		52.734375
499		50.781250
500		54.687500
501		50.781250
502		52.734375
503		50.781250
504		52.734375
505		50.781250
506		54.687500
507		50.781250
508		52.734375
509		50.781250
510		52.734375
511		48.828125
512		54.687500
513		48.828125
514		52.734375
515		48.828125
516		52.734375
517		48.828125
518		50.781250
519		48.828125
520		50.781250
521		46.875000
522		50.781250
523		44.921875
524		48.828125
525		44.921875
526		48.828125
527		44.921875
528		46.875000
529		42.968750
530		46.875000
531		41.015625
532		44.921875
533		41.015625
534		44.921875
535		39.062500
536		42.968750
537		37.109375
538		41.015625
539		35.156250
540		39.062500
541		35.156250
542		39.062500
543		33.203125
544		37.109375
545		31.250000
546		35.156250
547		29.296875
548		33.203125
549		27.343750
550		31.250000
551		27.343750
552		31.250000
553		25.390625
554		29.296875
555		23.437500
556		25.390625
557		21.484375
558		25.390625
559		19.531250
560		21.484375
561		15.625000
562		21.484375
563		15.625000
564		19.531250
565		13.671875
566		17.578125
567		11.718750
568		15.625000
569		7.812500
570		13.671875
571		7.812500
572		11.718750
573		3.906250
574		9.765625
575		3.906250
576		7.812500
577		1.953125
578		5.859375
579		0.000000
580		3.906250
581		-1.953125
582		1.953125
583		-3.906250
584		0.000000
585		-5.859375
586		-1.953125
587		-7.812500
588		-3.906250
589		-9.765625
590		-5.859375
591		-11.718750
592		-7.812500
593		-11.718750
594		-9.765625
595		-13.671875
596		-9.765625
597		-15.625000
598		-11.718750
599		-17.578125
600		-13.671875
601		-19.531250
602		-15.625000
603		-19.531250
604		-15.625000
605		-21.484375
606		-17.578125
607		-23.437500
608		-17.578125
609		-23.437500
610		-19.531250
611		-23.437500
612		-21.484375
613		-25.390625
614		-21.484375
615		-25.390625
616		-21.484375
617		-27.343750
618		-23.437500
619		-27.343750
620		-23.437500
621		-27.343750
622		-23.437500
623		-27.343750
624		-25.390625
625		-29.296875
626		-25.390625
627		-27.343750
628		-25.390625
629		-29.296875
630		-25.390625
631		-29.296875
632		-25.390625
633		-27.343750
634		-25.390625
635		-29.296875
636		-25.390625
637		-27.343750
638		-23.437500
639		-27.343750
640		-23.437500
641		-27.343750
642		-23.437500
643		-25.390625
644		-23.437500
645		-25.390625
646		-21.484375
647		-25.390625
648		-21.484375
649		-23.437500
650		-19.531250
651		-23.437500
652		-19.531250
653		-21.484375
654		-17.578125
655		-19.531250
656		-17.578125
657		-19.531250
658		-15.625000
659		-17.578125
660		-13.671875
661		-15.625000
662		-13.671875
663		-15.625000
664		-11.718750
665		-13.671875
666		-9.765625
667		-11.718750
668		-7.812500
669		-9.765625
670		-5.859375
671		-9.765625
672		-3.906250
673		-5.859375
674		-1.953125
675		-5.859375
676		-1.953125
677		-1.953125
678		0.000000
679		-1.953125
680		3.906250
681		0.000000
682		3.906250
683		1.953125
684		5.859375
685		3.906250
686		7.812500
687		5.859375
688		9.765625
689		7.812500
690		11.718750
691		9.765625
692		15.625000
693		11.718750
694		15.625000
695		13.671875
696		17.578125
697		15.625000
698		19.531250
699		17.578125
700		21.484375
701		19.531250
702		23.437500
703		21.484375
704		25.390625
705		23.437500
706		27.343750
707		23.437500
708		29.296875
709		27.343750
710		31.250000
711		29.296875
712		33.203125
713		31.250000
714		35.156250
715		31.250000
716		37.109375
717		33.203125
718		37.109375
719		35.156250
720		39.062500
721		37.109375
722		41.015625
723		39.062500
724		42.968750
725		39.062500
726		42.968750
727		41.015625
728		44.921875
729		42.968750
730		46.875000
731		42.968750
732		46.875000
733		44.921875
734		46.875000
735		44.921875
736		48.828125
737		46.875000
738		48.828125
739		46.875000
740		50.781250
741		46.875000
742		50.781250
743		48.828125
744		50.781250
745		48.828125
746		52.734375
747		48.828125
748		52.734375
749		50.781250
750		52.734375
751		50.781250
752		54.687500
753		50.781250
754		52.734375
755		50.781250
756		54.687500
757		50.781250
758		52.734375
759		50.781250
760		54.687500
761		50.781250
762		52.734375
763		48.828125
764		54.687500
765		50.781250
766		52.734375
767		48.828125
768		52.734375
769		48.828125
770		52.734375
771		46.875000
772		52.734375
773		46.875000
774		50.781250
775		44.921875
776		50.781250
777		44.921875
778		48.828125
779		44.921875
780		46.875000
781		42.968750
782		48.828125
783		42.968750
784		46.875000
785		41.015625
786		44.921875
787		41.015625
788		42.968750
789		39.062500
790		42.968750
791		37.109375
792		41.015625
793		35.156250
794		39.062500
795		35.156250
796		37.109375
797		33.203125
798		37.109375
799		31.250000
800		35.156250
801		29.296875
802		33.203125
803		27.343750
804		31.250000
805		25.390625
806		29.296875
807		25.390625
808		29.296875
809		21.484375
810		25.390625
811		19.531250
812		23.437500
813		17.578125
814		21.484375
815		15.625000
816		21.484375
817		15.625000
818		17.578125
819		13.671875
820		17.578125
821		9.765625
822		13.671875
823		7.812500
824		13.671875
825		5.859375
826		9.765625
827		5.859375
828		7.812500
829		3.906250
830		5.859375
831		0.000000
832		5.859375
833		-1.953125
834		3.906250
835		-3.906250
836		1.953125
837		-3.906250
838		-1.953125
839		-5.859375
840		-1.953125
841		-7.812500
842		-3.906250
843		-9.765625
844		-5.859375
845		-11.718750
846		-7.812500
847		-13.671875
848		-9.765625
849		-15.625000
850		-11.718750
851		-15.625000
852		-11.718750
853		-17.578125
854		-13.671875
855		-19.531250
856		-15.625000
857		-21.484375
858		-17.578125
859		-21.484375
860		-17.578125
861		-21.484375
862		-19.531250
863		-23.437500
864		-19.531250
865		-23.437500
866		-19.531250
867		-25.390625
868		-23.437500
869		-25.390625
870		-23.437500
871		-25.390625
872		-23.437500
873		-27.343750
874		-23.437500
875		-27.343750
876		-25.390625
877		-27.343750
878		-25.390625
879		-27.343750
880		-25.390625
881		-29.296875
882		-25.390625
883		-27.343750
884		-25.390625
885		-29.296875
886		-25.390625
887		-27.343750
888		-25.390625
889		-27.343750
890		-25.390625
891		-27.343750
892		-23.437500
893		-27.343750
894		-23.437500
895		-25.390625
896		-23.437500
897		-25.390625
898		-21.484375
899		-25.390625
900		-21.484375
901		-23.437500
902		-21.484375
903		-23.437500
904		-19.531250
905		-23.437500
906		-19.531250
907		-21.484375
908		-17.578125
909		-19.531250
910		-15.625000
911		-17.578125
912		-15.625000
913		-17.578125
914		-13.671875
915		-17.578125
916		-11.718750
917		-13.671875
918		-11.718750
919		-13.671875
920		-9.765625
921		-11.718750
922		-7.812500
923		-9.765625
924		-5.859375
925		-7.812500
926		-3.906250
927		-7.812500
928		-1.953125
929		-3.906250
930		0.000000
931		-1.953125
932		1.953125
933		0.000000
934		3.906250
935		1.953125
936		5.859375
937		3.906250
938		5.859375
939		3.906250
940		9.765625
941		5.859375
942		9.765625
943		9.765625
944		13.671875
945		11.718750
946		15.625000
947		13.671875
948		15.625000
949		13.671875
950		19.531250
951		15.625000
952		21.484375
953		19.531250
954		23.437500
955		19.531250
956		25.390625
957		23.437500
958		27.343750
959		23.437500
960		27.343750
961		25.390625
962		29.296875
963		27.343750
964		31.250000
965		29.296875
966		33.203125
967		31.250000
968		35.156250
969		33.203125
970		37.109375
971		35.156250
972		39.062500
973		35.156250
974		39.062500
975		37.109375
976		41.015625
977		39.062500
978		42.968750
979		41.015625
980		42.968750
981		41.015625
982		44.921875
983		42.968750
984		46.875000
985		42.968750
986		46.875000
987		44.921875
988		48.828125
989		44.921875
990		48.828125
991		46.875000
992		48.828125
993		46.875000
994		50.781250
995		48.828125
996		50.781250
997		48.828125
998		52.734375
999		48.828125
1000		52.734375
1001		50.781250
1002		52.734375
1003		50.781250
1004		52.734375
1005		50.781250
1006		52.734375
1007		50.781250
1008		54.687500
1009		50.781250
1010		54.687500
1011		50.781250
1012		54.687500
1013		50.781250
1014		52.734375
1015		50.781250
1016		52.734375
1017		50.781250
1018		52.734375
1019		48.828125
1020		52.734375
1021		48.828125
1022		52.734375
1023		48.828125
1024		52.734375
1025		46.875000
1026		50.781250
1027		46.875000
1028		50.781250
1029		46.875000
1030		48.828125
1031		44.921875
1032		48.828125
1033		44.921875
1034		48.828125
1035		42.968750
1036		46.875000
1037		42.968750
1038		44.921875
1039		41.015625
1040		44.921875
1041		41.015625
1042		42.968750
1043		39.062500
1044		42.968750
1045		37.109375
1046		41.015625
1047		35.156250
1048		39.062500
1049		33.203125
1050		37.109375
1051		31.250000
1052		37.109375
1053		31.250000
1054		35.156250
1055		29.296875
1056		33.203125
1057		27.343750
1058		31.250000
1059		25.390625
1060		29.296875
1061		23.437500
1062		27.343750
1063		21.484375
1064		25.390625
1065		19.531250
1066		23.437500
1067		17.578125
1068		21.484375
1069		15.625000
1070		19.531250
1071		13.671875
1072		17.578125
1073		11.718750
1074		15.625000
1075		9.765625
1076		13.671875
1077		7.812500
1078		11.718750
1079		5.859375
1080		9.765625
1081		3.906250
1082		7.812500
1083		1.953125
1084		5.859375
1085		0.000000
1086		5.859375
1087		-1.953125
1088		1.953125
1089		-3.906250
1090		0.000000
1091		-5.859375
1092		-1.953125
1093		-5.859375
1094		-3.906250
1095		-7.812500
1096		-3.906250
1097		-9.765625
1098		-7.812500
1099		-13.671875
1100		-7.812500
1101		-13.671875
1102		-9.765625
1103		-15.625000
1104		-11.718750
1105		-17.578125
1106		-13.671875
1107		-17.578125
1108		-13.671875
1109		-19.531250
1110		-15.625000
1111		-21.484375
1112		-17.578125
1113		-21.484375
1114		-17.578125
1115		-23.437500
1116		-19.531250
1117		-23.437500
1118		-19.531250
1119		-25.390625
1120		-21.484375
1121		-25.390625
1122		-21.484375
1123		-27.343750
1124		-23.437500
1125		-27.343750
1126		-23.437500
1127		-27.343750
1128		-23.437500
1129		-29.296875
1130		-25.390625
1131		-27.343750
1132		-25.390625
1133		-29.296875
1134		-23.437500
1135		-29.296875
1136		-25.390625
1137		-29.296875
1138		-25.390625
1139		-27.343750
1140		-25.390625
1141		-27.343750
1142		-25.390625
1143		-27.343750
1144		-25.390625
1145		-29.296875
1146		-23.437500
1147		-27.343750
1148		-23.437500
1149		-25.390625
1150		-23.437500
1151		-25.390625
1152		-23.437500
1153		-25.390625
1154		-21.484375
1155		-23.437500
1156		-21.484375
1157		-23.437500
1158		-19.531250
1159		-23.437500
1160		-17.578125
1161		-21.484375
1162		-17.578125
1163		-19.531250
1164		-15.625000
1165		-17.578125
1166		-15.625000
1167		-17.578125
1168		-13.671875
1169		-15.625000
1170		-11.718750
1171		-13.671875
1172		-9.765625
1173		-11.718750
1174		-9.765625
1175		-11.718750
1176		-7.812500
1177		-9.765625
1178		-5.859375
1179		-7.812500
1180		-3.906250
1181		-5.859375
1182		-1.953125
1183		-3.906250
1184		0.000000
1185		-3.906250
1186		1.953125
1187		0.000000
1188		3.906250
1189		1.953125
1190		5.859375
1191		3.906250
1192		7.812500
1193		3.906250
1194		9.765625
1195		7.812500
1196		11.718750
1197		9.765625
1198		13.671875
1199		11.718750
1200		15.625000
1201		13.671875
1202		17.578125
1203		15.625000
1204		19.531250
1205		15.625000
1206		21.484375
1207		19.531250
1208		23.437500
1209		21.484375
1210		25.390625
1211		23.437500
1212		27.343750
1213		25.390625
1214		29.296875
1215		27.343750
1216		29.296875
1217		29.296875
1218		31.250000
1219		29.296875
1220		33.203125
1221		31.250000
1222		35.156250
1223		33.203125
1224		37.109375
1225		35.156250
1226		39.062500
1227		37.109375
1228		39.062500
1229		37.109375
1230		41.015625
1231		39.062500
1232		42.968750
1233		41.015625
1234		42.968750
1235		41.015625
1236		44.921875
1237		42.968750
1238		46.875000
1239		42.968750
1240		46.875000
1241		44.921875
1242		48.828125
1243		46.875000
1244		48.828125
1245		46.875000
1246		50.781250
1247		48.828125
1248		50.781250
1249		46.875000
1250		50.781250
1251		48.828125
1252		52.734375
1253		48.828125
1254		52.734375
1255		50.781250
1256		52.734375
1257		48.828125
1258		52.734375
1259		50.781250
1260		52.734375
1261		50.781250
1262		54.687500
1263		50.781250
1264		52.734375
1265		50.781250
1266		52.734375
1267		48.828125
1268		52.734375
1269		50.781250
1270		52.734375
1271		48.828125
1272		52.734375
1273		48.828125
1274		54.687500
1275		48.828125
1276		52.734375
1277		48.828125
1278		50.781250
1279		46.875000
1280		50.781250
1281		46.875000
1282		50.781250
1283		46.875000
1284		48.828125
1285		44.921875
1286		48.828125
1287		44.921875
1288		46.875000
1289		42.968750
1290		46.875000
1291		42.968750
1292		44.921875
1293		39.062500
1294		44.921875
1295		39.062500
1296		42.968750
1297		37.109375
1298		42.968750
1299		37.109375
1300		39.062500
1301		35.156250
1302		39.062500
1303		33.203125
1304		37.109375
1305		31.250000
1306		37.109375
1307		31.250000
1308		33.203125
1309		27.343750
1310		33.203125
1311		27.343750
1312		31.250000
1313		25.390625
1314		29.296875
1315		23.437500
1316		27.343750
1317		21.484375
1318		25.390625
1319		19.531250
1320		23.437500
1321		17.578125
1322		21.484375
1323		15.625000
1324		19.531250
1325		13.671875
1326		17.578125
1327		11.718750
1328		15.625000
1329		9.765625
1330		13.671875
1331		7.812500
1332		11.718750
1333		5.859375
1334		9.765625
1335		3.906250
1336		7.812500
1337		1.953125
1338		5.859375
1339		0.000000
1340		3.906250
1341		-1.953125
1342		1.953125
1343		-3.906250
1344		0.000000
1345		-5.859375
1346		-1.953125
1347		-7.812500
1348		-3.906250
1349		-9.765625
1350		-5.859375
1351		-9.765625
1352		-7.812500
1353		-11.718750
1354		-7.812500
1355		-13.671875
1356		-9.765625
1357		-15.625000
1358		-11.718750
1359		-17.578125
1360		-13.671875
1361		-19.531250
1362		-15.625000
1363		-19.531250
1364		-15.625000
1365		-21.484375
1366		-17.578125
1367		-21.484375
1368		-19.531250
1369		-23.437500
1370		-19.531250
1371		-23.437500
1372		-19.531250
1373		-25.390625
1374		-21.484375
1375		-25.390625
1376		-21.484375
1377		-25.390625
1378		-23.437500
1379		-27.343750
1380		-23.437500
1381		-27.343750
1382		-23.437500
1383		-27.343750
1384		-25.390625
1385		-29.296875
1386		-25.390625
1387		-27.343750
1388		-25.390625
1389		-29.296875
1390		-25.390625
1391		-27.343750
1392		-25.390625
1393		-27.343750
1394		-25.390625
1395		-29.296875
1396		-25.390625
1397		-27.343750
1398		-23.437500
1399		-27.343750
1400		-23.437500
1401		-25.390625
1402		-23.437500
1403		-27.343750
1404		-23.437500
1405		-25.390625
1406		-21.484375
1407		-25.390625
1408		-21.484375
1409		-23.437500
1410		-21.484375
1411		-23.437500
1412		-19.531250
1413		-21.484375
1414		-17.578125
1415		-21.484375
1416		-17.578125
1417		-19.531250
1418		-15.625000
1419		-17.578125
1420		-13.671875
1421		-17.578125
1422		-13.671875
1423		-15.625000
1424		-11.718750
1425		-13.671875
1426		-9.765625
1427		-11.718750
1428		-7.812500
1429		-11.718750
1430		-5.859375
1431		-9.765625
1432		-5.859375
1433		-5.859375
1434		-3.906250
1435		-5.859375
1436		-1.953125
1437		-3.906250
1438		0.000000
1439		-1.953125
1440		1.953125
1441		0.000000
1442		3.906250
1443		1.953125
1444		5.859375
1445		3.906250
1446		7.812500
1447		5.859375
1448		9.765625
1449		7.812500
1450		11.718750
1451		9.765625
1452		13.671875
1453		11.718750
1454		15.625000
1455		13.671875
1456		17.578125
1457		15.625000
1458		19.531250
1459		17.578125
1460		21.484375
1461		19.531250
1462		23.437500
1463		21.484375
1464		25.390625
1465		23.437500
1466		27.343750
1467		25.390625
1468		29.296875
1469		27.343750
1470		31.250000
1471		29.296875
1472		33.203125
1473		31.250000
1474		35.156250
1475		33.203125
1476		35.156250
1477		33.203125
1478		37.109375
1479		35.156250
1480		39.062500
1481		37.109375
1482		41.015625
1483		39.062500
1484		42.968750
1485		39.062500
1486		42.968750
1487		41.015625
1488		44.921875
1489		42.968750
1490		44.921875
1491		42.968750
1492		46.875000
1493		44.921875
1494		46.875000
1495		44.921875
1496		48.828125
1497		46.875000
1498		48.828125
1499		46.875000
1500		50.781250
1501		48.828125
1502		50.781250
1503		48.828125
1504		52.734375
1505		48.828125
1506		52.734375
1507		50.781250
1508		52.734375
1509		48.828125
1510		52.734375
1511		50.781250
1512		52.734375
1513		50.781250
1514		54.687500
1515		48.828125
1516		54.687500
1517		50.781250
1518		52.734375
1519		48.828125
1520		54.687500
1521		50.781250
1522		52.734375
1523		50.781250
1524		54.687500
1525		50.781250
1526		52.734375
1527		48.828125
1528		52.734375
1529		48.828125
1530		52.734375
1531		48.828125
1532		52.734375
1533		48.828125
1534		50.781250
1535		46.875000
1536		48.828125
1537		44.921875
1538		48.828125
1539		44.921875
1540		48.828125
1541		42.968750
1542		48.828125
1543		42.968750
1544		46.875000
1545		41.015625
1546		44.921875
1547		41.015625
1548		44.921875
1549		39.062500
1550		42.968750
1551		39.062500
1552		41.015625
1553		35.156250
1554		41.015625
1555		35.156250
1556		39.062500
1557		33.203125
1558		37.109375
1559		31.250000
1560		35.156250
1561		29.296875
1562		33.203125
1563		27.343750
1564		31.250000
1565		25.390625
1566		29.296875
1567		25.390625
1568		27.343750
1569		23.437500
1570		25.390625
1571		21.484375
1572		25.390625
1573		19.531250
1574		23.437500
1575		17.578125
1576		21.484375
1577		15.625000
1578		19.531250
1579		13.671875
1580		17.578125
1581		11.718750
1582		15.625000
1583		9.765625
1584		13.671875
1585		7.812500
1586		11.718750
1587		3.906250
1588		9.765625
1589		1.953125
1590		9.765625
1591		1.953125
1592		5.859375
1593		0.000000
1594		3.906250
1595		-1.953125
1596		1.953125
1597		-3.906250
1598		0.000000
1599		-5.859375
1600		-1.953125
1601		-7.812500
1602		-3.906250
1603		-11.718750
1604		-5.859375
1605		-11.718750
1606		-5.859375
1607		-13.671875
1608		-7.812500
1609		-13.671875
1610		-11.718750
1611		-17.578125
1612		-11.718750
1613		-17.578125
1614		-13.671875
1615		-19.531250
1616		-15.625000
1617		-19.531250
1618		-17.578125
1619		-21.484375
1620		-17.578125
1621		-25.390625
1622		-17.578125
1623		-25.390625
1624		-17.578125
1625		-25.390625
1626		-19.531250
1627		-27.343750
1628		-19.531250
1629		-27.343750
1630		-21.484375
1631		-27.343750
1632		-23.437500
1633		-29.296875
1634		-23.437500
1635		-27.343750
1636		-25.390625
1637		-29.296875
1638		-23.437500
1639		-29.296875
1640		-23.437500
1641		-29.296875
1642		-23.437500
1643		-31.250000
1644		-23.437500
1645		-29.296875
1646		-23.437500
1647		-29.296875
1648		-23.437500
1649		-27.343750
1650		-25.390625
1651		-27.343750
1652		-25.390625
1653		-27.343750
1654		-25.390625
1655		-29.296875
1656		-21.484375
1657		-29.296875
1658		-21.484375
1659		-27.343750
1660		-19.531250
1661		-27.343750
1662		-19.531250
1663		-25.390625
1664		-19.531250
1665		-23.437500
1666		-17.578125
1667		-21.484375
1668		-17.578125
1669		-19.531250
1670		-17.578125
1671		-19.531250
1672		-13.671875
1673		-19.531250
1674		-11.718750
1675		-19.531250
1676		-11.718750
1677		-17.578125
1678		-9.765625
1679		-15.625000
1680		-7.812500
1681		-13.671875
1682		-5.859375
1683		-11.718750
1684		-5.859375
1685		-7.812500
1686		-5.859375
1687		-5.859375
1688		-1.953125
1689		-5.859375
1690		1.953125
1691		-5.859375
1692		1.953125
1693		-3.906250
1694		3.906250
1695		-1.953125
1696		7.812500
1697		0.000000
1698		7.812500
1699		3.906250
1700		9.765625
1701		5.859375
1702		9.765625
1703		7.812500
1704		11.718750
1705		9.765625
1706		15.625000
1707		11.718750
1708		17.578125
1709		13.671875
1710		19.531250
1711		15.625000
1712		21.484375
1713		17.578125
1714		23.437500
1715		19.531250
1716		25.390625
1717		21.484375
1718		25.390625
1719		23.437500
1720		27.343750
1721		25.390625
1722		31.250000
1723		25.390625
1724		33.203125
1725		27.343750
1726		35.156250
1727		29.296875
1728		37.109375
1729		31.250000
1730		39.062500
1731		33.203125
1732		39.062500
1733		35.156250
1734		41.015625
1735		37.109375
1736		41.015625
1737		39.062500
1738		41.015625
1739		37.109375
1740		44.921875
1741		39.062500
1742		46.875000
1743		41.015625
1744		48.828125
1745		41.015625
1746		48.828125
1747		42.968750
1748		48.828125
1749		42.968750
1750		50.781250
1751		44.921875
1752		50.781250
1753		46.875000
1754		50.781250
1755		46.875000
1756		52.734375
1757		46.875000
1758		54.687500
1759		46.875000
1760		54.687500
1761		46.875000
1762		54.687500
1763		46.875000
1764		54.687500
1765		48.828125
1766		54.687500
1767		48.828125
1768		54.687500
1769		50.781250
1770		52.734375
1771		50.781250
1772		52.734375
1773		48.828125
1774		56.640625
1775		48.828125
1776		54.687500
1777		48.828125
1778		54.687500
1779		46.875000
1780		54.687500
1781		46.875000
1782		54.687500
1783		46.875000
1784		52.734375
1785		48.828125
1786		50.781250
1787		46.875000
1788		50.781250
1789		44.921875
1790		50.781250
1791		42.968750
1792		50.781250
1793		42.968750
1794		50.781250
1795		41.015625
1796		48.828125
1797		41.015625
1798		46.875000
1799		39.062500
1800		46.875000
1801		39.062500
1802		44.921875
1803		39.062500
1804		41.015625
1805		35.156250
1806		41.015625
1807		33.203125
1808		41.015625
1809		31.250000
1810		39.062500
1811		31.250000
1812		39.062500
1813		29.296875
1814		37.109375
1815		27.343750
1816		35.156250
1817		25.390625
1818		33.203125
1819		25.390625
1820		29.296875
1821		23.437500
1822		27.343750
1823		19.531250
1824		27.343750
1825		17.578125
1826		25.390625
1827		15.625000
1828		23.437500
1829		13.671875
1830		21.484375
1831		11.718750
1832		19.531250
1833		9.765625
1834		17.578125
1835		9.765625
1836		15.625000
1837		7.812500
1838		11.718750
1839		3.906250
1840		11.718750
1841		1.953125
1842		11.718750
1843		0.000000
1844		7.812500
1845		-1.953125
1846		5.859375
1847		-3.906250
1848		3.906250
1849		-5.859375
1850		3.906250
1851		-5.859375
1852		1.953125
1853		-5.859375
1854		-3.906250
1855		-7.812500
1856		-3.906250
1857		-11.718750
1858		-3.906250
1859		-13.671875
1860		-5.859375
1861		-15.625000
1862		-7.812500
1863		-17.578125
1864		-9.765625
1865		-17.578125
1866		-9.765625
1867		-19.531250
1868		-11.718750
1869		-19.531250
1870		-15.625000
1871		-19.531250
1872		-17.578125
1873		-23.437500
1874		-17.578125
1875		-25.390625
1876		-17.578125
1877		-25.390625
1878		-19.531250
1879		-27.343750
1880		-19.531250
1881		-27.343750
1882		-19.531250
1883		-29.296875
1884		-21.484375
1885		-27.343750
1886		-21.484375
1887		-27.343750
1888		-25.390625
1889		-29.296875
1890		-23.437500
1891		-31.250000
1892		-23.437500
1893		-29.296875
1894		-23.437500
1895		-31.250000
1896		-23.437500
1897		-31.250000
1898		-23.437500
1899		-31.250000
1900		-23.437500
1901		-29.296875
1902		-23.437500
1903		-27.343750
1904		-25.390625
1905		-27.343750
1906		-25.390625
1907		-29.296875
1908		-21.484375
1909		-29.296875
1910		-21.484375
1911		-27.343750
1912		-21.484375
1913		-27.343750
1914		-19.531250
1915		-25.390625
1916		-19.531250
1917		-25.390625
1918		-17.578125
1919		-23.437500
1920		-17.578125
1921		-21.484375
1922		-17.578125
1923		-21.484375
1924		-13.671875
1925		-21.484375
1926		-13.671875
1927		-19.531250
1928		-11.718750
1929		-17.578125
1930		-9.765625
1931		-15.625000
1932		-9.765625
1933		-13.671875
1934		-7.812500
1935		-13.671875
1936		-5.859375
1937		-9.765625
1938		-5.859375
1939		-7.812500
1940		-3.906250
1941		-7.812500
1942		0.000000
1943		-5.859375
1944		1.953125
1945		-3.906250
1946		3.906250
1947		-1.953125
1948		5.859375
1949		0.000000
1950		7.812500
1951		1.953125
1952		9.765625
1953		5.859375
1954		7.812500
1955		7.812500
1956		11.718750
1957		7.812500
1958		15.625000
1959		9.765625
1960		17.578125
1961		11.718750
1962		19.531250
1963		13.671875
1964		21.484375
1965		13.671875
1966		23.437500
1967		15.625000
1968		23.437500
1969		17.578125
1970		25.390625
1971		23.437500
1972		25.390625
1973		25.390625
1974		29.296875
1975		23.437500
1976		31.250000
1977		25.390625
1978		33.203125
1979		27.343750
1980		35.156250
1981		29.296875
1982		37.109375
1983		31.250000
1984		39.062500
1985		33.203125
1986		39.062500
1987		37.109375
1988		39.062500
1989		37.109375
1990		41.015625
1991		37.109375
1992		44.921875
1993		39.062500
1994		46.875000
1995		39.062500
1996		46.875000
1997		41.015625
1998		48.828125
1999		41.015625
2000		48.828125
2001		42.968750
2002		50.781250
2003		44.921875
2004		50.781250
2005		46.875000
2006		50.781250
2007		46.875000
2008		52.734375
2009		46.875000
2010		52.734375
2011		46.875000
2012		54.687500
2013		46.875000
2014		54.687500
2015		46.875000
2016		54.687500
2017		48.828125
2018		54.687500
2019		48.828125
2020		54.687500
2021		50.781250
2022		52.734375
2023		50.781250
2024		52.734375
2025		48.828125
2026		54.687500
2027		48.828125
2028		54.687500
2029		48.828125
2030		54.687500
2031		48.828125
2032		54.687500
2033		46.875000
2034		54.687500
2035		46.875000
2036		54.687500
2037		48.828125
2038		52.734375
2039		48.828125
2040		50.781250
2041		44.921875
2042		52.734375
2043		44.921875
2044		50.781250
2045		42.968750
2046		50.781250
2047		42.968750
2048		48.828125
2049		41.015625
2050		48.828125
2051		41.015625
2052		46.875000
2053		39.062500
2054		46.875000
2055		39.062500
2056		42.968750
2057		37.109375
2058		42.968750
2059		35.156250
2060		42.968750
2061		33.203125
2062		41.015625
2063		33.203125
2064		41.015625
2065		31.250000
2066		37.109375
2067		29.296875
2068		35.156250
2069		27.343750
2070		35.156250
2071		27.343750
2072		31.250000
2073		25.390625
2074		29.296875
2075		21.484375
2076		29.296875
2077		19.531250
2078		27.343750
2079		17.578125
2080		25.390625
2081		15.625000
2082		23.437500
2083		13.671875
2084		21.484375
2085		11.718750
2086		19.531250
2087		11.718750
2088		17.578125
2089		9.765625
2090		13.671875
2091		5.859375
2092		13.671875
2093		3.906250
2094		11.718750
2095		1.953125
2096		9.765625
2097		0.000000
2098		7.812500
2099		-1.953125
2100		5.859375
2101		-3.906250
2102		3.906250
2103		-3.906250
2104		1.953125
2105		-5.859375
2106		-1.953125
2107		-5.859375
2108		-3.906250
2109		-11.718750
2110		-1.953125
2111		-13.671875
2112		-3.906250
2113		-13.671875
2114		-5.859375
2115		-15.625000
2116		-7.812500
2117		-17.578125
2118		-9.765625
2119		-19.531250
2120		-11.718750
2121		-17.578125
2122		-13.671875
2123		-19.531250
2124		-15.625000
2125		-21.484375
2126		-15.625000
2127		-23.437500
2128		-15.625000
2129		-25.390625
2130		-17.578125
2131		-25.390625
2132		-17.578125
2133		-27.343750
2134		-19.531250
2135		-27.343750
2136		-21.484375
2137		-27.343750
2138		-21.484375
2139		-25.390625
2140		-23.437500
2141		-29.296875
2142		-23.437500
2143		-29.296875
2144		-23.437500
2145		-29.296875
2146		-23.437500
2147		-29.296875
2148		-23.437500
2149		-31.250000
2150		-23.437500
2151		-31.250000
2152		-23.437500
2153		-31.250000
2154		-23.437500
2155		-27.343750
2156		-23.437500
2157		-27.343750
2158		-25.390625
2159		-29.296875
2160		-21.484375
2161		-29.296875
2162		-21.484375
2163		-27.343750
2164		-21.484375
2165		-27.343750
2166		-21.484375
2167		-27.343750
2168		-19.531250
2169		-25.390625
2170		-19.531250
2171		-25.390625
2172		-19.531250
2173		-21.484375
2174		-19.531250
2175		-21.484375
2176		-15.625000
2177		-21.484375
2178		-13.671875
2179		-19.531250
2180		-13.671875
2181		-19.531250
2182		-11.718750
2183		-17.578125
2184		-9.765625
2185		-17.578125
2186		-7.812500
2187		-15.625000
2188		-7.812500
2189		-9.765625
2190		-7.812500
2191		-7.812500
2192		-5.859375
2193		-9.765625
2194		-1.953125
2195		-7.812500
2196		0.000000
2197		-5.859375
2198		1.953125
2199		-3.906250
2200		3.906250
2201		-1.953125
2202		5.859375
2203		0.000000
2204		7.812500
2205		1.953125
2206		7.812500
2207		5.859375
2208		9.765625
2209		7.812500
2210		13.671875
2211		7.812500
2212		15.625000
2213		9.765625
2214		17.578125
2215		11.718750
2216		19.531250
2217		13.671875
2218		21.484375
2219		15.625000
2220		23.437500
2221		17.578125
2222		23.437500
2223		21.484375
2224		25.390625
2225		23.437500
2226		29.296875
2227		23.437500
2228		31.250000
2229		25.390625
2230		33.203125
2231		25.390625
2232		33.203125
2233		27.343750
2234		35.156250
2235		29.296875
2236		37.109375
2237		31.250000
2238		39.062500
2239		35.156250
2240		39.062500
2241		37.109375
2242		39.062500
2243		35.156250
2244		42.968750
2245		37.109375
2246		44.921875
2247		37.109375
2248		46.875000
2249		41.015625
2250		46.875000
2251		41.015625
2252		48.828125
2253		42.968750
2254		48.828125
2255		42.968750
2256		48.828125
2257		46.875000
2258		48.828125
2259		44.921875
2260		52.734375
2261		44.921875
2262		52.734375
2263		46.875000
2264		52.734375
2265		46.875000
2266		54.687500
2267		46.875000
2268		54.687500
2269		48.828125
2270		54.687500
2271		48.828125
2272		54.687500
2273		50.781250
2274		52.734375
2275		50.781250
2276		52.734375
2277		48.828125
2278		54.687500
2279		48.828125
2280		54.687500
2281		48.828125
2282		54.687500
2283		48.828125
2284		54.687500
2285		48.828125
2286		54.687500
2287		46.875000
2288		54.687500
2289		46.875000
2290		54.687500
2291		48.828125
2292		50.781250
2293		44.921875
2294		52.734375
2295		44.921875
2296		52.734375
2297		44.921875
2298		50.781250
2299		42.968750
2300		50.781250
2301		42.968750
2302		48.828125
2303		41.015625
2304		48.828125
2305		41.015625
2306		46.875000
2307		41.015625
2308		42.968750
2309		39.062500
2310		42.968750
2311		35.156250
2312		42.968750
2313		35.156250
2314		41.015625
2315		33.203125
2316		41.015625
2317		31.250000
2318		39.062500
2319		29.296875
2320		37.109375
2321		27.343750
2322		37.109375
2323		29.296875
2324		31.250000
2325		27.343750
2326		29.296875
2327		23.437500
2328		29.296875
2329		21.484375
2330		29.296875
2331		19.531250
2332		27.343750
2333		17.578125
2334		25.390625
2335		15.625000
2336		23.437500
2337		13.671875
2338		21.484375
2339		13.671875
2340		19.531250
2341		11.718750
2342		15.625000
2343		7.812500
2344		13.671875
2345		5.859375
2346		13.671875
2347		3.906250
2348		11.718750
2349		1.953125
2350		9.765625
2351		-1.953125
2352		7.812500
2353		-1.953125
2354		5.859375
2355		-3.906250
2356		3.906250
2357		-3.906250
2358		0.000000
2359		-5.859375
2360		-1.953125
2361		-9.765625
2362		-1.953125
2363		-11.718750
2364		-3.906250
2365		-13.671875
2366		-5.859375
2367		-15.625000
2368		-7.812500
2369		-15.625000
2370		-9.765625
2371		-17.578125
2372		-9.765625
2373		-17.578125
2374		-11.718750
2375		-17.578125
2376		-15.625000
2377		-21.484375
2378		-15.625000
2379		-23.437500
2380		-15.625000
2381		-23.437500
2382		-17.578125
2383		-23.437500
2384		-17.578125
2385		-25.390625
2386		-19.531250
2387		-27.343750
2388		-19.531250
2389		-27.343750
2390		-21.484375
2391		-25.390625
2392		-23.437500
2393		-27.343750
2394		-23.437500
2395		-29.296875
2396		-21.484375
2397		-29.296875
2398		-23.437500
2399		-29.296875
2400		-23.437500
2401		-29.296875
2402		-23.437500
2403		-31.250000
2404		-23.437500
2405		-29.296875
2406		-23.437500
2407		-27.343750
2408		-25.390625
2409		-27.343750
2410		-25.390625
2411		-29.296875
2412		-23.437500
2413		-29.296875
2414		-21.484375
2415		-29.296875
2416		-21.484375
2417		-27.343750
2418		-21.484375
2419		-27.343750
2420		-19.531250
2421		-27.343750
2422		-19.531250
2423		-25.390625
2424		-19.531250
2425		-21.484375
2426		-19.531250
2427		-21.484375
2428		-15.625000
2429		-21.484375
2430		-15.625000
2431		-21.484375
2432		-13.671875
2433		-19.531250
2434		-11.718750
2435		-17.578125
2436		-11.718750
2437		-17.578125
2438		-9.765625
2439		-15.625000
2440		-7.812500
2441		-11.718750
2442		-7.812500
2443		-9.765625
2444		-5.859375
2445		-9.765625
2446		-1.953125
2447		-7.812500
2448		-1.953125
2449		-5.859375
2450		1.953125
2451		-5.859375
2452		3.906250
2453		-1.953125
2454		3.906250
2455		-1.953125
2456		5.859375
2457		1.953125
2458		5.859375
2459		3.906250
2460		7.812500
2461		5.859375
2462		11.718750
2463		5.859375
2464		13.671875
2465		7.812500
2466		15.625000
2467		9.765625
2468		17.578125
2469		11.718750
2470		19.531250
2471		13.671875
2472		21.484375
2473		15.625000
2474		23.437500
2475		19.531250
2476		23.437500
2477		21.484375
2478		25.390625
2479		21.484375
2480		29.296875
2481		23.437500
2482		31.250000
2483		25.390625
2484		33.203125
2485		27.343750
2486		35.156250
2487		29.296875
2488		35.156250
2489		29.296875
2490		37.109375
2491		35.156250
2492		37.109375
2493		35.156250
2494		39.062500
2495		37.109375
2496		42.968750
2497		37.109375
2498		44.921875
2499		37.109375
2500		44.921875
2501		39.062500
2502		46.875000
2503		41.015625
2504		46.875000
2505		41.015625
2506		48.828125
2507		42.968750
2508		48.828125
2509		46.875000
2510		48.828125
2511		44.921875
2512		50.781250
2513		44.921875
2514		52.734375
2515		46.875000
2516		52.734375
2517		46.875000
2518		52.734375
2519		46.875000
2520		54.687500
2521		46.875000
2522		54.687500
2523		48.828125
2524		54.687500
2525		50.781250
2526		52.734375
2527		50.781250
2528		52.734375
2529		48.828125
2530		56.640625
2531		48.828125
2532		56.640625
2533		48.828125
2534		56.640625
2535		48.828125
2536		54.687500
2537		46.875000
2538		54.687500
2539		46.875000
2540		54.687500
2541		48.828125
2542		54.687500
2543		48.828125
2544		52.734375
2545		46.875000
2546		52.734375
2547		44.921875
2548		52.734375
2549		44.921875
2550		52.734375
2551		42.968750
2552		50.781250
2553		42.968750
2554		50.781250
2555		41.015625
2556		48.828125
2557		41.015625
2558		48.828125
2559		42.968750
2560		44.921875
2561		41.015625
2562		42.968750
2563		37.109375
2564		44.921875
2565		35.156250
2566		42.968750
2567		33.203125
2568		42.968750
2569		33.203125
2570		41.015625
2571		31.250000
2572		39.062500
2573		29.296875
2574		37.109375
2575		29.296875
2576		35.156250
2577		29.296875
2578		31.250000
2579		23.437500
2580		31.250000
2581		21.484375
2582		29.296875
2583		19.531250
2584		27.343750
2585		19.531250
2586		27.343750
2587		17.578125
2588		25.390625
2589		15.625000
2590		23.437500
2591		13.671875
2592		21.484375
2593		13.671875
2594		15.625000
2595		9.765625
2596		15.625000
2597		7.812500
2598		15.625000
2599		5.859375
2600		13.671875
2601		1.953125
2602		11.718750
2603		0.000000
2604		9.765625
2605		0.000000
2606		7.812500
2607		-1.953125
2608		5.859375
2609		-1.953125
2610		1.953125
2611		-3.906250
2612		0.000000
2613		-7.812500
2614		0.000000
2615		-9.765625
2616		-1.953125
2617		-11.718750
2618		-3.906250
2619		-13.671875
2620		-5.859375
2621		-13.671875
2622		-7.812500
2623		-15.625000
2624		-9.765625
2625		-15.625000
2626		-9.765625
2627		-17.578125
2628		-13.671875
2629		-21.484375
2630		-13.671875
2631		-21.484375
2632		-13.671875
2633		-23.437500
2634		-15.625000
2635		-23.437500
2636		-17.578125
2637		-25.390625
2638		-17.578125
2639		-25.390625
2640		-19.531250
2641		-27.343750
2642		-19.531250
2643		-25.390625
2644		-23.437500
2645		-25.390625
2646		-23.437500
2647		-29.296875
2648		-21.484375
2649		-29.296875
2650		-21.484375
2651		-29.296875
2652		-23.437500
2653		-29.296875
2654		-23.437500
2655		-29.296875
2656		-23.437500
2657		-29.296875
2658		-23.437500
2659		-29.296875
2660		-23.437500
2661		-27.343750
2662		-25.390625
2663		-29.296875
2664		-21.484375
2665		-29.296875
2666		-21.484375
2667		-29.296875
2668		-21.484375
2669		-27.343750
2670		-21.484375
2671		-27.343750
2672		-19.531250
2673		-27.343750
2674		-19.531250
2675		-25.390625
2676		-19.531250
2677		-23.437500
2678		-19.531250
2679		-21.484375
2680		-17.578125
2681		-23.437500
2682		-15.625000
2683		-21.484375
2684		-13.671875
2685		-21.484375
2686		-13.671875
2687		-19.531250
2688		-11.718750
2689		-17.578125
2690		-9.765625
2691		-15.625000
2692		-7.812500
2693		-11.718750
2694		-9.765625
2695		-11.718750
2696		-7.812500
2697		-11.718750
2698		-3.906250
2699		-9.765625
2700		-1.953125
2701		-7.812500
2702		0.000000
2703		-5.859375
2704		1.953125
2705		-3.906250
2706		3.906250
2707		-1.953125
2708		5.859375
2709		0.000000
2710		5.859375
2711		3.906250
2712		7.812500
2713		3.906250
2714		11.718750
2715		3.906250
2716		13.671875
2717		5.859375
2718		15.625000
2719		7.812500
2720		17.578125
2721		11.718750
2722		19.531250
2723		11.718750
2724		21.484375
2725		15.625000
2726		23.437500
2727		19.531250
2728		23.437500
2729		21.484375
2730		23.437500
2731		21.484375
2732		27.343750
2733		23.437500
2734		29.296875
2735		23.437500
2736		31.250000
2737		25.390625
2738		33.203125
2739		27.343750
2740		35.156250
2741		29.296875
2742		37.109375
2743		31.250000
2744		37.109375
2745		35.156250
2746		37.109375
2747		35.156250
2748		42.968750
2749		35.156250
2750		42.968750
2751		37.109375
2752		44.921875
2753		39.062500
2754		44.921875
2755		39.062500
2756		46.875000
2757		41.015625
2758		48.828125
2759		41.015625
2760		48.828125
2761		44.921875
2762		48.828125
2763		44.921875
2764		50.781250
2765		44.921875
2766		52.734375
2767		44.921875
2768		52.734375
2769		46.875000
2770		54.687500
2771		46.875000
2772		54.687500
2773		46.875000
2774		54.687500
2775		48.828125
2776		54.687500
2777		50.781250
2778		52.734375
2779		50.781250
2780		52.734375
2781		48.828125
2782		54.687500
2783		48.828125
2784		56.640625
2785		48.828125
2786		56.640625
2787		48.828125
2788		56.640625
2789		48.828125
2790		56.640625
2791		48.828125
2792		54.687500
2793		48.828125
2794		54.687500
2795		48.828125
2796		52.734375
2797		46.875000
2798		52.734375
2799		46.875000
2800		52.734375
2801		44.921875
2802		52.734375
2803		44.921875
2804		52.734375
2805		44.921875
2806		50.781250
2807		42.968750
2808		50.781250
2809		42.968750
2810		48.828125
2811		42.968750
2812		44.921875
2813		41.015625
2814		44.921875
2815		39.062500
2816		44.921875
2817		37.109375
2818		44.921875
2819		35.156250
2820		42.968750
2821		33.203125
2822		41.015625
2823		33.203125
2824		39.062500
2825		31.250000
2826		39.062500
2827		31.250000
2828		37.109375
2829		29.296875
2830		33.203125
2831		25.390625
2832		33.203125
2833		23.437500
2834		31.250000
2835		21.484375
2836		29.296875
2837		19.531250
2838		27.343750
2839		19.531250
2840		25.390625
2841		17.578125
2842		25.390625
2843		15.625000
2844		21.484375
2845		15.625000
2846		17.578125
2847		11.718750
2848		15.625000
2849		7.812500
2850		15.625000
2851		5.859375
2852		13.671875
2853		3.906250
2854		11.718750
2855		3.906250
2856		9.765625
2857		1.953125
2858		7.812500
2859		0.000000
2860		5.859375
2861		0.000000
2862		1.953125
2863		-1.953125
2864		1.953125
2865		-5.859375
2866		0.000000
2867		-7.812500
2868		0.000000
2869		-9.765625
2870		-1.953125
2871		-11.718750
2872		-3.906250
2873		-13.671875
2874		-5.859375
2875		-15.625000
2876		-7.812500
2877		-15.625000
2878		-9.765625
2879		-15.625000
2880		-11.718750
2881		-19.531250
2882		-13.671875
2883		-21.484375
2884		-13.671875
2885		-21.484375
2886		-13.671875
2887		-23.437500
2888		-15.625000
2889		-25.390625
2890		-17.578125
2891		-25.390625
2892		-17.578125
2893		-27.343750
2894		-19.531250
2895		-23.437500
2896		-21.484375
2897		-25.390625
2898		-23.437500
2899		-27.343750
2900		-21.484375
2901		-29.296875
2902		-21.484375
2903		-29.296875
2904		-21.484375
2905		-29.296875
2906		-23.437500
2907		-29.296875
2908		-23.437500
2909		-29.296875
2910		-23.437500
2911		-29.296875
2912		-23.437500
2913		-27.343750
2914		-25.390625
2915		-29.296875
2916		-23.437500
2917		-29.296875
2918		-23.437500
2919		-29.296875
2920		-21.484375
2921		-27.343750
2922		-21.484375
2923		-27.343750
2924		-21.484375
2925		-27.343750
2926		-19.531250
2927		-25.390625
2928		-19.531250
2929		-23.437500
2930		-21.484375
2931		-23.437500
2932		-17.578125
2933		-23.437500
2934		-15.625000
2935		-21.484375
2936		-15.625000
2937		-21.484375
2938		-13.671875
2939		-19.531250
2940		-13.671875
2941		-17.578125
2942		-11.718750
2943		-17.578125
2944		-9.765625
2945		-13.671875
2946		-9.765625
2947		-11.718750
2948		-7.812500
2949		-13.671875
2950		-3.906250
2951		-11.718750
2952		-3.906250
2953		-7.812500
2954		-1.953125
2955		-7.812500
2956		0.000000
2957		-5.859375
2958		1.953125
2959		-3.906250
2960		3.906250
2961		-1.953125
2962		3.906250
2963		1.953125
2964		5.859375
2965		3.906250
2966		9.765625
2967		3.906250
2968		11.718750
2969		5.859375
2970		13.671875
2971		7.812500
2972		15.625000
2973		9.765625
2974		17.578125
2975		11.718750
2976		19.531250
2977		13.671875
2978		21.484375
2979		17.578125
2980		21.484375
2981		19.531250
2982		23.437500
2983		19.531250
2984		27.343750
2985		21.484375
2986		29.296875
2987		23.437500
2988		31.250000
2989		25.390625
2990		33.203125
2991		27.343750
2992		35.156250
2993		29.296875
2994		37.109375
2995		29.296875
2996		37.109375
2997		33.203125
2998		37.109375
2999		35.156250
3000		41.015625
3001		35.156250
3002		42.968750
3003		37.109375
3004		42.968750
3005		39.062500
3006		44.921875
3007		39.062500
3008		46.875000
3009		41.015625
3010		46.875000
3011		42.968750
3012		48.828125
3013		44.921875
3014		46.875000
3015		44.921875
3016		48.828125
3017		44.921875
3018		50.781250
3019		44.921875
3020		52.734375
3021		48.828125
3022		50.781250
3023		46.875000
3024		54.687500
3025		46.875000
3026		54.687500
3027		48.828125
3028		54.687500
3029		50.781250
3030		52.734375
3031		50.781250
3032		52.734375
3033		48.828125
3034		56.640625
3035		50.781250
3036		56.640625
3037		50.781250
3038		54.687500
3039		48.828125
3040		54.687500
3041		48.828125
3042		56.640625
3043		48.828125
3044		54.687500
3045		48.828125
3046		54.687500
3047		50.781250
3048		52.734375
3049		48.828125
3050		52.734375
3051		48.828125
3052		52.734375
3053		48.828125
3054		52.734375
3055		46.875000
3056		50.781250
3057		44.921875
3058		52.734375
3059		44.921875
3060		50.781250
3061		42.968750
3062		50.781250
3063		44.921875
3064		46.875000
3065		42.968750
3066		44.921875
3067		41.015625
3068		46.875000
3069		41.015625
3070		44.921875
3071		39.062500
3072		42.968750
3073		35.156250
3074		41.015625
3075		35.156250
3076		41.015625
3077		31.250000
3078		39.062500
3079		31.250000
3080		39.062500
3081		31.250000
3082		35.156250
3083		29.296875
3084		33.203125
3085		27.343750
3086		31.250000
3087		25.390625
3088		29.296875
3089		23.437500
3090		27.343750
3091		21.484375
3092		27.343750
3093		17.578125
3094		25.390625
3095		17.578125
3096		21.484375
3097		15.625000
3098		19.531250
3099		13.671875
3100		17.578125
3101		13.671875
3102		17.578125
3103		9.765625
3104		15.625000
3105		7.812500
3106		11.718750
3107		5.859375
3108		9.765625
3109		3.906250
3110		7.812500
3111		1.953125
3112		7.812500
3113		0.000000
3114		3.906250
3115		0.000000
3116		1.953125
3117		-3.906250
3118		1.953125
3119		-5.859375
3120		0.000000
3121		-5.859375
3122		-3.906250
3123		-7.812500
3124		-3.906250
3125		-9.765625
3126		-5.859375
3127		-11.718750
3128		-7.812500
3129		-13.671875
3130		-9.765625
3131		-13.671875
3132		-11.718750
3133		-17.578125
3134		-11.718750
3135		-17.578125
3136		-13.671875
3137		-19.531250
3138		-15.625000
3139		-19.531250
3140		-17.578125
3141		-21.484375
3142		-17.578125
3143		-21.484375
3144		-19.531250
3145		-23.437500
3146		-19.531250
3147		-23.437500
3148		-21.484375
3149		-25.390625
3150		-21.484375
3151		-27.343750
3152		-21.484375
3153		-25.390625
3154		-23.437500
3155		-27.343750
3156		-23.437500
3157		-27.343750
3158		-23.437500
3159		-27.343750
3160		-23.437500
3161		-27.343750
3162		-23.437500
3163		-29.296875
3164		-23.437500
3165		-27.343750
3166		-25.390625
3167		-27.343750
3168		-23.437500
3169		-27.343750
3170		-23.437500
3171		-27.343750
3172		-23.437500
3173		-27.343750
3174		-23.437500
3175		-25.390625
3176		-23.437500
3177		-25.390625
3178		-21.484375
3179		-25.390625
3180		-21.484375
3181		-23.437500
3182		-21.484375
3183		-23.437500
3184		-17.578125
3185		-23.437500
3186		-19.531250
3187		-21.484375
3188		-17.578125
3189		-19.531250
3190		-17.578125
3191		-19.531250
3192		-15.625000
3193		-17.578125
3194		-13.671875
3195		-15.625000
3196		-11.718750
3197		-13.671875
3198		-11.718750
3199		-13.671875
3200		-9.765625
3201		-11.718750
3202		-7.812500
3203		-9.765625
3204		-5.859375
3205		-7.812500
3206		-3.906250
3207		-5.859375
3208		-1.953125
3209		-3.906250
3210		0.000000
3211		-3.906250
3212		0.000000
3213		-1.953125
3214		1.953125
3215		1.953125
3216		3.906250
3217		3.906250
3218		7.812500
3219		5.859375
3220		9.765625
3221		7.812500
3222		9.765625
3223		7.812500
3224		13.671875
3225		11.718750
3226		13.671875
3227		11.718750
3228		17.578125
3229		15.625000
3230		19.531250
3231		17.578125
3232		19.531250
3233		19.531250
3234		21.484375
3235		19.531250
3236		25.390625
3237		21.484375
3238		25.390625
3239		23.437500
3240		29.296875
3241		27.343750
3242		29.296875
3243		27.343750
3244		31.250000
3245		29.296875
3246		33.203125
3247		31.250000
3248		35.156250
3249		33.203125
3250		37.109375
3251		35.156250
3252		39.062500
3253		37.109375
3254		39.062500
3255		37.109375
3256		42.968750
3257		39.062500
3258		42.968750
3259		41.015625
3260		44.921875
3261		41.015625
3262		44.921875
3263		42.968750
3264		46.875000
3265		44.921875
3266		46.875000
3267		44.921875
3268		48.828125
3269		44.921875
3270		48.828125
3271		46.875000
3272		50.781250
3273		48.828125
3274		50.781250
3275		48.828125
3276		52.734375
3277		48.828125
3278		52.734375
3279		50.781250
3280		52.734375
3281		48.828125
3282		54.687500
3283		50.781250
3284		54.687500
3285		50.781250
3286		54.687500
3287		50.781250
3288		54.687500
3289		50.781250
3290		54.687500
3291		50.781250
3292		54.687500
3293		50.781250
3294		54.687500
3295		50.781250
3296		54.687500
3297		50.781250
3298		54.687500
3299		50.781250
3300		54.687500
3301		50.781250
3302		54.687500
3303		48.828125
3304		52.734375
3305		48.828125
3306		52.734375
3307		48.828125
3308		52.734375
3309		48.828125
3310		50.781250
3311		46.875000
3312		50.781250
3313		44.921875
3314		48.828125
3315		44.921875
3316		48.828125
3317		44.921875
3318		46.875000
3319		42.968750
3320		46.875000
3321		41.015625
3322		44.921875
3323		41.015625
3324		42.968750
3325		39.062500
3326		42.968750
3327		37.109375
3328		41.015625
3329		35.156250
3330		39.062500
3331		35.156250
3332		39.062500
3333		33.203125
3334		35.156250
3335		29.296875
3336		35.156250
3337		29.296875
3338		33.203125
3339		27.343750
3340		31.250000
3341		25.390625
3342		29.296875
3343		23.437500
3344		27.343750
3345		21.484375
3346		25.390625
3347		19.531250
3348		23.437500
3349		17.578125
3350		21.484375
3351		15.625000
3352		19.531250
3353		13.671875
3354		19.531250
3355		11.718750
3356		15.625000
3357		9.765625
3358		13.671875
3359		7.812500
3360		11.718750
3361		5.859375
3362		9.765625
3363		3.906250
3364		7.812500
3365		1.953125
3366		7.812500
3367		0.000000
3368		3.906250
3369		-1.953125
3370		1.953125
3371		-1.953125
3372		0.000000
3373		-5.859375
3374		-1.953125
3375		-7.812500
3376		-1.953125
3377		-7.812500
3378		-3.906250
3379		-9.765625
3380		-5.859375
3381		-11.718750
3382		-7.812500
3383		-13.671875
3384		-9.765625
3385		-15.625000
3386		-11.718750
3387		-15.625000
3388		-13.671875
3389		-17.578125
3390		-13.671875
3391		-17.578125
3392		-15.625000
3393		-19.531250
3394		-17.578125
3395		-21.484375
3396		-17.578125
3397		-21.484375
3398		-19.531250
3399		-23.437500
3400		-19.531250
3401		-23.437500
3402		-21.484375
3403		-25.390625
3404		-21.484375
3405		-25.390625
3406		-21.484375
3407		-25.390625
3408		-23.437500
3409		-25.390625
3410		-23.437500
3411		-27.343750
3412		-23.437500
3413		-27.343750
3414		-23.437500
3415		-27.343750
3416		-23.437500
3417		-27.343750
3418		-23.437500
3419		-27.343750
3420		-23.437500
3421		-27.343750
3422		-23.437500
3423		-27.343750
3424		-23.437500
3425		-25.390625
3426		-23.437500
3427		-25.390625
3428		-23.437500
3429		-25.390625
3430		-21.484375
3431		-25.390625
3432		-19.531250
3433		-23.437500
3434		-21.484375
3435		-23.437500
3436		-19.531250
3437		-21.484375
3438		-19.531250
3439		-21.484375
3440		-17.578125
3441		-19.531250
3442		-17.578125
3443		-19.531250
3444		-15.625000
3445		-17.578125
3446		-13.671875
3447		-17.578125
3448		-13.671875
3449		-15.625000
3450		-11.718750
3451		-13.671875
3452		-9.765625
3453		-11.718750
3454		-7.812500
3455		-9.765625
3456		-5.859375
3457		-7.812500
3458		-5.859375
3459		-7.812500
3460		-3.906250
3461		-5.859375
3462		0.000000
3463		-3.906250
3464		0.000000
3465		-1.953125
3466		1.953125
3467		0.000000
3468		3.906250
3469		1.953125
3470		5.859375
3471		3.906250
3472		7.812500
3473		5.859375
3474		9.765625
3475		7.812500
3476		11.718750
3477		9.765625
3478		13.671875
3479		11.718750
3480		15.625000
3481		13.671875
3482		17.578125
3483		15.625000
3484		19.531250
3485		17.578125
3486		21.484375
3487		19.531250
3488		23.437500
3489		21.484375
3490		25.390625
3491		23.437500
3492		27.343750
3493		25.390625
3494		29.296875
3495		27.343750
3496		31.250000
3497		29.296875
3498		33.203125
3499		29.296875
3500		35.156250
3501		33.203125
3502		35.156250
3503		33.203125
3504		37.109375
3505		35.156250
3506		39.062500
3507		37.109375
3508		41.015625
3509		39.062500
3510		41.015625
3511		39.062500
3512		42.968750
3513		41.015625
3514		44.921875
3515		42.968750
3516		46.875000
3517		42.968750
3518		46.875000
3519		44.921875
3520		48.828125
3521		44.921875
3522		48.828125
3523		46.875000
3524		50.781250
3525		46.875000
3526		50.781250
3527		48.828125
3528		52.734375
3529		48.828125
3530		52.734375
3531		48.828125
3532		52.734375
3533		50.781250
3534		52.734375
3535		50.781250
3536		54.687500
3537		50.781250
3538		54.687500
3539		50.781250
3540		54.687500
3541		52.734375
3542		54.687500
3543		52.734375
3544		54.687500
3545		52.734375
3546		54.687500
3547		52.734375
3548		54.687500
3549		50.781250
3550		54.687500
3551		52.734375
3552		54.687500
3553		50.781250
3554		54.687500
3555		50.781250
3556		54.687500
3557		48.828125
3558		54.687500
3559		48.828125
3560		52.734375
3561		48.828125
3562		52.734375
3563		46.875000
3564		50.781250
3565		46.875000
3566		50.781250
3567		46.875000
3568		48.828125
3569		44.921875
3570		48.828125
3571		44.921875
3572		48.828125
3573		42.968750
3574		46.875000
3575		41.015625
3576		44.921875
3577		39.062500
3578		42.968750
3579		39.062500
3580		42.968750
3581		37.109375
3582		41.015625
3583		35.156250
3584		39.062500
3585		35.156250
3586		37.109375
3587		33.203125
3588		35.156250
3589		31.250000
3590		35.156250
3591		29.296875
3592		33.203125
3593		27.343750
3594		31.250000
3595		25.390625
3596		29.296875
3597		23.437500
3598		27.343750
3599		21.484375
3600		25.390625
3601		19.531250
3602		23.437500
3603		17.578125
3604		21.484375
3605		15.625000
3606		21.484375
3607		13.671875
3608		19.531250
3609		11.718750
3610		15.625000
3611		9.765625
3612		13.671875
3613		7.812500
3614		11.718750
3615		5.859375
3616		11.718750
3617		3.906250
3618		7.812500
3619		1.953125
3620		5.859375
3621		0.000000
3622		3.906250
3623		-1.953125
3624		1.953125
3625		-3.906250
3626		0.000000
3627		-5.859375
3628		0.000000
3629		-5.859375
3630		-3.906250
3631		-7.812500
3632		-3.906250
3633		-9.765625
3634		-5.859375
3635		-11.718750
3636		-7.812500
3637		-13.671875
3638		-9.765625
3639		-15.625000
3640		-9.765625
3641		-15.625000
3642		-11.718750
3643		-17.578125
3644		-13.671875
3645		-19.531250
3646		-15.625000
3647		-19.531250
3648		-17.578125
3649		-21.484375
3650		-17.578125
3651		-21.484375
3652		-19.531250
3653		-23.437500
3654		-19.531250
3655		-23.437500
3656		-19.531250
3657		-25.390625
3658		-21.484375
3659		-25.390625
3660		-21.484375
3661		-25.390625
3662		-21.484375
3663		-25.390625
3664		-23.437500
3665		-25.390625
3666		-23.437500
3667		-25.390625
3668		-23.437500
3669		-25.390625
3670		-23.437500
3671		-27.343750
3672		-23.437500
3673		-27.343750
3674		-23.437500
3675		-27.343750
3676		-23.437500
3677		-25.390625
3678		-23.437500
3679		-25.390625
3680		-21.484375
3681		-25.390625
3682		-21.484375
3683		-25.390625
3684		-21.484375
3685		-23.437500
3686		-21.484375
3687		-23.437500
3688		-21.484375
3689		-23.437500
3690		-17.578125
3691		-21.484375
3692		-17.578125
3693		-21.484375
3694		-17.578125
3695		-19.531250
3696		-15.625000
3697		-19.531250
3698		-13.671875
3699		-17.578125
3700		-13.671875
3701		-17.578125
3702		-11.718750
3703		-13.671875
3704		-11.718750
3705		-13.671875
3706		-9.765625
3707		-11.718750
3708		-7.812500
3709		-9.765625
3710		-5.859375
3711		-7.812500
3712		-3.906250
3713		-7.812500
3714		-1.953125
3715		-3.906250
3716		0.000000
3717		-3.906250
3718		1.953125
3719		0.000000
3720		1.953125
3721		0.000000
3722		3.906250
3723		1.953125
3724		7.812500
3725		3.906250
3726		7.812500
3727		5.859375
3728		9.765625
3729		7.812500
3730		11.718750
3731		11.718750
3732		15.625000
3733		11.718750
3734		17.578125
3735		13.671875
3736		17.578125
3737		17.578125
3738		19.531250
3739		17.578125
3740		21.484375
3741		21.484375
3742		25.390625
3743		21.484375
3744		25.390625
3745		23.437500
3746		27.343750
3747		25.390625
3748		29.296875
3749		27.343750
3750		31.250000
3751		29.296875
3752		33.203125
3753		31.250000
3754		35.156250
3755		33.203125
3756		37.109375
3757		33.203125
3758		39.062500
3759		35.156250
3760		41.015625
3761		37.109375
3762		41.015625
3763		39.062500
3764		42.968750
3765		39.062500
3766		42.968750
3767		41.015625
3768		44.921875
3769		42.968750
3770		46.875000
3771		44.921875
3772		46.875000
3773		44.921875
3774		48.828125
3775		46.875000
3776		48.828125
3777		46.875000
3778		50.781250
3779		48.828125
3780		50.781250
3781		48.828125
3782		52.734375
3783		48.828125
3784		52.734375
3785		48.828125
3786		52.734375
3787		50.781250
3788		52.734375
3789		50.781250
3790		54.687500
3791		50.781250
3792		54.687500
3793		50.781250
3794		54.687500
3795		52.734375
3796		54.687500
3797		52.734375
3798		54.687500
3799		52.734375
3800		54.687500
3801		50.781250
3802		54.687500
3803		52.734375
3804		54.687500
3805		52.734375
3806		54.687500
3807		50.781250
3808		54.687500
3809		50.781250
3810		54.687500
3811		50.781250
3812		52.734375
3813		48.828125
3814		52.734375
3815		48.828125
3816		52.734375
3817		48.828125
3818		50.781250
3819		46.875000
3820		50.781250
3821		46.875000
3822		48.828125
3823		44.921875
3824		48.828125
3825		42.968750
3826		46.875000
3827		42.968750
3828		46.875000
3829		41.015625
3830		44.921875
3831		39.062500
3832		42.968750
3833		39.062500
3834		42.968750
3835		37.109375
3836		41.015625
3837		35.156250
3838		39.062500
3839		33.203125
3840		37.109375
3841		33.203125
3842		37.109375
3843		31.250000
3844		35.156250
3845		29.296875
3846		33.203125
3847		27.343750
3848		31.250000
3849		25.390625
3850		29.296875
3851		23.437500
3852		27.343750
3853		21.484375
3854		25.390625
3855		19.531250
3856		23.437500
3857		17.578125
3858		21.484375
3859		15.625000
3860		19.531250
3861		13.671875
3862		17.578125
3863		11.718750
3864		15.625000
3865		9.765625
3866		13.671875
3867		7.812500
3868		11.718750
3869		5.859375
3870		11.718750
3871		3.906250
3872		7.812500
3873		1.953125
3874		5.859375
3875		0.000000
3876		3.906250
3877		-1.953125
3878		1.953125
3879		-3.906250
3880		0.000000
3881		-5.859375
3882		-1.953125
3883		-7.812500
3884		-3.906250
3885		-7.812500
3886		-3.906250
3887		-9.765625
3888		-7.812500
3889		-11.718750
3890		-7.812500
3891		-13.671875
3892		-9.765625
3893		-15.625000
3894		-11.718750
3895		-15.625000
3896		-13.671875
3897		-17.578125
3898		-13.671875
3899		-19.531250
3900		-15.625000
3901		-19.531250
3902		-15.625000
3903		-21.484375
3904		-17.578125
3905		-21.484375
3906		-19.531250
3907		-23.437500
3908		-19.531250
3909		-23.437500
3910		-19.531250
3911		-23.437500
3912		-21.484375
3913		-25.390625
3914		-21.484375
3915		-25.390625
3916		-23.437500
3917		-25.390625
3918		-23.437500
3919		-27.343750
3920		-23.437500
3921		-25.390625
3922		-23.437500
3923		-27.343750
3924		-23.437500
3925		-27.343750
3926		-23.437500
3927		-27.343750
3928		-23.437500
3929		-25.390625
3930		-23.437500
3931		-25.390625
3932		-23.437500
3933		-25.390625
3934		-21.484375
3935		-25.390625
3936		-21.484375
3937		-23.437500
3938		-21.484375
3939		-23.437500
3940		-21.484375
3941		-23.437500
3942		-19.531250
3943		-23.437500
3944		-19.531250
3945		-21.484375
3946		-17.578125
3947		-21.484375
3948		-17.578125
3949		-19.531250
3950		-15.625000
3951		-17.578125
3952		-15.625000
3953		-15.625000
3954		-13.671875
3955		-15.625000
3956		-11.718750
3957		-13.671875
3958		-9.765625
3959		-11.718750
3960		-7.812500
3961		-11.718750
3962		-7.812500
3963		-9.765625
3964		-5.859375
3965		-7.812500
3966		-3.906250
3967		-5.859375
3968		-1.953125
3969		-3.906250
3970		0.000000
3971		-1.953125
3972		1.953125
3973		0.000000
3974		3.906250
3975		0.000000
3976		5.859375
3977		3.906250
3978		7.812500
3979		5.859375
3980		9.765625
3981		5.859375
3982		9.765625
3983		9.765625
3984		13.671875
3985		11.718750
3986		15.625000
3987		11.718750
3988		15.625000
3989		15.625000
3990		19.531250
3991		17.578125
3992		21.484375
3993		17.578125
3994		23.437500
3995		21.484375
3996		25.390625
3997		21.484375
3998		27.343750
3999		25.390625
4000		27.343750
4001		25.390625
4002		29.296875
4003		27.343750
4004		31.250000
4005		29.296875
4006		33.203125
4007		31.250000
4008		35.156250
4009		33.203125
4010		37.109375
4011		35.156250
4012		39.062500
4013		35.156250
4014		39.062500
4015		39.062500
4016		41.015625
4017		39.062500
4018		42.968750
4019		41.015625
4020		44.921875
4021		42.968750
4022		44.921875
4023		42.968750
4024		46.875000
4025		44.921875
4026		46.875000
4027		44.921875
4028		48.828125
4029		46.875000
4030		50.781250
4031		46.875000
4032		50.781250
4033		48.828125
4034		52.734375
4035		48.828125
4036		52.734375
4037		48.828125
4038		52.734375
4039		50.781250
4040		52.734375
4041		50.781250
4042		54.687500
4043		50.781250
4044		54.687500
4045		52.734375
4046		54.687500
4047		52.734375
4048		54.687500
4049		52.734375
4050		54.687500
4051		50.781250
4052		54.687500
4053		50.781250
4054		54.687500
4055		52.734375
4056		54.687500
4057		52.734375
4058		54.687500
4059		50.781250
4060		54.687500
4061		50.781250
4062		54.687500
4063		50.781250
4064		52.734375
4065		50.781250
4066		54.687500
4067		48.828125
4068		52.734375
4069		48.828125
4070		52.734375
4071		46.875000
4072		50.781250
4073		46.875000
4074		50.781250
4075		44.921875
4076		48.828125
4077		44.921875
4078		48.828125
4079		42.968750
4080		46.875000
4081		42.968750
4082		46.875000
4083		41.015625
4084		44.921875
4085		39.062500
4086		42.968750
4087		39.062500
4088		41.015625
4089		37.109375
4090		39.062500
4091		35.156250
4092		39.062500
4093		33.203125
4094		37.109375
4095		31.250000
4096		35.156250
4097		31.250000
4098		33.203125
4099		27.343750
4100		31.250000
4101		25.390625
4102		31.250000
4103		25.390625
4104		29.296875
4105		23.437500
4106		27.343750
4107		21.484375
4108		25.390625
4109		19.531250
4110		23.437500
4111		17.578125
4112		21.484375
4113		15.625000
4114		19.531250
4115		13.671875
4116		17.578125
4117		9.765625
4118		15.625000
4119		9.765625
4120		13.671875
4121		7.812500
4122		11.718750
4123		5.859375
4124		7.812500
4125		3.906250
4126		7.812500
4127		1.953125
4128		5.859375
4129		0.000000
4130		3.906250
4131		-1.953125
4132		1.953125
4133		-3.906250
4134		0.000000
4135		-5.859375
4136		-1.953125
4137		-7.812500
4138		-3.906250
4139		-9.765625
4140		-5.859375
4141		-9.765625
4142		-7.812500
4143		-11.718750
4144		-9.765625
4145		-13.671875
4146		-9.765625
4147		-15.625000
4148		-11.718750
4149		-17.578125
4150		-13.671875
4151		-17.578125
4152		-13.671875
4153		-19.531250
4154		-15.625000
4155		-19.531250
4156		-15.625000
4157		-21.484375
4158		-17.578125
4159		-23.437500
4160		-19.531250
4161		-23.437500
4162		-19.531250
4163		-23.437500
4164		-19.531250
4165		-25.390625
4166		-21.484375
4167		-25.390625
4168		-21.484375
4169		-25.390625
4170		-23.437500
4171		-25.390625
4172		-23.437500
4173		-25.390625
4174		-23.437500
4175		-27.343750
4176		-23.437500
4177		-27.343750
4178		-23.437500
4179		-27.343750
4180		-23.437500
4181		-25.390625
4182		-23.437500
4183		-27.343750
4184		-23.437500
4185		-27.343750
4186		-23.437500
4187		-25.390625
4188		-21.484375
4189		-25.390625
4190		-21.484375
4191		-23.437500
4192		-21.484375
4193		-23.437500
4194		-21.484375
4195		-23.437500
4196		-19.531250
4197		-21.484375
4198		-19.531250
4199		-21.484375
4200		-17.578125
4201		-19.531250
4202		-15.625000
4203		-19.531250
4204		-15.625000
4205		-17.578125
4206		-13.671875
4207		-15.625000
4208		-13.671875
4209		-15.625000
4210		-9.765625
4211		-13.671875
4212		-9.765625
4213		-11.718750
4214		-7.812500
4215		-11.718750
4216		-7.812500
4217		-9.765625
4218		-3.906250
4219		-7.812500
4220		-3.906250
4221		-5.859375
4222		0.000000
4223		-3.906250
4224		0.000000
4225		-1.953125
4226		1.953125
4227		0.000000
4228		3.906250
4229		1.953125
4230		5.859375
4231		3.906250
4232		7.812500
4233		5.859375
4234		9.765625
4235		7.812500
4236		11.718750
4237		9.765625
4238		13.671875
4239		11.718750
4240		15.625000
4241		13.671875
4242		17.578125
4243		15.625000
4244		19.531250
4245		17.578125
4246		21.484375
4247		19.531250
4248		23.437500
4249		21.484375
4250		25.390625
4251		23.437500
4252		27.343750
4253		23.437500
4254		29.296875
4255		27.343750
4256		31.250000
4257		29.296875
4258		31.250000
4259		31.250000
4260		33.203125
4261		31.250000
4262		35.156250
4263		33.203125
4264		37.109375
4265		35.156250
4266		39.062500
4267		37.109375
4268		41.015625
4269		39.062500
4270		42.968750
4271		39.062500
4272		44.921875
4273		41.015625
4274		44.921875
4275		42.968750
4276		44.921875
4277		42.968750
4278		46.875000
4279		44.921875
4280		48.828125
4281		46.875000
4282		48.828125
4283		46.875000
4284		50.781250
4285		46.875000
4286		50.781250
4287		48.828125
4288		50.781250
4289		48.828125
4290		52.734375
4291		50.781250
4292		52.734375
4293		50.781250
4294		54.687500
4295		50.781250
4296		54.687500
4297		50.781250
4298		54.687500
4299		52.734375
4300		54.687500
4301		52.734375
4302		54.687500
4303		52.734375
4304		56.640625
4305		52.734375
4306		54.687500
4307		52.734375
4308		54.687500
4309		52.734375
4310		54.687500
4311		50.781250
4312		54.687500
4313		50.781250
4314		54.687500
4315		50.781250
4316		54.687500
4317		50.781250
4318		52.734375
4319		48.828125
4320		52.734375
4321		48.828125
4322		52.734375
4323		48.828125
4324		52.734375
4325		48.828125
4326		50.781250
4327		46.875000
4328		48.828125
4329		44.921875
4330		48.828125
4331		44.921875
4332		48.828125
4333		42.968750
4334		46.875000
4335		42.968750
4336		46.875000
4337		41.015625
4338		44.921875
4339		39.062500
4340		42.968750
4341		39.062500
4342		41.015625
4343		37.109375
4344		41.015625
4345		35.156250
4346		39.062500
4347		33.203125
4348		37.109375
4349		31.250000
4350		35.156250
4351		29.296875
4352		33.203125
4353		27.343750
4354		31.250000
4355		25.390625
4356		29.296875
4357		25.390625
4358		29.296875
4359		23.437500
4360		25.390625
4361		21.484375
4362		23.437500
4363		17.578125
4364		23.437500
4365		17.578125
4366		21.484375
4367		15.625000
4368		19.531250
4369		13.671875
4370		17.578125
4371		9.765625
4372		15.625000
4373		9.765625
4374		11.718750
4375		7.812500
4376		11.718750
4377		3.906250
4378		7.812500
4379		1.953125
4380		7.812500
4381		1.953125
4382		5.859375
4383		0.000000
4384		3.906250
4385		-1.953125
4386		1.953125
4387		-3.906250
4388		0.000000
4389		-7.812500
4390		-1.953125
4391		-7.812500
4392		-3.906250
4393		-9.765625
4394		-5.859375
4395		-11.718750
4396		-7.812500
4397		-13.671875
4398		-9.765625
4399		-13.671875
4400		-9.765625
4401		-15.625000
4402		-11.718750
4403		-17.578125
4404		-13.671875
4405		-17.578125
4406		-15.625000
4407		-19.531250
4408		-15.625000
4409		-19.531250
4410		-17.578125
4411		-21.484375
4412		-17.578125
4413		-21.484375
4414		-19.531250
4415		-23.437500
4416		-19.531250
4417		-23.437500
4418		-19.531250
4419		-25.390625
4420		-21.484375
4421		-25.390625
4422		-21.484375
4423		-25.390625
4424		-21.484375
4425		-25.390625
4426		-23.437500
4427		-25.390625
4428		-23.437500
4429		-27.343750
4430		-23.437500
4431		-27.343750
4432		-23.437500
4433		-25.390625
4434		-23.437500
4435		-25.390625
4436		-23.437500
4437		-25.390625
4438		-23.437500
4439		-25.390625
4440		-21.484375
4441		-25.390625
4442		-21.484375
4443		-25.390625
4444		-21.484375
4445		-25.390625
4446		-21.484375
4447		-23.437500
4448		-19.531250
4449		-23.437500
4450		-19.531250
4451		-21.484375
4452		-17.578125
4453		-19.531250
4454		-17.578125
4455		-19.531250
4456		-15.625000
4457		-19.531250
4458		-15.625000
4459		-17.578125
4460		-13.671875
4461		-15.625000
4462		-11.718750
4463		-13.671875
4464		-9.765625
4465		-13.671875
4466		-9.765625
4467		-11.718750
4468		-7.812500
4469		-9.765625
4470		-5.859375
4471		-7.812500
4472		-3.906250
4473		-5.859375
4474		-1.953125
4475		-3.906250
4476		-1.953125
4477		-1.953125
4478		0.000000
4479		-1.953125
4480		3.906250
4481		0.000000
4482		3.906250
4483		1.953125
4484		5.859375
4485		3.906250
4486		7.812500
4487		5.859375
4488		9.765625
4489		7.812500
4490		11.718750
4491		9.765625
4492		13.671875
4493		11.718750
4494		15.625000
4495		13.671875
4496		19.531250
4497		17.578125
4498		19.531250
4499		17.578125
4500		23.437500
4501		19.531250
4502		23.437500
4503		21.484375
4504		25.390625
4505		23.437500
4506		27.343750
4507		25.390625
4508		29.296875
4509		27.343750
4510		31.250000
4511		29.296875
4512		33.203125
4513		29.296875
4514		35.156250
4515		33.203125
4516		37.109375
4517		35.156250
4518		37.109375
4519		35.156250
4520		39.062500
4521		37.109375
4522		41.015625
4523		39.062500
4524		42.968750
4525		39.062500
4526		42.968750
4527		42.968750
4528		44.921875
4529		42.968750
4530		46.875000
4531		42.968750
4532		48.828125
4533		44.921875
4534		48.828125
4535		46.875000
4536		50.781250
4537		46.875000
4538		50.781250
4539		48.828125
4540		52.734375
4541		48.828125
4542		52.734375
4543		50.781250
4544		52.734375
4545		50.781250
4546		54.687500
4547		50.781250
4548		54.687500
4549		52.734375
4550		54.687500
4551		52.734375
4552		54.687500
4553		52.734375
4554		54.687500
4555		52.734375
4556		56.640625
4557		52.734375
4558		56.640625
4559		52.734375
4560		54.687500
4561		52.734375
4562		54.687500
4563		52.734375
4564		54.687500
4565		52.734375
4566		54.687500
4567		50.781250
4568		54.687500
4569		50.781250
4570		54.687500
4571		50.781250
4572		54.687500
4573		48.828125
4574		52.734375
4575		48.828125
4576		54.687500
4577		48.828125
4578		50.781250
4579		46.875000
4580		52.734375
4581		46.875000
4582		48.828125
4583		44.921875
4584		48.828125
4585		44.921875
4586		48.828125
4587		42.968750
4588		46.875000
4589		42.968750
4590		44.921875
4591		41.015625
4592		44.921875
4593		39.062500
4594		42.968750
4595		37.109375
4596		41.015625
4597		37.109375
4598		41.015625
4599		33.203125
4600		39.062500
4601		33.203125
4602		37.109375
4603		31.250000
4604		35.156250
4605		29.296875
4606		33.203125
4607		27.343750
4608		31.250000
4609		25.390625
4610		29.296875
4611		23.437500
4612		27.343750
4613		21.484375
4614		25.390625
4615		21.484375
4616		23.437500
4617		17.578125
4618		21.484375
4619		15.625000
4620		19.531250
4621		15.625000
4622		19.531250
4623		11.718750
4624		17.578125
4625		9.765625
4626		15.625000
4627		9.765625
4628		11.718750
4629		5.859375
4630		11.718750
4631		3.906250
4632		7.812500
4633		3.906250
4634		7.812500
4635		1.953125
4636		5.859375
4637		-1.953125
4638		1.953125
4639		-3.906250
4640		1.953125
4641		-3.906250
4642		0.000000
4643		-5.859375
4644		-3.906250
4645		-7.812500
4646		-3.906250
4647		-9.765625
4648		-5.859375
4649		-11.718750
4650		-7.812500
4651		-13.671875
4652		-9.765625
4653		-13.671875
4654		-11.718750
4655		-15.625000
4656		-11.718750
4657		-17.578125
4658		-13.671875
4659		-17.578125
4660		-13.671875
4661		-19.531250
4662		-15.625000
4663		-21.484375
4664		-17.578125
4665		-21.484375
4666		-17.578125
4667		-23.437500
4668		-17.578125
4669		-23.437500
4670		-19.531250
4671		-23.437500
4672		-19.531250
4673		-25.390625
4674		-21.484375
4675		-25.390625
4676		-21.484375
4677		-25.390625
4678		-23.437500
4679		-25.390625
4680		-23.437500
4681		-25.390625
4682		-23.437500
4683		-27.343750
4684		-23.437500
4685		-27.343750
4686		-23.437500
4687		-27.343750
4688		-23.437500
4689		-25.390625
4690		-23.437500
4691		-25.390625
4692		-23.437500
4693		-25.390625
4694		-21.484375
4695		-25.390625
4696		-21.484375
4697		-23.437500
4698		-21.484375
4699		-23.437500
4700		-19.531250
4701		-23.437500
4702		-19.531250
4703		-23.437500
4704		-17.578125
4705		-21.484375
4706		-17.578125
4707		-19.531250
4708		-17.578125
4709		-19.531250
4710		-15.625000
4711		-17.578125
4712		-15.625000
4713		-15.625000
4714		-11.718750
4715		-15.625000
4716		-11.718750
4717		-13.671875
4718		-9.765625
4719		-11.718750
4720		-9.765625
4721		-9.765625
4722		-7.812500
4723		-9.765625
4724		-5.859375
4725		-7.812500
4726		-1.953125
4727		-5.859375
4728		-1.953125
4729		-3.906250
4730		0.000000
4731		-1.953125
4732		1.953125
4733		-1.953125
4734		3.906250
4735		1.953125
4736		5.859375
4737		3.906250
4738		7.812500
4739		5.859375
4740		9.765625
4741		7.812500
4742		11.718750
4743		7.812500
4744		13.671875
4745		11.718750
4746		15.625000
4747		13.671875
4748		17.578125
4749		15.625000
4750		19.531250
4751		17.578125
4752		21.484375
4753		19.531250
4754		23.437500
4755		21.484375
4756		25.390625
4757		23.437500
4758		27.343750
4759		23.437500
4760		29.296875
4761		27.343750
4762		29.296875
4763		29.296875
4764		31.250000
4765		29.296875
4766		33.203125
4767		31.250000
4768		35.156250
4769		33.203125
4770		37.109375
4771		35.156250
4772		39.062500
4773		37.109375
4774		41.015625
4775		37.109375
4776		41.015625
4777		39.062500
4778		42.968750
4779		41.015625
4780		44.921875
4781		42.968750
4782		46.875000
4783		42.968750
4784		46.875000
4785		44.921875
4786		48.828125
4787		44.921875
4788		48.828125
4789		46.875000
4790		50.781250
4791		46.875000
4792		50.781250
4793		48.828125
4794		52.734375
4795		50.781250
4796		52.734375
4797		50.781250
4798		54.687500
4799		50.781250
4800		54.687500
4801		50.781250
4802		54.687500
4803		52.734375
4804		54.687500
4805		52.734375
4806		54.687500
4807		52.734375
4808		54.687500
4809		50.781250
4810		56.640625
4811		52.734375
4812		54.687500
4813		52.734375
4814		56.640625
4815		52.734375
4816		56.640625
4817		52.734375
4818		56.640625
4819		52.734375
4820		54.687500
4821		50.781250
4822		54.687500
4823		50.781250
4824		54.687500
4825		50.781250
4826		52.734375
4827		48.828125
4828		52.734375
4829		48.828125
4830		52.734375
4831		48.828125
4832		50.781250
4833		46.875000
4834		50.781250
4835		46.875000
4836		50.781250
4837		44.921875
4838		48.828125
4839		42.968750
4840		46.875000
4841		42.968750
4842		46.875000
4843		41.015625
4844		44.921875
4845		41.015625
4846		42.968750
4847		39.062500
4848		42.968750
4849		37.109375
4850		41.015625
4851		35.156250
4852		39.062500
4853		35.156250
4854		39.062500
4855		31.250000
4856		35.156250
4857		31.250000
4858		35.156250
4859		29.296875
4860		33.203125
4861		27.343750
4862		31.250000
4863		25.390625
4864		29.296875
4865		23.437500
4866		27.343750
4867		21.484375
4868		25.390625
4869		19.531250
4870		25.390625
4871		17.578125
4872		21.484375
4873		15.625000
4874		19.531250
4875		13.671875
4876		17.578125
4877		11.718750
4878		15.625000
4879		9.765625
4880		13.671875
4881		7.812500
4882		11.718750
4883		5.859375
4884		11.718750
4885		3.906250
4886		7.812500
4887		1.953125
4888		5.859375
4889		0.000000
4890		3.906250
4891		-1.953125
4892		1.953125
4893		-3.906250
4894		1.953125
4895		-3.906250
4896		-1.953125
4897		-5.859375
4898		-3.906250
4899		-7.812500
4900		-3.906250
4901		-9.765625
4902		-5.859375
4903		-11.718750
4904		-7.812500
4905		-13.671875
4906		-9.765625
4907		-15.625000
4908		-9.765625
4909		-15.625000
4910		-11.718750
4911		-17.578125
4912		-13.671875
4913		-17.578125
4914		-15.625000
4915		-19.531250
4916		-15.625000
4917		-21.484375
4918		-17.578125
4919		-21.484375
4920		-17.578125
4921		-21.484375
4922		-17.578125
4923		-23.437500
4924		-19.531250
4925		-23.437500
4926		-21.484375
4927		-23.437500
4928		-21.484375
4929		-25.390625
4930		-21.484375
4931		-25.390625
4932		-21.484375
4933		-25.390625
4934		-21.484375
4935		-25.390625
4936		-23.437500
4937		-25.390625
4938		-23.437500
4939		-25.390625
4940		-23.437500
4941		-25.390625
4942		-23.437500
4943		-25.390625
4944		-21.484375
4945		-25.390625
4946		-23.437500
4947		-25.390625
4948		-21.484375
4949		-25.390625
4950		-21.484375
4951		-23.437500
4952		-21.484375
4953		-23.437500
4954		-19.531250
4955		-21.484375
4956		-19.531250
4957		-21.484375
4958		-17.578125
4959		-19.531250
4960		-17.578125
4961		-19.531250
4962		-15.625000
4963		-17.578125
4964		-15.625000
4965		-17.578125
4966		-13.671875
4967		-15.625000
4968		-11.718750
4969		-15.625000
4970		-11.718750
4971		-13.671875
4972		-9.765625
4973		-11.718750
4974		-7.812500
4975		-9.765625
4976		-5.859375
4977		-7.812500
4978		-3.906250
4979		-7.812500
4980		-1.953125
4981		-3.906250
4982		-1.953125
4983		-1.953125
4984		0.000000
4985		-1.953125
4986		3.906250
4987		0.000000
4988		3.906250
4989		1.953125
4990		5.859375
4991		3.906250
4992		7.812500
4993		5.859375
4994		9.765625
4995		7.812500
4996		11.718750
4997		9.765625
4998		13.671875
4999		11.718750
5000		17.578125
5001		13.671875
5002		17.578125
5003		15.625000
5004		19.531250
5005		17.578125
5006		21.484375
5007		19.531250
5008		23.437500
5009		21.484375
5010		25.390625
5011		23.437500
5012		27.343750
5013		25.390625
5014		29.296875
5015		27.343750
5016		31.250000
5017		29.296875
5018		33.203125
5019		31.250000
5020		35.156250
5021		33.203125
5022		37.109375
5023		35.156250
5024		37.109375
5025		35.156250
5026		39.062500
5027		37.109375
5028		41.015625
5029		37.109375
5030		42.968750
5031		41.015625
5032		42.968750
5033		42.968750
5034		44.921875
5035		42.968750
5036		46.875000
5037		44.921875
5038		48.828125
5039		44.921875
5040		48.828125
5041		46.875000
5042		50.781250
5043		46.875000
5044		50.781250
5045		48.828125
5046		52.734375
5047		50.781250
5048		52.734375
5049		50.781250
5050		52.734375
5051		48.828125
5052		54.687500
5053		50.781250
5054		54.687500
5055		52.734375
5056		54.687500
5057		52.734375
5058		54.687500
5059		52.734375
5060		56.640625
5061		52.734375
5062		56.640625
5063		52.734375
5064		56.640625
5065		52.734375
5066		56.640625
5067		52.734375
5068		56.640625
5069		52.734375
5070		56.640625
5071		52.734375
5072		54.687500
5073		52.734375
5074		54.687500
5075		52.734375
5076		54.687500
5077		52.734375
5078		54.687500
5079		50.781250
5080		54.687500
5081		50.781250
5082		52.734375
5083		48.828125
5084		52.734375
5085		48.828125
5086		52.734375
5087		46.875000
5088		50.781250
5089		46.875000
5090		50.781250
5091		44.921875
5092		48.828125
5093		44.921875
5094		48.828125
5095		42.968750
5096		46.875000
5097		42.968750
5098		44.921875
5099		41.015625
5100		44.921875
5101		39.062500
5102		42.968750
5103		37.109375
5104		41.015625
5105		35.156250
5106		39.062500
5107		35.156250
5108		39.062500
5109		33.203125
5110		37.109375
5111		31.250000
5112		35.156250
5113		29.296875
5114		33.203125
5115		27.343750
5116		31.250000
5117		25.390625
5118		29.296875
5119		23.437500
5120		27.343750
5121		21.484375
5122		25.390625
5123		19.531250
5124		23.437500
5125		17.578125
5126		21.484375
5127		15.625000
5128		19.531250
5129		13.671875
5130		17.578125
5131		11.718750
5132		15.625000
5133		9.765625
5134		13.671875
5135		7.812500
5136		13.671875
5137		5.859375
5138		11.718750
5139		3.906250
5140		7.812500
5141		1.953125
5142		5.859375
5143		0.000000
5144		3.906250
5145		-1.953125
5146		1.953125
5147		-1.953125
5148		1.953125
5149		-3.906250
5150		-1.953125
5151		-5.859375
5152		-1.953125
5153		-7.812500
5154		-3.906250
5155		-9.765625
5156		-5.859375
5157		-11.718750
5158		-7.812500
5159		-11.718750
5160		-9.765625
5161		-13.671875
5162		-9.765625
5163		-15.625000
5164		-11.718750
5165		-17.578125
5166		-13.671875
5167		-17.578125
5168		-15.625000
5169		-19.531250
5170		-15.625000
5171		-19.531250
5172		-17.578125
5173		-21.484375
5174		-17.578125
5175		-21.484375
5176		-17.578125
5177		-23.437500
5178		-19.531250
5179		-23.437500
5180		-19.531250
5181		-23.437500
5182		-21.484375
5183		-23.437500
5184		-21.484375
5185		-25.390625
5186		-21.484375
5187		-25.390625
5188		-21.484375
5189		-25.390625
5190		-21.484375
5191		-25.390625
5192		-21.484375
5193		-25.390625
5194		-21.484375
5195		-25.390625
5196		-21.484375
5197		-25.390625
5198		-21.484375
5199		-23.437500
5200		-21.484375
5201		-25.390625
5202		-19.531250
5203		-25.390625
5204		-21.484375
5205		-23.437500
5206		-19.531250
5207		-21.484375
5208		-19.531250
5209		-21.484375
5210		-17.578125
5211		-21.484375
5212		-17.578125
5213		-19.531250
5214		-15.625000
5215		-17.578125
5216		-15.625000
5217		-17.578125
5218		-13.671875
5219		-17.578125
5220		-13.671875
5221		-13.671875
5222		-11.718750
5223		-13.671875
5224		-9.765625
5225		-11.718750
5226		-7.812500
5227		-9.765625
5228		-7.812500
5229		-9.765625
5230		-3.906250
5231		-7.812500
5232		-3.906250
5233		-5.859375
5234		-1.953125
5235		-3.906250
5236		0.000000
5237		-1.953125
5238		1.953125
5239		0.000000
5240		3.906250
5241		1.953125
5242		5.859375
5243		3.906250
5244		7.812500
5245		5.859375
5246		9.765625
5247		7.812500
5248		11.718750
5249		9.765625
5250		13.671875
5251		11.718750
5252		15.625000
5253		13.671875
5254		17.578125
5255		15.625000
5256		19.531250
5257		17.578125
5258		21.484375
5259		19.531250
5260		23.437500
5261		21.484375
5262		25.390625
5263		21.484375
5264		27.343750
5265		25.390625
5266		29.296875
5267		27.343750
5268		29.296875
5269		27.343750
5270		33.203125
5271		29.296875
5272		35.156250
5273		31.250000
5274		35.156250
5275		33.203125
5276		37.109375
5277		35.156250
5278		39.062500
5279		37.109375
5280		41.015625
5281		37.109375
5282		41.015625
5283		39.062500
5284		42.968750
5285		41.015625
5286		44.921875
5287		41.015625
5288		46.875000
5289		44.921875
5290		48.828125
5291		44.921875
5292		48.828125
5293		46.875000
5294		48.828125
5295		46.875000
5296		50.781250
5297		46.875000
5298		52.734375
5299		48.828125
5300		52.734375
5301		50.781250
5302		52.734375
5303		50.781250
5304		54.687500
5305		50.781250
5306		54.687500
5307		50.781250
5308		54.687500
5309		52.734375
5310		54.687500
5311		52.734375
5312		56.640625
5313		52.734375
5314		56.640625
5315		52.734375
5316		56.640625
5317		54.687500
5318		56.640625
5319		52.734375
5320		56.640625
5321		52.734375
5322		56.640625
5323		52.734375
5324		56.640625
5325		52.734375
5326		56.640625
5327		52.734375
5328		56.640625
5329		52.734375
5330		56.640625
5331		52.734375
5332		54.687500
5333		50.781250
5334		54.687500
5335		48.828125
5336		52.734375
5337		50.781250
5338		52.734375
5339		48.828125
5340		52.734375
5341		48.828125
5342		50.781250
5343		46.875000
5344		50.781250
5345		44.921875
5346		48.828125
5347		44.921875
5348		48.828125
5349		42.968750
5350		46.875000
5351		42.968750
5352		44.921875
5353		41.015625
5354		42.968750
5355		39.062500
5356		42.968750
5357		37.109375
5358		41.015625
5359		35.156250
5360		39.062500
5361		33.203125
5362		37.109375
5363		33.203125
5364		37.109375
5365		31.250000
5366		35.156250
5367		29.296875
5368		33.203125
5369		27.343750
5370		31.250000
5371		25.390625
5372		29.296875
5373		23.437500
5374		27.343750
5375		21.484375
5376		25.390625
5377		19.531250
5378		23.437500
5379		17.578125
5380		21.484375
5381		15.625000
5382		19.531250
5383		13.671875
5384		17.578125
5385		11.718750
5386		15.625000
5387		9.765625
5388		13.671875
5389		7.812500
5390		11.718750
5391		5.859375
5392		9.765625
5393		3.906250
5394		7.812500
5395		1.953125
5396		5.859375
5397		0.000000
5398		3.906250
5399		-1.953125
5400		3.906250
5401		-3.906250
5402		0.000000
5403		-5.859375
5404		-1.953125
5405		-5.859375
5406		-3.906250
5407		-7.812500
5408		-3.906250
5409		-9.765625
5410		-5.859375
5411		-11.718750
5412		-7.812500
5413		-13.671875
5414		-9.765625
5415		-13.671875
5416		-9.765625
5417		-15.625000
5418		-11.718750
5419		-17.578125
5420		-13.671875
5421		-17.578125
5422		-13.671875
5423		-19.531250
5424		-15.625000
5425		-19.531250
5426		-17.578125
5427		-21.484375
5428		-17.578125
5429		-21.484375
5430		-17.578125
5431		-23.437500
5432		-19.531250
5433		-23.437500
5434		-21.484375
5435		-23.437500
5436		-21.484375
5437		-25.390625
5438		-21.484375
5439		-25.390625
5440		-21.484375
5441		-25.390625
5442		-21.484375
5443		-25.390625
5444		-21.484375
5445		-25.390625
5446		-21.484375
5447		-25.390625
5448		-21.484375
5449		-25.390625
5450		-21.484375
5451		-23.437500
5452		-21.484375
5453		-25.390625
5454		-21.484375
5455		-23.437500
5456		-19.531250
5457		-23.437500
5458		-19.531250
5459		-23.437500
5460		-19.531250
5461		-21.484375
5462		-17.578125
5463		-21.484375
5464		-17.578125
5465		-19.531250
5466		-15.625000
5467		-19.531250
5468		-15.625000
5469		-17.578125
5470		-15.625000
5471		-17.578125
5472		-13.671875
5473		-15.625000
5474		-11.718750
5475		-13.671875
5476		-9.765625
5477		-13.671875
5478		-9.765625
5479		-11.718750
5480		-7.812500
5481		-9.765625
5482		-5.859375
5483		-7.812500
5484		-3.906250
5485		-5.859375
5486		-3.906250
5487		-5.859375
5488		0.000000
5489		-3.906250
5490		0.000000
5491		-1.953125
5492		1.953125
5493		0.000000
5494		3.906250
5495		1.953125
5496		5.859375
5497		3.906250
5498		7.812500
5499		5.859375
5500		9.765625
5501		7.812500
5502		11.718750
5503		9.765625
5504		13.671875
5505		11.718750
5506		15.625000
5507		13.671875
5508		17.578125
5509		15.625000
5510		19.531250
5511		17.578125
5512		21.484375
5513		19.531250
5514		23.437500
5515		21.484375
5516		27.343750
5517		23.437500
5518		27.343750
5519		25.390625
5520		29.296875
5521		27.343750
5522		31.250000
5523		29.296875
5524		33.203125
5525		31.250000
5526		35.156250
5527		31.250000
5528		35.156250
5529		33.203125
5530		37.109375
5531		35.156250
5532		39.062500
5533		37.109375
5534		41.015625
5535		39.062500
5536		42.968750
5537		41.015625
5538		44.921875
5539		41.015625
5540		44.921875
5541		42.968750
5542		46.875000
5543		44.921875
5544		46.875000
5545		44.921875
5546		48.828125
5547		46.875000
5548		50.781250
5549		46.875000
5550		50.781250
5551		48.828125
5552		50.781250
5553		48.828125
5554		52.734375
5555		48.828125
5556		54.687500
5557		50.781250
5558		54.687500
5559		50.781250
5560		54.687500
5561		52.734375
5562		54.687500
5563		52.734375
5564		56.640625
5565		52.734375
5566		56.640625
5567		52.734375
5568		56.640625
5569		52.734375
5570		56.640625
5571		52.734375
5572		56.640625
5573		52.734375
5574		56.640625
5575		52.734375
5576		56.640625
5577		52.734375
5578		56.640625
5579		52.734375
5580		56.640625
5581		52.734375
5582		56.640625
5583		50.781250
5584		54.687500
5585		50.781250
5586		54.687500
5587		50.781250
5588		54.687500
5589		50.781250
5590		52.734375
5591		48.828125
5592		52.734375
5593		48.828125
5594		50.781250
5595		46.875000
5596		50.781250
5597		46.875000
5598		50.781250
5599		44.921875
5600		48.828125
5601		44.921875
5602		48.828125
5603		42.968750
5604		46.875000
5605		41.015625
5606		44.921875
5607		39.062500
5608		42.968750
5609		39.062500
5610		42.968750
5611		37.109375
5612		41.015625
5613		35.156250
5614		39.062500
5615		33.203125
5616		37.109375
5617		33.203125
5618		35.156250
5619		31.250000
5620		33.203125
5621		27.343750
5622		31.250000
5623		27.343750
5624		31.250000
5625		25.390625
5626		29.296875
5627		23.437500
5628		27.343750
5629		19.531250
5630		25.390625
5631		19.531250
5632		23.437500
5633		15.625000
5634		21.484375
5635		15.625000
5636		19.531250
5637		13.671875
5638		17.578125
5639		9.765625
5640		15.625000
5641		9.765625
5642		13.671875
5643		7.812500
5644		11.718750
5645		5.859375
5646		9.765625
5647		3.906250
5648		7.812500
5649		1.953125
5650		5.859375
5651		0.000000
5652		3.906250
5653		-1.953125
5654		1.953125
5655		-3.906250
5656		0.000000
5657		-5.859375
5658		-1.953125
5659		-7.812500
5660		-3.906250
5661		-9.765625
5662		-5.859375
5663		-9.765625
5664		-5.859375
5665		-11.718750
5666		-7.812500
5667		-13.671875
5668		-9.765625
5669		-15.625000
5670		-11.718750
5671		-15.625000
5672		-13.671875
5673		-17.578125
5674		-13.671875
5675		-19.531250
5676		-15.625000
5677		-19.531250
5678		-15.625000
5679		-21.484375
5680		-17.578125
5681		-21.484375
5682		-17.578125
5683		-21.484375
5684		-19.531250
5685		-21.484375
5686		-19.531250
5687		-23.437500
5688		-21.484375
5689		-23.437500
5690		-19.531250
5691		-23.437500
5692		-21.484375
5693		-23.437500
5694		-21.484375
5695		-25.390625
5696		-21.484375
5697		-25.390625
5698		-21.484375
5699		-25.390625
5700		-21.484375
5701		-25.390625
5702		-21.484375
5703		-25.390625
5704		-21.484375
5705		-25.390625
5706		-21.484375
5707		-25.390625
5708		-21.484375
5709		-23.437500
5710		-21.484375
5711		-23.437500
5712		-19.531250
5713		-23.437500
5714		-19.531250
5715		-21.484375
5716		-17.578125
5717		-21.484375
5718		-17.578125
5719		-19.531250
5720		-17.578125
5721		-19.531250
5722		-15.625000
5723		-17.578125
5724		-13.671875
5725		-15.625000
5726		-13.671875
5727		-15.625000
5728		-11.718750
5729		-13.671875
5730		-9.765625
5731		-11.718750
5732		-9.765625
5733		-11.718750
5734		-7.812500
5735		-9.765625
5736		-5.859375
5737		-7.812500
5738		-3.906250
5739		-5.859375
5740		-1.953125
5741		-3.906250
5742		0.000000
5743		-3.906250
5744		1.953125
5745		0.000000
5746		3.906250
5747		0.000000
5748		3.906250
5749		3.906250
5750		5.859375
5751		3.906250
5752		9.765625
5753		5.859375
5754		9.765625
5755		7.812500
5756		11.718750
5757		9.765625
5758		13.671875
5759		11.718750
5760		17.578125
5761		13.671875
5762		17.578125
5763		15.625000
5764		19.531250
5765		17.578125
5766		21.484375
5767		19.531250
5768		23.437500
5769		21.484375
5770		25.390625
5771		23.437500
5772		27.343750
5773		25.390625
5774		29.296875
5775		27.343750
5776		31.250000
5777		29.296875
5778		33.203125
5779		31.250000
5780		35.156250
5781		33.203125
5782		37.109375
5783		33.203125
5784		39.062500
5785		35.156250
5786		41.015625
5787		39.062500
5788		41.015625
5789		39.062500
5790		42.968750
5791		41.015625
5792		44.921875
5793		41.015625
5794		44.921875
5795		42.968750
5796		48.828125
5797		44.921875
5798		48.828125
5799		44.921875
5800		48.828125
5801		46.875000
5802		50.781250
5803		48.828125
5804		50.781250
5805		48.828125
5806		52.734375
5807		48.828125
5808		52.734375
5809		48.828125
5810		54.687500
5811		50.781250
5812		54.687500
5813		50.781250
5814		54.687500
5815		50.781250
5816		56.640625
5817		50.781250
5818		56.640625
5819		52.734375
5820		56.640625
5821		52.734375
5822		56.640625
5823		52.734375
5824		56.640625
5825		52.734375
5826		56.640625
5827		52.734375
5828		56.640625
5829		52.734375
5830		56.640625
5831		52.734375
5832		56.640625
5833		52.734375
5834		56.640625
5835		52.734375
5836		56.640625
5837		52.734375
5838		54.687500
5839		50.781250
5840		54.687500
5841		48.828125
5842		54.687500
5843		48.828125
5844		54.687500
5845		48.828125
5846		52.734375
5847		46.875000
5848		52.734375
5849		46.875000
5850		50.781250
5851		44.921875
5852		50.781250
5853		44.921875
5854		48.828125
5855		42.968750
5856		46.875000
5857		41.015625
5858		46.875000
5859		39.062500
5860		44.921875
5861		39.062500
5862		42.968750
5863		37.109375
5864		42.968750
5865		37.109375
5866		41.015625
5867		33.203125
5868		39.062500
5869		33.203125
5870		37.109375
5871		31.250000
5872		35.156250
5873		29.296875
5874		33.203125
5875		27.343750
5876		33.203125
5877		25.390625
5878		31.250000
5879		23.437500
5880		29.296875
5881		21.484375
5882		27.343750
5883		19.531250
5884		25.390625
5885		17.578125
5886		23.437500
5887		17.578125
5888		19.531250
5889		15.625000
5890		17.578125
5891		11.718750
5892		17.578125
5893		9.765625
5894		15.625000
5895		7.812500
5896		13.671875
5897		5.859375
5898		11.718750
5899		3.906250
5900		9.765625
5901		1.953125
5902		7.812500
5903		1.953125
5904		5.859375
5905		0.000000
5906		1.953125
5907		-1.953125
5908		1.953125
5909		-3.906250
5910		0.000000
5911		-5.859375
5912		-1.953125
5913		-7.812500
5914		-3.906250
5915		-9.765625
5916		-5.859375
5917		-11.718750
5918		-7.812500
5919		-13.671875
5920		-9.765625
5921		-13.671875
5922		-9.765625
5923		-15.625000
5924		-11.718750
5925		-15.625000
5926		-11.718750
5927		-17.578125
5928		-15.625000
5929		-19.531250
5930		-15.625000
5931		-19.531250
5932		-17.578125
5933		-19.531250
5934		-17.578125
5935		-21.484375
5936		-19.531250
5937		-23.437500
5938		-19.531250
5939		-23.437500
5940		-19.531250
5941		-23.437500
5942		-21.484375
5943		-23.437500
5944		-21.484375
5945		-23.437500
5946		-21.484375
5947		-25.390625
5948		-21.484375
5949		-25.390625
5950		-21.484375
5951		-25.390625
5952		-21.484375
5953		-25.390625
5954		-23.437500
5955		-25.390625
5956		-23.437500
5957		-23.437500
5958		-21.484375
5959		-23.437500
5960		-21.484375
5961		-23.437500
5962		-21.484375
5963		-23.437500
5964		-21.484375
5965		-23.437500
5966		-19.531250
5967		-21.484375
5968		-19.531250
5969		-21.484375
5970		-19.531250
5971		-19.531250
5972		-17.578125
5973		-19.531250
5974		-17.578125
5975		-17.578125
5976		-15.625000
5977		-17.578125
5978		-13.671875
5979		-15.625000
5980		-13.671875
5981		-13.671875
5982		-11.718750
5983		-13.671875
5984		-9.765625
5985		-11.718750
5986		-9.765625
5987		-9.765625
5988		-7.812500
5989		-9.765625
5990		-5.859375
5991		-7.812500
5992		-3.906250
5993		-5.859375
5994		-1.953125
5995		-3.906250
5996		0.000000
5997		-1.953125
5998		1.953125
5999		0.000000
6000		3.906250
6001		1.953125
6002		3.906250
6003		3.906250
6004		5.859375
6005		5.859375
6006		7.812500
6007		7.812500
6008		9.765625
6009		7.812500
6010		13.671875
6011		7.812500
6012		17.578125
6013		9.765625
6014		19.531250
6015		15.625000
6016		19.531250
6017		17.578125
6018		19.531250
6019		17.578125
6020		21.484375
6021		21.484375
6022		23.437500
6023		23.437500
6024		25.390625
6025		21.484375
6026		31.250000
6027		23.437500
6028		33.203125
6029		25.390625
6030		35.156250
6031		29.296875
6032		33.203125
6033		31.250000
6034		35.156250
6035		33.203125
6036		37.109375
6037		35.156250
6038		39.062500
6039		37.109375
6040		41.015625
6041		39.062500
6042		41.015625
6043		37.109375
6044		44.921875
6045		39.062500
6046		46.875000
6047		39.062500
6048		48.828125
6049		42.968750
6050		46.875000
6051		44.921875
6052		48.828125
6053		44.921875
6054		48.828125
6055		46.875000
6056		50.781250
6057		48.828125
6058		50.781250
6059		46.875000
6060		54.687500
6061		46.875000
6062		56.640625
6063		46.875000
6064		56.640625
6065		50.781250
6066		54.687500
6067		52.734375
6068		54.687500
6069		52.734375
6070		54.687500
6071		52.734375
6072		54.687500
6073		52.734375
6074		54.687500
6075		50.781250
6076		58.593750
6077		50.781250
6078		60.546875
6079		50.781250
6080		60.546875
6081		50.781250
6082		60.546875
6083		52.734375
6084		56.640625
6085		52.734375
6086		54.687500
6087		52.734375
6088		56.640625
6089		52.734375
6090		54.687500
6091		52.734375
6092		54.687500
6093		48.828125
6094		56.640625
6095		46.875000
6096		56.640625
6097		46.875000
6098		56.640625
6099		48.828125
6100		52.734375
6101		46.875000
6102		50.781250
6103		46.875000
6104		48.828125
6105		44.921875
6106		48.828125
6107		44.921875
6108		46.875000
6109		39.062500
6110		48.828125
6111		39.062500
6112		48.828125
6113		39.062500
6114		46.875000
6115		37.109375
6116		44.921875
6117		37.109375
6118		41.015625
6119		37.109375
6120		39.062500
6121		35.156250
6122		39.062500
6123		33.203125
6124		37.109375
6125		31.250000
6126		35.156250
6127		27.343750
6128		37.109375
6129		25.390625
6130		35.156250
6131		23.437500
6132		33.203125
6133		23.437500
6134		27.343750
6135		21.484375
6136		25.390625
6137		19.531250
6138		23.437500
6139		17.578125
6140		21.484375
6141		15.625000
6142		19.531250
6143		9.765625
6144		21.484375
6145		9.765625
6146		19.531250
6147		5.859375
6148		17.578125
6149		7.812500
6150		11.718750
6151		5.859375
6152		9.765625
6153		3.906250
6154		7.812500
6155		1.953125
6156		5.859375
6157		0.000000
6158		3.906250
6159		-3.906250
6160		3.906250
6161		-5.859375
6162		5.859375
6163		-7.812500
6164		1.953125
6165		-7.812500
6166		0.000000
6167		-7.812500
6168		-3.906250
6169		-9.765625
6170		-5.859375
6171		-11.718750
6172		-7.812500
6173		-11.718750
6174		-9.765625
6175		-13.671875
6176		-11.718750
6177		-19.531250
6178		-9.765625
6179		-19.531250
6180		-11.718750
6181		-19.531250
6182		-11.718750
6183		-19.531250
6184		-15.625000
6185		-19.531250
6186		-17.578125
6187		-21.484375
6188		-17.578125
6189		-21.484375
6190		-17.578125
6191		-21.484375
6192		-19.531250
6193		-23.437500
6194		-19.531250
6195		-25.390625
6196		-19.531250
6197		-27.343750
6198		-19.531250
6199		-23.437500
6200		-21.484375
6201		-23.437500
6202		-21.484375
6203		-25.390625
6204		-23.437500
6205		-25.390625
6206		-23.437500
6207		-25.390625
6208		-21.484375
6209		-25.390625
6210		-21.484375
6211		-25.390625
6212		-21.484375
6213		-27.343750
6214		-19.531250
6215		-25.390625
6216		-19.531250
6217		-23.437500
6218		-21.484375
6219		-23.437500
6220		-19.531250
6221		-21.484375
6222		-19.531250
6223		-21.484375
6224		-17.578125
6225		-19.531250
6226		-17.578125
6227		-21.484375
6228		-15.625000
6229		-19.531250
6230		-13.671875
6231		-17.578125
6232		-11.718750
6233		-15.625000
6234		-13.671875
6235		-15.625000
6236		-11.718750
6237		-11.718750
6238		-9.765625
6239		-11.718750
6240		-7.812500
6241		-9.765625
6242		-5.859375
6243		-7.812500
6244		-5.859375
6245		-5.859375
6246		-3.906250
6247		-5.859375
6248		-1.953125
6249		-3.906250
6250		0.000000
6251		-1.953125
6252		1.953125
6253		0.000000
6254		3.906250
6255		1.953125
6256		5.859375
6257		3.906250
6258		7.812500
6259		5.859375
6260		9.765625
6261		7.812500
6262		11.718750
6263		9.765625
6264		13.671875
6265		11.718750
6266		15.625000
6267		13.671875
6268		17.578125
6269		15.625000
6270		19.531250
6271		17.578125
6272		21.484375
6273		19.531250
6274		23.437500
6275		21.484375
6276		25.390625
6277		23.437500
6278		27.343750
6279		25.390625
6280		29.296875
6281		27.343750
6282		31.250000
6283		29.296875
6284		31.250000
6285		31.250000
6286		33.203125
6287		33.203125
6288		35.156250
6289		33.203125
6290		37.109375
6291		35.156250
6292		39.062500
6293		37.109375
6294		41.015625
6295		39.062500
6296		42.968750
6297		39.062500
6298		42.968750
6299		41.015625
6300		44.921875
6301		42.968750
6302		46.875000
6303		42.968750
6304		46.875000
6305		44.921875
6306		48.828125
6307		46.875000
6308		48.828125
6309		46.875000
6310		50.781250
6311		46.875000
6312		52.734375
6313		48.828125
6314		52.734375
6315		50.781250
6316		52.734375
6317		50.781250
6318		54.687500
6319		50.781250
6320		54.687500
6321		52.734375
6322		54.687500
6323		52.734375
6324		54.687500
6325		52.734375
6326		56.640625
6327		52.734375
6328		56.640625
6329		52.734375
6330		56.640625
6331		52.734375
6332		56.640625
6333		54.687500
6334		56.640625
6335		52.734375
6336		56.640625
6337		52.734375
6338		56.640625
6339		52.734375
6340		56.640625
6341		52.734375
6342		56.640625
6343		52.734375
6344		54.687500
6345		50.781250
6346		56.640625
6347		50.781250
6348		54.687500
6349		48.828125
6350		52.734375
6351		48.828125
6352		52.734375
6353		48.828125
6354		52.734375
6355		48.828125
6356		50.781250
6357		46.875000
6358		48.828125
6359		44.921875
6360		48.828125
6361		42.968750
6362		48.828125
6363		42.968750
6364		46.875000
6365		41.015625
6366		44.921875
6367		39.062500
6368		42.968750
6369		39.062500
6370		42.968750
6371		37.109375
6372		41.015625
6373		35.156250
6374		39.062500
6375		35.156250
6376		37.109375
6377		33.203125
6378		35.156250
6379		29.296875
6380		37.109375
6381		29.296875
6382		33.203125
6383		27.343750
6384		31.250000
6385		23.437500
6386		29.296875
6387		23.437500
6388		27.343750
6389		21.484375
6390		25.390625
6391		19.531250
6392		23.437500
6393		17.578125
6394		21.484375
6395		15.625000
6396		19.531250
6397		13.671875
6398		17.578125
6399		11.718750
6400		15.625000
6401		9.765625
6402		13.671875
6403		7.812500
6404		11.718750
6405		5.859375
6406		9.765625
6407		3.906250
6408		7.812500
6409		1.953125
6410		5.859375
6411		-1.953125
6412		3.906250
6413		-1.953125
6414		1.953125
6415		-3.906250
6416		0.000000
6417		-5.859375
6418		-1.953125
6419		-7.812500
6420		-1.953125
6421		-7.812500
6422		-3.906250
6423		-9.765625
6424		-5.859375
6425		-11.718750
6426		-7.812500
6427		-13.671875
6428		-9.765625
6429		-15.625000
6430		-9.765625
6431		-15.625000
6432		-11.718750
6433		-17.578125
6434		-13.671875
6435		-17.578125
6436		-15.625000
6437		-19.531250
6438		-15.625000
6439		-19.531250
6440		-17.578125
6441		-21.484375
6442		-17.578125
6443		-21.484375
6444		-19.531250
6445		-23.437500
6446		-19.531250
6447		-23.437500
6448		-19.531250
6449		-23.437500
6450		-21.484375
6451		-25.390625
6452		-21.484375
6453		-25.390625
6454		-21.484375
6455		-25.390625
6456		-21.484375
6457		-25.390625
6458		-21.484375
6459		-25.390625
6460		-23.437500
6461		-25.390625
6462		-23.437500
6463		-25.390625
6464		-21.484375
6465		-25.390625
6466		-21.484375
6467		-23.437500
6468		-21.484375
6469		-25.390625
6470		-19.531250
6471		-23.437500
6472		-19.531250
6473		-21.484375
6474		-19.531250
6475		-21.484375
6476		-19.531250
6477		-21.484375
6478		-17.578125
6479		-19.531250
6480		-17.578125
6481		-19.531250
6482		-15.625000
6483		-17.578125
6484		-15.625000
6485		-17.578125
6486		-13.671875
6487		-15.625000
6488		-11.718750
6489		-13.671875
6490		-11.718750
6491		-11.718750
6492		-9.765625
6493		-11.718750
6494		-7.812500
6495		-9.765625
6496		-5.859375
6497		-7.812500
6498		-5.859375
6499		-5.859375
6500		-3.906250
6501		-3.906250
6502		-1.953125
6503		-3.906250
6504		0.000000
6505		-1.953125
6506		1.953125
6507		0.000000
6508		3.906250
6509		1.953125
6510		5.859375
6511		3.906250
6512		7.812500
6513		5.859375
6514		9.765625
6515		7.812500
6516		11.718750
6517		9.765625
6518		13.671875
6519		11.718750
6520		15.625000
6521		13.671875
6522		17.578125
6523		15.625000
6524		19.531250
6525		17.578125
6526		21.484375
6527		19.531250
6528		23.437500
6529		21.484375
6530		25.390625
6531		23.437500
6532		27.343750
6533		25.390625
6534		29.296875
6535		27.343750
6536		31.250000
6537		29.296875
6538		33.203125
6539		31.250000
6540		33.203125
6541		33.203125
6542		35.156250
6543		35.156250
6544		37.109375
6545		35.156250
6546		39.062500
6547		37.109375
6548		41.015625
6549		39.062500
6550		42.968750
6551		39.062500
6552		42.968750
6553		42.968750
6554		44.921875
6555		42.968750
6556		46.875000
6557		44.921875
6558		46.875000
6559		44.921875
6560		48.828125
6561		46.875000
6562		48.828125
6563		46.875000
6564		50.781250
6565		48.828125
6566		50.781250
6567		50.781250
6568		52.734375
6569		50.781250
6570		52.734375
6571		50.781250
6572		52.734375
6573		52.734375
6574		54.687500
6575		52.734375
6576		54.687500
6577		52.734375
6578		54.687500
6579		52.734375
6580		54.687500
6581		52.734375
6582		56.640625
6583		52.734375
6584		56.640625
6585		52.734375
6586		56.640625
6587		52.734375
6588		56.640625
6589		54.687500
6590		56.640625
6591		52.734375
6592		54.687500
6593		52.734375
6594		56.640625
6595		52.734375
6596		54.687500
6597		50.781250
6598		56.640625
6599		50.781250
6600		54.687500
6601		50.781250
6602		52.734375
6603		50.781250
6604		52.734375
6605		48.828125
6606		52.734375
6607		48.828125
6608		50.781250
6609		46.875000
6610		50.781250
6611		46.875000
6612		48.828125
6613		44.921875
6614		48.828125
6615		44.921875
6616		46.875000
6617		42.968750
6618		44.921875
6619		41.015625
6620		44.921875
6621		39.062500
6622		42.968750
6623		37.109375
6624		41.015625
6625		37.109375
6626		41.015625
6627		35.156250
6628		39.062500
6629		33.203125
6630		37.109375
6631		31.250000
6632		37.109375
6633		29.296875
6634		35.156250
6635		27.343750
6636		31.250000
6637		27.343750
6638		29.296875
6639		25.390625
6640		27.343750
6641		23.437500
6642		25.390625
6643		21.484375
6644		25.390625
6645		19.531250
6646		23.437500
6647		15.625000
6648		21.484375
6649		13.671875
6650		19.531250
6651		13.671875
6652		17.578125
6653		11.718750
6654		15.625000
6655		9.765625
6656		13.671875
6657		7.812500
6658		11.718750
6659		5.859375
6660		7.812500
6661		3.906250
6662		5.859375
6663		0.000000
6664		5.859375
6665		-1.953125
6666		3.906250
6667		-1.953125
6668		1.953125
6669		-3.906250
6670		0.000000
6671		-5.859375
6672		-1.953125
6673		-7.812500
6674		-3.906250
6675		-9.765625
6676		-5.859375
6677		-9.765625
6678		-7.812500
6679		-11.718750
6680		-9.765625
6681		-15.625000
6682		-7.812500
6683		-15.625000
6684		-9.765625
6685		-15.625000
6686		-13.671875
6687		-17.578125
6688		-13.671875
6689		-17.578125
6690		-15.625000
6691		-19.531250
6692		-17.578125
6693		-19.531250
6694		-17.578125
6695		-21.484375
6696		-19.531250
6697		-23.437500
6698		-17.578125
6699		-25.390625
6700		-17.578125
6701		-23.437500
6702		-21.484375
6703		-23.437500
6704		-21.484375
6705		-25.390625
6706		-21.484375
6707		-25.390625
6708		-21.484375
6709		-25.390625
6710		-21.484375
6711		-25.390625
6712		-23.437500
6713		-25.390625
6714		-23.437500
6715		-27.343750
6716		-21.484375
6717		-25.390625
6718		-21.484375
6719		-23.437500
6720		-21.484375
6721		-25.390625
6722		-21.484375
6723		-23.437500
6724		-21.484375
6725		-23.437500
6726		-21.484375
6727		-21.484375
6728		-19.531250
6729		-21.484375
6730		-19.531250
6731		-23.437500
6732		-15.625000
6733		-21.484375
6734		-15.625000
6735		-19.531250
6736		-15.625000
6737		-17.578125
6738		-15.625000
6739		-15.625000
6740		-13.671875
6741		-15.625000
6742		-11.718750
6743		-13.671875
6744		-11.718750
6745		-11.718750
6746		-9.765625
6747		-11.718750
6748		-5.859375
6749		-11.718750
6750		-3.906250
6751		-9.765625
6752		-3.906250
6753		-5.859375
6754		-3.906250
6755		-3.906250
6756		-1.953125
6757		-1.953125
6758		0.000000
6759		0.000000
6760		1.953125
6761		1.953125
6762		3.906250
6763		1.953125
6764		5.859375
6765		1.953125
6766		9.765625
6767		5.859375
6768		11.718750
6769		9.765625
6770		11.718750
6771		9.765625
6772		13.671875
6773		13.671875
6774		15.625000
6775		15.625000
6776		17.578125
6777		15.625000
6778		19.531250
6779		17.578125
6780		21.484375
6781		19.531250
6782		25.390625
6783		21.484375
6784		27.343750
6785		23.437500
6786		27.343750
6787		25.390625
6788		29.296875
6789		27.343750
6790		31.250000
6791		29.296875
6792		33.203125
6793		31.250000
6794		35.156250
6795		33.203125
6796		37.109375
6797		35.156250
6798		39.062500
6799		35.156250
6800		41.015625
6801		37.109375
6802		41.015625
6803		39.062500
6804		42.968750
6805		41.015625
6806		44.921875
6807		42.968750
6808		44.921875
6809		42.968750
6810		46.875000
6811		44.921875
6812		46.875000
6813		46.875000
6814		48.828125
6815		46.875000
6816		50.781250
6817		48.828125
6818		50.781250
6819		48.828125
6820		50.781250
6821		48.828125
6822		52.734375
6823		50.781250
6824		52.734375
6825		50.781250
6826		54.687500
6827		52.734375
6828		54.687500
6829		52.734375
6830		54.687500
6831		52.734375
6832		54.687500
6833		52.734375
6834		54.687500
6835		52.734375
6836		54.687500
6837		52.734375
6838		56.640625
6839		52.734375
6840		56.640625
6841		52.734375
6842		56.640625
6843		52.734375
6844		56.640625
6845		52.734375
6846		54.687500
6847		52.734375
6848		54.687500
6849		50.781250
6850		56.640625
6851		52.734375
6852		54.687500
6853		50.781250
6854		52.734375
6855		50.781250
6856		52.734375
6857		50.781250
6858		52.734375
6859		48.828125
6860		50.781250
6861		48.828125
6862		50.781250
6863		46.875000
6864		48.828125
6865		46.875000
6866		48.828125
6867		44.921875
6868		48.828125
6869		42.968750
6870		46.875000
6871		42.968750
6872		44.921875
6873		41.015625
6874		42.968750
6875		39.062500
6876		42.968750
6877		37.109375
6878		41.015625
6879		37.109375
6880		39.062500
6881		35.156250
6882		37.109375
6883		33.203125
6884		37.109375
6885		31.250000
6886		35.156250
6887		29.296875
6888		33.203125
6889		27.343750
6890		31.250000
6891		25.390625
6892		29.296875
6893		23.437500
6894		27.343750
6895		21.484375
6896		25.390625
6897		19.531250
6898		23.437500
6899		17.578125
6900		21.484375
6901		15.625000
6902		19.531250
6903		13.671875
6904		17.578125
6905		11.718750
6906		15.625000
6907		9.765625
6908		13.671875
6909		7.812500
6910		11.718750
6911		5.859375
6912		9.765625
6913		3.906250
6914		7.812500
6915		1.953125
6916		5.859375
6917		0.000000
6918		3.906250
6919		-1.953125
6920		1.953125
6921		-1.953125
6922		0.000000
6923		-3.906250
6924		-1.953125
6925		-5.859375
6926		-1.953125
6927		-7.812500
6928		-3.906250
6929		-9.765625
6930		-5.859375
6931		-11.718750
6932		-7.812500
6933		-11.718750
6934		-9.765625
6935		-13.671875
6936		-11.718750
6937		-15.625000
6938		-11.718750
6939		-15.625000
6940		-13.671875
6941		-17.578125
6942		-15.625000
6943		-19.531250
6944		-15.625000
6945		-19.531250
6946		-17.578125
6947		-21.484375
6948		-17.578125
6949		-21.484375
6950		-19.531250
6951		-21.484375
6952		-19.531250
6953		-23.437500
6954		-21.484375
6955		-23.437500
6956		-21.484375
6957		-25.390625
6958		-21.484375
6959		-23.437500
6960		-21.484375
6961		-25.390625
6962		-21.484375
6963		-25.390625
6964		-23.437500
6965		-25.390625
6966		-23.437500
6967		-25.390625
6968		-23.437500
6969		-25.390625
6970		-21.484375
6971		-25.390625
6972		-23.437500
6973		-23.437500
6974		-21.484375
6975		-25.390625
6976		-21.484375
6977		-23.437500
6978		-21.484375
6979		-23.437500
6980		-19.531250
6981		-21.484375
6982		-19.531250
6983		-21.484375
6984		-19.531250
6985		-19.531250
6986		-17.578125
6987		-19.531250
6988		-17.578125
6989		-17.578125
6990		-15.625000
6991		-17.578125
6992		-13.671875
6993		-15.625000
6994		-13.671875
6995		-15.625000
6996		-11.718750
6997		-13.671875
6998		-9.765625
6999		-11.718750
7000		-9.765625
7001		-9.765625
7002		-7.812500
7003		-9.765625
7004		-5.859375
7005		-7.812500
7006		-3.906250
7007		-5.859375
7008		-1.953125
7009		-3.906250
7010		0.000000
7011		-1.953125
7012		1.953125
7013		0.000000
7014		3.906250
7015		1.953125
7016		5.859375
7017		3.906250
7018		5.859375
7019		5.859375
7020		9.765625
7021		7.812500
7022		11.718750
7023		9.765625
7024		13.671875
7025		11.718750
7026		15.625000
7027		13.671875
7028		15.625000
7029		15.625000
7030		17.578125
7031		17.578125
7032		19.531250
7033		19.531250
7034		21.484375
7035		21.484375
7036		23.437500
7037		23.437500
7038		25.390625
7039		25.390625
7040		27.343750
7041		27.343750
7042		29.296875
7043		29.296875
7044		31.250000
7045		29.296875
7046		33.203125
7047		31.250000
7048		35.156250
7049		33.203125
7050		37.109375
7051		35.156250
7052		39.062500
7053		37.109375
7054		39.062500
7055		39.062500
7056		41.015625
7057		39.062500
7058		42.968750
7059		41.015625
7060		44.921875
7061		42.968750
7062		44.921875
7063		42.968750
7064		46.875000
7065		44.921875
7066		46.875000
7067		46.875000
7068		48.828125
7069		46.875000
7070		50.781250
7071		48.828125
7072		50.781250
7073		48.828125
7074		52.734375
7075		50.781250
7076		52.734375
7077		50.781250
7078		52.734375
7079		50.781250
7080		54.687500
7081		52.734375
7082		54.687500
7083		52.734375
7084		54.687500
7085		52.734375
7086		54.687500
7087		52.734375
7088		54.687500
7089		52.734375
7090		54.687500
7091		52.734375
7092		56.640625
7093		52.734375
7094		56.640625
7095		54.687500
7096		56.640625
7097		52.734375
7098		54.687500
7099		52.734375
7100		54.687500
7101		52.734375
7102		56.640625
7103		52.734375
7104		54.687500
7105		50.781250
7106		54.687500
7107		50.781250
7108		54.687500
7109		50.781250
7110		52.734375
7111		50.781250
7112		52.734375
7113		48.828125
7114		50.781250
7115		48.828125
7116		50.781250
7117		46.875000
7118		48.828125
7119		46.875000
7120		48.828125
7121		44.921875
7122		46.875000
7123		42.968750
7124		46.875000
7125		41.015625
7126		44.921875
7127		41.015625
7128		42.968750
7129		39.062500
7130		42.968750
7131		37.109375
7132		41.015625
7133		35.156250
7134		39.062500
7135		35.156250
7136		37.109375
7137		33.203125
7138		35.156250
7139		31.250000
7140		35.156250
7141		29.296875
7142		33.203125
7143		27.343750
7144		31.250000
7145		25.390625
7146		29.296875
7147		23.437500
7148		27.343750
7149		21.484375
7150		25.390625
7151		19.531250
7152		23.437500
7153		17.578125
7154		21.484375
7155		15.625000
7156		19.531250
7157		13.671875
7158		17.578125
7159		11.718750
7160		15.625000
7161		9.765625
7162		13.671875
7163		7.812500
7164		11.718750
7165		5.859375
7166		9.765625
7167		3.906250
7168		7.812500
7169		1.953125
7170		5.859375
7171		0.000000
7172		3.906250
7173		-1.953125
7174		1.953125
7175		-3.906250
7176		0.000000
7177		-3.906250
7178		-1.953125
7179		-5.859375
7180		-3.906250
7181		-7.812500
7182		-5.859375
7183		-9.765625
7184		-5.859375
7185		-11.718750
7186		-7.812500
7187		-13.671875
7188		-9.765625
7189		-13.671875
7190		-11.718750
7191		-15.625000
7192		-11.718750
7193		-17.578125
7194		-13.671875
7195		-17.578125
7196		-15.625000
7197		-19.531250
7198		-15.625000
7199		-19.531250
7200		-17.578125
7201		-21.484375
7202		-17.578125
7203		-21.484375
7204		-19.531250
7205		-23.437500
7206		-19.531250
7207		-23.437500
7208		-21.484375
7209		-23.437500
7210		-21.484375
7211		-23.437500
7212		-21.484375
7213		-25.390625
7214		-23.437500
7215		-25.390625
7216		-23.437500
7217		-25.390625
7218		-23.437500
7219		-25.390625
7220		-23.437500
7221		-25.390625
7222		-23.437500
7223		-25.390625
7224		-23.437500
7225		-25.390625
7226		-23.437500
7227		-25.390625
7228		-21.484375
7229		-23.437500
7230		-21.484375
7231		-23.437500
7232		-21.484375
7233		-23.437500
7234		-19.531250
7235		-21.484375
7236		-19.531250
7237		-21.484375
7238		-19.531250
7239		-21.484375
7240		-17.578125
7241		-19.531250
7242		-17.578125
7243		-17.578125
7244		-15.625000
7245		-17.578125
7246		-13.671875
7247		-15.625000
7248		-13.671875
7249		-13.671875
7250		-11.718750
7251		-13.671875
7252		-9.765625
7253		-11.718750
7254		-7.812500
7255		-9.765625
7256		-7.812500
7257		-9.765625
7258		-5.859375
7259		-7.812500
7260		-3.906250
7261		-5.859375
7262		-1.953125
7263		-3.906250
7264		0.000000
7265		-1.953125
7266		1.953125
7267		0.000000
7268		3.906250
7269		1.953125
7270		5.859375
7271		3.906250
7272		7.812500
7273		5.859375
7274		9.765625
7275		7.812500
7276		11.718750
7277		9.765625
7278		13.671875
7279		11.718750
7280		15.625000
7281		13.671875
7282		17.578125
7283		15.625000
7284		19.531250
7285		17.578125
7286		21.484375
7287		19.531250
7288		23.437500
7289		21.484375
7290		23.437500
7291		23.437500
7292		27.343750
7293		25.390625
7294		29.296875
7295		27.343750
7296		29.296875
7297		29.296875
7298		31.250000
7299		31.250000
7300		33.203125
7301		31.250000
7302		35.156250
7303		33.203125
7304		37.109375
7305		35.156250
7306		39.062500
7307		37.109375
7308		41.015625
7309		39.062500
7310		41.015625
7311		39.062500
7312		42.968750
7313		41.015625
7314		44.921875
7315		42.968750
7316		44.921875
7317		44.921875
7318		46.875000
7319		44.921875
7320		48.828125
7321		46.875000
7322		48.828125
7323		46.875000
7324		50.781250
7325		48.828125
7326		50.781250
7327		48.828125
7328		52.734375
7329		50.781250
7330		52.734375
7331		50.781250
7332		52.734375
7333		50.781250
7334		54.687500
7335		52.734375
7336		54.687500
7337		52.734375
7338		54.687500
7339		52.734375
7340		54.687500
7341		52.734375
7342		54.687500
7343		52.734375
7344		54.687500
7345		52.734375
7346		54.687500
7347		52.734375
7348		54.687500
7349		52.734375
7350		54.687500
7351		52.734375
7352		56.640625
7353		52.734375
7354		54.687500
7355		52.734375
7356		54.687500
7357		52.734375
7358		54.687500
7359		50.781250
7360		54.687500
7361		50.781250
7362		52.734375
7363		48.828125
7364		52.734375
7365		48.828125
7366		52.734375
7367		48.828125
7368		50.781250
7369		46.875000
7370		50.781250
7371		46.875000
7372		48.828125
7373		44.921875
7374		48.828125
7375		42.968750
7376		46.875000
7377		42.968750
7378		44.921875
7379		41.015625
7380		44.921875
7381		39.062500
7382		42.968750
7383		39.062500
7384		41.015625
7385		37.109375
7386		41.015625
7387		35.156250
7388		39.062500
7389		33.203125
7390		37.109375
7391		31.250000
7392		35.156250
7393		29.296875
7394		33.203125
7395		29.296875
7396		31.250000
7397		27.343750
7398		29.296875
7399		25.390625
7400		27.343750
7401		23.437500
7402		25.390625
7403		21.484375
7404		23.437500
7405		19.531250
7406		23.437500
7407		17.578125
7408		19.531250
7409		15.625000
7410		19.531250
7411		13.671875
7412		17.578125
7413		11.718750
7414		15.625000
7415		9.765625
7416		11.718750
7417		7.812500
7418		11.718750
7419		5.859375
7420		9.765625
7421		3.906250
7422		7.812500
7423		1.953125
7424		3.906250
7425		0.000000
7426		3.906250
7427		-1.953125
7428		1.953125
7429		-3.906250
7430		0.000000
7431		-5.859375
7432		-1.953125
7433		-7.812500
7434		-3.906250
7435		-9.765625
7436		-5.859375
7437		-9.765625
7438		-7.812500
7439		-11.718750
7440		-9.765625
7441		-13.671875
7442		-9.765625
7443		-15.625000
7444		-11.718750
7445		-15.625000
7446		-13.671875
7447		-17.578125
7448		-13.671875
7449		-19.531250
7450		-15.625000
7451		-19.531250
7452		-17.578125
7453		-21.484375
7454		-17.578125
7455		-21.484375
7456		-19.531250
7457		-21.484375
7458		-19.531250
7459		-23.437500
7460		-21.484375
7461		-23.437500
7462		-21.484375
7463		-23.437500
7464		-21.484375
7465		-25.390625
7466		-21.484375
7467		-25.390625
7468		-23.437500
7469		-25.390625
7470		-23.437500
7471		-25.390625
7472		-23.437500
7473		-25.390625
7474		-23.437500
7475		-25.390625
7476		-23.437500
7477		-25.390625
7478		-23.437500
7479		-25.390625
7480		-23.437500
7481		-25.390625
7482		-21.484375
7483		-23.437500
7484		-21.484375
7485		-23.437500
7486		-21.484375
7487		-23.437500
7488		-19.531250
7489		-21.484375
7490		-19.531250
7491		-21.484375
7492		-19.531250
7493		-19.531250
7494		-17.578125
7495		-19.531250
7496		-15.625000
7497		-17.578125
7498		-15.625000
7499		-17.578125
7500		-13.671875
7501		-15.625000
7502		-13.671875
7503		-13.671875
7504		-11.718750
7505		-13.671875
7506		-9.765625
7507		-11.718750
7508		-7.812500
7509		-9.765625
7510		-7.812500
7511		-7.812500
7512		-5.859375
7513		-7.812500
7514		-3.906250
7515		-5.859375
7516		-1.953125
7517		-3.906250
7518		0.000000
7519		-1.953125
7520		1.953125
7521		0.000000
7522		3.906250
7523		1.953125
7524		5.859375
7525		3.906250
7526		7.812500
7527		5.859375
7528		9.765625
7529		7.812500
7530		11.718750
7531		9.765625
7532		13.671875
7533		11.718750
7534		15.625000
7535		13.671875
7536		17.578125
7537		15.625000
7538		19.531250
7539		17.578125
7540		21.484375
7541		19.531250
7542		23.437500
7543		21.484375
7544		25.390625
7545		23.437500
7546		27.343750
7547		25.390625
7548		29.296875
7549		27.343750
7550		31.250000
7551		29.296875
7552		31.250000
7553		31.250000
7554		33.203125
7555		33.203125
7556		35.156250
7557		33.203125
7558		37.109375
7559		35.156250
7560		39.062500
7561		37.109375
7562		41.015625
7563		39.062500
7564		41.015625
7565		41.015625
7566		42.968750
7567		41.015625
7568		44.921875
7569		42.968750
7570		44.921875
7571		44.921875
7572		46.875000
7573		44.921875
7574		48.828125
7575		46.875000
7576		48.828125
7577		46.875000
7578		50.781250
7579		48.828125
7580		50.781250
7581		48.828125
7582		52.734375
7583		50.781250
7584		52.734375
7585		50.781250
7586		52.734375
7587		50.781250
7588		52.734375
7589		52.734375
7590		54.687500
7591		52.734375
7592		54.687500
7593		52.734375
7594		54.687500
7595		52.734375
7596		54.687500
7597		52.734375
7598		54.687500
7599		52.734375
7600		54.687500
7601		52.734375
7602		54.687500
7603		52.734375
7604		54.687500
7605		52.734375
7606		54.687500
7607		52.734375
7608		54.687500
7609		52.734375
7610		54.687500
7611		52.734375
7612		54.687500
7613		50.781250
7614		52.734375
7615		50.781250
7616		52.734375
7617		48.828125
7618		52.734375
7619		48.828125
7620		50.781250
7621		48.828125
7622		50.781250
7623		46.875000
7624		48.828125
7625		44.921875
7626		48.828125
7627		44.921875
7628		46.875000
7629		42.968750
7630		46.875000
7631		42.968750
7632		44.921875
7633		41.015625
7634		42.968750
7635		39.062500
7636		42.968750
7637		37.109375
7638		41.015625
7639		37.109375
7640		39.062500
7641		35.156250
7642		37.109375
7643		33.203125
7644		37.109375
7645		31.250000
7646		35.156250
7647		29.296875
7648		33.203125
7649		27.343750
7650		31.250000
7651		25.390625
7652		29.296875
7653		23.437500
7654		27.343750
7655		21.484375
7656		25.390625
7657		19.531250
7658		23.437500
7659		17.578125
7660		23.437500
7661		15.625000
7662		21.484375
7663		13.671875
7664		17.578125
7665		11.718750
7666		17.578125
7667		9.765625
7668		13.671875
7669		7.812500
7670		11.718750
7671		5.859375
7672		9.765625
7673		3.906250
7674		7.812500
7675		1.953125
7676		5.859375
7677		0.000000
7678		7.812500
7679		-1.953125
7680		1.953125
7681		-3.906250
7682		1.953125
7683		-3.906250
7684		-1.953125
7685		-5.859375
7686		0.000000
7687		-7.812500
7688		-5.859375
7689		-9.765625
7690		-5.859375
7691		-11.718750
7692		-7.812500
7693		-13.671875
7694		-9.765625
7695		-13.671875
7696		-11.718750
7697		-17.578125
7698		-11.718750
7699		-17.578125
7700		-13.671875
7701		-19.531250
7702		-13.671875
7703		-19.531250
7704		-15.625000
7705		-19.531250
7706		-17.578125
7707		-21.484375
7708		-17.578125
7709		-23.437500
7710		-19.531250
7711		-23.437500
7712		-19.531250
7713		-23.437500
7714		-19.531250
7715		-25.390625
7716		-19.531250
7717		-27.343750
7718		-19.531250
7719		-25.390625
7720		-23.437500
7721		-25.390625
7722		-23.437500
7723		-27.343750
7724		-21.484375
7725		-29.296875
7726		-19.531250
7727		-27.343750
7728		-21.484375
7729		-25.390625
7730		-21.484375
7731		-27.343750
7732		-21.484375
7733		-25.390625
7734		-23.437500
7735		-27.343750
7736		-19.531250
7737		-23.437500
7738		-21.484375
7739		-23.437500
7740		-21.484375
7741		-25.390625
7742		-17.578125
7743		-25.390625
7744		-17.578125
7745		-23.437500
7746		-17.578125
7747		-21.484375
7748		-17.578125
7749		-21.484375
7750		-13.671875
7751		-19.531250
7752		-13.671875
7753		-17.578125
7754		-13.671875
7755		-15.625000
7756		-13.671875
7757		-13.671875
7758		-9.765625
7759		-15.625000
7760		-7.812500
7761		-11.718750
7762		-7.812500
7763		-9.765625
7764		-5.859375
7765		-9.765625
7766		-1.953125
7767		-7.812500
7768		-1.953125
7769		-9.765625
7770		0.000000
7771		-3.906250
7772		0.000000
7773		-1.953125
7774		3.906250
7775		-1.953125
7776		7.812500
7777		1.953125
7778		5.859375
7779		3.906250
7780		7.812500
7781		5.859375
7782		13.671875
7783		3.906250
7784		13.671875
7785		7.812500
7786		17.578125
7787		11.718750
7788		15.625000
7789		13.671875
7790		17.578125
7791		15.625000
7792		21.484375
7793		15.625000
7794		23.437500
7795		17.578125
7796		23.437500
7797		21.484375
7798		25.390625
7799		21.484375
7800		31.250000
7801		23.437500
7802		33.203125
7803		23.437500
7804		33.203125
7805		29.296875
7806		33.203125
7807		29.296875
7808		35.156250
7809		29.296875
7810		39.062500
7811		33.203125
7812		39.062500
7813		35.156250
7814		39.062500
7815		35.156250
7816		42.968750
7817		35.156250
7818		44.921875
7819		39.062500
7820		46.875000
7821		41.015625
7822		44.921875
7823		42.968750
7824		46.875000
7825		42.968750
7826		48.828125
7827		42.968750
7828		50.781250
7829		46.875000
7830		48.828125
7831		46.875000
7832		50.781250
7833		44.921875
7834		54.687500
7835		46.875000
7836		54.687500
7837		50.781250
7838		52.734375
7839		50.781250
7840		52.734375
7841		50.781250
7842		54.687500
7843		48.828125
7844		56.640625
7845		50.781250
7846		56.640625
7847		52.734375
7848		54.687500
7849		48.828125
7850		58.593750
7851		50.781250
7852		58.593750
7853		50.781250
7854		58.593750
7855		52.734375
7856		54.687500
7857		52.734375
7858		56.640625
7859		48.828125
7860		58.593750
7861		50.781250
7862		56.640625
7863		50.781250
7864		54.687500
7865		48.828125
7866		56.640625
7867		46.875000
7868		56.640625
7869		46.875000
7870		56.640625
7871		48.828125
7872		52.734375
7873		48.828125
7874		50.781250
7875		46.875000
7876		50.781250
7877		44.921875
7878		52.734375
7879		44.921875
7880		50.781250
7881		44.921875
7882		46.875000
7883		39.062500
7884		48.828125
7885		41.015625
7886		44.921875
7887		41.015625
7888		44.921875
7889		39.062500
7890		42.968750
7891		37.109375
7892		41.015625
7893		33.203125
7894		41.015625
7895		33.203125
7896		39.062500
7897		33.203125
7898		35.156250
7899		27.343750
7900		35.156250
7901		27.343750
7902		35.156250
7903		27.343750
7904		31.250000
7905		25.390625
7906		29.296875
7907		23.437500
7908		27.343750
7909		21.484375
7910		25.390625
7911		17.578125
7912		25.390625
7913		17.578125
7914		21.484375
7915		13.671875
7916		19.531250
7917		11.718750
7918		19.531250
7919		9.765625
7920		15.625000
7921		9.765625
7922		13.671875
7923		7.812500
7924		11.718750
7925		5.859375
7926		9.765625
7927		1.953125
7928		9.765625
7929		1.953125
7930		7.812500
7931		0.000000
7932		3.906250
7933		-1.953125
7934		3.906250
7935		-3.906250
7936		0.000000
7937		-5.859375
7938		1.953125
7939		-7.812500
7940		-3.906250
7941		-7.812500
7942		-5.859375
7943		-11.718750
7944		-5.859375
7945		-13.671875
7946		-5.859375
7947		-13.671875
7948		-9.765625
7949		-17.578125
7950		-9.765625
7951		-15.625000
7952		-13.671875
7953		-17.578125
7954		-13.671875
7955		-19.531250
7956		-15.625000
7957		-19.531250
7958		-15.625000
7959		-19.531250
7960		-17.578125
7961		-21.484375
7962		-17.578125
7963		-23.437500
7964		-17.578125
7965		-23.437500
7966		-21.484375
7967		-25.390625
7968		-19.531250
7969		-23.437500
7970		-21.484375
7971		-25.390625
7972		-21.484375
7973		-25.390625
7974		-23.437500
7975		-25.390625
7976		-23.437500
7977		-25.390625
7978		-23.437500
7979		-25.390625
7980		-23.437500
7981		-25.390625
7982		-23.437500
7983		-25.390625
7984		-23.437500
7985		-25.390625
7986		-23.437500
7987		-25.390625
7988		-21.484375
7989		-25.390625
7990		-21.484375
7991		-23.437500
7992		-21.484375
7993		-23.437500
7994		-19.531250
7995		-23.437500
7996		-19.531250
7997		-21.484375
7998		-19.531250
7999		-21.484375
8000		-17.578125
8001		-19.531250
8002		-17.578125
8003		-19.531250
8004		-15.625000
8005		-17.578125
8006		-15.625000
8007		-17.578125
8008		-13.671875
8009		-15.625000
8010		-11.718750
8011		-15.625000
8012		-9.765625
8013		-13.671875
8014		-7.812500
8015		-11.718750
8016		-5.859375
8017		-9.765625
8018		-3.906250
8019		-9.765625
8020		-3.906250
8021		-7.812500
8022		-1.953125
8023		-3.906250
8024		-1.953125
8025		-1.953125
8026		1.953125
8027		-1.953125
8028		3.906250
8029		0.000000
8030		5.859375
8031		1.953125
8032		7.812500
8033		3.906250
8034		9.765625
8035		5.859375
8036		11.718750
8037		7.812500
8038		13.671875
8039		9.765625
8040		13.671875
8041		13.671875
8042		15.625000
8043		13.671875
8044		19.531250
8045		15.625000
8046		21.484375
8047		17.578125
8048		23.437500
8049		19.531250
8050		25.390625
8051		21.484375
8052		27.343750
8053		23.437500
8054		29.296875
8055		25.390625
8056		29.296875
8057		27.343750
8058		31.250000
8059		29.296875
8060		35.156250
8061		29.296875
8062		35.156250
8063		31.250000
8064		37.109375
8065		33.203125
8066		39.062500
8067		35.156250
8068		41.015625
8069		37.109375
8070		42.968750
8071		39.062500
8072		42.968750
8073		41.015625
8074		42.968750
8075		41.015625
8076		44.921875
8077		42.968750
8078		46.875000
8079		42.968750
8080		48.828125
8081		44.921875
8082		48.828125
8083		44.921875
8084		50.781250
8085		46.875000
8086		50.781250
8087		46.875000
8088		52.734375
8089		48.828125
8090		52.734375
8091		50.781250
8092		52.734375
8093		50.781250
8094		54.687500
8095		50.781250
8096		54.687500
8097		50.781250
8098		54.687500
8099		50.781250
8100		56.640625
8101		50.781250
8102		56.640625
8103		50.781250
8104		56.640625
8105		52.734375
8106		56.640625
8107		52.734375
8108		54.687500
8109		52.734375
8110		56.640625
8111		52.734375
8112		56.640625
8113		50.781250
8114		56.640625
8115		50.781250
8116		56.640625
8117		50.781250
8118		54.687500
8119		50.781250
8120		54.687500
8121		48.828125
8122		54.687500
8123		50.781250
8124		52.734375
8125		48.828125
8126		50.781250
8127		46.875000
8128		50.781250
8129		46.875000
8130		50.781250
8131		44.921875
8132		48.828125
8133		42.968750
8134		48.828125
8135		42.968750
8136		46.875000
8137		41.015625
8138		44.921875
8139		41.015625
8140		44.921875
8141		39.062500
8142		42.968750
8143		37.109375
8144		41.015625
8145		35.156250
8146		41.015625
8147		35.156250
8148		39.062500
8149		31.250000
8150		37.109375
8151		31.250000
8152		35.156250
8153		29.296875
8154		33.203125
8155		27.343750
8156		33.203125
8157		25.390625
8158		29.296875
8159		25.390625
8160		29.296875
8161		23.437500
8162		27.343750
8163		21.484375
8164		25.390625
8165		17.578125
8166		23.437500
8167		15.625000
8168		23.437500
8169		15.625000
8170		19.531250
8171		11.718750
8172		17.578125
8173		11.718750
8174		15.625000
8175		9.765625
8176		11.718750
8177		5.859375
8178		9.765625
8179		3.906250
8180		7.812500
8181		3.906250
8182		7.812500
8183		0.000000
8184		5.859375
8185		0.000000
8186		3.906250
8187		-1.953125
8188		1.953125
8189		-3.906250
8190		0.000000
8191		-5.859375
8192		-1.953125
8193		-7.812500
8194		-3.906250
8195		-9.765625
8196		-5.859375
8197		-11.718750
8198		-7.812500
8199		-13.671875
8200		-9.765625
8201		-13.671875
8202		-9.765625
8203		-15.625000
8204		-11.718750
8205		-17.578125
8206		-13.671875
8207		-17.578125
8208		-15.625000
8209		-19.531250
8210		-15.625000
8211		-21.484375
8212		-15.625000
8213		-21.484375
8214		-17.578125
8215		-21.484375
8216		-19.531250
8217		-25.390625
8218		-19.531250
8219		-23.437500
8220		-21.484375
8221		-25.390625
8222		-21.484375
8223		-25.390625
8224		-21.484375
8225		-25.390625
8226		-23.437500
8227		-25.390625
8228		-21.484375
8229		-25.390625
8230		-23.437500
8231		-27.343750
8232		-23.437500
8233		-25.390625
8234		-23.437500
8235		-27.343750
8236		-23.437500
8237		-25.390625
8238		-23.437500
8239		-25.390625
8240		-21.484375
8241		-25.390625
8242		-23.437500
8243		-25.390625
8244		-21.484375
8245		-25.390625
8246		-21.484375
8247		-23.437500
8248		-19.531250
8249		-23.437500
8250		-19.531250
8251		-23.437500
8252		-19.531250
8253		-21.484375
8254		-17.578125
8255		-21.484375
8256		-17.578125
8257		-19.531250
8258		-15.625000
8259		-17.578125
8260		-15.625000
8261		-17.578125
8262		-13.671875
8263		-15.625000
8264		-11.718750
8265		-13.671875
8266		-9.765625
8267		-11.718750
8268		-7.812500
8269		-11.718750
8270		-7.812500
8271		-9.765625
8272		-5.859375
8273		-7.812500
8274		-3.906250
8275		-5.859375
8276		-1.953125
8277		-3.906250
8278		0.000000
8279		-1.953125
8280		1.953125
8281		0.000000
8282		1.953125
8283		1.953125
8284		3.906250
8285		1.953125
8286		5.859375
8287		5.859375
8288		9.765625
8289		5.859375
8290		11.718750
8291		9.765625
8292		11.718750
8293		11.718750
8294		13.671875
8295		11.718750
8296		17.578125
8297		15.625000
8298		17.578125
8299		15.625000
8300		19.531250
8301		17.578125
8302		21.484375
8303		19.531250
8304		23.437500
8305		21.484375
8306		25.390625
8307		23.437500
8308		27.343750
8309		25.390625
8310		29.296875
8311		27.343750
8312		31.250000
8313		29.296875
8314		33.203125
8315		31.250000
8316		35.156250
8317		33.203125
8318		37.109375
8319		35.156250
8320		39.062500
8321		37.109375
8322		39.062500
8323		37.109375
8324		41.015625
8325		39.062500
8326		42.968750
8327		41.015625
8328		42.968750
8329		41.015625
8330		44.921875
8331		42.968750
8332		46.875000
8333		44.921875
8334		48.828125
8335		44.921875
8336		48.828125
8337		44.921875
8338		48.828125
8339		46.875000
8340		50.781250
8341		46.875000
8342		50.781250
8343		48.828125
8344		52.734375
8345		48.828125
8346		52.734375
8347		50.781250
8348		54.687500
8349		50.781250
8350		54.687500
8351		50.781250
8352		54.687500
8353		50.781250
8354		54.687500
8355		50.781250
8356		54.687500
8357		50.781250
8358		54.687500
8359		52.734375
8360		54.687500
8361		52.734375
8362		54.687500
8363		52.734375
8364		54.687500
8365		50.781250
8366		54.687500
8367		50.781250
8368		54.687500
8369		50.781250
8370		54.687500
8371		50.781250
8372		54.687500
8373		50.781250
8374		52.734375
8375		48.828125
8376		52.734375
8377		48.828125
8378		50.781250
8379		46.875000
8380		50.781250
8381		46.875000
8382		50.781250
8383		44.921875
8384		48.828125
8385		44.921875
8386		48.828125
8387		42.968750
8388		46.875000
8389		42.968750
8390		46.875000
8391		41.015625
8392		44.921875
8393		41.015625
8394		42.968750
8395		37.109375
8396		42.968750
8397		37.109375
8398		41.015625
8399		35.156250
8400		39.062500
8401		33.203125
8402		37.109375
8403		31.250000
8404		35.156250
8405		31.250000
8406		33.203125
8407		27.343750
8408		33.203125
8409		27.343750
8410		31.250000
8411		25.390625
8412		29.296875
8413		23.437500
8414		27.343750
8415		21.484375
8416		25.390625
8417		19.531250
8418		23.437500
8419		17.578125
8420		21.484375
8421		15.625000
8422		19.531250
8423		13.671875
8424		17.578125
8425		11.718750
8426		15.625000
8427		9.765625
8428		13.671875
8429		7.812500
8430		11.718750
8431		5.859375
8432		9.765625
8433		3.906250
8434		7.812500
8435		1.953125
8436		5.859375
8437		0.000000
8438		3.906250
8439		-1.953125
8440		1.953125
8441		-3.906250
8442		0.000000
8443		-5.859375
8444		-1.953125
8445		-7.812500
8446		-3.906250
8447		-9.765625
8448		-3.906250
8449		-11.718750
8450		-5.859375
8451		-11.718750
8452		-7.812500
8453		-13.671875
8454		-9.765625
8455		-15.625000
8456		-11.718750
8457		-17.578125
8458		-13.671875
8459		-17.578125
8460		-13.671875
8461		-19.531250
8462		-15.625000
8463		-21.484375
8464		-15.625000
8465		-21.484375
8466		-17.578125
8467		-23.437500
8468		-19.531250
8469		-23.437500
8470		-19.531250
8471		-23.437500
8472		-21.484375
8473		-25.390625
8474		-21.484375
8475		-25.390625
8476		-21.484375
8477		-25.390625
8478		-23.437500
8479		-27.343750
8480		-23.437500
8481		-27.343750
8482		-23.437500
8483		-27.343750
8484		-23.437500
8485		-25.390625
8486		-23.437500
8487		-27.343750
8488		-23.437500
8489		-27.343750
8490		-23.437500
8491		-27.343750
8492		-23.437500
8493		-27.343750
8494		-23.437500
8495		-25.390625
8496		-23.437500
8497		-25.390625
8498		-21.484375
8499		-25.390625
8500		-21.484375
8501		-23.437500
8502		-21.484375
8503		-23.437500
8504		-19.531250
8505		-21.484375
8506		-19.531250
8507		-21.484375
8508		-17.578125
8509		-21.484375
8510		-17.578125
8511		-19.531250
8512		-15.625000
8513		-17.578125
8514		-13.671875
8515		-17.578125
8516		-13.671875
8517		-15.625000
8518		-11.718750
8519		-13.671875
8520		-9.765625
8521		-11.718750
8522		-9.765625
8523		-11.718750
8524		-5.859375
8525		-9.765625
8526		-5.859375
8527		-7.812500
8528		-3.906250
8529		-5.859375
8530		-1.953125
8531		-5.859375
8532		0.000000
8533		-1.953125
8534		1.953125
8535		0.000000
8536		3.906250
8537		1.953125
8538		5.859375
8539		3.906250
8540		7.812500
8541		5.859375
8542		9.765625
8543		7.812500
8544		9.765625
8545		9.765625
8546		11.718750
8547		11.718750
8548		15.625000
8549		11.718750
8550		15.625000
8551		15.625000
8552		17.578125
8553		15.625000
8554		21.484375
8555		19.531250
8556		23.437500
8557		19.531250
8558		25.390625
8559		21.484375
8560		25.390625
8561		25.390625
8562		27.343750
8563		25.390625
8564		31.250000
8565		27.343750
8566		33.203125
8567		29.296875
8568		33.203125
8569		31.250000
8570		35.156250
8571		33.203125
8572		37.109375
8573		35.156250
8574		39.062500
8575		37.109375
8576		41.015625
8577		39.062500
8578		41.015625
8579		39.062500
8580		42.968750
8581		39.062500
8582		44.921875
8583		42.968750
8584		44.921875
8585		42.968750
8586		46.875000
8587		44.921875
8588		46.875000
8589		44.921875
8590		48.828125
8591		46.875000
8592		50.781250
8593		46.875000
8594		50.781250
8595		48.828125
8596		50.781250
8597		48.828125
8598		52.734375
8599		48.828125
8600		52.734375
8601		50.781250
8602		52.734375
8603		50.781250
8604		54.687500
8605		50.781250
8606		54.687500
8607		50.781250
8608		54.687500
8609		50.781250
8610		56.640625
8611		52.734375
8612		54.687500
8613		52.734375
8614		54.687500
8615		50.781250
8616		56.640625
8617		50.781250
8618		54.687500
8619		52.734375
8620		54.687500
8621		50.781250
8622		54.687500
8623		50.781250
8624		54.687500
8625		48.828125
8626		52.734375
8627		48.828125
8628		52.734375
8629		48.828125
8630		50.781250
8631		48.828125
8632		52.734375
8633		46.875000
8634		50.781250
8635		46.875000
8636		48.828125
8637		44.921875
8638		48.828125
8639		44.921875
8640		46.875000
8641		42.968750
8642		46.875000
8643		42.968750
8644		44.921875
8645		41.015625
8646		42.968750
8647		39.062500
8648		42.968750
8649		37.109375
8650		41.015625
8651		37.109375
8652		39.062500
8653		35.156250
8654		39.062500
8655		33.203125
8656		37.109375
8657		31.250000
8658		35.156250
8659		29.296875
8660		33.203125
8661		29.296875
8662		31.250000
8663		27.343750
8664		29.296875
8665		23.437500
8666		29.296875
8667		23.437500
8668		27.343750
8669		19.531250
8670		25.390625
8671		19.531250
8672		21.484375
8673		15.625000
8674		21.484375
8675		13.671875
8676		19.531250
8677		13.671875
8678		17.578125
8679		11.718750
8680		13.671875
8681		9.765625
8682		11.718750
8683		7.812500
8684		11.718750
8685		3.906250
8686		9.765625
8687		3.906250
8688		5.859375
8689		0.000000
8690		5.859375
8691		0.000000
8692		3.906250
8693		-1.953125
8694		1.953125
8695		-3.906250
8696		0.000000
8697		-5.859375
8698		-1.953125
8699		-7.812500
8700		-3.906250
8701		-9.765625
8702		-5.859375
8703		-11.718750
8704		-7.812500
8705		-13.671875
8706		-9.765625
8707		-13.671875
8708		-11.718750
8709		-15.625000
8710		-11.718750
8711		-17.578125
8712		-11.718750
8713		-19.531250
8714		-15.625000
8715		-19.531250
8716		-15.625000
8717		-21.484375
8718		-17.578125
8719		-21.484375
8720		-19.531250
8721		-23.437500
8722		-19.531250
8723		-23.437500
8724		-19.531250
8725		-25.390625
8726		-21.484375
8727		-25.390625
8728		-21.484375
8729		-25.390625
8730		-23.437500
8731		-27.343750
8732		-23.437500
8733		-27.343750
8734		-23.437500
8735		-27.343750
8736		-23.437500
8737		-27.343750
8738		-23.437500
8739		-27.343750
8740		-23.437500
8741		-27.343750
8742		-23.437500
8743		-27.343750
8744		-23.437500
8745		-27.343750
8746		-23.437500
8747		-27.343750
8748		-23.437500
8749		-27.343750
8750		-23.437500
8751		-25.390625
8752		-23.437500
8753		-25.390625
8754		-21.484375
8755		-23.437500
8756		-21.484375
8757		-23.437500
8758		-19.531250
8759		-23.437500
8760		-19.531250
8761		-23.437500
8762		-19.531250
8763		-19.531250
8764		-17.578125
8765		-19.531250
8766		-15.625000
8767		-17.578125
8768		-15.625000
8769		-17.578125
8770		-13.671875
8771		-15.625000
8772		-11.718750
8773		-15.625000
8774		-11.718750
8775		-13.671875
8776		-9.765625
8777		-11.718750
8778		-7.812500
8779		-9.765625
8780		-5.859375
8781		-7.812500
8782		-3.906250
8783		-7.812500
8784		-1.953125
8785		-5.859375
8786		0.000000
8787		-1.953125
8788		0.000000
8789		0.000000
8790		3.906250
8791		1.953125
8792		5.859375
8793		1.953125
8794		7.812500
8795		3.906250
8796		7.812500
8797		7.812500
8798		9.765625
8799		7.812500
8800		13.671875
8801		9.765625
8802		15.625000
8803		11.718750
8804		15.625000
8805		13.671875
8806		19.531250
8807		15.625000
8808		19.531250
8809		17.578125
8810		23.437500
8811		19.531250
8812		23.437500
8813		21.484375
8814		25.390625
8815		23.437500
8816		29.296875
8817		25.390625
8818		29.296875
8819		27.343750
8820		31.250000
8821		29.296875
8822		33.203125
8823		31.250000
8824		35.156250
8825		33.203125
8826		37.109375
8827		35.156250
8828		39.062500
8829		37.109375
8830		39.062500
8831		37.109375
8832		41.015625
8833		39.062500
8834		42.968750
8835		41.015625
8836		44.921875
8837		41.015625
8838		44.921875
8839		42.968750
8840		46.875000
8841		42.968750
8842		46.875000
8843		44.921875
8844		48.828125
8845		44.921875
8846		48.828125
8847		46.875000
8848		50.781250
8849		46.875000
8850		50.781250
8851		48.828125
8852		50.781250
8853		48.828125
8854		52.734375
8855		50.781250
8856		52.734375
8857		50.781250
8858		52.734375
8859		50.781250
8860		52.734375
8861		50.781250
8862		54.687500
8863		50.781250
8864		54.687500
8865		52.734375
8866		54.687500
8867		50.781250
8868		54.687500
8869		50.781250
8870		54.687500
8871		50.781250
8872		54.687500
8873		50.781250
8874		54.687500
8875		50.781250
8876		52.734375
8877		50.781250
8878		52.734375
8879		50.781250
8880		52.734375
8881		48.828125
8882		52.734375
8883		46.875000
8884		52.734375
8885		46.875000
8886		50.781250
8887		46.875000
8888		50.781250
8889		46.875000
8890		48.828125
8891		44.921875
8892		48.828125
8893		42.968750
8894		46.875000
8895		42.968750
8896		46.875000
8897		41.015625
8898		44.921875
8899		39.062500
8900		42.968750
8901		37.109375
8902		42.968750
8903		37.109375
8904		41.015625
8905		35.156250
8906		39.062500
8907		35.156250
8908		37.109375
8909		33.203125
8910		37.109375
8911		29.296875
8912		33.203125
8913		29.296875
8914		33.203125
8915		27.343750
8916		31.250000
8917		25.390625
8918		29.296875
8919		23.437500
8920		27.343750
8921		21.484375
8922		25.390625
8923		19.531250
8924		23.437500
8925		17.578125
8926		21.484375
8927		15.625000
8928		19.531250
8929		13.671875
8930		17.578125
8931		11.718750
8932		15.625000
8933		9.765625
8934		13.671875
8935		7.812500
8936		11.718750
8937		5.859375
8938		9.765625
8939		3.906250
8940		7.812500
8941		1.953125
8942		5.859375
8943		0.000000
8944		3.906250
8945		-1.953125
8946		1.953125
8947		-3.906250
8948		0.000000
8949		-5.859375
8950		-1.953125
8951		-5.859375
8952		-1.953125
8953		-9.765625
8954		-5.859375
8955		-9.765625
8956		-7.812500
8957		-11.718750
8958		-7.812500
8959		-13.671875
8960		-9.765625
8961		-15.625000
8962		-11.718750
8963		-15.625000
8964		-11.718750
8965		-17.578125
8966		-13.671875
8967		-19.531250
8968		-15.625000
8969		-19.531250
8970		-17.578125
8971		-21.484375
8972		-17.578125
8973		-23.437500
8974		-19.531250
8975		-23.437500
8976		-19.531250
8977		-23.437500
8978		-21.484375
8979		-25.390625
8980		-21.484375
8981		-25.390625
8982		-23.437500
8983		-27.343750
8984		-23.437500
8985		-27.343750
8986		-23.437500
8987		-27.343750
8988		-23.437500
8989		-27.343750
8990		-23.437500
8991		-27.343750
8992		-25.390625
8993		-27.343750
8994		-23.437500
8995		-27.343750
8996		-23.437500
8997		-27.343750
8998		-25.390625
8999		-27.343750
9000		-25.390625
9001		-27.343750
9002		-23.437500
9003		-27.343750
9004		-23.437500
9005		-25.390625
9006		-21.484375
9007		-25.390625
9008		-21.484375
9009		-25.390625
9010		-21.484375
9011		-23.437500
9012		-21.484375
9013		-23.437500
9014		-19.531250
9015		-21.484375
9016		-19.531250
9017		-21.484375
9018		-15.625000
9019		-19.531250
9020		-15.625000
9021		-17.578125
9022		-15.625000
9023		-17.578125
9024		-13.671875
9025		-15.625000
9026		-11.718750
9027		-13.671875
9028		-11.718750
9029		-13.671875
9030		-9.765625
9031		-11.718750
9032		-7.812500
9033		-9.765625
9034		-5.859375
9035		-7.812500
9036		-3.906250
9037		-5.859375
9038		-1.953125
9039		-5.859375
9040		0.000000
9041		-1.953125
9042		1.953125
9043		0.000000
9044		3.906250
9045		1.953125
9046		5.859375
9047		1.953125
9048		5.859375
9049		5.859375
9050		7.812500
9051		7.812500
9052		11.718750
9053		7.812500
9054		11.718750
9055		11.718750
9056		15.625000
9057		13.671875
9058		17.578125
9059		13.671875
9060		17.578125
9061		17.578125
9062		21.484375
9063		17.578125
9064		21.484375
9065		21.484375
9066		23.437500
9067		23.437500
9068		25.390625
9069		23.437500
9070		27.343750
9071		25.390625
9072		29.296875
9073		27.343750
9074		31.250000
9075		29.296875
9076		33.203125
9077		31.250000
9078		35.156250
9079		33.203125
9080		37.109375
9081		35.156250
9082		39.062500
9083		37.109375
9084		39.062500
9085		37.109375
9086		41.015625
9087		39.062500
9088		42.968750
9089		41.015625
9090		44.921875
9091		41.015625
9092		44.921875
9093		42.968750
9094		46.875000
9095		44.921875
9096		46.875000
9097		44.921875
9098		48.828125
9099		46.875000
9100		48.828125
9101		46.875000
9102		50.781250
9103		46.875000
9104		50.781250
9105		48.828125
9106		50.781250
9107		48.828125
9108		52.734375
9109		48.828125
9110		52.734375
9111		50.781250
9112		54.687500
9113		48.828125
9114		54.687500
9115		50.781250
9116		52.734375
9117		50.781250
9118		52.734375
9119		50.781250
9120		54.687500
9121		50.781250
9122		54.687500
9123		50.781250
9124		54.687500
9125		50.781250
9126		54.687500
9127		50.781250
9128		52.734375
9129		50.781250
9130		52.734375
9131		48.828125
9132		52.734375
9133		48.828125
9134		52.734375
9135		46.875000
9136		52.734375
9137		48.828125
9138		50.781250
9139		46.875000
9140		50.781250
9141		46.875000
9142		50.781250
9143		44.921875
9144		48.828125
9145		44.921875
9146		46.875000
9147		42.968750
9148		46.875000
9149		42.968750
9150		44.921875
9151		41.015625
9152		42.968750
9153		39.062500
9154		42.968750
9155		37.109375
9156		41.015625
9157		37.109375
9158		39.062500
9159		35.156250
9160		37.109375
9161		33.203125
9162		37.109375
9163		31.250000
9164		35.156250
9165		31.250000
9166		33.203125
9167		29.296875
9168		31.250000
9169		25.390625
9170		29.296875
9171		23.437500
9172		29.296875
9173		23.437500
9174		27.343750
9175		19.531250
9176		25.390625
9177		17.578125
9178		23.437500
9179		17.578125
9180		21.484375
9181		15.625000
9182		19.531250
9183		13.671875
9184		17.578125
9185		9.765625
9186		13.671875
9187		9.765625
9188		13.671875
9189		7.812500
9190		11.718750
9191		3.906250
9192		9.765625
9193		3.906250
9194		7.812500
9195		0.000000
9196		5.859375
9197		-1.953125
9198		3.906250
9199		-1.953125
9200		1.953125
9201		-3.906250
9202		0.000000
9203		-5.859375
9204		-1.953125
9205		-7.812500
9206		-3.906250
9207		-9.765625
9208		-5.859375
9209		-11.718750
9210		-7.812500
9211		-11.718750
9212		-7.812500
9213		-13.671875
9214		-9.765625
9215		-15.625000
9216		-11.718750
9217		-17.578125
9218		-13.671875
9219		-19.531250
9220		-15.625000
9221		-19.531250
9222		-15.625000
9223		-21.484375
9224		-17.578125
9225		-21.484375
9226		-19.531250
9227		-23.437500
9228		-19.531250
9229		-25.390625
9230		-21.484375
9231		-25.390625
9232		-21.484375
9233		-25.390625
9234		-23.437500
9235		-25.390625
9236		-23.437500
9237		-27.343750
9238		-21.484375
9239		-27.343750
9240		-23.437500
9241		-27.343750
9242		-23.437500
9243		-27.343750
9244		-25.390625
9245		-27.343750
9246		-25.390625
9247		-27.343750
9248		-25.390625
9249		-29.296875
9250		-23.437500
9251		-27.343750
9252		-25.390625
9253		-27.343750
9254		-23.437500
9255		-27.343750
9256		-23.437500
9257		-27.343750
9258		-23.437500
9259		-25.390625
9260		-21.484375
9261		-25.390625
9262		-23.437500
9263		-25.390625
9264		-21.484375
9265		-23.437500
9266		-21.484375
9267		-23.437500
9268		-19.531250
9269		-21.484375
9270		-17.578125
9271		-21.484375
9272		-17.578125
9273		-19.531250
9274		-17.578125
9275		-19.531250
9276		-15.625000
9277		-17.578125
9278		-13.671875
9279		-15.625000
9280		-11.718750
9281		-13.671875
9282		-9.765625
9283		-13.671875
9284		-9.765625
9285		-11.718750
9286		-7.812500
9287		-9.765625
9288		-5.859375
9289		-7.812500
9290		-3.906250
9291		-5.859375
9292		-1.953125
9293		-3.906250
9294		-1.953125
9295		-3.906250
9296		1.953125
9297		0.000000
9298		3.906250
9299		1.953125
9300		3.906250
9301		3.906250
9302		5.859375
9303		5.859375
9304		9.765625
9305		7.812500
9306		9.765625
9307		7.812500
9308		13.671875
9309		11.718750
9310		13.671875
9311		11.718750
9312		17.578125
9313		13.671875
9314		19.531250
9315		15.625000
9316		19.531250
9317		19.531250
9318		23.437500
9319		21.484375
9320		23.437500
9321		21.484375
9322		25.390625
9323		23.437500
9324		27.343750
9325		25.390625
9326		29.296875
9327		27.343750
9328		31.250000
9329		29.296875
9330		33.203125
9331		31.250000
9332		35.156250
9333		31.250000
9334		37.109375
9335		35.156250
9336		37.109375
9337		37.109375
9338		39.062500
9339		37.109375
9340		41.015625
9341		39.062500
9342		42.968750
9343		39.062500
9344		42.968750
9345		41.015625
9346		44.921875
9347		42.968750
9348		46.875000
9349		44.921875
9350		46.875000
9351		44.921875
9352		48.828125
9353		44.921875
9354		50.781250
9355		46.875000
9356		50.781250
9357		46.875000
9358		50.781250
9359		46.875000
9360		52.734375
9361		48.828125
9362		52.734375
9363		48.828125
9364		52.734375
9365		48.828125
9366		54.687500
9367		50.781250
9368		52.734375
9369		50.781250
9370		52.734375
9371		50.781250
9372		54.687500
9373		50.781250
9374		54.687500
9375		50.781250
9376		54.687500
9377		50.781250
9378		52.734375
9379		50.781250
9380		54.687500
9381		50.781250
9382		52.734375
9383		48.828125
9384		54.687500
9385		48.828125
9386		52.734375
9387		48.828125
9388		52.734375
9389		48.828125
9390		50.781250
9391		46.875000
9392		50.781250
9393		46.875000
9394		48.828125
9395		44.921875
9396		48.828125
9397		44.921875
9398		48.828125
9399		42.968750
9400		46.875000
9401		42.968750
9402		46.875000
9403		41.015625
9404		44.921875
9405		41.015625
9406		44.921875
9407		39.062500
9408		42.968750
9409		37.109375
9410		41.015625
9411		35.156250
9412		39.062500
9413		35.156250
9414		37.109375
9415		33.203125
9416		37.109375
9417		31.250000
9418		35.156250
9419		29.296875
9420		33.203125
9421		27.343750
9422		31.250000
9423		25.390625
9424		29.296875
9425		23.437500
9426		27.343750
9427		21.484375
9428		25.390625
9429		19.531250
9430		23.437500
9431		17.578125
9432		21.484375
9433		15.625000
9434		19.531250
9435		13.671875
9436		17.578125
9437		11.718750
9438		17.578125
9439		9.765625
9440		13.671875
9441		7.812500
9442		11.718750
9443		5.859375
9444		9.765625
9445		3.906250
9446		7.812500
9447		1.953125
9448		5.859375
9449		0.000000
9450		3.906250
9451		0.000000
9452		1.953125
9453		-1.953125
9454		0.000000
9455		-5.859375
9456		0.000000
9457		-5.859375
9458		-1.953125
9459		-9.765625
9460		-3.906250
9461		-9.765625
9462		-5.859375
9463		-11.718750
9464		-7.812500
9465		-13.671875
9466		-9.765625
9467		-15.625000
9468		-9.765625
9469		-15.625000
9470		-13.671875
9471		-17.578125
9472		-13.671875
9473		-19.531250
9474		-15.625000
9475		-19.531250
9476		-15.625000
9477		-21.484375
9478		-17.578125
9479		-23.437500
9480		-19.531250
9481		-23.437500
9482		-19.531250
9483		-25.390625
9484		-21.484375
9485		-25.390625
9486		-21.484375
9487		-25.390625
9488		-23.437500
9489		-27.343750
9490		-23.437500
9491		-27.343750
9492		-23.437500
9493		-27.343750
9494		-25.390625
9495		-27.343750
9496		-25.390625
9497		-27.343750
9498		-25.390625
9499		-29.296875
9500		-25.390625
9501		-29.296875
9502		-25.390625
9503		-27.343750
9504		-25.390625
9505		-29.296875
9506		-25.390625
9507		-27.343750
9508		-23.437500
9509		-27.343750
9510		-23.437500
9511		-27.343750
9512		-23.437500
9513		-25.390625
9514		-23.437500
9515		-25.390625
9516		-23.437500
9517		-25.390625
9518		-21.484375
9519		-25.390625
9520		-21.484375
9521		-23.437500
9522		-19.531250
9523		-21.484375
9524		-19.531250
9525		-21.484375
9526		-17.578125
9527		-19.531250
9528		-15.625000
9529		-19.531250
9530		-15.625000
9531		-17.578125
9532		-13.671875
9533		-15.625000
9534		-11.718750
9535		-13.671875
9536		-11.718750
9537		-11.718750
9538		-9.765625
9539		-11.718750
9540		-5.859375
9541		-9.765625
9542		-5.859375
9543		-7.812500
9544		-3.906250
9545		-5.859375
9546		-1.953125
9547		-3.906250
9548		0.000000
9549		-1.953125
9550		1.953125
9551		0.000000
9552		3.906250
9553		1.953125
9554		5.859375
9555		3.906250
9556		7.812500
9557		3.906250
9558		9.765625
9559		7.812500
9560		11.718750
9561		9.765625
9562		11.718750
9563		11.718750
9564		15.625000
9565		13.671875
9566		17.578125
9567		15.625000
9568		19.531250
9569		17.578125
9570		21.484375
9571		19.531250
9572		23.437500
9573		19.531250
9574		25.390625
9575		23.437500
9576		27.343750
9577		25.390625
9578		27.343750
9579		27.343750
9580		29.296875
9581		27.343750
9582		31.250000
9583		29.296875
9584		33.203125
9585		29.296875
9586		35.156250
9587		33.203125
9588		37.109375
9589		35.156250
9590		39.062500
9591		37.109375
9592		41.015625
9593		37.109375
9594		41.015625
9595		39.062500
9596		42.968750
9597		41.015625
9598		44.921875
9599		41.015625
9600		44.921875
9601		42.968750
9602		46.875000
9603		44.921875
9604		46.875000
9605		44.921875
9606		48.828125
9607		46.875000
9608		48.828125
9609		46.875000
9610		50.781250
9611		46.875000
9612		50.781250
9613		48.828125
9614		50.781250
9615		48.828125
9616		52.734375
9617		48.828125
9618		52.734375
9619		50.781250
9620		52.734375
9621		50.781250
9622		52.734375
9623		48.828125
9624		54.687500
9625		50.781250
9626		54.687500
9627		50.781250
9628		54.687500
9629		50.781250
9630		52.734375
9631		50.781250
9632		52.734375
9633		50.781250
9634		52.734375
9635		48.828125
9636		52.734375
9637		48.828125
9638		52.734375
9639		48.828125
9640		52.734375
9641		48.828125
9642		52.734375
9643		46.875000
9644		50.781250
9645		46.875000
9646		50.781250
9647		46.875000
9648		48.828125
9649		44.921875
9650		48.828125
9651		42.968750
9652		46.875000
9653		42.968750
9654		46.875000
9655		42.968750
9656		44.921875
9657		39.062500
9658		44.921875
9659		39.062500
9660		42.968750
9661		39.062500
9662		42.968750
9663		37.109375
9664		39.062500
9665		35.156250
9666		39.062500
9667		33.203125
9668		37.109375
9669		31.250000
9670		37.109375
9671		31.250000
9672		33.203125
9673		29.296875
9674		31.250000
9675		27.343750
9676		29.296875
9677		25.390625
9678		29.296875
9679		23.437500
9680		27.343750
9681		21.484375
9682		25.390625
9683		19.531250
9684		23.437500
9685		17.578125
9686		21.484375
9687		15.625000
9688		19.531250
9689		11.718750
9690		17.578125
9691		11.718750
9692		15.625000
9693		9.765625
9694		13.671875
9695		7.812500
9696		11.718750
9697		5.859375
9698		9.765625
9699		3.906250
9700		7.812500
9701		1.953125
9702		5.859375
9703		0.000000
9704		3.906250
9705		-1.953125
9706		1.953125
9707		-3.906250
9708		0.000000
9709		-5.859375
9710		-1.953125
9711		-7.812500
9712		-3.906250
9713		-9.765625
9714		-5.859375
9715		-11.718750
9716		-5.859375
9717		-11.718750
9718		-9.765625
9719		-13.671875
9720		-9.765625
9721		-15.625000
9722		-11.718750
9723		-17.578125
9724		-13.671875
9725		-19.531250
9726		-13.671875
9727		-19.531250
9728		-15.625000
9729		-21.484375
9730		-17.578125
9731		-21.484375
9732		-17.578125
9733		-23.437500
9734		-19.531250
9735		-25.390625
9736		-19.531250
9737		-25.390625
9738		-21.484375
9739		-25.390625
9740		-23.437500
9741		-27.343750
9742		-23.437500
9743		-27.343750
9744		-23.437500
9745		-27.343750
9746		-23.437500
9747		-27.343750
9748		-25.390625
9749		-27.343750
9750		-25.390625
9751		-27.343750
9752		-25.390625
9753		-29.296875
9754		-25.390625
9755		-27.343750
9756		-25.390625
9757		-29.296875
9758		-25.390625
9759		-27.343750
9760		-25.390625
9761		-27.343750
9762		-23.437500
9763		-27.343750
9764		-23.437500
9765		-27.343750
9766		-23.437500
9767		-27.343750
9768		-23.437500
9769		-25.390625
9770		-21.484375
9771		-25.390625
9772		-21.484375
9773		-25.390625
9774		-21.484375
9775		-23.437500
9776		-19.531250
9777		-21.484375
9778		-17.578125
9779		-21.484375
9780		-17.578125
9781		-19.531250
9782		-15.625000
9783		-19.531250
9784		-15.625000
9785		-17.578125
9786		-13.671875
9787		-15.625000
9788		-11.718750
9789		-13.671875
9790		-9.765625
9791		-11.718750
9792		-7.812500
9793		-11.718750
9794		-7.812500
9795		-9.765625
9796		-5.859375
9797		-7.812500
9798		-3.906250
9799		-5.859375
9800		0.000000
9801		-3.906250
9802		0.000000
9803		-1.953125
9804		1.953125
9805		0.000000
9806		3.906250
9807		1.953125
9808		5.859375
9809		3.906250
9810		7.812500
9811		5.859375
9812		9.765625
9813		7.812500
9814		11.718750
9815		9.765625
9816		13.671875
9817		11.718750
9818		15.625000
9819		13.671875
9820		17.578125
9821		15.625000
9822		19.531250
9823		17.578125
9824		21.484375
9825		19.531250
9826		23.437500
9827		21.484375
9828		25.390625
9829		23.437500
9830		27.343750
9831		25.390625
9832		29.296875
9833		25.390625
9834		31.250000
9835		29.296875
9836		33.203125
9837		31.250000
9838		33.203125
9839		33.203125
9840		35.156250
9841		33.203125
9842		37.109375
9843		35.156250
9844		39.062500
9845		35.156250
9846		39.062500
9847		37.109375
9848		41.015625
9849		39.062500
9850		42.968750
9851		41.015625
9852		44.921875
9853		41.015625
9854		44.921875
9855		42.968750
9856		46.875000
9857		44.921875
9858		46.875000
9859		44.921875
9860		48.828125
9861		46.875000
9862		50.781250
9863		46.875000
9864		50.781250
9865		46.875000
9866		50.781250
9867		48.828125
9868		50.781250
9869		48.828125
9870		52.734375
9871		48.828125
9872		52.734375
9873		50.781250
9874		52.734375
9875		48.828125
9876		52.734375
9877		50.781250
9878		52.734375
9879		50.781250
9880		52.734375
9881		50.781250
9882		54.687500
9883		50.781250
9884		52.734375
9885		50.781250
9886		52.734375
9887		50.781250
9888		54.687500
9889		48.828125
9890		52.734375
9891		48.828125
9892		52.734375
9893		48.828125
9894		50.781250
9895		48.828125
9896		50.781250
9897		46.875000
9898		50.781250
9899		46.875000
9900		50.781250
9901		46.875000
9902		48.828125
9903		44.921875
9904		48.828125
9905		44.921875
9906		46.875000
9907		42.968750
9908		46.875000
9909		41.015625
9910		44.921875
9911		39.062500
9912		44.921875
9913		39.062500
9914		42.968750
9915		37.109375
9916		41.015625
9917		37.109375
9918		39.062500
9919		35.156250
9920		39.062500
9921		33.203125
9922		37.109375
9923		31.250000
9924		35.156250
9925		29.296875
9926		33.203125
9927		27.343750
9928		31.250000
9929		25.390625
9930		29.296875
9931		25.390625
9932		27.343750
9933		21.484375
9934		27.343750
9935		21.484375
9936		25.390625
9937		17.578125
9938		23.437500
9939		17.578125
9940		19.531250
9941		15.625000
9942		17.578125
9943		11.718750
9944		17.578125
9945		11.718750
9946		15.625000
9947		9.765625
9948		13.671875
9949		5.859375
9950		9.765625
9951		5.859375
9952		7.812500
9953		1.953125
9954		7.812500
9955		1.953125
9956		5.859375
9957		0.000000
9958		1.953125
9959		-1.953125
9960		0.000000
9961		-5.859375
9962		0.000000
9963		-5.859375
9964		-1.953125
9965		-7.812500
9966		-3.906250
9967		-9.765625
9968		-5.859375
9969		-11.718750
9970		-7.812500
9971		-13.671875
9972		-9.765625
9973		-13.671875
9974		-11.718750
9975		-15.625000
9976		-13.671875
9977		-17.578125
9978		-13.671875
9979		-19.531250
9980		-15.625000
9981		-19.531250
9982		-17.578125
9983		-21.484375
9984		-17.578125
9985		-23.437500
9986		-19.531250
9987		-25.390625
9988		-19.531250
9989		-23.437500
9990		-21.484375
9991		-25.390625
9992		-23.437500
9993		-27.343750
9994		-23.437500
9995		-27.343750
9996		-23.437500
9997		-27.343750
9998		-23.437500
9999		-27.343750
10000		-25.390625
