Channel              :		CH1
Frequency            :		1.975kHz
Period               :		0.506ms
PK-PK                :		142.6mV
Probe attenuation    :		1X
Voltage per ADC value:		0.122070mV
Time interval        :		2.00000us

index		CH1_Voltage(mV)
1		78.125000
2		78.125000
3		74.218750
4		76.171875
5		72.265625
6		76.171875
7		72.265625
8		76.171875
9		70.312500
10		74.218750
11		70.312500
12		74.218750
13		70.312500
14		74.218750
15		68.359375
16		72.265625
17		66.406250
18		70.312500
19		66.406250
20		70.312500
21		64.453125
22		68.359375
23		62.500000
24		66.406250
25		60.546875
26		64.453125
27		58.593750
28		64.453125
29		56.640625
30		60.546875
31		54.687500
32		58.593750
33		52.734375
34		56.640625
35		50.781250
36		54.687500
37		46.875000
38		52.734375
39		44.921875
40		50.781250
41		42.968750
42		46.875000
43		39.062500
44		44.921875
45		37.109375
46		41.015625
47		35.156250
48		39.062500
49		29.296875
50		35.156250
51		27.343750
52		33.203125
53		25.390625
54		31.250000
55		21.484375
56		27.343750
57		17.578125
58		23.437500
59		13.671875
60		19.531250
61		11.718750
62		17.578125
63		9.765625
64		13.671875
65		5.859375
66		9.765625
67		1.953125
68		7.812500
69		-1.953125
70		3.906250
71		-5.859375
72		0.000000
73		-7.812500
74		-3.906250
75		-9.765625
76		-5.859375
77		-13.671875
78		-9.765625
79		-17.578125
80		-11.718750
81		-21.484375
82		-15.625000
83		-23.437500
84		-19.531250
85		-25.390625
86		-21.484375
87		-29.296875
88		-23.437500
89		-31.250000
90		-27.343750
91		-35.156250
92		-29.296875
93		-37.109375
94		-33.203125
95		-39.062500
96		-35.156250
97		-41.015625
98		-37.109375
99		-42.968750
100		-39.062500
101		-44.921875
102		-41.015625
103		-46.875000
104		-42.968750
105		-48.828125
106		-44.921875
107		-50.781250
108		-46.875000
109		-50.781250
110		-48.828125
111		-52.734375
112		-48.828125
113		-54.687500
114		-50.781250
115		-54.687500
116		-52.734375
117		-56.640625
118		-52.734375
119		-56.640625
120		-52.734375
121		-56.640625
122		-52.734375
123		-58.593750
124		-54.687500
125		-56.640625
126		-54.687500
127		-56.640625
128		-52.734375
129		-56.640625
130		-54.687500
131		-56.640625
132		-52.734375
133		-56.640625
134		-52.734375
135		-56.640625
136		-52.734375
137		-54.687500
138		-50.781250
139		-52.734375
140		-48.828125
141		-52.734375
142		-48.828125
143		-50.781250
144		-46.875000
145		-50.781250
146		-46.875000
147		-48.828125
148		-42.968750
149		-44.921875
150		-41.015625
151		-42.968750
152		-39.062500
153		-41.015625
154		-37.109375
155		-39.062500
156		-33.203125
157		-37.109375
158		-33.203125
159		-35.156250
160		-31.250000
161		-31.250000
162		-27.343750
163		-29.296875
164		-25.390625
165		-27.343750
166		-21.484375
167		-23.437500
168		-19.531250
169		-21.484375
170		-15.625000
171		-17.578125
172		-13.671875
173		-15.625000
174		-9.765625
175		-11.718750
176		-7.812500
177		-7.812500
178		-1.953125
179		-5.859375
180		0.000000
181		-1.953125
182		1.953125
183		0.000000
184		5.859375
185		3.906250
186		9.765625
187		7.812500
188		13.671875
189		11.718750
190		15.625000
191		13.671875
192		19.531250
193		17.578125
194		23.437500
195		21.484375
196		25.390625
197		23.437500
198		29.296875
199		27.343750
200		31.250000
201		31.250000
202		35.156250
203		33.203125
204		37.109375
205		35.156250
206		41.015625
207		39.062500
208		42.968750
209		41.015625
210		46.875000
211		44.921875
212		48.828125
213		46.875000
214		50.781250
215		48.828125
216		54.687500
217		52.734375
218		56.640625
219		54.687500
220		58.593750
221		56.640625
222		60.546875
223		58.593750
224		62.500000
225		60.546875
226		64.453125
227		62.500000
228		66.406250
229		62.500000
230		68.359375
231		66.406250
232		70.312500
233		68.359375
234		70.312500
235		68.359375
236		72.265625
237		70.312500
238		74.218750
239		70.312500
240		74.218750
241		72.265625
242		74.218750
243		72.265625
244		76.171875
245		72.265625
246		76.171875
247		72.265625
248		76.171875
249		74.218750
250		78.125000
251		74.218750
252		78.125000
253		74.218750
254		78.125000
255		74.218750
256		78.125000
257		72.265625
258		78.125000
259		74.218750
260		76.171875
261		72.265625
262		76.171875
263		72.265625
264		76.171875
265		70.312500
266		74.218750
267		70.312500
268		74.218750
269		68.359375
270		72.265625
271		66.406250
272		70.312500
273		64.453125
274		70.312500
275		64.453125
276		68.359375
277		62.500000
278		66.406250
279		60.546875
280		64.453125
281		58.593750
282		62.500000
283		56.640625
284		60.546875
285		54.687500
286		58.593750
287		52.734375
288		56.640625
289		48.828125
290		54.687500
291		46.875000
292		52.734375
293		44.921875
294		48.828125
295		41.015625
296		46.875000
297		39.062500
298		42.968750
299		37.109375
300		41.015625
301		33.203125
302		39.062500
303		31.250000
304		35.156250
305		27.343750
306		31.250000
307		23.437500
308		29.296875
309		21.484375
310		25.390625
311		17.578125
312		23.437500
313		15.625000
314		21.484375
315		11.718750
316		15.625000
317		7.812500
318		13.671875
319		3.906250
320		11.718750
321		1.953125
322		5.859375
323		-1.953125
324		3.906250
325		-5.859375
326		0.000000
327		-7.812500
328		-3.906250
329		-11.718750
330		-5.859375
331		-13.671875
332		-9.765625
333		-17.578125
334		-11.718750
335		-21.484375
336		-15.625000
337		-23.437500
338		-19.531250
339		-25.390625
340		-21.484375
341		-29.296875
342		-25.390625
343		-31.250000
344		-27.343750
345		-35.156250
346		-29.296875
347		-37.109375
348		-33.203125
349		-39.062500
350		-35.156250
351		-41.015625
352		-37.109375
353		-42.968750
354		-39.062500
355		-44.921875
356		-41.015625
357		-46.875000
358		-42.968750
359		-48.828125
360		-44.921875
361		-50.781250
362		-46.875000
363		-52.734375
364		-46.875000
365		-52.734375
366		-48.828125
367		-54.687500
368		-50.781250
369		-54.687500
370		-50.781250
371		-54.687500
372		-52.734375
373		-56.640625
374		-52.734375
375		-56.640625
376		-52.734375
377		-56.640625
378		-54.687500
379		-56.640625
380		-52.734375
381		-56.640625
382		-52.734375
383		-56.640625
384		-52.734375
385		-54.687500
386		-52.734375
387		-56.640625
388		-52.734375
389		-54.687500
390		-50.781250
391		-54.687500
392		-48.828125
393		-52.734375
394		-48.828125
395		-50.781250
396		-46.875000
397		-48.828125
398		-46.875000
399		-48.828125
400		-44.921875
401		-46.875000
402		-42.968750
403		-44.921875
404		-39.062500
405		-42.968750
406		-39.062500
407		-41.015625
408		-37.109375
409		-39.062500
410		-35.156250
411		-35.156250
412		-31.250000
413		-33.203125
414		-29.296875
415		-31.250000
416		-25.390625
417		-27.343750
418		-23.437500
419		-25.390625
420		-19.531250
421		-21.484375
422		-17.578125
423		-19.531250
424		-13.671875
425		-15.625000
426		-11.718750
427		-13.671875
428		-7.812500
429		-9.765625
430		-3.906250
431		-7.812500
432		0.000000
433		-3.906250
434		1.953125
435		0.000000
436		3.906250
437		1.953125
438		7.812500
439		5.859375
440		11.718750
441		9.765625
442		15.625000
443		11.718750
444		17.578125
445		15.625000
446		21.484375
447		19.531250
448		25.390625
449		21.484375
450		27.343750
451		25.390625
452		31.250000
453		29.296875
454		33.203125
455		31.250000
456		37.109375
457		35.156250
458		39.062500
459		37.109375
460		42.968750
461		41.015625
462		44.921875
463		42.968750
464		46.875000
465		46.875000
466		50.781250
467		48.828125
468		52.734375
469		50.781250
470		54.687500
471		52.734375
472		56.640625
473		56.640625
474		58.593750
475		58.593750
476		62.500000
477		60.546875
478		64.453125
479		62.500000
480		64.453125
481		62.500000
482		66.406250
483		64.453125
484		70.312500
485		66.406250
486		70.312500
487		68.359375
488		72.265625
489		70.312500
490		72.265625
491		70.312500
492		74.218750
493		70.312500
494		74.218750
495		72.265625
496		76.171875
497		72.265625
498		76.171875
499		74.218750
500		78.125000
501		74.218750
502		76.171875
503		74.218750
504		78.125000
505		74.218750
506		78.125000
507		74.218750
508		78.125000
509		74.218750
510		78.125000
511		74.218750
512		76.171875
513		74.218750
514		78.125000
515		72.265625
516		76.171875
517		72.265625
518		76.171875
519		72.265625
520		74.218750
521		70.312500
522		74.218750
523		68.359375
524		72.265625
525		66.406250
526		72.265625
527		66.406250
528		70.312500
529		64.453125
530		68.359375
531		62.500000
532		66.406250
533		60.546875
534		64.453125
535		58.593750
536		62.500000
537		56.640625
538		60.546875
539		54.687500
540		58.593750
541		52.734375
542		56.640625
543		50.781250
544		54.687500
545		46.875000
546		50.781250
547		44.921875
548		48.828125
549		41.015625
550		46.875000
551		39.062500
552		44.921875
553		37.109375
554		41.015625
555		33.203125
556		39.062500
557		29.296875
558		35.156250
559		27.343750
560		31.250000
561		23.437500
562		29.296875
563		21.484375
564		25.390625
565		17.578125
566		23.437500
567		13.671875
568		19.531250
569		9.765625
570		15.625000
571		7.812500
572		11.718750
573		3.906250
574		9.765625
575		0.000000
576		5.859375
577		-1.953125
578		3.906250
579		-5.859375
580		-1.953125
581		-9.765625
582		-3.906250
583		-11.718750
584		-5.859375
585		-15.625000
586		-9.765625
587		-17.578125
588		-11.718750
589		-21.484375
590		-17.578125
591		-23.437500
592		-19.531250
593		-27.343750
594		-21.484375
595		-29.296875
596		-25.390625
597		-33.203125
598		-27.343750
599		-35.156250
600		-29.296875
601		-37.109375
602		-33.203125
603		-39.062500
604		-35.156250
605		-41.015625
606		-37.109375
607		-42.968750
608		-39.062500
609		-46.875000
610		-41.015625
611		-46.875000
612		-42.968750
613		-48.828125
614		-44.921875
615		-50.781250
616		-46.875000
617		-50.781250
618		-48.828125
619		-52.734375
620		-48.828125
621		-52.734375
622		-50.781250
623		-54.687500
624		-50.781250
625		-54.687500
626		-52.734375
627		-56.640625
628		-52.734375
629		-56.640625
630		-52.734375
631		-56.640625
632		-52.734375
633		-56.640625
634		-52.734375
635		-56.640625
636		-52.734375
637		-56.640625
638		-52.734375
639		-54.687500
640		-50.781250
641		-54.687500
642		-50.781250
643		-54.687500
644		-50.781250
645		-52.734375
646		-48.828125
647		-50.781250
648		-48.828125
649		-50.781250
650		-46.875000
651		-48.828125
652		-44.921875
653		-46.875000
654		-42.968750
655		-46.875000
656		-42.968750
657		-42.968750
658		-39.062500
659		-41.015625
660		-37.109375
661		-39.062500
662		-35.156250
663		-37.109375
664		-33.203125
665		-35.156250
666		-31.250000
667		-31.250000
668		-27.343750
669		-29.296875
670		-25.390625
671		-27.343750
672		-21.484375
673		-23.437500
674		-19.531250
675		-21.484375
676		-15.625000
677		-17.578125
678		-13.671875
679		-15.625000
680		-9.765625
681		-11.718750
682		-5.859375
683		-7.812500
684		-3.906250
685		-5.859375
686		0.000000
687		-1.953125
688		1.953125
689		1.953125
690		5.859375
691		3.906250
692		9.765625
693		7.812500
694		13.671875
695		11.718750
696		15.625000
697		13.671875
698		19.531250
699		17.578125
700		21.484375
701		19.531250
702		25.390625
703		23.437500
704		29.296875
705		27.343750
706		31.250000
707		29.296875
708		35.156250
709		33.203125
710		37.109375
711		35.156250
712		41.015625
713		39.062500
714		42.968750
715		41.015625
716		46.875000
717		42.968750
718		48.828125
719		46.875000
720		50.781250
721		48.828125
722		52.734375
723		52.734375
724		56.640625
725		54.687500
726		58.593750
727		56.640625
728		60.546875
729		58.593750
730		62.500000
731		60.546875
732		64.453125
733		62.500000
734		66.406250
735		64.453125
736		68.359375
737		64.453125
738		70.312500
739		68.359375
740		72.265625
741		70.312500
742		72.265625
743		70.312500
744		74.218750
745		70.312500
746		74.218750
747		72.265625
748		76.171875
749		72.265625
750		76.171875
751		74.218750
752		78.125000
753		74.218750
754		78.125000
755		74.218750
756		78.125000
757		76.171875
758		78.125000
759		74.218750
760		78.125000
761		74.218750
762		78.125000
763		76.171875
764		78.125000
765		74.218750
766		78.125000
767		74.218750
768		78.125000
769		74.218750
770		76.171875
771		72.265625
772		76.171875
773		72.265625
774		74.218750
775		70.312500
776		74.218750
777		68.359375
778		72.265625
779		68.359375
780		72.265625
781		66.406250
782		70.312500
783		64.453125
784		68.359375
785		62.500000
786		66.406250
787		60.546875
788		64.453125
789		58.593750
790		62.500000
791		56.640625
792		60.546875
793		54.687500
794		58.593750
795		50.781250
796		56.640625
797		48.828125
798		52.734375
799		46.875000
800		50.781250
801		44.921875
802		48.828125
803		41.015625
804		44.921875
805		39.062500
806		42.968750
807		35.156250
808		41.015625
809		33.203125
810		37.109375
811		29.296875
812		35.156250
813		27.343750
814		31.250000
815		23.437500
816		27.343750
817		19.531250
818		25.390625
819		17.578125
820		21.484375
821		13.671875
822		17.578125
823		9.765625
824		15.625000
825		7.812500
826		11.718750
827		3.906250
828		7.812500
829		0.000000
830		5.859375
831		-1.953125
832		1.953125
833		-5.859375
834		0.000000
835		-9.765625
836		-3.906250
837		-13.671875
838		-7.812500
839		-15.625000
840		-11.718750
841		-17.578125
842		-13.671875
843		-21.484375
844		-17.578125
845		-23.437500
846		-19.531250
847		-27.343750
848		-23.437500
849		-29.296875
850		-25.390625
851		-31.250000
852		-27.343750
853		-35.156250
854		-31.250000
855		-37.109375
856		-33.203125
857		-39.062500
858		-35.156250
859		-41.015625
860		-37.109375
861		-44.921875
862		-39.062500
863		-44.921875
864		-41.015625
865		-46.875000
866		-42.968750
867		-48.828125
868		-44.921875
869		-50.781250
870		-46.875000
871		-50.781250
872		-48.828125
873		-52.734375
874		-48.828125
875		-54.687500
876		-50.781250
877		-54.687500
878		-50.781250
879		-56.640625
880		-50.781250
881		-54.687500
882		-52.734375
883		-54.687500
884		-52.734375
885		-56.640625
886		-52.734375
887		-56.640625
888		-52.734375
889		-56.640625
890		-52.734375
891		-56.640625
892		-52.734375
893		-54.687500
894		-50.781250
895		-54.687500
896		-50.781250
897		-52.734375
898		-50.781250
899		-50.781250
900		-48.828125
901		-52.734375
902		-46.875000
903		-50.781250
904		-46.875000
905		-48.828125
906		-44.921875
907		-46.875000
908		-42.968750
909		-44.921875
910		-41.015625
911		-42.968750
912		-39.062500
913		-41.015625
914		-37.109375
915		-39.062500
916		-35.156250
917		-35.156250
918		-31.250000
919		-33.203125
920		-29.296875
921		-31.250000
922		-27.343750
923		-29.296875
924		-23.437500
925		-25.390625
926		-21.484375
927		-23.437500
928		-17.578125
929		-19.531250
930		-15.625000
931		-17.578125
932		-11.718750
933		-13.671875
934		-9.765625
935		-11.718750
936		-5.859375
937		-7.812500
938		-1.953125
939		-3.906250
940		0.000000
941		-1.953125
942		3.906250
943		1.953125
944		7.812500
945		5.859375
946		9.765625
947		7.812500
948		13.671875
949		11.718750
950		15.625000
951		15.625000
952		19.531250
953		17.578125
954		23.437500
955		21.484375
956		25.390625
957		23.437500
958		29.296875
959		27.343750
960		33.203125
961		29.296875
962		35.156250
963		33.203125
964		39.062500
965		37.109375
966		41.015625
967		41.015625
968		44.921875
969		42.968750
970		46.875000
971		44.921875
972		48.828125
973		46.875000
974		52.734375
975		50.781250
976		54.687500
977		52.734375
978		56.640625
979		54.687500
980		58.593750
981		56.640625
982		60.546875
983		60.546875
984		62.500000
985		60.546875
986		66.406250
987		62.500000
988		68.359375
989		64.453125
990		68.359375
991		66.406250
992		70.312500
993		68.359375
994		72.265625
995		68.359375
996		74.218750
997		70.312500
998		74.218750
999		72.265625
1000		74.218750
1001		72.265625
1002		76.171875
1003		74.218750
1004		76.171875
1005		74.218750
1006		76.171875
1007		74.218750
1008		76.171875
1009		74.218750
1010		78.125000
1011		74.218750
1012		78.125000
1013		74.218750
1014		78.125000
1015		74.218750
1016		78.125000
1017		74.218750
1018		78.125000
1019		74.218750
1020		78.125000
1021		74.218750
1022		76.171875
1023		72.265625
1024		76.171875
1025		72.265625
1026		76.171875
1027		70.312500
1028		74.218750
1029		70.312500
1030		74.218750
1031		68.359375
1032		74.218750
1033		66.406250
1034		70.312500
1035		66.406250
1036		68.359375
1037		64.453125
1038		68.359375
1039		62.500000
1040		66.406250
1041		60.546875
1042		64.453125
1043		58.593750
1044		62.500000
1045		54.687500
1046		60.546875
1047		52.734375
1048		58.593750
1049		50.781250
1050		54.687500
1051		46.875000
1052		52.734375
1053		44.921875
1054		50.781250
1055		42.968750
1056		48.828125
1057		41.015625
1058		44.921875
1059		37.109375
1060		42.968750
1061		35.156250
1062		39.062500
1063		31.250000
1064		37.109375
1065		29.296875
1066		33.203125
1067		25.390625
1068		29.296875
1069		21.484375
1070		27.343750
1071		19.531250
1072		23.437500
1073		15.625000
1074		21.484375
1075		11.718750
1076		17.578125
1077		9.765625
1078		13.671875
1079		5.859375
1080		11.718750
1081		1.953125
1082		7.812500
1083		0.000000
1084		3.906250
1085		-3.906250
1086		1.953125
1087		-5.859375
1088		-1.953125
1089		-11.718750
1090		-3.906250
1091		-13.671875
1092		-9.765625
1093		-17.578125
1094		-11.718750
1095		-19.531250
1096		-15.625000
1097		-23.437500
1098		-17.578125
1099		-25.390625
1100		-21.484375
1101		-27.343750
1102		-23.437500
1103		-31.250000
1104		-25.390625
1105		-33.203125
1106		-29.296875
1107		-35.156250
1108		-31.250000
1109		-39.062500
1110		-35.156250
1111		-41.015625
1112		-37.109375
1113		-42.968750
1114		-37.109375
1115		-44.921875
1116		-39.062500
1117		-46.875000
1118		-42.968750
1119		-48.828125
1120		-42.968750
1121		-50.781250
1122		-44.921875
1123		-50.781250
1124		-46.875000
1125		-52.734375
1126		-48.828125
1127		-52.734375
1128		-48.828125
1129		-54.687500
1130		-50.781250
1131		-54.687500
1132		-50.781250
1133		-54.687500
1134		-52.734375
1135		-56.640625
1136		-52.734375
1137		-58.593750
1138		-50.781250
1139		-58.593750
1140		-50.781250
1141		-56.640625
1142		-52.734375
1143		-56.640625
1144		-52.734375
1145		-54.687500
1146		-52.734375
1147		-56.640625
1148		-50.781250
1149		-54.687500
1150		-50.781250
1151		-52.734375
1152		-48.828125
1153		-52.734375
1154		-46.875000
1155		-52.734375
1156		-46.875000
1157		-50.781250
1158		-44.921875
1159		-46.875000
1160		-44.921875
1161		-46.875000
1162		-42.968750
1163		-44.921875
1164		-39.062500
1165		-44.921875
1166		-39.062500
1167		-39.062500
1168		-37.109375
1169		-39.062500
1170		-31.250000
1171		-37.109375
1172		-29.296875
1173		-35.156250
1174		-27.343750
1175		-31.250000
1176		-25.390625
1177		-29.296875
1178		-21.484375
1179		-25.390625
1180		-19.531250
1181		-23.437500
1182		-17.578125
1183		-19.531250
1184		-13.671875
1185		-15.625000
1186		-11.718750
1187		-15.625000
1188		-5.859375
1189		-11.718750
1190		-3.906250
1191		-7.812500
1192		0.000000
1193		-3.906250
1194		1.953125
1195		-1.953125
1196		5.859375
1197		1.953125
1198		9.765625
1199		5.859375
1200		11.718750
1201		9.765625
1202		13.671875
1203		11.718750
1204		19.531250
1205		13.671875
1206		23.437500
1207		17.578125
1208		25.390625
1209		21.484375
1210		29.296875
1211		23.437500
1212		31.250000
1213		27.343750
1214		35.156250
1215		29.296875
1216		37.109375
1217		35.156250
1218		39.062500
1219		37.109375
1220		44.921875
1221		39.062500
1222		46.875000
1223		41.015625
1224		48.828125
1225		44.921875
1226		52.734375
1227		46.875000
1228		54.687500
1229		48.828125
1230		56.640625
1231		50.781250
1232		58.593750
1233		56.640625
1234		60.546875
1235		58.593750
1236		62.500000
1237		58.593750
1238		66.406250
1239		60.546875
1240		68.359375
1241		62.500000
1242		70.312500
1243		64.453125
1244		72.265625
1245		64.453125
1246		72.265625
1247		66.406250
1248		74.218750
1249		68.359375
1250		74.218750
1251		72.265625
1252		74.218750
1253		72.265625
1254		76.171875
1255		70.312500
1256		78.125000
1257		72.265625
1258		78.125000
1259		72.265625
1260		78.125000
1261		72.265625
1262		80.078125
1263		72.265625
1264		80.078125
1265		74.218750
1266		80.078125
1267		76.171875
1268		78.125000
1269		76.171875
1270		78.125000
1271		72.265625
1272		80.078125
1273		72.265625
1274		78.125000
1275		72.265625
1276		78.125000
1277		70.312500
1278		78.125000
1279		70.312500
1280		78.125000
1281		68.359375
1282		76.171875
1283		70.312500
1284		74.218750
1285		68.359375
1286		72.265625
1287		64.453125
1288		72.265625
1289		64.453125
1290		72.265625
1291		60.546875
1292		68.359375
1293		60.546875
1294		68.359375
1295		56.640625
1296		66.406250
1297		54.687500
1298		64.453125
1299		54.687500
1300		60.546875
1301		52.734375
1302		56.640625
1303		48.828125
1304		54.687500
1305		46.875000
1306		54.687500
1307		42.968750
1308		52.734375
1309		41.015625
1310		50.781250
1311		37.109375
1312		46.875000
1313		35.156250
1314		44.921875
1315		33.203125
1316		41.015625
1317		31.250000
1318		35.156250
1319		29.296875
1320		33.203125
1321		23.437500
1322		29.296875
1323		19.531250
1324		29.296875
1325		15.625000
1326		25.390625
1327		13.671875
1328		23.437500
1329		9.765625
1330		19.531250
1331		5.859375
1332		15.625000
1333		5.859375
1334		11.718750
1335		1.953125
1336		7.812500
1337		-1.953125
1338		3.906250
1339		-5.859375
1340		1.953125
1341		-9.765625
1342		0.000000
1343		-13.671875
1344		-3.906250
1345		-15.625000
1346		-7.812500
1347		-19.531250
1348		-9.765625
1349		-21.484375
1350		-13.671875
1351		-23.437500
1352		-17.578125
1353		-25.390625
1354		-21.484375
1355		-29.296875
1356		-23.437500
1357		-33.203125
1358		-25.390625
1359		-35.156250
1360		-27.343750
1361		-39.062500
1362		-29.296875
1363		-41.015625
1364		-31.250000
1365		-42.968750
1366		-35.156250
1367		-42.968750
1368		-37.109375
1369		-44.921875
1370		-41.015625
1371		-48.828125
1372		-41.015625
1373		-48.828125
1374		-42.968750
1375		-50.781250
1376		-44.921875
1377		-52.734375
1378		-44.921875
1379		-52.734375
1380		-46.875000
1381		-54.687500
1382		-48.828125
1383		-54.687500
1384		-48.828125
1385		-54.687500
1386		-50.781250
1387		-54.687500
1388		-52.734375
1389		-56.640625
1390		-50.781250
1391		-56.640625
1392		-50.781250
1393		-56.640625
1394		-50.781250
1395		-56.640625
1396		-50.781250
1397		-56.640625
1398		-50.781250
1399		-56.640625
1400		-50.781250
1401		-52.734375
1402		-50.781250
1403		-52.734375
1404		-50.781250
1405		-54.687500
1406		-46.875000
1407		-52.734375
1408		-44.921875
1409		-50.781250
1410		-42.968750
1411		-50.781250
1412		-42.968750
1413		-48.828125
1414		-41.015625
1415		-46.875000
1416		-39.062500
1417		-44.921875
1418		-39.062500
1419		-41.015625
1420		-37.109375
1421		-39.062500
1422		-33.203125
1423		-39.062500
1424		-31.250000
1425		-37.109375
1426		-27.343750
1427		-35.156250
1428		-25.390625
1429		-31.250000
1430		-23.437500
1431		-29.296875
1432		-19.531250
1433		-25.390625
1434		-17.578125
1435		-21.484375
1436		-15.625000
1437		-17.578125
1438		-13.671875
1439		-15.625000
1440		-7.812500
1441		-13.671875
1442		-5.859375
1443		-9.765625
1444		-1.953125
1445		-7.812500
1446		1.953125
1447		-3.906250
1448		3.906250
1449		-1.953125
1450		7.812500
1451		3.906250
1452		9.765625
1453		7.812500
1454		11.718750
1455		9.765625
1456		17.578125
1457		11.718750
1458		21.484375
1459		15.625000
1460		23.437500
1461		17.578125
1462		27.343750
1463		21.484375
1464		31.250000
1465		25.390625
1466		33.203125
1467		27.343750
1468		35.156250
1469		33.203125
1470		37.109375
1471		37.109375
1472		41.015625
1473		35.156250
1474		44.921875
1475		39.062500
1476		48.828125
1477		42.968750
1478		50.781250
1479		44.921875
1480		52.734375
1481		46.875000
1482		56.640625
1483		48.828125
1484		58.593750
1485		54.687500
1486		58.593750
1487		56.640625
1488		60.546875
1489		58.593750
1490		64.453125
1491		58.593750
1492		66.406250
1493		60.546875
1494		68.359375
1495		62.500000
1496		70.312500
1497		64.453125
1498		72.265625
1499		66.406250
1500		74.218750
1501		68.359375
1502		74.218750
1503		70.312500
1504		74.218750
1505		70.312500
1506		76.171875
1507		70.312500
1508		78.125000
1509		72.265625
1510		80.078125
1511		72.265625
1512		80.078125
1513		72.265625
1514		80.078125
1515		72.265625
1516		80.078125
1517		74.218750
1518		80.078125
1519		76.171875
1520		78.125000
1521		76.171875
1522		78.125000
1523		74.218750
1524		80.078125
1525		72.265625
1526		80.078125
1527		72.265625
1528		80.078125
1529		72.265625
1530		80.078125
1531		70.312500
1532		78.125000
1533		70.312500
1534		78.125000
1535		70.312500
1536		76.171875
1537		70.312500
1538		72.265625
1539		66.406250
1540		72.265625
1541		64.453125
1542		72.265625
1543		62.500000
1544		70.312500
1545		60.546875
1546		68.359375
1547		60.546875
1548		68.359375
1549		56.640625
1550		66.406250
1551		56.640625
1552		62.500000
1553		54.687500
1554		58.593750
1555		52.734375
1556		56.640625
1557		48.828125
1558		56.640625
1559		44.921875
1560		54.687500
1561		42.968750
1562		50.781250
1563		41.015625
1564		48.828125
1565		39.062500
1566		46.875000
1567		35.156250
1568		42.968750
1569		33.203125
1570		39.062500
1571		31.250000
1572		35.156250
1573		25.390625
1574		33.203125
1575		21.484375
1576		31.250000
1577		19.531250
1578		27.343750
1579		15.625000
1580		25.390625
1581		11.718750
1582		21.484375
1583		9.765625
1584		17.578125
1585		7.812500
1586		15.625000
1587		5.859375
1588		9.765625
1589		0.000000
1590		5.859375
1591		-3.906250
1592		5.859375
1593		-7.812500
1594		1.953125
1595		-9.765625
1596		-1.953125
1597		-13.671875
1598		-3.906250
1599		-15.625000
1600		-7.812500
1601		-17.578125
1602		-9.765625
1603		-19.531250
1604		-15.625000
1605		-23.437500
1606		-19.531250
1607		-27.343750
1608		-19.531250
1609		-31.250000
1610		-21.484375
1611		-33.203125
1612		-25.390625
1613		-35.156250
1614		-27.343750
1615		-39.062500
1616		-29.296875
1617		-41.015625
1618		-33.203125
1619		-41.015625
1620		-35.156250
1621		-42.968750
1622		-39.062500
1623		-46.875000
1624		-41.015625
1625		-48.828125
1626		-41.015625
1627		-50.781250
1628		-42.968750
1629		-50.781250
1630		-42.968750
1631		-52.734375
1632		-44.921875
1633		-54.687500
1634		-46.875000
1635		-54.687500
1636		-48.828125
1637		-52.734375
1638		-50.781250
1639		-54.687500
1640		-50.781250
1641		-56.640625
1642		-50.781250
1643		-56.640625
1644		-50.781250
1645		-56.640625
1646		-50.781250
1647		-56.640625
1648		-50.781250
1649		-56.640625
1650		-50.781250
1651		-56.640625
1652		-50.781250
1653		-54.687500
1654		-50.781250
1655		-52.734375
1656		-50.781250
1657		-52.734375
1658		-48.828125
1659		-52.734375
1660		-46.875000
1661		-50.781250
1662		-44.921875
1663		-50.781250
1664		-44.921875
1665		-48.828125
1666		-42.968750
1667		-46.875000
1668		-41.015625
1669		-44.921875
1670		-41.015625
1671		-42.968750
1672		-39.062500
1673		-41.015625
1674		-33.203125
1675		-39.062500
1676		-31.250000
1677		-37.109375
1678		-29.296875
1679		-35.156250
1680		-27.343750
1681		-33.203125
1682		-23.437500
1683		-29.296875
1684		-21.484375
1685		-27.343750
1686		-19.531250
1687		-21.484375
1688		-17.578125
1689		-19.531250
1690		-15.625000
1691		-17.578125
1692		-9.765625
1693		-15.625000
1694		-7.812500
1695		-11.718750
1696		-3.906250
1697		-9.765625
1698		0.000000
1699		-5.859375
1700		1.953125
1701		-1.953125
1702		5.859375
1703		1.953125
1704		7.812500
1705		5.859375
1706		9.765625
1707		9.765625
1708		15.625000
1709		9.765625
1710		19.531250
1711		13.671875
1712		21.484375
1713		17.578125
1714		25.390625
1715		19.531250
1716		27.343750
1717		23.437500
1718		31.250000
1719		25.390625
1720		33.203125
1721		31.250000
1722		35.156250
1723		33.203125
1724		39.062500
1725		35.156250
1726		44.921875
1727		37.109375
1728		46.875000
1729		41.015625
1730		48.828125
1731		42.968750
1732		52.734375
1733		46.875000
1734		54.687500
1735		48.828125
1736		56.640625
1737		52.734375
1738		56.640625
1739		56.640625
1740		58.593750
1741		56.640625
1742		64.453125
1743		58.593750
1744		66.406250
1745		60.546875
1746		68.359375
1747		62.500000
1748		70.312500
1749		64.453125
1750		70.312500
1751		64.453125
1752		72.265625
1753		66.406250
1754		74.218750
1755		70.312500
1756		74.218750
1757		70.312500
1758		76.171875
1759		70.312500
1760		78.125000
1761		70.312500
1762		78.125000
1763		72.265625
1764		78.125000
1765		72.265625
1766		80.078125
1767		72.265625
1768		80.078125
1769		74.218750
1770		80.078125
1771		76.171875
1772		78.125000
1773		76.171875
1774		78.125000
1775		74.218750
1776		80.078125
1777		74.218750
1778		80.078125
1779		72.265625
1780		80.078125
1781		72.265625
1782		80.078125
1783		72.265625
1784		78.125000
1785		70.312500
1786		78.125000
1787		70.312500
1788		76.171875
1789		70.312500
1790		74.218750
1791		66.406250
1792		74.218750
1793		66.406250
1794		74.218750
1795		64.453125
1796		72.265625
1797		62.500000
1798		70.312500
1799		60.546875
1800		70.312500
1801		58.593750
1802		66.406250
1803		58.593750
1804		64.453125
1805		56.640625
1806		60.546875
1807		54.687500
1808		58.593750
1809		50.781250
1810		58.593750
1811		48.828125
1812		54.687500
1813		44.921875
1814		54.687500
1815		42.968750
1816		50.781250
1817		39.062500
1818		48.828125
1819		37.109375
1820		44.921875
1821		35.156250
1822		41.015625
1823		33.203125
1824		37.109375
1825		27.343750
1826		35.156250
1827		25.390625
1828		33.203125
1829		21.484375
1830		31.250000
1831		17.578125
1832		27.343750
1833		13.671875
1834		23.437500
1835		11.718750
1836		21.484375
1837		9.765625
1838		17.578125
1839		7.812500
1840		11.718750
1841		1.953125
1842		7.812500
1843		0.000000
1844		7.812500
1845		-3.906250
1846		3.906250
1847		-7.812500
1848		1.953125
1849		-11.718750
1850		-1.953125
1851		-13.671875
1852		-3.906250
1853		-15.625000
1854		-7.812500
1855		-17.578125
1856		-13.671875
1857		-21.484375
1858		-15.625000
1859		-27.343750
1860		-19.531250
1861		-29.296875
1862		-19.531250
1863		-31.250000
1864		-21.484375
1865		-33.203125
1866		-25.390625
1867		-37.109375
1868		-29.296875
1869		-39.062500
1870		-31.250000
1871		-39.062500
1872		-33.203125
1873		-41.015625
1874		-37.109375
1875		-44.921875
1876		-39.062500
1877		-46.875000
1878		-39.062500
1879		-48.828125
1880		-41.015625
1881		-50.781250
1882		-42.968750
1883		-50.781250
1884		-44.921875
1885		-52.734375
1886		-44.921875
1887		-54.687500
1888		-46.875000
1889		-52.734375
1890		-50.781250
1891		-52.734375
1892		-50.781250
1893		-56.640625
1894		-48.828125
1895		-56.640625
1896		-50.781250
1897		-56.640625
1898		-50.781250
1899		-56.640625
1900		-50.781250
1901		-56.640625
1902		-50.781250
1903		-56.640625
1904		-50.781250
1905		-56.640625
1906		-50.781250
1907		-54.687500
1908		-50.781250
1909		-54.687500
1910		-48.828125
1911		-54.687500
1912		-46.875000
1913		-52.734375
1914		-46.875000
1915		-52.734375
1916		-44.921875
1917		-50.781250
1918		-42.968750
1919		-48.828125
1920		-41.015625
1921		-46.875000
1922		-41.015625
1923		-42.968750
1924		-39.062500
1925		-41.015625
1926		-37.109375
1927		-41.015625
1928		-33.203125
1929		-39.062500
1930		-31.250000
1931		-37.109375
1932		-29.296875
1933		-35.156250
1934		-27.343750
1935		-31.250000
1936		-23.437500
1937		-29.296875
1938		-21.484375
1939		-23.437500
1940		-19.531250
1941		-21.484375
1942		-17.578125
1943		-21.484375
1944		-11.718750
1945		-17.578125
1946		-9.765625
1947		-15.625000
1948		-5.859375
1949		-11.718750
1950		-3.906250
1951		-7.812500
1952		0.000000
1953		-5.859375
1954		3.906250
1955		-1.953125
1956		3.906250
1957		3.906250
1958		7.812500
1959		5.859375
1960		13.671875
1961		7.812500
1962		15.625000
1963		11.718750
1964		19.531250
1965		13.671875
1966		23.437500
1967		17.578125
1968		25.390625
1969		21.484375
1970		29.296875
1971		23.437500
1972		31.250000
1973		29.296875
1974		33.203125
1975		31.250000
1976		37.109375
1977		33.203125
1978		41.015625
1979		35.156250
1980		44.921875
1981		39.062500
1982		46.875000
1983		41.015625
1984		50.781250
1985		44.921875
1986		52.734375
1987		46.875000
1988		54.687500
1989		50.781250
1990		54.687500
1991		54.687500
1992		58.593750
1993		54.687500
1994		62.500000
1995		56.640625
1996		64.453125
1997		58.593750
1998		66.406250
1999		60.546875
2000		68.359375
2001		62.500000
2002		70.312500
2003		64.453125
2004		72.265625
2005		64.453125
2006		72.265625
2007		68.359375
2008		72.265625
2009		70.312500
2010		76.171875
2011		70.312500
2012		76.171875
2013		70.312500
2014		78.125000
2015		70.312500
2016		78.125000
2017		72.265625
2018		80.078125
2019		72.265625
2020		80.078125
2021		72.265625
2022		80.078125
2023		76.171875
2024		78.125000
2025		76.171875
2026		78.125000
2027		74.218750
2028		80.078125
2029		74.218750
2030		80.078125
2031		72.265625
2032		80.078125
2033		72.265625
2034		80.078125
2035		72.265625
2036		80.078125
2037		72.265625
2038		78.125000
2039		72.265625
2040		78.125000
2041		72.265625
2042		74.218750
2043		68.359375
2044		74.218750
2045		66.406250
2046		74.218750
2047		64.453125
2048		72.265625
2049		64.453125
2050		72.265625
2051		62.500000
2052		70.312500
2053		60.546875
2054		68.359375
2055		60.546875
2056		66.406250
2057		58.593750
2058		62.500000
2059		56.640625
2060		60.546875
2061		52.734375
2062		60.546875
2063		48.828125
2064		58.593750
2065		46.875000
2066		54.687500
2067		44.921875
2068		52.734375
2069		41.015625
2070		50.781250
2071		39.062500
2072		46.875000
2073		39.062500
2074		44.921875
2075		35.156250
2076		39.062500
2077		31.250000
2078		37.109375
2079		27.343750
2080		35.156250
2081		23.437500
2082		33.203125
2083		21.484375
2084		29.296875
2085		17.578125
2086		25.390625
2087		13.671875
2088		23.437500
2089		11.718750
2090		19.531250
2091		9.765625
2092		15.625000
2093		5.859375
2094		11.718750
2095		1.953125
2096		9.765625
2097		-1.953125
2098		7.812500
2099		-3.906250
2100		3.906250
2101		-7.812500
2102		0.000000
2103		-11.718750
2104		-1.953125
2105		-13.671875
2106		-5.859375
2107		-15.625000
2108		-9.765625
2109		-19.531250
2110		-13.671875
2111		-23.437500
2112		-17.578125
2113		-27.343750
2114		-17.578125
2115		-29.296875
2116		-21.484375
2117		-31.250000
2118		-25.390625
2119		-35.156250
2120		-27.343750
2121		-37.109375
2122		-27.343750
2123		-37.109375
2124		-31.250000
2125		-39.062500
2126		-35.156250
2127		-42.968750
2128		-37.109375
2129		-44.921875
2130		-37.109375
2131		-46.875000
2132		-39.062500
2133		-48.828125
2134		-41.015625
2135		-50.781250
2136		-42.968750
2137		-50.781250
2138		-44.921875
2139		-52.734375
2140		-44.921875
2141		-52.734375
2142		-48.828125
2143		-52.734375
2144		-50.781250
2145		-56.640625
2146		-48.828125
2147		-56.640625
2148		-48.828125
2149		-56.640625
2150		-48.828125
2151		-56.640625
2152		-50.781250
2153		-56.640625
2154		-50.781250
2155		-56.640625
2156		-50.781250
2157		-56.640625
2158		-50.781250
2159		-52.734375
2160		-50.781250
2161		-54.687500
2162		-48.828125
2163		-54.687500
2164		-46.875000
2165		-52.734375
2166		-46.875000
2167		-52.734375
2168		-44.921875
2169		-50.781250
2170		-44.921875
2171		-50.781250
2172		-42.968750
2173		-48.828125
2174		-41.015625
2175		-44.921875
2176		-41.015625
2177		-42.968750
2178		-37.109375
2179		-42.968750
2180		-35.156250
2181		-41.015625
2182		-33.203125
2183		-39.062500
2184		-29.296875
2185		-35.156250
2186		-27.343750
2187		-33.203125
2188		-25.390625
2189		-31.250000
2190		-23.437500
2191		-27.343750
2192		-21.484375
2193		-23.437500
2194		-19.531250
2195		-21.484375
2196		-13.671875
2197		-19.531250
2198		-11.718750
2199		-15.625000
2200		-7.812500
2201		-13.671875
2202		-5.859375
2203		-9.765625
2204		-1.953125
2205		-5.859375
2206		1.953125
2207		-3.906250
2208		3.906250
2209		1.953125
2210		5.859375
2211		3.906250
2212		11.718750
2213		5.859375
2214		13.671875
2215		7.812500
2216		17.578125
2217		11.718750
2218		21.484375
2219		15.625000
2220		25.390625
2221		17.578125
2222		27.343750
2223		21.484375
2224		31.250000
2225		27.343750
2226		31.250000
2227		31.250000
2228		35.156250
2229		33.203125
2230		39.062500
2231		35.156250
2232		42.968750
2233		37.109375
2234		44.921875
2235		41.015625
2236		48.828125
2237		42.968750
2238		50.781250
2239		44.921875
2240		54.687500
2241		46.875000
2242		54.687500
2243		52.734375
2244		56.640625
2245		54.687500
2246		60.546875
2247		54.687500
2248		62.500000
2249		56.640625
2250		64.453125
2251		58.593750
2252		68.359375
2253		60.546875
2254		68.359375
2255		62.500000
2256		70.312500
2257		64.453125
2258		72.265625
2259		68.359375
2260		72.265625
2261		70.312500
2262		72.265625
2263		68.359375
2264		76.171875
2265		70.312500
2266		78.125000
2267		72.265625
2268		78.125000
2269		72.265625
2270		78.125000
2271		72.265625
2272		80.078125
2273		74.218750
2274		80.078125
2275		74.218750
2276		80.078125
2277		76.171875
2278		78.125000
2279		74.218750
2280		80.078125
2281		74.218750
2282		82.031250
2283		74.218750
2284		80.078125
2285		74.218750
2286		80.078125
2287		74.218750
2288		80.078125
2289		72.265625
2290		80.078125
2291		72.265625
2292		78.125000
2293		72.265625
2294		76.171875
2295		70.312500
2296		74.218750
2297		68.359375
2298		76.171875
2299		66.406250
2300		74.218750
2301		66.406250
2302		72.265625
2303		64.453125
2304		72.265625
2305		62.500000
2306		70.312500
2307		60.546875
2308		68.359375
2309		60.546875
2310		64.453125
2311		58.593750
2312		62.500000
2313		54.687500
2314		60.546875
2315		50.781250
2316		60.546875
2317		48.828125
2318		56.640625
2319		46.875000
2320		54.687500
2321		42.968750
2322		52.734375
2323		41.015625
2324		50.781250
2325		41.015625
2326		46.875000
2327		37.109375
2328		42.968750
2329		33.203125
2330		39.062500
2331		29.296875
2332		39.062500
2333		25.390625
2334		35.156250
2335		23.437500
2336		33.203125
2337		19.531250
2338		29.296875
2339		17.578125
2340		25.390625
2341		15.625000
2342		23.437500
2343		13.671875
2344		17.578125
2345		9.765625
2346		13.671875
2347		3.906250
2348		11.718750
2349		0.000000
2350		9.765625
2351		-1.953125
2352		7.812500
2353		-5.859375
2354		3.906250
2355		-9.765625
2356		0.000000
2357		-11.718750
2358		-1.953125
2359		-13.671875
2360		-5.859375
2361		-15.625000
2362		-11.718750
2363		-21.484375
2364		-13.671875
2365		-23.437500
2366		-15.625000
2367		-25.390625
2368		-17.578125
2369		-29.296875
2370		-21.484375
2371		-31.250000
2372		-23.437500
2373		-33.203125
2374		-27.343750
2375		-37.109375
2376		-29.296875
2377		-37.109375
2378		-33.203125
2379		-41.015625
2380		-35.156250
2381		-42.968750
2382		-35.156250
2383		-44.921875
2384		-39.062500
2385		-46.875000
2386		-39.062500
2387		-48.828125
2388		-41.015625
2389		-50.781250
2390		-42.968750
2391		-50.781250
2392		-44.921875
2393		-50.781250
2394		-46.875000
2395		-50.781250
2396		-48.828125
2397		-54.687500
2398		-46.875000
2399		-56.640625
2400		-48.828125
2401		-56.640625
2402		-48.828125
2403		-56.640625
2404		-48.828125
2405		-56.640625
2406		-48.828125
2407		-56.640625
2408		-48.828125
2409		-56.640625
2410		-48.828125
2411		-52.734375
2412		-50.781250
2413		-54.687500
2414		-48.828125
2415		-54.687500
2416		-46.875000
2417		-54.687500
2418		-46.875000
2419		-52.734375
2420		-46.875000
2421		-50.781250
2422		-44.921875
2423		-50.781250
2424		-42.968750
2425		-48.828125
2426		-41.015625
2427		-46.875000
2428		-41.015625
2429		-42.968750
2430		-39.062500
2431		-42.968750
2432		-35.156250
2433		-41.015625
2434		-33.203125
2435		-39.062500
2436		-31.250000
2437		-37.109375
2438		-29.296875
2439		-35.156250
2440		-27.343750
2441		-31.250000
2442		-23.437500
2443		-29.296875
2444		-23.437500
2445		-25.390625
2446		-21.484375
2447		-21.484375
2448		-15.625000
2449		-21.484375
2450		-11.718750
2451		-17.578125
2452		-9.765625
2453		-15.625000
2454		-5.859375
2455		-11.718750
2456		-3.906250
2457		-9.765625
2458		0.000000
2459		-5.859375
2460		0.000000
2461		0.000000
2462		3.906250
2463		1.953125
2464		9.765625
2465		3.906250
2466		13.671875
2467		7.812500
2468		15.625000
2469		11.718750
2470		19.531250
2471		13.671875
2472		23.437500
2473		17.578125
2474		25.390625
2475		19.531250
2476		29.296875
2477		25.390625
2478		29.296875
2479		29.296875
2480		33.203125
2481		31.250000
2482		39.062500
2483		33.203125
2484		41.015625
2485		35.156250
2486		42.968750
2487		39.062500
2488		46.875000
2489		41.015625
2490		48.828125
2491		42.968750
2492		52.734375
2493		46.875000
2494		52.734375
2495		50.781250
2496		54.687500
2497		52.734375
2498		60.546875
2499		54.687500
2500		62.500000
2501		56.640625
2502		64.453125
2503		58.593750
2504		66.406250
2505		60.546875
2506		68.359375
2507		62.500000
2508		70.312500
2509		64.453125
2510		72.265625
2511		68.359375
2512		70.312500
2513		70.312500
2514		72.265625
2515		68.359375
2516		76.171875
2517		70.312500
2518		78.125000
2519		70.312500
2520		78.125000
2521		72.265625
2522		78.125000
2523		72.265625
2524		80.078125
2525		74.218750
2526		80.078125
2527		74.218750
2528		80.078125
2529		76.171875
2530		80.078125
2531		74.218750
2532		82.031250
2533		74.218750
2534		82.031250
2535		74.218750
2536		82.031250
2537		74.218750
2538		82.031250
2539		74.218750
2540		82.031250
2541		72.265625
2542		80.078125
2543		74.218750
2544		80.078125
2545		74.218750
2546		78.125000
2547		72.265625
2548		76.171875
2549		70.312500
2550		76.171875
2551		68.359375
2552		76.171875
2553		66.406250
2554		74.218750
2555		66.406250
2556		74.218750
2557		64.453125
2558		72.265625
2559		62.500000
2560		70.312500
2561		62.500000
2562		66.406250
2563		60.546875
2564		64.453125
2565		56.640625
2566		62.500000
2567		54.687500
2568		62.500000
2569		52.734375
2570		60.546875
2571		48.828125
2572		56.640625
2573		46.875000
2574		54.687500
2575		42.968750
2576		52.734375
2577		42.968750
2578		48.828125
2579		41.015625
2580		44.921875
2581		35.156250
2582		41.015625
2583		33.203125
2584		41.015625
2585		29.296875
2586		37.109375
2587		27.343750
2588		35.156250
2589		23.437500
2590		31.250000
2591		19.531250
2592		29.296875
2593		17.578125
2594		25.390625
2595		15.625000
2596		19.531250
2597		11.718750
2598		17.578125
2599		5.859375
2600		15.625000
2601		1.953125
2602		11.718750
2603		0.000000
2604		9.765625
2605		-1.953125
2606		5.859375
2607		-5.859375
2608		3.906250
2609		-9.765625
2610		0.000000
2611		-9.765625
2612		-3.906250
2613		-13.671875
2614		-9.765625
2615		-19.531250
2616		-11.718750
2617		-21.484375
2618		-13.671875
2619		-25.390625
2620		-15.625000
2621		-27.343750
2622		-19.531250
2623		-29.296875
2624		-21.484375
2625		-33.203125
2626		-23.437500
2627		-33.203125
2628		-27.343750
2629		-35.156250
2630		-31.250000
2631		-37.109375
2632		-33.203125
2633		-41.015625
2634		-33.203125
2635		-42.968750
2636		-35.156250
2637		-44.921875
2638		-37.109375
2639		-46.875000
2640		-39.062500
2641		-48.828125
2642		-41.015625
2643		-50.781250
2644		-42.968750
2645		-48.828125
2646		-44.921875
2647		-50.781250
2648		-46.875000
2649		-52.734375
2650		-46.875000
2651		-54.687500
2652		-46.875000
2653		-54.687500
2654		-48.828125
2655		-54.687500
2656		-48.828125
2657		-54.687500
2658		-48.828125
2659		-54.687500
2660		-48.828125
2661		-54.687500
2662		-48.828125
2663		-52.734375
2664		-50.781250
2665		-52.734375
2666		-48.828125
2667		-54.687500
2668		-46.875000
2669		-54.687500
2670		-46.875000
2671		-52.734375
2672		-44.921875
2673		-50.781250
2674		-44.921875
2675		-50.781250
2676		-42.968750
2677		-48.828125
2678		-42.968750
2679		-44.921875
2680		-42.968750
2681		-44.921875
2682		-41.015625
2683		-44.921875
2684		-37.109375
2685		-42.968750
2686		-35.156250
2687		-41.015625
2688		-33.203125
2689		-39.062500
2690		-29.296875
2691		-35.156250
2692		-27.343750
2693		-33.203125
2694		-25.390625
2695		-31.250000
2696		-25.390625
2697		-25.390625
2698		-21.484375
2699		-23.437500
2700		-17.578125
2701		-21.484375
2702		-13.671875
2703		-19.531250
2704		-11.718750
2705		-17.578125
2706		-7.812500
2707		-11.718750
2708		-3.906250
2709		-9.765625
2710		-1.953125
2711		-5.859375
2712		0.000000
2713		-1.953125
2714		1.953125
2715		1.953125
2716		5.859375
2717		1.953125
2718		11.718750
2719		5.859375
2720		13.671875
2721		7.812500
2722		17.578125
2723		11.718750
2724		21.484375
2725		15.625000
2726		23.437500
2727		19.531250
2728		27.343750
2729		23.437500
2730		29.296875
2731		27.343750
2732		31.250000
2733		29.296875
2734		37.109375
2735		31.250000
2736		39.062500
2737		35.156250
2738		42.968750
2739		37.109375
2740		44.921875
2741		39.062500
2742		46.875000
2743		42.968750
2744		50.781250
2745		44.921875
2746		52.734375
2747		50.781250
2748		54.687500
2749		52.734375
2750		58.593750
2751		52.734375
2752		60.546875
2753		54.687500
2754		64.453125
2755		58.593750
2756		66.406250
2757		58.593750
2758		66.406250
2759		62.500000
2760		68.359375
2761		62.500000
2762		70.312500
2763		66.406250
2764		70.312500
2765		68.359375
2766		72.265625
2767		68.359375
2768		76.171875
2769		70.312500
2770		76.171875
2771		70.312500
2772		78.125000
2773		72.265625
2774		80.078125
2775		72.265625
2776		80.078125
2777		74.218750
2778		80.078125
2779		74.218750
2780		80.078125
2781		76.171875
2782		80.078125
2783		76.171875
2784		82.031250
2785		74.218750
2786		82.031250
2787		74.218750
2788		82.031250
2789		74.218750
2790		82.031250
2791		74.218750
2792		82.031250
2793		74.218750
2794		82.031250
2795		74.218750
2796		80.078125
2797		76.171875
2798		78.125000
2799		74.218750
2800		78.125000
2801		70.312500
2802		78.125000
2803		70.312500
2804		78.125000
2805		68.359375
2806		76.171875
2807		68.359375
2808		74.218750
2809		66.406250
2810		74.218750
2811		64.453125
2812		72.265625
2813		64.453125
2814		70.312500
2815		62.500000
2816		66.406250
2817		58.593750
2818		64.453125
2819		56.640625
2820		64.453125
2821		54.687500
2822		62.500000
2823		50.781250
2824		58.593750
2825		48.828125
2826		56.640625
2827		46.875000
2828		54.687500
2829		44.921875
2830		52.734375
2831		42.968750
2832		46.875000
2833		37.109375
2834		44.921875
2835		35.156250
2836		42.968750
2837		31.250000
2838		41.015625
2839		29.296875
2840		37.109375
2841		25.390625
2842		35.156250
2843		23.437500
2844		31.250000
2845		21.484375
2846		27.343750
2847		17.578125
2848		23.437500
2849		13.671875
2850		19.531250
2851		9.765625
2852		17.578125
2853		7.812500
2854		15.625000
2855		3.906250
2856		11.718750
2857		0.000000
2858		9.765625
2859		-3.906250
2860		5.859375
2861		-5.859375
2862		1.953125
2863		-7.812500
2864		0.000000
2865		-9.765625
2866		-5.859375
2867		-15.625000
2868		-9.765625
2869		-19.531250
2870		-9.765625
2871		-21.484375
2872		-13.671875
2873		-25.390625
2874		-15.625000
2875		-27.343750
2876		-19.531250
2877		-29.296875
2878		-21.484375
2879		-31.250000
2880		-25.390625
2881		-33.203125
2882		-29.296875
2883		-35.156250
2884		-31.250000
2885		-39.062500
2886		-31.250000
2887		-41.015625
2888		-33.203125
2889		-42.968750
2890		-35.156250
2891		-46.875000
2892		-37.109375
2893		-46.875000
2894		-39.062500
2895		-48.828125
2896		-41.015625
2897		-48.828125
2898		-42.968750
2899		-48.828125
2900		-46.875000
2901		-52.734375
2902		-46.875000
2903		-54.687500
2904		-44.921875
2905		-54.687500
2906		-46.875000
2907		-54.687500
2908		-46.875000
2909		-54.687500
2910		-46.875000
2911		-54.687500
2912		-48.828125
2913		-54.687500
2914		-48.828125
2915		-52.734375
2916		-50.781250
2917		-52.734375
2918		-48.828125
2919		-54.687500
2920		-46.875000
2921		-54.687500
2922		-46.875000
2923		-52.734375
2924		-44.921875
2925		-52.734375
2926		-44.921875
2927		-50.781250
2928		-42.968750
2929		-48.828125
2930		-42.968750
2931		-46.875000
2932		-42.968750
2933		-44.921875
2934		-41.015625
2935		-44.921875
2936		-37.109375
2937		-42.968750
2938		-35.156250
2939		-41.015625
2940		-33.203125
2941		-41.015625
2942		-31.250000
2943		-37.109375
2944		-29.296875
2945		-35.156250
2946		-27.343750
2947		-31.250000
2948		-25.390625
2949		-27.343750
2950		-23.437500
2951		-25.390625
2952		-19.531250
2953		-25.390625
2954		-15.625000
2955		-21.484375
2956		-13.671875
2957		-17.578125
2958		-9.765625
2959		-15.625000
2960		-7.812500
2961		-11.718750
2962		-3.906250
2963		-9.765625
2964		-1.953125
2965		-3.906250
2966		1.953125
2967		0.000000
2968		3.906250
2969		0.000000
2970		9.765625
2971		3.906250
2972		11.718750
2973		5.859375
2974		15.625000
2975		9.765625
2976		17.578125
2977		13.671875
2978		21.484375
2979		15.625000
2980		25.390625
2981		19.531250
2982		27.343750
2983		25.390625
2984		29.296875
2985		27.343750
2986		35.156250
2987		29.296875
2988		37.109375
2989		31.250000
2990		41.015625
2991		35.156250
2992		42.968750
2993		37.109375
2994		46.875000
2995		41.015625
2996		48.828125
2997		44.921875
2998		50.781250
2999		48.828125
3000		52.734375
3001		50.781250
3002		56.640625
3003		52.734375
3004		58.593750
3005		54.687500
3006		62.500000
3007		56.640625
3008		64.453125
3009		58.593750
3010		66.406250
3011		60.546875
3012		68.359375
3013		62.500000
3014		70.312500
3015		66.406250
3016		70.312500
3017		68.359375
3018		70.312500
3019		68.359375
3020		74.218750
3021		68.359375
3022		76.171875
3023		70.312500
3024		76.171875
3025		72.265625
3026		78.125000
3027		72.265625
3028		80.078125
3029		72.265625
3030		80.078125
3031		74.218750
3032		80.078125
3033		76.171875
3034		78.125000
3035		76.171875
3036		82.031250
3037		74.218750
3038		82.031250
3039		76.171875
3040		82.031250
3041		76.171875
3042		82.031250
3043		74.218750
3044		82.031250
3045		74.218750
3046		82.031250
3047		74.218750
3048		82.031250
3049		76.171875
3050		80.078125
3051		76.171875
3052		78.125000
3053		72.265625
3054		80.078125
3055		70.312500
3056		78.125000
3057		70.312500
3058		78.125000
3059		68.359375
3060		76.171875
3061		66.406250
3062		74.218750
3063		64.453125
3064		72.265625
3065		66.406250
3066		72.265625
3067		64.453125
3068		68.359375
3069		60.546875
3070		66.406250
3071		58.593750
3072		66.406250
3073		56.640625
3074		62.500000
3075		52.734375
3076		60.546875
3077		50.781250
3078		58.593750
3079		48.828125
3080		56.640625
3081		46.875000
3082		54.687500
3083		44.921875
3084		48.828125
3085		41.015625
3086		46.875000
3087		37.109375
3088		44.921875
3089		33.203125
3090		42.968750
3091		31.250000
3092		39.062500
3093		27.343750
3094		37.109375
3095		25.390625
3096		33.203125
3097		23.437500
3098		31.250000
3099		21.484375
3100		25.390625
3101		17.578125
3102		21.484375
3103		11.718750
3104		19.531250
3105		7.812500
3106		17.578125
3107		5.859375
3108		13.671875
3109		1.953125
3110		9.765625
3111		0.000000
3112		7.812500
3113		-3.906250
3114		3.906250
3115		-5.859375
3116		1.953125
3117		-7.812500
3118		-3.906250
3119		-13.671875
3120		-5.859375
3121		-17.578125
3122		-7.812500
3123		-19.531250
3124		-11.718750
3125		-21.484375
3126		-13.671875
3127		-25.390625
3128		-17.578125
3129		-27.343750
3130		-19.531250
3131		-31.250000
3132		-21.484375
3133		-31.250000
3134		-27.343750
3135		-33.203125
3136		-29.296875
3137		-39.062500
3138		-29.296875
3139		-41.015625
3140		-33.203125
3141		-42.968750
3142		-35.156250
3143		-44.921875
3144		-37.109375
3145		-46.875000
3146		-39.062500
3147		-48.828125
3148		-41.015625
3149		-48.828125
3150		-42.968750
3151		-48.828125
3152		-44.921875
3153		-50.781250
3154		-44.921875
3155		-52.734375
3156		-44.921875
3157		-52.734375
3158		-46.875000
3159		-54.687500
3160		-46.875000
3161		-54.687500
3162		-48.828125
3163		-54.687500
3164		-48.828125
3165		-56.640625
3166		-48.828125
3167		-52.734375
3168		-50.781250
3169		-54.687500
3170		-48.828125
3171		-54.687500
3172		-48.828125
3173		-54.687500
3174		-46.875000
3175		-54.687500
3176		-46.875000
3177		-52.734375
3178		-44.921875
3179		-52.734375
3180		-44.921875
3181		-50.781250
3182		-42.968750
3183		-46.875000
3184		-44.921875
3185		-46.875000
3186		-42.968750
3187		-46.875000
3188		-39.062500
3189		-46.875000
3190		-37.109375
3191		-42.968750
3192		-35.156250
3193		-42.968750
3194		-33.203125
3195		-39.062500
3196		-29.296875
3197		-37.109375
3198		-27.343750
3199		-35.156250
3200		-27.343750
3201		-29.296875
3202		-25.390625
3203		-27.343750
3204		-21.484375
3205		-25.390625
3206		-17.578125
3207		-23.437500
3208		-15.625000
3209		-21.484375
3210		-11.718750
3211		-17.578125
3212		-9.765625
3213		-15.625000
3214		-5.859375
3215		-11.718750
3216		-3.906250
3217		-5.859375
3218		-1.953125
3219		-3.906250
3220		1.953125
3221		-1.953125
3222		5.859375
3223		1.953125
3224		9.765625
3225		3.906250
3226		13.671875
3227		7.812500
3228		15.625000
3229		11.718750
3230		19.531250
3231		13.671875
3232		23.437500
3233		17.578125
3234		23.437500
3235		23.437500
3236		27.343750
3237		25.390625
3238		33.203125
3239		27.343750
3240		35.156250
3241		29.296875
3242		39.062500
3243		33.203125
3244		41.015625
3245		35.156250
3246		44.921875
3247		39.062500
3248		46.875000
3249		42.968750
3250		48.828125
3251		46.875000
3252		50.781250
3253		48.828125
3254		52.734375
3255		48.828125
3256		58.593750
3257		50.781250
3258		60.546875
3259		54.687500
3260		62.500000
3261		56.640625
3262		64.453125
3263		58.593750
3264		66.406250
3265		60.546875
3266		68.359375
3267		64.453125
3268		68.359375
3269		66.406250
3270		70.312500
3271		66.406250
3272		74.218750
3273		66.406250
3274		76.171875
3275		68.359375
3276		76.171875
3277		70.312500
3278		78.125000
3279		70.312500
3280		80.078125
3281		72.265625
3282		80.078125
3283		74.218750
3284		80.078125
3285		76.171875
3286		78.125000
3287		76.171875
3288		82.031250
3289		76.171875
3290		82.031250
3291		76.171875
3292		82.031250
3293		74.218750
3294		82.031250
3295		74.218750
3296		82.031250
3297		76.171875
3298		82.031250
3299		74.218750
3300		82.031250
3301		76.171875
3302		78.125000
3303		76.171875
3304		78.125000
3305		72.265625
3306		80.078125
3307		72.265625
3308		78.125000
3309		70.312500
3310		78.125000
3311		70.312500
3312		76.171875
3313		68.359375
3314		76.171875
3315		66.406250
3316		74.218750
3317		66.406250
3318		72.265625
3319		66.406250
3320		68.359375
3321		60.546875
3322		68.359375
3323		58.593750
3324		66.406250
3325		56.640625
3326		66.406250
3327		54.687500
3328		62.500000
3329		52.734375
3330		60.546875
3331		50.781250
3332		58.593750
3333		46.875000
3334		54.687500
3335		46.875000
3336		50.781250
3337		44.921875
3338		48.828125
3339		39.062500
3340		46.875000
3341		37.109375
3342		42.968750
3343		33.203125
3344		41.015625
3345		31.250000
3346		39.062500
3347		27.343750
3348		35.156250
3349		25.390625
3350		33.203125
3351		23.437500
3352		29.296875
3353		19.531250
3354		23.437500
3355		15.625000
3356		21.484375
3357		11.718750
3358		19.531250
3359		7.812500
3360		17.578125
3361		3.906250
3362		13.671875
3363		1.953125
3364		9.765625
3365		-1.953125
3366		5.859375
3367		-3.906250
3368		3.906250
3369		-5.859375
3370		-1.953125
3371		-11.718750
3372		-3.906250
3373		-15.625000
3374		-5.859375
3375		-17.578125
3376		-9.765625
3377		-21.484375
3378		-11.718750
3379		-23.437500
3380		-15.625000
3381		-27.343750
3382		-17.578125
3383		-27.343750
3384		-19.531250
3385		-29.296875
3386		-25.390625
3387		-33.203125
3388		-27.343750
3389		-37.109375
3390		-29.296875
3391		-39.062500
3392		-31.250000
3393		-41.015625
3394		-33.203125
3395		-42.968750
3396		-35.156250
3397		-44.921875
3398		-37.109375
3399		-46.875000
3400		-39.062500
3401		-46.875000
3402		-39.062500
3403		-46.875000
3404		-44.921875
3405		-50.781250
3406		-44.921875
3407		-52.734375
3408		-44.921875
3409		-52.734375
3410		-44.921875
3411		-52.734375
3412		-46.875000
3413		-54.687500
3414		-46.875000
3415		-54.687500
3416		-48.828125
3417		-54.687500
3418		-48.828125
3419		-52.734375
3420		-50.781250
3421		-52.734375
3422		-50.781250
3423		-54.687500
3424		-48.828125
3425		-54.687500
3426		-48.828125
3427		-54.687500
3428		-46.875000
3429		-52.734375
3430		-46.875000
3431		-52.734375
3432		-44.921875
3433		-52.734375
3434		-44.921875
3435		-50.781250
3436		-44.921875
3437		-46.875000
3438		-42.968750
3439		-46.875000
3440		-41.015625
3441		-46.875000
3442		-39.062500
3443		-44.921875
3444		-37.109375
3445		-42.968750
3446		-35.156250
3447		-41.015625
3448		-33.203125
3449		-37.109375
3450		-31.250000
3451		-35.156250
3452		-29.296875
3453		-31.250000
3454		-27.343750
3455		-29.296875
3456		-23.437500
3457		-27.343750
3458		-19.531250
3459		-25.390625
3460		-17.578125
3461		-21.484375
3462		-15.625000
3463		-19.531250
3464		-11.718750
3465		-17.578125
3466		-9.765625
3467		-11.718750
3468		-5.859375
3469		-7.812500
3470		-3.906250
3471		-5.859375
3472		-1.953125
3473		-1.953125
3474		1.953125
3475		-1.953125
3476		5.859375
3477		1.953125
3478		9.765625
3479		5.859375
3480		13.671875
3481		7.812500
3482		15.625000
3483		13.671875
3484		17.578125
3485		15.625000
3486		21.484375
3487		19.531250
3488		25.390625
3489		23.437500
3490		29.296875
3491		27.343750
3492		31.250000
3493		29.296875
3494		35.156250
3495		33.203125
3496		37.109375
3497		35.156250
3498		41.015625
3499		39.062500
3500		42.968750
3501		41.015625
3502		46.875000
3503		44.921875
3504		48.828125
3505		46.875000
3506		50.781250
3507		48.828125
3508		54.687500
3509		50.781250
3510		56.640625
3511		54.687500
3512		58.593750
3513		56.640625
3514		60.546875
3515		58.593750
3516		62.500000
3517		60.546875
3518		66.406250
3519		62.500000
3520		66.406250
3521		64.453125
3522		68.359375
3523		66.406250
3524		70.312500
3525		68.359375
3526		74.218750
3527		70.312500
3528		74.218750
3529		70.312500
3530		74.218750
3531		72.265625
3532		76.171875
3533		72.265625
3534		78.125000
3535		74.218750
3536		78.125000
3537		76.171875
3538		78.125000
3539		76.171875
3540		78.125000
3541		76.171875
3542		80.078125
3543		76.171875
3544		80.078125
3545		76.171875
3546		80.078125
3547		78.125000
3548		80.078125
3549		76.171875
3550		80.078125
3551		76.171875
3552		80.078125
3553		76.171875
3554		78.125000
3555		76.171875
3556		80.078125
3557		74.218750
3558		78.125000
3559		74.218750
3560		78.125000
3561		72.265625
3562		76.171875
3563		72.265625
3564		76.171875
3565		70.312500
3566		74.218750
3567		70.312500
3568		72.265625
3569		68.359375
3570		72.265625
3571		66.406250
3572		70.312500
3573		64.453125
3574		68.359375
3575		62.500000
3576		66.406250
3577		60.546875
3578		64.453125
3579		58.593750
3580		62.500000
3581		56.640625
3582		60.546875
3583		52.734375
3584		58.593750
3585		50.781250
3586		54.687500
3587		48.828125
3588		52.734375
3589		46.875000
3590		50.781250
3591		42.968750
3592		48.828125
3593		41.015625
3594		44.921875
3595		37.109375
3596		41.015625
3597		35.156250
3598		39.062500
3599		31.250000
3600		35.156250
3601		29.296875
3602		33.203125
3603		25.390625
3604		29.296875
3605		21.484375
3606		27.343750
3607		19.531250
3608		23.437500
3609		15.625000
3610		19.531250
3611		11.718750
3612		17.578125
3613		9.765625
3614		13.671875
3615		5.859375
3616		9.765625
3617		1.953125
3618		7.812500
3619		0.000000
3620		3.906250
3621		-3.906250
3622		0.000000
3623		-7.812500
3624		-1.953125
3625		-9.765625
3626		-5.859375
3627		-13.671875
3628		-9.765625
3629		-15.625000
3630		-11.718750
3631		-19.531250
3632		-15.625000
3633		-21.484375
3634		-17.578125
3635		-25.390625
3636		-19.531250
3637		-27.343750
3638		-23.437500
3639		-29.296875
3640		-25.390625
3641		-33.203125
3642		-27.343750
3643		-35.156250
3644		-31.250000
3645		-37.109375
3646		-33.203125
3647		-39.062500
3648		-35.156250
3649		-42.968750
3650		-37.109375
3651		-42.968750
3652		-39.062500
3653		-44.921875
3654		-41.015625
3655		-46.875000
3656		-42.968750
3657		-48.828125
3658		-44.921875
3659		-48.828125
3660		-44.921875
3661		-50.781250
3662		-46.875000
3663		-50.781250
3664		-46.875000
3665		-52.734375
3666		-48.828125
3667		-52.734375
3668		-48.828125
3669		-52.734375
3670		-48.828125
3671		-52.734375
3672		-50.781250
3673		-52.734375
3674		-50.781250
3675		-54.687500
3676		-50.781250
3677		-52.734375
3678		-48.828125
3679		-52.734375
3680		-48.828125
3681		-52.734375
3682		-48.828125
3683		-50.781250
3684		-48.828125
3685		-50.781250
3686		-46.875000
3687		-48.828125
3688		-46.875000
3689		-48.828125
3690		-44.921875
3691		-46.875000
3692		-42.968750
3693		-46.875000
3694		-41.015625
3695		-44.921875
3696		-41.015625
3697		-42.968750
3698		-37.109375
3699		-41.015625
3700		-37.109375
3701		-37.109375
3702		-33.203125
3703		-35.156250
3704		-31.250000
3705		-33.203125
3706		-29.296875
3707		-31.250000
3708		-25.390625
3709		-27.343750
3710		-23.437500
3711		-25.390625
3712		-21.484375
3713		-23.437500
3714		-17.578125
3715		-19.531250
3716		-15.625000
3717		-17.578125
3718		-11.718750
3719		-13.671875
3720		-7.812500
3721		-11.718750
3722		-5.859375
3723		-7.812500
3724		-3.906250
3725		-3.906250
3726		0.000000
3727		-1.953125
3728		3.906250
3729		1.953125
3730		7.812500
3731		3.906250
3732		9.765625
3733		7.812500
3734		13.671875
3735		11.718750
3736		15.625000
3737		13.671875
3738		19.531250
3739		17.578125
3740		23.437500
3741		21.484375
3742		25.390625
3743		23.437500
3744		29.296875
3745		27.343750
3746		33.203125
3747		31.250000
3748		35.156250
3749		33.203125
3750		39.062500
3751		37.109375
3752		41.015625
3753		39.062500
3754		42.968750
3755		42.968750
3756		46.875000
3757		44.921875
3758		48.828125
3759		46.875000
3760		52.734375
3761		50.781250
3762		54.687500
3763		52.734375
3764		56.640625
3765		54.687500
3766		58.593750
3767		56.640625
3768		62.500000
3769		60.546875
3770		64.453125
3771		60.546875
3772		64.453125
3773		64.453125
3774		68.359375
3775		66.406250
3776		70.312500
3777		66.406250
3778		70.312500
3779		68.359375
3780		72.265625
3781		70.312500
3782		74.218750
3783		72.265625
3784		76.171875
3785		72.265625
3786		76.171875
3787		74.218750
3788		78.125000
3789		74.218750
3790		78.125000
3791		76.171875
3792		78.125000
3793		76.171875
3794		80.078125
3795		76.171875
3796		80.078125
3797		76.171875
3798		80.078125
3799		76.171875
3800		80.078125
3801		76.171875
3802		80.078125
3803		76.171875
3804		80.078125
3805		76.171875
3806		80.078125
3807		76.171875
3808		80.078125
3809		76.171875
3810		80.078125
3811		74.218750
3812		78.125000
3813		74.218750
3814		78.125000
3815		72.265625
3816		76.171875
3817		72.265625
3818		76.171875
3819		70.312500
3820		74.218750
3821		68.359375
3822		74.218750
3823		68.359375
3824		70.312500
3825		64.453125
3826		70.312500
3827		64.453125
3828		68.359375
3829		62.500000
3830		66.406250
3831		60.546875
3832		64.453125
3833		56.640625
3834		62.500000
3835		54.687500
3836		58.593750
3837		52.734375
3838		56.640625
3839		50.781250
3840		54.687500
3841		48.828125
3842		52.734375
3843		44.921875
3844		50.781250
3845		42.968750
3846		46.875000
3847		39.062500
3848		44.921875
3849		37.109375
3850		41.015625
3851		33.203125
3852		39.062500
3853		29.296875
3854		35.156250
3855		27.343750
3856		33.203125
3857		23.437500
3858		29.296875
3859		21.484375
3860		25.390625
3861		17.578125
3862		21.484375
3863		13.671875
3864		19.531250
3865		9.765625
3866		15.625000
3867		7.812500
3868		13.671875
3869		3.906250
3870		9.765625
3871		1.953125
3872		5.859375
3873		-1.953125
3874		3.906250
3875		-3.906250
3876		0.000000
3877		-7.812500
3878		-3.906250
3879		-11.718750
3880		-5.859375
3881		-15.625000
3882		-9.765625
3883		-17.578125
3884		-11.718750
3885		-21.484375
3886		-15.625000
3887		-23.437500
3888		-17.578125
3889		-25.390625
3890		-21.484375
3891		-29.296875
3892		-23.437500
3893		-31.250000
3894		-27.343750
3895		-33.203125
3896		-29.296875
3897		-35.156250
3898		-31.250000
3899		-37.109375
3900		-33.203125
3901		-41.015625
3902		-35.156250
3903		-42.968750
3904		-39.062500
3905		-44.921875
3906		-39.062500
3907		-44.921875
3908		-42.968750
3909		-48.828125
3910		-42.968750
3911		-48.828125
3912		-44.921875
3913		-48.828125
3914		-46.875000
3915		-50.781250
3916		-46.875000
3917		-52.734375
3918		-48.828125
3919		-52.734375
3920		-48.828125
3921		-52.734375
3922		-48.828125
3923		-52.734375
3924		-50.781250
3925		-52.734375
3926		-50.781250
3927		-52.734375
3928		-50.781250
3929		-54.687500
3930		-50.781250
3931		-52.734375
3932		-50.781250
3933		-52.734375
3934		-48.828125
3935		-50.781250
3936		-48.828125
3937		-50.781250
3938		-46.875000
3939		-50.781250
3940		-46.875000
3941		-48.828125
3942		-46.875000
3943		-48.828125
3944		-42.968750
3945		-46.875000
3946		-42.968750
3947		-44.921875
3948		-41.015625
3949		-42.968750
3950		-39.062500
3951		-42.968750
3952		-37.109375
3953		-39.062500
3954		-35.156250
3955		-37.109375
3956		-33.203125
3957		-35.156250
3958		-31.250000
3959		-33.203125
3960		-29.296875
3961		-31.250000
3962		-25.390625
3963		-27.343750
3964		-23.437500
3965		-25.390625
3966		-19.531250
3967		-21.484375
3968		-15.625000
3969		-19.531250
3970		-13.671875
3971		-15.625000
3972		-11.718750
3973		-13.671875
3974		-7.812500
3975		-9.765625
3976		-5.859375
3977		-7.812500
3978		-1.953125
3979		-3.906250
3980		0.000000
3981		0.000000
3982		3.906250
3983		1.953125
3984		7.812500
3985		5.859375
3986		9.765625
3987		7.812500
3988		13.671875
3989		11.718750
3990		17.578125
3991		15.625000
3992		19.531250
3993		19.531250
3994		23.437500
3995		21.484375
3996		27.343750
3997		25.390625
3998		29.296875
3999		27.343750
4000		33.203125
4001		31.250000
4002		37.109375
4003		33.203125
4004		39.062500
4005		37.109375
4006		42.968750
4007		41.015625
4008		44.921875
4009		42.968750
4010		46.875000
4011		44.921875
4012		50.781250
4013		48.828125
4014		52.734375
4015		50.781250
4016		56.640625
4017		54.687500
4018		58.593750
4019		54.687500
4020		60.546875
4021		58.593750
4022		62.500000
4023		60.546875
4024		64.453125
4025		62.500000
4026		66.406250
4027		64.453125
4028		68.359375
4029		66.406250
4030		70.312500
4031		66.406250
4032		72.265625
4033		70.312500
4034		72.265625
4035		70.312500
4036		74.218750
4037		72.265625
4038		76.171875
4039		72.265625
4040		76.171875
4041		74.218750
4042		76.171875
4043		74.218750
4044		78.125000
4045		74.218750
4046		78.125000
4047		76.171875
4048		80.078125
4049		76.171875
4050		80.078125
4051		76.171875
4052		80.078125
4053		76.171875
4054		80.078125
4055		76.171875
4056		80.078125
4057		76.171875
4058		80.078125
4059		76.171875
4060		78.125000
4061		76.171875
4062		78.125000
4063		74.218750
4064		80.078125
4065		74.218750
4066		78.125000
4067		74.218750
4068		76.171875
4069		72.265625
4070		76.171875
4071		72.265625
4072		74.218750
4073		70.312500
4074		74.218750
4075		68.359375
4076		72.265625
4077		66.406250
4078		70.312500
4079		64.453125
4080		68.359375
4081		62.500000
4082		66.406250
4083		60.546875
4084		66.406250
4085		58.593750
4086		62.500000
4087		56.640625
4088		60.546875
4089		54.687500
4090		58.593750
4091		52.734375
4092		56.640625
4093		48.828125
4094		54.687500
4095		46.875000
4096		50.781250
4097		44.921875
4098		48.828125
4099		41.015625
4100		44.921875
4101		39.062500
4102		42.968750
4103		35.156250
4104		41.015625
4105		33.203125
4106		37.109375
4107		29.296875
4108		35.156250
4109		25.390625
4110		31.250000
4111		23.437500
4112		27.343750
4113		19.531250
4114		23.437500
4115		15.625000
4116		21.484375
4117		13.671875
4118		17.578125
4119		9.765625
4120		15.625000
4121		7.812500
4122		11.718750
4123		3.906250
4124		9.765625
4125		0.000000
4126		5.859375
4127		-1.953125
4128		1.953125
4129		-5.859375
4130		0.000000
4131		-9.765625
4132		-3.906250
4133		-11.718750
4134		-7.812500
4135		-15.625000
4136		-11.718750
4137		-19.531250
4138		-13.671875
4139		-21.484375
4140		-15.625000
4141		-23.437500
4142		-19.531250
4143		-27.343750
4144		-23.437500
4145		-29.296875
4146		-25.390625
4147		-33.203125
4148		-27.343750
4149		-35.156250
4150		-31.250000
4151		-37.109375
4152		-33.203125
4153		-39.062500
4154		-35.156250
4155		-41.015625
4156		-37.109375
4157		-42.968750
4158		-39.062500
4159		-44.921875
4160		-41.015625
4161		-46.875000
4162		-42.968750
4163		-48.828125
4164		-44.921875
4165		-48.828125
4166		-44.921875
4167		-50.781250
4168		-46.875000
4169		-50.781250
4170		-48.828125
4171		-52.734375
4172		-48.828125
4173		-52.734375
4174		-48.828125
4175		-52.734375
4176		-50.781250
4177		-52.734375
4178		-50.781250
4179		-52.734375
4180		-50.781250
4181		-54.687500
4182		-50.781250
4183		-52.734375
4184		-50.781250
4185		-52.734375
4186		-50.781250
4187		-52.734375
4188		-50.781250
4189		-50.781250
4190		-48.828125
4191		-52.734375
4192		-46.875000
4193		-50.781250
4194		-46.875000
4195		-48.828125
4196		-44.921875
4197		-48.828125
4198		-44.921875
4199		-46.875000
4200		-41.015625
4201		-44.921875
4202		-41.015625
4203		-42.968750
4204		-39.062500
4205		-41.015625
4206		-37.109375
4207		-39.062500
4208		-35.156250
4209		-37.109375
4210		-33.203125
4211		-35.156250
4212		-29.296875
4213		-33.203125
4214		-27.343750
4215		-29.296875
4216		-25.390625
4217		-27.343750
4218		-23.437500
4219		-23.437500
4220		-19.531250
4221		-21.484375
4222		-17.578125
4223		-19.531250
4224		-13.671875
4225		-15.625000
4226		-9.765625
4227		-11.718750
4228		-7.812500
4229		-9.765625
4230		-5.859375
4231		-5.859375
4232		0.000000
4233		-3.906250
4234		1.953125
4235		0.000000
4236		5.859375
4237		3.906250
4238		7.812500
4239		5.859375
4240		11.718750
4241		9.765625
4242		15.625000
4243		13.671875
4244		17.578125
4245		15.625000
4246		21.484375
4247		19.531250
4248		25.390625
4249		23.437500
4250		27.343750
4251		25.390625
4252		31.250000
4253		29.296875
4254		33.203125
4255		31.250000
4256		37.109375
4257		35.156250
4258		41.015625
4259		39.062500
4260		42.968750
4261		41.015625
4262		44.921875
4263		42.968750
4264		48.828125
4265		46.875000
4266		50.781250
4267		48.828125
4268		52.734375
4269		50.781250
4270		56.640625
4271		52.734375
4272		58.593750
4273		56.640625
4274		60.546875
4275		58.593750
4276		62.500000
4277		60.546875
4278		64.453125
4279		62.500000
4280		66.406250
4281		64.453125
4282		68.359375
4283		66.406250
4284		70.312500
4285		68.359375
4286		72.265625
4287		70.312500
4288		72.265625
4289		70.312500
4290		74.218750
4291		72.265625
4292		76.171875
4293		74.218750
4294		76.171875
4295		74.218750
4296		78.125000
4297		74.218750
4298		78.125000
4299		76.171875
4300		80.078125
4301		76.171875
4302		80.078125
4303		76.171875
4304		80.078125
4305		76.171875
4306		80.078125
4307		76.171875
4308		80.078125
4309		76.171875
4310		80.078125
4311		76.171875
4312		80.078125
4313		76.171875
4314		80.078125
4315		76.171875
4316		80.078125
4317		76.171875
4318		78.125000
4319		74.218750
4320		78.125000
4321		72.265625
4322		76.171875
4323		72.265625
4324		76.171875
4325		70.312500
4326		74.218750
4327		70.312500
4328		72.265625
4329		68.359375
4330		72.265625
4331		66.406250
4332		70.312500
4333		64.453125
4334		68.359375
4335		62.500000
4336		66.406250
4337		60.546875
4338		64.453125
4339		58.593750
4340		62.500000
4341		54.687500
4342		60.546875
4343		54.687500
4344		58.593750
4345		50.781250
4346		54.687500
4347		48.828125
4348		52.734375
4349		46.875000
4350		50.781250
4351		42.968750
4352		48.828125
4353		41.015625
4354		44.921875
4355		37.109375
4356		42.968750
4357		35.156250
4358		39.062500
4359		31.250000
4360		37.109375
4361		29.296875
4362		33.203125
4363		25.390625
4364		29.296875
4365		21.484375
4366		27.343750
4367		17.578125
4368		23.437500
4369		15.625000
4370		19.531250
4371		11.718750
4372		17.578125
4373		9.765625
4374		13.671875
4375		5.859375
4376		11.718750
4377		1.953125
4378		7.812500
4379		0.000000
4380		3.906250
4381		-3.906250
4382		1.953125
4383		-7.812500
4384		-1.953125
4385		-9.765625
4386		-5.859375
4387		-13.671875
4388		-7.812500
4389		-15.625000
4390		-11.718750
4391		-19.531250
4392		-13.671875
4393		-21.484375
4394		-17.578125
4395		-25.390625
4396		-21.484375
4397		-27.343750
4398		-23.437500
4399		-29.296875
4400		-25.390625
4401		-33.203125
4402		-27.343750
4403		-35.156250
4404		-31.250000
4405		-37.109375
4406		-33.203125
4407		-39.062500
4408		-35.156250
4409		-42.968750
4410		-37.109375
4411		-42.968750
4412		-39.062500
4413		-44.921875
4414		-41.015625
4415		-46.875000
4416		-42.968750
4417		-48.828125
4418		-44.921875
4419		-48.828125
4420		-44.921875
4421		-50.781250
4422		-46.875000
4423		-52.734375
4424		-48.828125
4425		-52.734375
4426		-48.828125
4427		-52.734375
4428		-50.781250
4429		-52.734375
4430		-50.781250
4431		-54.687500
4432		-50.781250
4433		-54.687500
4434		-50.781250
4435		-54.687500
4436		-50.781250
4437		-52.734375
4438		-50.781250
4439		-52.734375
4440		-48.828125
4441		-52.734375
4442		-48.828125
4443		-50.781250
4444		-48.828125
4445		-50.781250
4446		-48.828125
4447		-50.781250
4448		-44.921875
4449		-48.828125
4450		-44.921875
4451		-48.828125
4452		-42.968750
4453		-46.875000
4454		-42.968750
4455		-44.921875
4456		-41.015625
4457		-42.968750
4458		-39.062500
4459		-41.015625
4460		-35.156250
4461		-39.062500
4462		-35.156250
4463		-35.156250
4464		-33.203125
4465		-33.203125
4466		-29.296875
4467		-31.250000
4468		-25.390625
4469		-29.296875
4470		-25.390625
4471		-25.390625
4472		-21.484375
4473		-23.437500
4474		-19.531250
4475		-21.484375
4476		-15.625000
4477		-19.531250
4478		-13.671875
4479		-15.625000
4480		-9.765625
4481		-11.718750
4482		-7.812500
4483		-7.812500
4484		-3.906250
4485		-5.859375
4486		0.000000
4487		-1.953125
4488		3.906250
4489		0.000000
4490		5.859375
4491		3.906250
4492		9.765625
4493		7.812500
4494		11.718750
4495		9.765625
4496		15.625000
4497		13.671875
4498		19.531250
4499		15.625000
4500		21.484375
4501		19.531250
4502		25.390625
4503		23.437500
4504		27.343750
4505		27.343750
4506		31.250000
4507		29.296875
4508		35.156250
4509		33.203125
4510		39.062500
4511		37.109375
4512		41.015625
4513		39.062500
4514		42.968750
4515		41.015625
4516		46.875000
4517		44.921875
4518		48.828125
4519		46.875000
4520		50.781250
4521		48.828125
4522		54.687500
4523		52.734375
4524		56.640625
4525		54.687500
4526		58.593750
4527		56.640625
4528		60.546875
4529		58.593750
4530		62.500000
4531		60.546875
4532		66.406250
4533		62.500000
4534		68.359375
4535		64.453125
4536		68.359375
4537		66.406250
4538		70.312500
4539		68.359375
4540		72.265625
4541		70.312500
4542		74.218750
4543		72.265625
4544		74.218750
4545		72.265625
4546		76.171875
4547		74.218750
4548		76.171875
4549		74.218750
4550		78.125000
4551		74.218750
4552		78.125000
4553		76.171875
4554		78.125000
4555		76.171875
4556		80.078125
4557		76.171875
4558		80.078125
4559		76.171875
4560		80.078125
4561		76.171875
4562		80.078125
4563		76.171875
4564		80.078125
4565		76.171875
4566		80.078125
4567		76.171875
4568		78.125000
4569		74.218750
4570		78.125000
4571		74.218750
4572		78.125000
4573		74.218750
4574		78.125000
4575		72.265625
4576		76.171875
4577		72.265625
4578		74.218750
4579		70.312500
4580		74.218750
4581		70.312500
4582		72.265625
4583		68.359375
4584		72.265625
4585		64.453125
4586		70.312500
4587		64.453125
4588		68.359375
4589		62.500000
4590		66.406250
4591		58.593750
4592		64.453125
4593		56.640625
4594		62.500000
4595		54.687500
4596		60.546875
4597		52.734375
4598		56.640625
4599		50.781250
4600		54.687500
4601		46.875000
4602		52.734375
4603		44.921875
4604		48.828125
4605		42.968750
4606		46.875000
4607		39.062500
4608		44.921875
4609		37.109375
4610		42.968750
4611		33.203125
4612		39.062500
4613		31.250000
4614		35.156250
4615		27.343750
4616		33.203125
4617		23.437500
4618		29.296875
4619		21.484375
4620		25.390625
4621		17.578125
4622		23.437500
4623		15.625000
4624		19.531250
4625		11.718750
4626		17.578125
4627		7.812500
4628		13.671875
4629		3.906250
4630		9.765625
4631		1.953125
4632		5.859375
4633		-1.953125
4634		3.906250
4635		-3.906250
4636		0.000000
4637		-7.812500
4638		-3.906250
4639		-11.718750
4640		-5.859375
4641		-15.625000
4642		-9.765625
4643		-17.578125
4644		-11.718750
4645		-19.531250
4646		-15.625000
4647		-23.437500
4648		-19.531250
4649		-27.343750
4650		-21.484375
4651		-27.343750
4652		-23.437500
4653		-31.250000
4654		-25.390625
4655		-33.203125
4656		-29.296875
4657		-37.109375
4658		-31.250000
4659		-39.062500
4660		-33.203125
4661		-41.015625
4662		-35.156250
4663		-42.968750
4664		-39.062500
4665		-42.968750
4666		-41.015625
4667		-44.921875
4668		-41.015625
4669		-46.875000
4670		-42.968750
4671		-48.828125
4672		-44.921875
4673		-48.828125
4674		-46.875000
4675		-50.781250
4676		-46.875000
4677		-52.734375
4678		-48.828125
4679		-52.734375
4680		-48.828125
4681		-52.734375
4682		-50.781250
4683		-52.734375
4684		-48.828125
4685		-54.687500
4686		-50.781250
4687		-54.687500
4688		-50.781250
4689		-52.734375
4690		-50.781250
4691		-52.734375
4692		-50.781250
4693		-52.734375
4694		-48.828125
4695		-52.734375
4696		-48.828125
4697		-50.781250
4698		-48.828125
4699		-50.781250
4700		-46.875000
4701		-48.828125
4702		-44.921875
4703		-48.828125
4704		-44.921875
4705		-46.875000
4706		-42.968750
4707		-44.921875
4708		-41.015625
4709		-44.921875
4710		-39.062500
4711		-42.968750
4712		-37.109375
4713		-39.062500
4714		-35.156250
4715		-37.109375
4716		-33.203125
4717		-35.156250
4718		-31.250000
4719		-33.203125
4720		-29.296875
4721		-31.250000
4722		-25.390625
4723		-27.343750
4724		-23.437500
4725		-25.390625
4726		-21.484375
4727		-23.437500
4728		-17.578125
4729		-19.531250
4730		-15.625000
4731		-17.578125
4732		-11.718750
4733		-13.671875
4734		-7.812500
4735		-9.765625
4736		-5.859375
4737		-7.812500
4738		-3.906250
4739		-3.906250
4740		0.000000
4741		-1.953125
4742		3.906250
4743		1.953125
4744		5.859375
4745		5.859375
4746		9.765625
4747		7.812500
4748		13.671875
4749		11.718750
4750		15.625000
4751		13.671875
4752		19.531250
4753		17.578125
4754		23.437500
4755		21.484375
4756		25.390625
4757		25.390625
4758		29.296875
4759		27.343750
4760		31.250000
4761		29.296875
4762		35.156250
4763		33.203125
4764		39.062500
4765		37.109375
4766		41.015625
4767		39.062500
4768		44.921875
4769		42.968750
4770		48.828125
4771		44.921875
4772		48.828125
4773		46.875000
4774		52.734375
4775		50.781250
4776		54.687500
4777		52.734375
4778		56.640625
4779		54.687500
4780		58.593750
4781		58.593750
4782		60.546875
4783		60.546875
4784		64.453125
4785		62.500000
4786		66.406250
4787		64.453125
4788		68.359375
4789		66.406250
4790		68.359375
4791		68.359375
4792		70.312500
4793		68.359375
4794		72.265625
4795		70.312500
4796		74.218750
4797		72.265625
4798		74.218750
4799		72.265625
4800		76.171875
4801		72.265625
4802		78.125000
4803		74.218750
4804		78.125000
4805		76.171875
4806		78.125000
4807		76.171875
4808		78.125000
4809		76.171875
4810		80.078125
4811		76.171875
4812		80.078125
4813		76.171875
4814		80.078125
4815		78.125000
4816		80.078125
4817		76.171875
4818		80.078125
4819		76.171875
4820		80.078125
4821		76.171875
4822		78.125000
4823		76.171875
4824		78.125000
4825		74.218750
4826		78.125000
4827		74.218750
4828		76.171875
4829		72.265625
4830		76.171875
4831		72.265625
4832		74.218750
4833		70.312500
4834		74.218750
4835		68.359375
4836		72.265625
4837		66.406250
4838		70.312500
4839		64.453125
4840		68.359375
4841		62.500000
4842		66.406250
4843		60.546875
4844		64.453125
4845		58.593750
4846		64.453125
4847		56.640625
4848		62.500000
4849		54.687500
4850		58.593750
4851		52.734375
4852		56.640625
4853		48.828125
4854		54.687500
4855		46.875000
4856		50.781250
4857		42.968750
4858		48.828125
4859		41.015625
4860		46.875000
4861		37.109375
4862		42.968750
4863		35.156250
4864		41.015625
4865		33.203125
4866		37.109375
4867		29.296875
4868		35.156250
4869		27.343750
4870		31.250000
4871		23.437500
4872		27.343750
4873		19.531250
4874		25.390625
4875		17.578125
4876		21.484375
4877		13.671875
4878		17.578125
4879		9.765625
4880		15.625000
4881		7.812500
4882		11.718750
4883		3.906250
4884		7.812500
4885		0.000000
4886		5.859375
4887		-1.953125
4888		1.953125
4889		-5.859375
4890		-1.953125
4891		-9.765625
4892		-3.906250
4893		-13.671875
4894		-7.812500
4895		-15.625000
4896		-9.765625
4897		-17.578125
4898		-13.671875
4899		-21.484375
4900		-17.578125
4901		-23.437500
4902		-19.531250
4903		-27.343750
4904		-21.484375
4905		-29.296875
4906		-25.390625
4907		-31.250000
4908		-27.343750
4909		-35.156250
4910		-29.296875
4911		-37.109375
4912		-33.203125
4913		-39.062500
4914		-35.156250
4915		-41.015625
4916		-37.109375
4917		-42.968750
4918		-39.062500
4919		-44.921875
4920		-41.015625
4921		-46.875000
4922		-42.968750
4923		-48.828125
4924		-44.921875
4925		-48.828125
4926		-46.875000
4927		-50.781250
4928		-46.875000
4929		-50.781250
4930		-48.828125
4931		-52.734375
4932		-48.828125
4933		-52.734375
4934		-50.781250
4935		-54.687500
4936		-50.781250
4937		-54.687500
4938		-50.781250
4939		-54.687500
4940		-50.781250
4941		-54.687500
4942		-50.781250
4943		-54.687500
4944		-50.781250
4945		-54.687500
4946		-50.781250
4947		-52.734375
4948		-50.781250
4949		-52.734375
4950		-50.781250
4951		-52.734375
4952		-48.828125
4953		-50.781250
4954		-46.875000
4955		-48.828125
4956		-46.875000
4957		-48.828125
4958		-44.921875
4959		-46.875000
4960		-42.968750
4961		-44.921875
4962		-41.015625
4963		-42.968750
4964		-39.062500
4965		-41.015625
4966		-39.062500
4967		-39.062500
4968		-37.109375
4969		-37.109375
4970		-33.203125
4971		-35.156250
4972		-31.250000
4973		-33.203125
4974		-29.296875
4975		-31.250000
4976		-25.390625
4977		-27.343750
4978		-23.437500
4979		-25.390625
4980		-21.484375
4981		-23.437500
4982		-17.578125
4983		-19.531250
4984		-15.625000
4985		-15.625000
4986		-11.718750
4987		-13.671875
4988		-7.812500
4989		-9.765625
4990		-5.859375
4991		-7.812500
4992		-1.953125
4993		-3.906250
4994		0.000000
4995		0.000000
4996		3.906250
4997		1.953125
4998		7.812500
4999		5.859375
5000		9.765625
5001		9.765625
5002		13.671875
5003		11.718750
5004		17.578125
5005		15.625000
5006		19.531250
5007		17.578125
5008		23.437500
5009		21.484375
5010		27.343750
5011		25.390625
5012		29.296875
5013		27.343750
5014		33.203125
5015		31.250000
5016		35.156250
5017		33.203125
5018		39.062500
5019		37.109375
5020		42.968750
5021		41.015625
5022		44.921875
5023		42.968750
5024		46.875000
5025		44.921875
5026		50.781250
5027		48.828125
5028		52.734375
5029		50.781250
5030		54.687500
5031		52.734375
5032		56.640625
5033		56.640625
5034		58.593750
5035		58.593750
5036		62.500000
5037		60.546875
5038		64.453125
5039		60.546875
5040		66.406250
5041		64.453125
5042		68.359375
5043		66.406250
5044		68.359375
5045		68.359375
5046		72.265625
5047		68.359375
5048		72.265625
5049		70.312500
5050		72.265625
5051		72.265625
5052		76.171875
5053		70.312500
5054		76.171875
5055		74.218750
5056		76.171875
5057		74.218750
5058		78.125000
5059		74.218750
5060		78.125000
5061		76.171875
5062		78.125000
5063		76.171875
5064		80.078125
5065		76.171875
5066		80.078125
5067		76.171875
5068		80.078125
5069		76.171875
5070		80.078125
5071		76.171875
5072		80.078125
5073		76.171875
5074		80.078125
5075		76.171875
5076		78.125000
5077		74.218750
5078		78.125000
5079		74.218750
5080		76.171875
5081		72.265625
5082		76.171875
5083		72.265625
5084		76.171875
5085		70.312500
5086		74.218750
5087		70.312500
5088		74.218750
5089		68.359375
5090		72.265625
5091		66.406250
5092		70.312500
5093		64.453125
5094		68.359375
5095		62.500000
5096		66.406250
5097		60.546875
5098		64.453125
5099		58.593750
5100		62.500000
5101		56.640625
5102		60.546875
5103		52.734375
5104		58.593750
5105		50.781250
5106		56.640625
5107		48.828125
5108		52.734375
5109		44.921875
5110		50.781250
5111		42.968750
5112		48.828125
5113		41.015625
5114		44.921875
5115		37.109375
5116		42.968750
5117		35.156250
5118		39.062500
5119		31.250000
5120		37.109375
5121		29.296875
5122		33.203125
5123		25.390625
5124		31.250000
5125		21.484375
5126		27.343750
5127		19.531250
5128		23.437500
5129		15.625000
5130		21.484375
5131		11.718750
5132		17.578125
5133		9.765625
5134		13.671875
5135		5.859375
5136		9.765625
5137		1.953125
5138		7.812500
5139		0.000000
5140		3.906250
5141		-3.906250
5142		0.000000
5143		-7.812500
5144		-1.953125
5145		-9.765625
5146		-5.859375
5147		-13.671875
5148		-7.812500
5149		-15.625000
5150		-11.718750
5151		-19.531250
5152		-13.671875
5153		-23.437500
5154		-17.578125
5155		-25.390625
5156		-19.531250
5157		-27.343750
5158		-23.437500
5159		-31.250000
5160		-25.390625
5161		-33.203125
5162		-29.296875
5163		-35.156250
5164		-31.250000
5165		-39.062500
5166		-33.203125
5167		-39.062500
5168		-35.156250
5169		-41.015625
5170		-37.109375
5171		-42.968750
5172		-39.062500
5173		-44.921875
5174		-41.015625
5175		-46.875000
5176		-42.968750
5177		-48.828125
5178		-44.921875
5179		-50.781250
5180		-46.875000
5181		-50.781250
5182		-46.875000
5183		-52.734375
5184		-48.828125
5185		-52.734375
5186		-48.828125
5187		-54.687500
5188		-50.781250
5189		-54.687500
5190		-50.781250
5191		-54.687500
5192		-50.781250
5193		-54.687500
5194		-50.781250
5195		-54.687500
5196		-50.781250
5197		-54.687500
5198		-50.781250
5199		-54.687500
5200		-50.781250
5201		-52.734375
5202		-50.781250
5203		-52.734375
5204		-48.828125
5205		-52.734375
5206		-48.828125
5207		-50.781250
5208		-46.875000
5209		-50.781250
5210		-46.875000
5211		-48.828125
5212		-44.921875
5213		-46.875000
5214		-42.968750
5215		-44.921875
5216		-41.015625
5217		-44.921875
5218		-39.062500
5219		-41.015625
5220		-37.109375
5221		-39.062500
5222		-35.156250
5223		-37.109375
5224		-33.203125
5225		-35.156250
5226		-31.250000
5227		-33.203125
5228		-27.343750
5229		-29.296875
5230		-25.390625
5231		-27.343750
5232		-23.437500
5233		-25.390625
5234		-19.531250
5235		-21.484375
5236		-17.578125
5237		-19.531250
5238		-13.671875
5239		-15.625000
5240		-9.765625
5241		-11.718750
5242		-7.812500
5243		-9.765625
5244		-3.906250
5245		-5.859375
5246		-1.953125
5247		-3.906250
5248		1.953125
5249		0.000000
5250		5.859375
5251		3.906250
5252		7.812500
5253		5.859375
5254		11.718750
5255		9.765625
5256		15.625000
5257		11.718750
5258		17.578125
5259		15.625000
5260		21.484375
5261		19.531250
5262		23.437500
5263		21.484375
5264		27.343750
5265		25.390625
5266		31.250000
5267		29.296875
5268		33.203125
5269		33.203125
5270		37.109375
5271		35.156250
5272		41.015625
5273		37.109375
5274		42.968750
5275		41.015625
5276		44.921875
5277		42.968750
5278		48.828125
5279		44.921875
5280		50.781250
5281		48.828125
5282		54.687500
5283		50.781250
5284		54.687500
5285		54.687500
5286		58.593750
5287		56.640625
5288		60.546875
5289		56.640625
5290		62.500000
5291		60.546875
5292		64.453125
5293		62.500000
5294		66.406250
5295		64.453125
5296		68.359375
5297		66.406250
5298		70.312500
5299		68.359375
5300		72.265625
5301		68.359375
5302		72.265625
5303		70.312500
5304		74.218750
5305		72.265625
5306		76.171875
5307		72.265625
5308		76.171875
5309		74.218750
5310		78.125000
5311		74.218750
5312		78.125000
5313		74.218750
5314		78.125000
5315		76.171875
5316		78.125000
5317		76.171875
5318		80.078125
5319		76.171875
5320		78.125000
5321		76.171875
5322		80.078125
5323		76.171875
5324		80.078125
5325		76.171875
5326		80.078125
5327		76.171875
5328		78.125000
5329		74.218750
5330		78.125000
5331		74.218750
5332		78.125000
5333		74.218750
5334		76.171875
5335		72.265625
5336		76.171875
5337		72.265625
5338		74.218750
5339		70.312500
5340		74.218750
5341		68.359375
5342		72.265625
5343		66.406250
5344		70.312500
5345		64.453125
5346		68.359375
5347		64.453125
5348		68.359375
5349		60.546875
5350		66.406250
5351		60.546875
5352		64.453125
5353		56.640625
5354		62.500000
5355		54.687500
5356		58.593750
5357		52.734375
5358		56.640625
5359		50.781250
5360		54.687500
5361		46.875000
5362		52.734375
5363		44.921875
5364		50.781250
5365		42.968750
5366		46.875000
5367		39.062500
5368		44.921875
5369		35.156250
5370		41.015625
5371		33.203125
5372		37.109375
5373		29.296875
5374		37.109375
5375		27.343750
5376		31.250000
5377		23.437500
5378		29.296875
5379		21.484375
5380		25.390625
5381		17.578125
5382		21.484375
5383		13.671875
5384		19.531250
5385		11.718750
5386		17.578125
5387		7.812500
5388		11.718750
5389		3.906250
5390		9.765625
5391		0.000000
5392		5.859375
5393		-1.953125
5394		1.953125
5395		-5.859375
5396		0.000000
5397		-7.812500
5398		-3.906250
5399		-11.718750
5400		-7.812500
5401		-13.671875
5402		-9.765625
5403		-17.578125
5404		-13.671875
5405		-21.484375
5406		-15.625000
5407		-23.437500
5408		-17.578125
5409		-25.390625
5410		-21.484375
5411		-29.296875
5412		-23.437500
5413		-31.250000
5414		-27.343750
5415		-35.156250
5416		-29.296875
5417		-37.109375
5418		-33.203125
5419		-39.062500
5420		-35.156250
5421		-41.015625
5422		-37.109375
5423		-42.968750
5424		-39.062500
5425		-44.921875
5426		-41.015625
5427		-46.875000
5428		-42.968750
5429		-46.875000
5430		-44.921875
5431		-48.828125
5432		-46.875000
5433		-50.781250
5434		-46.875000
5435		-52.734375
5436		-46.875000
5437		-52.734375
5438		-50.781250
5439		-54.687500
5440		-48.828125
5441		-54.687500
5442		-50.781250
5443		-54.687500
5444		-50.781250
5445		-54.687500
5446		-52.734375
5447		-54.687500
5448		-50.781250
5449		-54.687500
5450		-50.781250
5451		-54.687500
5452		-50.781250
5453		-54.687500
5454		-50.781250
5455		-52.734375
5456		-50.781250
5457		-52.734375
5458		-48.828125
5459		-52.734375
5460		-48.828125
5461		-50.781250
5462		-46.875000
5463		-48.828125
5464		-46.875000
5465		-48.828125
5466		-44.921875
5467		-46.875000
5468		-42.968750
5469		-44.921875
5470		-41.015625
5471		-42.968750
5472		-39.062500
5473		-41.015625
5474		-37.109375
5475		-39.062500
5476		-35.156250
5477		-37.109375
5478		-33.203125
5479		-35.156250
5480		-29.296875
5481		-31.250000
5482		-27.343750
5483		-29.296875
5484		-25.390625
5485		-27.343750
5486		-21.484375
5487		-23.437500
5488		-19.531250
5489		-21.484375
5490		-15.625000
5491		-19.531250
5492		-13.671875
5493		-15.625000
5494		-9.765625
5495		-11.718750
5496		-7.812500
5497		-9.765625
5498		-3.906250
5499		-5.859375
5500		0.000000
5501		-1.953125
5502		1.953125
5503		0.000000
5504		5.859375
5505		3.906250
5506		7.812500
5507		5.859375
5508		13.671875
5509		9.765625
5510		15.625000
5511		13.671875
5512		17.578125
5513		15.625000
5514		21.484375
5515		19.531250
5516		25.390625
5517		23.437500
5518		27.343750
5519		25.390625
5520		31.250000
5521		29.296875
5522		33.203125
5523		33.203125
5524		37.109375
5525		35.156250
5526		41.015625
5527		39.062500
5528		42.968750
5529		41.015625
5530		46.875000
5531		42.968750
5532		48.828125
5533		46.875000
5534		50.781250
5535		48.828125
5536		52.734375
5537		52.734375
5538		54.687500
5539		54.687500
5540		58.593750
5541		54.687500
5542		60.546875
5543		58.593750
5544		62.500000
5545		60.546875
5546		64.453125
5547		62.500000
5548		66.406250
5549		64.453125
5550		68.359375
5551		66.406250
5552		70.312500
5553		68.359375
5554		70.312500
5555		68.359375
5556		72.265625
5557		70.312500
5558		74.218750
5559		72.265625
5560		74.218750
5561		72.265625
5562		76.171875
5563		74.218750
5564		76.171875
5565		74.218750
5566		78.125000
5567		74.218750
5568		78.125000
5569		76.171875
5570		78.125000
5571		76.171875
5572		78.125000
5573		74.218750
5574		80.078125
5575		74.218750
5576		78.125000
5577		74.218750
5578		78.125000
5579		76.171875
5580		78.125000
5581		74.218750
5582		78.125000
5583		74.218750
5584		78.125000
5585		72.265625
5586		76.171875
5587		72.265625
5588		76.171875
5589		72.265625
5590		74.218750
5591		70.312500
5592		74.218750
5593		68.359375
5594		72.265625
5595		68.359375
5596		70.312500
5597		66.406250
5598		70.312500
5599		64.453125
5600		68.359375
5601		62.500000
5602		66.406250
5603		60.546875
5604		64.453125
5605		58.593750
5606		62.500000
5607		54.687500
5608		60.546875
5609		52.734375
5610		58.593750
5611		50.781250
5612		54.687500
5613		48.828125
5614		52.734375
5615		44.921875
5616		50.781250
5617		42.968750
5618		46.875000
5619		41.015625
5620		44.921875
5621		37.109375
5622		42.968750
5623		35.156250
5624		39.062500
5625		31.250000
5626		37.109375
5627		29.296875
5628		33.203125
5629		25.390625
5630		31.250000
5631		21.484375
5632		27.343750
5633		19.531250
5634		23.437500
5635		15.625000
5636		21.484375
5637		13.671875
5638		17.578125
5639		9.765625
5640		13.671875
5641		5.859375
5642		9.765625
5643		1.953125
5644		7.812500
5645		0.000000
5646		3.906250
5647		-3.906250
5648		0.000000
5649		-7.812500
5650		-1.953125
5651		-9.765625
5652		-3.906250
5653		-13.671875
5654		-9.765625
5655		-15.625000
5656		-11.718750
5657		-19.531250
5658		-15.625000
5659		-23.437500
5660		-17.578125
5661		-25.390625
5662		-19.531250
5663		-27.343750
5664		-23.437500
5665		-31.250000
5666		-27.343750
5667		-33.203125
5668		-29.296875
5669		-37.109375
5670		-31.250000
5671		-37.109375
5672		-33.203125
5673		-41.015625
5674		-37.109375
5675		-42.968750
5676		-39.062500
5677		-44.921875
5678		-41.015625
5679		-46.875000
5680		-41.015625
5681		-46.875000
5682		-44.921875
5683		-48.828125
5684		-44.921875
5685		-50.781250
5686		-46.875000
5687		-52.734375
5688		-48.828125
5689		-52.734375
5690		-48.828125
5691		-52.734375
5692		-50.781250
5693		-54.687500
5694		-50.781250
5695		-54.687500
5696		-52.734375
5697		-54.687500
5698		-52.734375
5699		-56.640625
5700		-52.734375
5701		-56.640625
5702		-52.734375
5703		-54.687500
5704		-52.734375
5705		-54.687500
5706		-52.734375
5707		-54.687500
5708		-50.781250
5709		-54.687500
5710		-50.781250
5711		-52.734375
5712		-50.781250
5713		-52.734375
5714		-48.828125
5715		-50.781250
5716		-46.875000
5717		-50.781250
5718		-46.875000
5719		-48.828125
5720		-44.921875
5721		-46.875000
5722		-42.968750
5723		-44.921875
5724		-41.015625
5725		-42.968750
5726		-39.062500
5727		-41.015625
5728		-37.109375
5729		-39.062500
5730		-35.156250
5731		-37.109375
5732		-33.203125
5733		-35.156250
5734		-29.296875
5735		-33.203125
5736		-27.343750
5737		-29.296875
5738		-25.390625
5739		-27.343750
5740		-23.437500
5741		-23.437500
5742		-19.531250
5743		-21.484375
5744		-15.625000
5745		-19.531250
5746		-13.671875
5747		-15.625000
5748		-9.765625
5749		-13.671875
5750		-5.859375
5751		-9.765625
5752		-3.906250
5753		-5.859375
5754		0.000000
5755		-1.953125
5756		1.953125
5757		0.000000
5758		5.859375
5759		3.906250
5760		9.765625
5761		7.812500
5762		13.671875
5763		9.765625
5764		15.625000
5765		11.718750
5766		17.578125
5767		15.625000
5768		23.437500
5769		19.531250
5770		25.390625
5771		23.437500
5772		27.343750
5773		25.390625
5774		31.250000
5775		29.296875
5776		35.156250
5777		31.250000
5778		37.109375
5779		35.156250
5780		41.015625
5781		39.062500
5782		42.968750
5783		41.015625
5784		46.875000
5785		42.968750
5786		48.828125
5787		44.921875
5788		52.734375
5789		48.828125
5790		52.734375
5791		52.734375
5792		56.640625
5793		54.687500
5794		60.546875
5795		56.640625
5796		62.500000
5797		56.640625
5798		64.453125
5799		60.546875
5800		64.453125
5801		62.500000
5802		66.406250
5803		62.500000
5804		70.312500
5805		64.453125
5806		70.312500
5807		68.359375
5808		70.312500
5809		68.359375
5810		72.265625
5811		70.312500
5812		74.218750
5813		70.312500
5814		76.171875
5815		72.265625
5816		76.171875
5817		72.265625
5818		76.171875
5819		74.218750
5820		78.125000
5821		74.218750
5822		78.125000
5823		76.171875
5824		78.125000
5825		76.171875
5826		78.125000
5827		74.218750
5828		80.078125
5829		74.218750
5830		80.078125
5831		74.218750
5832		78.125000
5833		74.218750
5834		78.125000
5835		74.218750
5836		78.125000
5837		72.265625
5838		78.125000
5839		72.265625
5840		76.171875
5841		72.265625
5842		74.218750
5843		70.312500
5844		74.218750
5845		68.359375
5846		74.218750
5847		68.359375
5848		72.265625
5849		66.406250
5850		72.265625
5851		64.453125
5852		70.312500
5853		62.500000
5854		68.359375
5855		60.546875
5856		66.406250
5857		60.546875
5858		62.500000
5859		56.640625
5860		60.546875
5861		54.687500
5862		58.593750
5863		52.734375
5864		56.640625
5865		50.781250
5866		54.687500
5867		48.828125
5868		50.781250
5869		44.921875
5870		48.828125
5871		41.015625
5872		46.875000
5873		39.062500
5874		42.968750
5875		37.109375
5876		41.015625
5877		33.203125
5878		39.062500
5879		31.250000
5880		35.156250
5881		27.343750
5882		31.250000
5883		25.390625
5884		29.296875
5885		21.484375
5886		25.390625
5887		17.578125
5888		23.437500
5889		15.625000
5890		19.531250
5891		11.718750
5892		15.625000
5893		7.812500
5894		13.671875
5895		3.906250
5896		9.765625
5897		1.953125
5898		5.859375
5899		-1.953125
5900		3.906250
5901		-5.859375
5902		0.000000
5903		-7.812500
5904		-3.906250
5905		-11.718750
5906		-5.859375
5907		-13.671875
5908		-9.765625
5909		-17.578125
5910		-13.671875
5911		-21.484375
5912		-15.625000
5913		-23.437500
5914		-19.531250
5915		-25.390625
5916		-21.484375
5917		-29.296875
5918		-25.390625
5919		-31.250000
5920		-27.343750
5921		-33.203125
5922		-29.296875
5923		-37.109375
5924		-33.203125
5925		-39.062500
5926		-35.156250
5927		-41.015625
5928		-37.109375
5929		-42.968750
5930		-39.062500
5931		-44.921875
5932		-41.015625
5933		-46.875000
5934		-42.968750
5935		-48.828125
5936		-44.921875
5937		-50.781250
5938		-46.875000
5939		-50.781250
5940		-48.828125
5941		-52.734375
5942		-48.828125
5943		-52.734375
5944		-50.781250
5945		-54.687500
5946		-50.781250
5947		-54.687500
5948		-52.734375
5949		-54.687500
5950		-52.734375
5951		-54.687500
5952		-52.734375
5953		-56.640625
5954		-52.734375
5955		-54.687500
5956		-52.734375
5957		-54.687500
5958		-52.734375
5959		-54.687500
5960		-52.734375
5961		-56.640625
5962		-48.828125
5963		-56.640625
5964		-48.828125
5965		-56.640625
5966		-46.875000
5967		-52.734375
5968		-48.828125
5969		-50.781250
5970		-48.828125
5971		-50.781250
5972		-46.875000
5973		-48.828125
5974		-44.921875
5975		-46.875000
5976		-42.968750
5977		-46.875000
5978		-37.109375
5979		-44.921875
5980		-37.109375
5981		-44.921875
5982		-35.156250
5983		-41.015625
5984		-35.156250
5985		-37.109375
5986		-33.203125
5987		-35.156250
5988		-31.250000
5989		-31.250000
5990		-27.343750
5991		-29.296875
5992		-25.390625
5993		-27.343750
5994		-21.484375
5995		-27.343750
5996		-17.578125
5997		-23.437500
5998		-13.671875
5999		-21.484375
6000		-11.718750
6001		-15.625000
6002		-9.765625
6003		-11.718750
6004		-7.812500
6005		-7.812500
6006		-3.906250
6007		-5.859375
6008		0.000000
6009		-1.953125
6010		1.953125
6011		0.000000
6012		9.765625
6013		1.953125
6014		11.718750
6015		5.859375
6016		15.625000
6017		9.765625
6018		15.625000
6019		13.671875
6020		19.531250
6021		17.578125
6022		21.484375
6023		19.531250
6024		25.390625
6025		23.437500
6026		27.343750
6027		27.343750
6028		35.156250
6029		25.390625
6030		37.109375
6031		29.296875
6032		41.015625
6033		31.250000
6034		42.968750
6035		39.062500
6036		42.968750
6037		41.015625
6038		44.921875
6039		44.921875
6040		48.828125
6041		46.875000
6042		50.781250
6043		48.828125
6044		54.687500
6045		48.828125
6046		58.593750
6047		50.781250
6048		62.500000
6049		54.687500
6050		62.500000
6051		58.593750
6052		62.500000
6053		60.546875
6054		64.453125
6055		62.500000
6056		66.406250
6057		64.453125
6058		68.359375
6059		66.406250
6060		70.312500
6061		64.453125
6062		76.171875
6063		66.406250
6064		76.171875
6065		68.359375
6066		76.171875
6067		68.359375
6068		78.125000
6069		72.265625
6070		76.171875
6071		72.265625
6072		76.171875
6073		74.218750
6074		76.171875
6075		74.218750
6076		78.125000
6077		74.218750
6078		78.125000
6079		72.265625
6080		82.031250
6081		72.265625
6082		82.031250
6083		70.312500
6084		82.031250
6085		76.171875
6086		78.125000
6087		74.218750
6088		78.125000
6089		74.218750
6090		76.171875
6091		72.265625
6092		76.171875
6093		72.265625
6094		76.171875
6095		68.359375
6096		78.125000
6097		68.359375
6098		76.171875
6099		66.406250
6100		76.171875
6101		68.359375
6102		70.312500
6103		66.406250
6104		70.312500
6105		64.453125
6106		68.359375
6107		62.500000
6108		66.406250
6109		60.546875
6110		64.453125
6111		56.640625
6112		62.500000
6113		52.734375
6114		64.453125
6115		50.781250
6116		60.546875
6117		50.781250
6118		58.593750
6119		48.828125
6120		52.734375
6121		46.875000
6122		50.781250
6123		44.921875
6124		48.828125
6125		41.015625
6126		44.921875
6127		39.062500
6128		42.968750
6129		33.203125
6130		42.968750
6131		29.296875
6132		39.062500
6133		27.343750
6134		37.109375
6135		27.343750
6136		31.250000
6137		23.437500
6138		27.343750
6139		19.531250
6140		25.390625
6141		15.625000
6142		21.484375
6143		13.671875
6144		17.578125
6145		9.765625
6146		15.625000
6147		5.859375
6148		11.718750
6149		1.953125
6150		11.718750
6151		0.000000
6152		5.859375
6153		-1.953125
6154		1.953125
6155		-5.859375
6156		-1.953125
6157		-9.765625
6158		-3.906250
6159		-11.718750
6160		-7.812500
6161		-15.625000
6162		-11.718750
6163		-17.578125
6164		-13.671875
6165		-21.484375
6166		-15.625000
6167		-25.390625
6168		-17.578125
6169		-27.343750
6170		-23.437500
6171		-29.296875
6172		-25.390625
6173		-33.203125
6174		-29.296875
6175		-35.156250
6176		-31.250000
6177		-39.062500
6178		-33.203125
6179		-39.062500
6180		-35.156250
6181		-41.015625
6182		-37.109375
6183		-42.968750
6184		-39.062500
6185		-44.921875
6186		-42.968750
6187		-46.875000
6188		-42.968750
6189		-48.828125
6190		-44.921875
6191		-50.781250
6192		-46.875000
6193		-50.781250
6194		-48.828125
6195		-52.734375
6196		-50.781250
6197		-52.734375
6198		-50.781250
6199		-54.687500
6200		-52.734375
6201		-54.687500
6202		-52.734375
6203		-54.687500
6204		-52.734375
6205		-56.640625
6206		-52.734375
6207		-54.687500
6208		-52.734375
6209		-54.687500
6210		-52.734375
6211		-56.640625
6212		-52.734375
6213		-54.687500
6214		-52.734375
6215		-54.687500
6216		-52.734375
6217		-54.687500
6218		-52.734375
6219		-52.734375
6220		-50.781250
6221		-52.734375
6222		-48.828125
6223		-50.781250
6224		-48.828125
6225		-48.828125
6226		-46.875000
6227		-48.828125
6228		-44.921875
6229		-46.875000
6230		-42.968750
6231		-44.921875
6232		-41.015625
6233		-42.968750
6234		-39.062500
6235		-41.015625
6236		-37.109375
6237		-39.062500
6238		-35.156250
6239		-37.109375
6240		-33.203125
6241		-33.203125
6242		-29.296875
6243		-31.250000
6244		-27.343750
6245		-29.296875
6246		-23.437500
6247		-27.343750
6248		-21.484375
6249		-23.437500
6250		-17.578125
6251		-19.531250
6252		-15.625000
6253		-17.578125
6254		-11.718750
6255		-13.671875
6256		-9.765625
6257		-11.718750
6258		-5.859375
6259		-7.812500
6260		-3.906250
6261		-3.906250
6262		0.000000
6263		-1.953125
6264		3.906250
6265		1.953125
6266		7.812500
6267		3.906250
6268		9.765625
6269		7.812500
6270		13.671875
6271		11.718750
6272		15.625000
6273		15.625000
6274		19.531250
6275		17.578125
6276		23.437500
6277		21.484375
6278		25.390625
6279		25.390625
6280		29.296875
6281		27.343750
6282		33.203125
6283		31.250000
6284		35.156250
6285		33.203125
6286		39.062500
6287		35.156250
6288		41.015625
6289		39.062500
6290		44.921875
6291		42.968750
6292		46.875000
6293		44.921875
6294		48.828125
6295		46.875000
6296		50.781250
6297		48.828125
6298		54.687500
6299		52.734375
6300		56.640625
6301		54.687500
6302		58.593750
6303		56.640625
6304		62.500000
6305		58.593750
6306		62.500000
6307		60.546875
6308		64.453125
6309		64.453125
6310		66.406250
6311		64.453125
6312		68.359375
6313		66.406250
6314		72.265625
6315		68.359375
6316		72.265625
6317		70.312500
6318		72.265625
6319		70.312500
6320		74.218750
6321		72.265625
6322		76.171875
6323		72.265625
6324		76.171875
6325		74.218750
6326		76.171875
6327		74.218750
6328		76.171875
6329		74.218750
6330		76.171875
6331		74.218750
6332		78.125000
6333		74.218750
6334		78.125000
6335		74.218750
6336		78.125000
6337		74.218750
6338		78.125000
6339		74.218750
6340		78.125000
6341		74.218750
6342		76.171875
6343		74.218750
6344		76.171875
6345		72.265625
6346		76.171875
6347		70.312500
6348		76.171875
6349		70.312500
6350		74.218750
6351		70.312500
6352		72.265625
6353		68.359375
6354		72.265625
6355		66.406250
6356		70.312500
6357		64.453125
6358		68.359375
6359		64.453125
6360		66.406250
6361		62.500000
6362		66.406250
6363		58.593750
6364		64.453125
6365		56.640625
6366		62.500000
6367		56.640625
6368		60.546875
6369		52.734375
6370		56.640625
6371		50.781250
6372		54.687500
6373		48.828125
6374		52.734375
6375		46.875000
6376		50.781250
6377		42.968750
6378		46.875000
6379		41.015625
6380		44.921875
6381		37.109375
6382		42.968750
6383		35.156250
6384		39.062500
6385		31.250000
6386		35.156250
6387		27.343750
6388		33.203125
6389		25.390625
6390		29.296875
6391		21.484375
6392		27.343750
6393		19.531250
6394		23.437500
6395		15.625000
6396		19.531250
6397		9.765625
6398		17.578125
6399		7.812500
6400		13.671875
6401		5.859375
6402		9.765625
6403		1.953125
6404		7.812500
6405		-1.953125
6406		5.859375
6407		-3.906250
6408		0.000000
6409		-7.812500
6410		-1.953125
6411		-9.765625
6412		-5.859375
6413		-13.671875
6414		-9.765625
6415		-17.578125
6416		-11.718750
6417		-19.531250
6418		-13.671875
6419		-23.437500
6420		-17.578125
6421		-25.390625
6422		-21.484375
6423		-27.343750
6424		-23.437500
6425		-31.250000
6426		-27.343750
6427		-33.203125
6428		-29.296875
6429		-37.109375
6430		-31.250000
6431		-39.062500
6432		-35.156250
6433		-41.015625
6434		-37.109375
6435		-42.968750
6436		-39.062500
6437		-44.921875
6438		-41.015625
6439		-46.875000
6440		-42.968750
6441		-48.828125
6442		-44.921875
6443		-48.828125
6444		-46.875000
6445		-50.781250
6446		-46.875000
6447		-52.734375
6448		-48.828125
6449		-52.734375
6450		-50.781250
6451		-54.687500
6452		-50.781250
6453		-54.687500
6454		-52.734375
6455		-54.687500
6456		-52.734375
6457		-56.640625
6458		-52.734375
6459		-56.640625
6460		-54.687500
6461		-56.640625
6462		-54.687500
6463		-56.640625
6464		-52.734375
6465		-56.640625
6466		-52.734375
6467		-54.687500
6468		-52.734375
6469		-54.687500
6470		-52.734375
6471		-54.687500
6472		-50.781250
6473		-52.734375
6474		-50.781250
6475		-52.734375
6476		-48.828125
6477		-50.781250
6478		-48.828125
6479		-48.828125
6480		-46.875000
6481		-48.828125
6482		-44.921875
6483		-46.875000
6484		-42.968750
6485		-44.921875
6486		-41.015625
6487		-42.968750
6488		-39.062500
6489		-41.015625
6490		-37.109375
6491		-39.062500
6492		-35.156250
6493		-35.156250
6494		-31.250000
6495		-33.203125
6496		-29.296875
6497		-31.250000
6498		-27.343750
6499		-27.343750
6500		-23.437500
6501		-25.390625
6502		-21.484375
6503		-21.484375
6504		-17.578125
6505		-19.531250
6506		-15.625000
6507		-15.625000
6508		-11.718750
6509		-13.671875
6510		-9.765625
6511		-9.765625
6512		-5.859375
6513		-7.812500
6514		-1.953125
6515		-3.906250
6516		1.953125
6517		0.000000
6518		3.906250
6519		1.953125
6520		7.812500
6521		5.859375
6522		11.718750
6523		9.765625
6524		13.671875
6525		11.718750
6526		17.578125
6527		15.625000
6528		19.531250
6529		19.531250
6530		23.437500
6531		21.484375
6532		27.343750
6533		25.390625
6534		29.296875
6535		27.343750
6536		33.203125
6537		31.250000
6538		35.156250
6539		35.156250
6540		39.062500
6541		37.109375
6542		41.015625
6543		41.015625
6544		44.921875
6545		42.968750
6546		46.875000
6547		44.921875
6548		48.828125
6549		46.875000
6550		52.734375
6551		50.781250
6552		54.687500
6553		52.734375
6554		56.640625
6555		54.687500
6556		58.593750
6557		56.640625
6558		60.546875
6559		60.546875
6560		62.500000
6561		62.500000
6562		64.453125
6563		62.500000
6564		66.406250
6565		64.453125
6566		68.359375
6567		66.406250
6568		70.312500
6569		68.359375
6570		72.265625
6571		68.359375
6572		72.265625
6573		70.312500
6574		74.218750
6575		72.265625
6576		74.218750
6577		72.265625
6578		74.218750
6579		74.218750
6580		76.171875
6581		74.218750
6582		76.171875
6583		72.265625
6584		78.125000
6585		72.265625
6586		78.125000
6587		74.218750
6588		76.171875
6589		74.218750
6590		76.171875
6591		74.218750
6592		76.171875
6593		74.218750
6594		76.171875
6595		74.218750
6596		76.171875
6597		72.265625
6598		76.171875
6599		72.265625
6600		76.171875
6601		70.312500
6602		76.171875
6603		70.312500
6604		74.218750
6605		68.359375
6606		72.265625
6607		68.359375
6608		70.312500
6609		66.406250
6610		70.312500
6611		64.453125
6612		68.359375
6613		62.500000
6614		66.406250
6615		60.546875
6616		64.453125
6617		58.593750
6618		64.453125
6619		56.640625
6620		62.500000
6621		54.687500
6622		58.593750
6623		52.734375
6624		56.640625
6625		48.828125
6626		54.687500
6627		46.875000
6628		50.781250
6629		44.921875
6630		48.828125
6631		41.015625
6632		46.875000
6633		37.109375
6634		44.921875
6635		35.156250
6636		41.015625
6637		33.203125
6638		37.109375
6639		31.250000
6640		35.156250
6641		27.343750
6642		31.250000
6643		23.437500
6644		29.296875
6645		21.484375
6646		25.390625
6647		17.578125
6648		21.484375
6649		11.718750
6650		19.531250
6651		9.765625
6652		17.578125
6653		7.812500
6654		13.671875
6655		3.906250
6656		9.765625
6657		1.953125
6658		5.859375
6659		-1.953125
6660		1.953125
6661		-5.859375
6662		0.000000
6663		-7.812500
6664		-3.906250
6665		-11.718750
6666		-7.812500
6667		-15.625000
6668		-9.765625
6669		-17.578125
6670		-11.718750
6671		-21.484375
6672		-15.625000
6673		-23.437500
6674		-19.531250
6675		-27.343750
6676		-21.484375
6677		-29.296875
6678		-25.390625
6679		-31.250000
6680		-27.343750
6681		-35.156250
6682		-31.250000
6683		-39.062500
6684		-33.203125
6685		-41.015625
6686		-33.203125
6687		-41.015625
6688		-37.109375
6689		-42.968750
6690		-39.062500
6691		-46.875000
6692		-42.968750
6693		-46.875000
6694		-42.968750
6695		-48.828125
6696		-44.921875
6697		-50.781250
6698		-46.875000
6699		-50.781250
6700		-48.828125
6701		-54.687500
6702		-48.828125
6703		-54.687500
6704		-48.828125
6705		-54.687500
6706		-52.734375
6707		-54.687500
6708		-52.734375
6709		-56.640625
6710		-52.734375
6711		-56.640625
6712		-54.687500
6713		-56.640625
6714		-52.734375
6715		-56.640625
6716		-54.687500
6717		-56.640625
6718		-52.734375
6719		-56.640625
6720		-52.734375
6721		-54.687500
6722		-52.734375
6723		-54.687500
6724		-50.781250
6725		-54.687500
6726		-50.781250
6727		-52.734375
6728		-50.781250
6729		-52.734375
6730		-48.828125
6731		-50.781250
6732		-46.875000
6733		-50.781250
6734		-44.921875
6735		-48.828125
6736		-42.968750
6737		-46.875000
6738		-41.015625
6739		-44.921875
6740		-41.015625
6741		-42.968750
6742		-39.062500
6743		-39.062500
6744		-37.109375
6745		-37.109375
6746		-33.203125
6747		-35.156250
6748		-31.250000
6749		-33.203125
6750		-29.296875
6751		-31.250000
6752		-25.390625
6753		-29.296875
6754		-21.484375
6755		-25.390625
6756		-19.531250
6757		-21.484375
6758		-17.578125
6759		-19.531250
6760		-13.671875
6761		-15.625000
6762		-11.718750
6763		-13.671875
6764		-7.812500
6765		-9.765625
6766		-3.906250
6767		-5.859375
6768		-1.953125
6769		-3.906250
6770		1.953125
6771		0.000000
6772		5.859375
6773		3.906250
6774		7.812500
6775		5.859375
6776		11.718750
6777		9.765625
6778		15.625000
6779		13.671875
6780		17.578125
6781		15.625000
6782		21.484375
6783		19.531250
6784		23.437500
6785		21.484375
6786		27.343750
6787		25.390625
6788		31.250000
6789		29.296875
6790		33.203125
6791		33.203125
6792		37.109375
6793		35.156250
6794		39.062500
6795		37.109375
6796		42.968750
6797		41.015625
6798		44.921875
6799		42.968750
6800		46.875000
6801		46.875000
6802		50.781250
6803		48.828125
6804		52.734375
6805		50.781250
6806		54.687500
6807		52.734375
6808		56.640625
6809		56.640625
6810		60.546875
6811		58.593750
6812		62.500000
6813		60.546875
6814		64.453125
6815		62.500000
6816		64.453125
6817		64.453125
6818		66.406250
6819		66.406250
6820		68.359375
6821		66.406250
6822		70.312500
6823		68.359375
6824		72.265625
6825		70.312500
6826		72.265625
6827		70.312500
6828		74.218750
6829		72.265625
6830		74.218750
6831		72.265625
6832		76.171875
6833		74.218750
6834		76.171875
6835		74.218750
6836		76.171875
6837		74.218750
6838		78.125000
6839		74.218750
6840		78.125000
6841		74.218750
6842		78.125000
6843		74.218750
6844		78.125000
6845		74.218750
6846		76.171875
6847		74.218750
6848		76.171875
6849		74.218750
6850		76.171875
6851		72.265625
6852		76.171875
6853		72.265625
6854		74.218750
6855		70.312500
6856		74.218750
6857		70.312500
6858		74.218750
6859		68.359375
6860		72.265625
6861		68.359375
6862		70.312500
6863		66.406250
6864		70.312500
6865		64.453125
6866		68.359375
6867		62.500000
6868		66.406250
6869		60.546875
6870		64.453125
6871		58.593750
6872		62.500000
6873		56.640625
6874		60.546875
6875		54.687500
6876		58.593750
6877		50.781250
6878		54.687500
6879		48.828125
6880		52.734375
6881		46.875000
6882		50.781250
6883		42.968750
6884		48.828125
6885		41.015625
6886		44.921875
6887		39.062500
6888		42.968750
6889		35.156250
6890		39.062500
6891		31.250000
6892		37.109375
6893		29.296875
6894		33.203125
6895		25.390625
6896		31.250000
6897		23.437500
6898		27.343750
6899		19.531250
6900		23.437500
6901		15.625000
6902		21.484375
6903		13.671875
6904		17.578125
6905		9.765625
6906		13.671875
6907		5.859375
6908		11.718750
6909		3.906250
6910		7.812500
6911		0.000000
6912		3.906250
6913		-3.906250
6914		1.953125
6915		-5.859375
6916		-1.953125
6917		-9.765625
6918		-3.906250
6919		-11.718750
6920		-7.812500
6921		-15.625000
6922		-11.718750
6923		-19.531250
6924		-13.671875
6925		-21.484375
6926		-17.578125
6927		-25.390625
6928		-19.531250
6929		-27.343750
6930		-23.437500
6931		-31.250000
6932		-25.390625
6933		-33.203125
6934		-29.296875
6935		-35.156250
6936		-31.250000
6937		-37.109375
6938		-33.203125
6939		-39.062500
6940		-35.156250
6941		-42.968750
6942		-39.062500
6943		-44.921875
6944		-41.015625
6945		-46.875000
6946		-42.968750
6947		-48.828125
6948		-44.921875
6949		-48.828125
6950		-46.875000
6951		-50.781250
6952		-46.875000
6953		-52.734375
6954		-48.828125
6955		-52.734375
6956		-50.781250
6957		-54.687500
6958		-50.781250
6959		-54.687500
6960		-52.734375
6961		-54.687500
6962		-52.734375
6963		-56.640625
6964		-52.734375
6965		-56.640625
6966		-54.687500
6967		-56.640625
6968		-54.687500
6969		-56.640625
6970		-54.687500
6971		-56.640625
6972		-54.687500
6973		-56.640625
6974		-52.734375
6975		-54.687500
6976		-52.734375
6977		-54.687500
6978		-52.734375
6979		-54.687500
6980		-50.781250
6981		-52.734375
6982		-50.781250
6983		-52.734375
6984		-48.828125
6985		-50.781250
6986		-46.875000
6987		-48.828125
6988		-44.921875
6989		-48.828125
6990		-42.968750
6991		-44.921875
6992		-41.015625
6993		-42.968750
6994		-39.062500
6995		-41.015625
6996		-37.109375
6997		-39.062500
6998		-35.156250
6999		-37.109375
7000		-33.203125
7001		-35.156250
7002		-31.250000
7003		-31.250000
7004		-27.343750
7005		-29.296875
7006		-25.390625
7007		-27.343750
7008		-23.437500
7009		-23.437500
7010		-19.531250
7011		-21.484375
7012		-15.625000
7013		-17.578125
7014		-13.671875
7015		-15.625000
7016		-9.765625
7017		-11.718750
7018		-7.812500
7019		-9.765625
7020		-3.906250
7021		-5.859375
7022		0.000000
7023		-1.953125
7024		1.953125
7025		1.953125
7026		5.859375
7027		3.906250
7028		9.765625
7029		7.812500
7030		11.718750
7031		9.765625
7032		15.625000
7033		13.671875
7034		19.531250
7035		17.578125
7036		21.484375
7037		19.531250
7038		25.390625
7039		23.437500
7040		27.343750
7041		27.343750
7042		31.250000
7043		29.296875
7044		35.156250
7045		33.203125
7046		37.109375
7047		35.156250
7048		41.015625
7049		39.062500
7050		42.968750
7051		41.015625
7052		44.921875
7053		44.921875
7054		48.828125
7055		46.875000
7056		50.781250
7057		48.828125
7058		52.734375
7059		52.734375
7060		54.687500
7061		54.687500
7062		58.593750
7063		56.640625
7064		60.546875
7065		58.593750
7066		62.500000
7067		60.546875
7068		64.453125
7069		62.500000
7070		66.406250
7071		64.453125
7072		68.359375
7073		66.406250
7074		68.359375
7075		66.406250
7076		70.312500
7077		68.359375
7078		72.265625
7079		70.312500
7080		72.265625
7081		72.265625
7082		74.218750
7083		72.265625
7084		74.218750
7085		72.265625
7086		76.171875
7087		74.218750
7088		76.171875
7089		74.218750
7090		76.171875
7091		74.218750
7092		76.171875
7093		74.218750
7094		78.125000
7095		74.218750
7096		78.125000
7097		74.218750
7098		76.171875
7099		74.218750
7100		76.171875
7101		74.218750
7102		76.171875
7103		74.218750
7104		76.171875
7105		72.265625
7106		74.218750
7107		72.265625
7108		74.218750
7109		70.312500
7110		74.218750
7111		70.312500
7112		72.265625
7113		68.359375
7114		72.265625
7115		66.406250
7116		70.312500
7117		66.406250
7118		68.359375
7119		64.453125
7120		66.406250
7121		62.500000
7122		66.406250
7123		60.546875
7124		62.500000
7125		58.593750
7126		60.546875
7127		56.640625
7128		58.593750
7129		52.734375
7130		56.640625
7131		50.781250
7132		54.687500
7133		48.828125
7134		52.734375
7135		44.921875
7136		50.781250
7137		42.968750
7138		46.875000
7139		41.015625
7140		44.921875
7141		37.109375
7142		42.968750
7143		33.203125
7144		39.062500
7145		31.250000
7146		35.156250
7147		29.296875
7148		33.203125
7149		25.390625
7150		29.296875
7151		21.484375
7152		27.343750
7153		19.531250
7154		23.437500
7155		15.625000
7156		19.531250
7157		11.718750
7158		17.578125
7159		7.812500
7160		13.671875
7161		5.859375
7162		9.765625
7163		1.953125
7164		7.812500
7165		0.000000
7166		3.906250
7167		-3.906250
7168		0.000000
7169		-7.812500
7170		-1.953125
7171		-9.765625
7172		-5.859375
7173		-13.671875
7174		-9.765625
7175		-17.578125
7176		-11.718750
7177		-19.531250
7178		-15.625000
7179		-23.437500
7180		-17.578125
7181		-25.390625
7182		-21.484375
7183		-27.343750
7184		-23.437500
7185		-31.250000
7186		-27.343750
7187		-33.203125
7188		-29.296875
7189		-35.156250
7190		-31.250000
7191		-39.062500
7192		-35.156250
7193		-41.015625
7194		-37.109375
7195		-42.968750
7196		-39.062500
7197		-44.921875
7198		-41.015625
7199		-46.875000
7200		-42.968750
7201		-48.828125
7202		-44.921875
7203		-48.828125
7204		-46.875000
7205		-50.781250
7206		-48.828125
7207		-52.734375
7208		-48.828125
7209		-52.734375
7210		-50.781250
7211		-54.687500
7212		-50.781250
7213		-54.687500
7214		-52.734375
7215		-56.640625
7216		-52.734375
7217		-56.640625
7218		-52.734375
7219		-56.640625
7220		-54.687500
7221		-56.640625
7222		-54.687500
7223		-56.640625
7224		-54.687500
7225		-56.640625
7226		-54.687500
7227		-54.687500
7228		-52.734375
7229		-54.687500
7230		-52.734375
7231		-54.687500
7232		-52.734375
7233		-52.734375
7234		-50.781250
7235		-52.734375
7236		-48.828125
7237		-50.781250
7238		-48.828125
7239		-50.781250
7240		-46.875000
7241		-48.828125
7242		-44.921875
7243		-46.875000
7244		-42.968750
7245		-44.921875
7246		-41.015625
7247		-42.968750
7248		-39.062500
7249		-41.015625
7250		-37.109375
7251		-39.062500
7252		-35.156250
7253		-37.109375
7254		-33.203125
7255		-33.203125
7256		-29.296875
7257		-31.250000
7258		-27.343750
7259		-29.296875
7260		-25.390625
7261		-25.390625
7262		-21.484375
7263		-23.437500
7264		-19.531250
7265		-19.531250
7266		-15.625000
7267		-17.578125
7268		-11.718750
7269		-13.671875
7270		-9.765625
7271		-11.718750
7272		-5.859375
7273		-7.812500
7274		-3.906250
7275		-3.906250
7276		0.000000
7277		-1.953125
7278		3.906250
7279		0.000000
7280		5.859375
7281		5.859375
7282		9.765625
7283		7.812500
7284		13.671875
7285		11.718750
7286		15.625000
7287		15.625000
7288		19.531250
7289		17.578125
7290		23.437500
7291		21.484375
7292		25.390625
7293		25.390625
7294		29.296875
7295		27.343750
7296		31.250000
7297		31.250000
7298		35.156250
7299		33.203125
7300		39.062500
7301		37.109375
7302		41.015625
7303		39.062500
7304		44.921875
7305		42.968750
7306		46.875000
7307		44.921875
7308		48.828125
7309		46.875000
7310		50.781250
7311		50.781250
7312		54.687500
7313		52.734375
7314		56.640625
7315		54.687500
7316		58.593750
7317		56.640625
7318		60.546875
7319		58.593750
7320		62.500000
7321		60.546875
7322		64.453125
7323		62.500000
7324		66.406250
7325		64.453125
7326		68.359375
7327		66.406250
7328		70.312500
7329		68.359375
7330		70.312500
7331		68.359375
7332		72.265625
7333		70.312500
7334		72.265625
7335		72.265625
7336		74.218750
7337		72.265625
7338		74.218750
7339		72.265625
7340		76.171875
7341		74.218750
7342		76.171875
7343		74.218750
7344		76.171875
7345		74.218750
7346		76.171875
7347		74.218750
7348		76.171875
7349		74.218750
7350		76.171875
7351		74.218750
7352		76.171875
7353		74.218750
7354		76.171875
7355		74.218750
7356		76.171875
7357		72.265625
7358		76.171875
7359		72.265625
7360		74.218750
7361		72.265625
7362		74.218750
7363		68.359375
7364		74.218750
7365		68.359375
7366		72.265625
7367		68.359375
7368		70.312500
7369		66.406250
7370		70.312500
7371		64.453125
7372		68.359375
7373		62.500000
7374		66.406250
7375		60.546875
7376		64.453125
7377		58.593750
7378		62.500000
7379		56.640625
7380		60.546875
7381		54.687500
7382		58.593750
7383		52.734375
7384		56.640625
7385		50.781250
7386		54.687500
7387		46.875000
7388		50.781250
7389		44.921875
7390		48.828125
7391		42.968750
7392		46.875000
7393		39.062500
7394		42.968750
7395		37.109375
7396		41.015625
7397		33.203125
7398		39.062500
7399		29.296875
7400		35.156250
7401		27.343750
7402		31.250000
7403		23.437500
7404		29.296875
7405		21.484375
7406		25.390625
7407		17.578125
7408		21.484375
7409		13.671875
7410		19.531250
7411		11.718750
7412		15.625000
7413		7.812500
7414		11.718750
7415		3.906250
7416		9.765625
7417		1.953125
7418		5.859375
7419		-1.953125
7420		3.906250
7421		-5.859375
7422		0.000000
7423		-7.812500
7424		-3.906250
7425		-11.718750
7426		-5.859375
7427		-15.625000
7428		-9.765625
7429		-17.578125
7430		-13.671875
7431		-21.484375
7432		-15.625000
7433		-23.437500
7434		-19.531250
7435		-27.343750
7436		-21.484375
7437		-29.296875
7438		-25.390625
7439		-31.250000
7440		-27.343750
7441		-35.156250
7442		-29.296875
7443		-37.109375
7444		-33.203125
7445		-39.062500
7446		-35.156250
7447		-41.015625
7448		-37.109375
7449		-42.968750
7450		-41.015625
7451		-44.921875
7452		-42.968750
7453		-46.875000
7454		-42.968750
7455		-48.828125
7456		-44.921875
7457		-50.781250
7458		-46.875000
7459		-50.781250
7460		-48.828125
7461		-52.734375
7462		-50.781250
7463		-54.687500
7464		-50.781250
7465		-54.687500
7466		-52.734375
7467		-54.687500
7468		-52.734375
7469		-56.640625
7470		-54.687500
7471		-56.640625
7472		-54.687500
7473		-56.640625
7474		-54.687500
7475		-56.640625
7476		-54.687500
7477		-56.640625
7478		-54.687500
7479		-56.640625
7480		-54.687500
7481		-56.640625
7482		-52.734375
7483		-54.687500
7484		-52.734375
7485		-54.687500
7486		-52.734375
7487		-52.734375
7488		-50.781250
7489		-52.734375
7490		-48.828125
7491		-50.781250
7492		-48.828125
7493		-50.781250
7494		-46.875000
7495		-48.828125
7496		-44.921875
7497		-46.875000
7498		-42.968750
7499		-44.921875
7500		-41.015625
7501		-42.968750
7502		-39.062500
7503		-41.015625
7504		-37.109375
7505		-39.062500
7506		-35.156250
7507		-37.109375
7508		-31.250000
7509		-33.203125
7510		-29.296875
7511		-31.250000
7512		-27.343750
7513		-29.296875
7514		-23.437500
7515		-25.390625
7516		-21.484375
7517		-23.437500
7518		-17.578125
7519		-19.531250
7520		-15.625000
7521		-17.578125
7522		-11.718750
7523		-13.671875
7524		-9.765625
7525		-9.765625
7526		-5.859375
7527		-7.812500
7528		-1.953125
7529		-3.906250
7530		0.000000
7531		-1.953125
7532		3.906250
7533		1.953125
7534		7.812500
7535		5.859375
7536		9.765625
7537		9.765625
7538		13.671875
7539		11.718750
7540		17.578125
7541		15.625000
7542		19.531250
7543		17.578125
7544		23.437500
7545		21.484375
7546		25.390625
7547		25.390625
7548		29.296875
7549		27.343750
7550		33.203125
7551		31.250000
7552		35.156250
7553		33.203125
7554		39.062500
7555		37.109375
7556		41.015625
7557		39.062500
7558		42.968750
7559		42.968750
7560		46.875000
7561		44.921875
7562		48.828125
7563		48.828125
7564		50.781250
7565		50.781250
7566		54.687500
7567		52.734375
7568		56.640625
7569		54.687500
7570		58.593750
7571		56.640625
7572		60.546875
7573		58.593750
7574		62.500000
7575		60.546875
7576		64.453125
7577		62.500000
7578		66.406250
7579		64.453125
7580		68.359375
7581		66.406250
7582		70.312500
7583		68.359375
7584		70.312500
7585		68.359375
7586		72.265625
7587		70.312500
7588		72.265625
7589		72.265625
7590		74.218750
7591		72.265625
7592		74.218750
7593		72.265625
7594		76.171875
7595		74.218750
7596		76.171875
7597		74.218750
7598		76.171875
7599		74.218750
7600		76.171875
7601		74.218750
7602		76.171875
7603		74.218750
7604		76.171875
7605		74.218750
7606		76.171875
7607		74.218750
7608		76.171875
7609		72.265625
7610		76.171875
7611		70.312500
7612		76.171875
7613		72.265625
7614		76.171875
7615		70.312500
7616		74.218750
7617		68.359375
7618		74.218750
7619		68.359375
7620		72.265625
7621		66.406250
7622		70.312500
7623		66.406250
7624		68.359375
7625		64.453125
7626		66.406250
7627		62.500000
7628		66.406250
7629		58.593750
7630		64.453125
7631		58.593750
7632		62.500000
7633		54.687500
7634		60.546875
7635		54.687500
7636		58.593750
7637		50.781250
7638		58.593750
7639		48.828125
7640		52.734375
7641		44.921875
7642		50.781250
7643		44.921875
7644		48.828125
7645		39.062500
7646		44.921875
7647		37.109375
7648		42.968750
7649		33.203125
7650		39.062500
7651		31.250000
7652		39.062500
7653		27.343750
7654		35.156250
7655		25.390625
7656		31.250000
7657		23.437500
7658		27.343750
7659		17.578125
7660		25.390625
7661		17.578125
7662		21.484375
7663		13.671875
7664		19.531250
7665		9.765625
7666		15.625000
7667		5.859375
7668		11.718750
7669		3.906250
7670		7.812500
7671		0.000000
7672		7.812500
7673		-3.906250
7674		1.953125
7675		-7.812500
7676		-1.953125
7677		-11.718750
7678		-3.906250
7679		-13.671875
7680		-7.812500
7681		-15.625000
7682		-11.718750
7683		-19.531250
7684		-13.671875
7685		-21.484375
7686		-17.578125
7687		-25.390625
7688		-19.531250
7689		-27.343750
7690		-23.437500
7691		-29.296875
7692		-25.390625
7693		-33.203125
7694		-27.343750
7695		-37.109375
7696		-27.343750
7697		-37.109375
7698		-33.203125
7699		-41.015625
7700		-35.156250
7701		-44.921875
7702		-35.156250
7703		-48.828125
7704		-41.015625
7705		-46.875000
7706		-42.968750
7707		-48.828125
7708		-44.921875
7709		-50.781250
7710		-46.875000
7711		-52.734375
7712		-44.921875
7713		-52.734375
7714		-46.875000
7715		-54.687500
7716		-50.781250
7717		-58.593750
7718		-48.828125
7719		-58.593750
7720		-48.828125
7721		-60.546875
7722		-50.781250
7723		-56.640625
7724		-54.687500
7725		-58.593750
7726		-52.734375
7727		-58.593750
7728		-50.781250
7729		-58.593750
7730		-50.781250
7731		-58.593750
7732		-52.734375
7733		-56.640625
7734		-52.734375
7735		-58.593750
7736		-50.781250
7737		-58.593750
7738		-48.828125
7739		-54.687500
7740		-50.781250
7741		-54.687500
7742		-50.781250
7743		-54.687500
7744		-46.875000
7745		-54.687500
7746		-44.921875
7747		-50.781250
7748		-44.921875
7749		-48.828125
7750		-44.921875
7751		-48.828125
7752		-39.062500
7753		-44.921875
7754		-41.015625
7755		-44.921875
7756		-37.109375
7757		-41.015625
7758		-37.109375
7759		-37.109375
7760		-33.203125
7761		-37.109375
7762		-27.343750
7763		-33.203125
7764		-27.343750
7765		-29.296875
7766		-25.390625
7767		-27.343750
7768		-19.531250
7769		-27.343750
7770		-17.578125
7771		-21.484375
7772		-15.625000
7773		-19.531250
7774		-13.671875
7775		-15.625000
7776		-11.718750
7777		-13.671875
7778		-7.812500
7779		-11.718750
7780		-3.906250
7781		-5.859375
7782		-1.953125
7783		-3.906250
7784		1.953125
7785		-1.953125
7786		7.812500
7787		1.953125
7788		9.765625
7789		5.859375
7790		11.718750
7791		9.765625
7792		15.625000
7793		13.671875
7794		19.531250
7795		15.625000
7796		23.437500
7797		17.578125
7798		25.390625
7799		23.437500
7800		27.343750
7801		25.390625
7802		35.156250
7803		25.390625
7804		35.156250
7805		29.296875
7806		37.109375
7807		35.156250
7808		39.062500
7809		39.062500
7810		42.968750
7811		39.062500
7812		48.828125
7813		41.015625
7814		50.781250
7815		44.921875
7816		50.781250
7817		48.828125
7818		52.734375
7819		48.828125
7820		58.593750
7821		52.734375
7822		60.546875
7823		54.687500
7824		60.546875
7825		58.593750
7826		62.500000
7827		60.546875
7828		64.453125
7829		60.546875
7830		68.359375
7831		62.500000
7832		68.359375
7833		66.406250
7834		68.359375
7835		64.453125
7836		74.218750
7837		66.406250
7838		74.218750
7839		68.359375
7840		74.218750
7841		70.312500
7842		74.218750
7843		72.265625
7844		76.171875
7845		70.312500
7846		78.125000
7847		70.312500
7848		78.125000
7849		74.218750
7850		76.171875
7851		72.265625
7852		80.078125
7853		72.265625
7854		80.078125
7855		72.265625
7856		80.078125
7857		74.218750
7858		76.171875
7859		74.218750
7860		76.171875
7861		72.265625
7862		78.125000
7863		70.312500
7864		78.125000
7865		72.265625
7866		76.171875
7867		72.265625
7868		74.218750
7869		68.359375
7870		76.171875
7871		66.406250
7872		74.218750
7873		68.359375
7874		72.265625
7875		66.406250
7876		70.312500
7877		64.453125
7878		68.359375
7879		60.546875
7880		68.359375
7881		60.546875
7882		68.359375
7883		60.546875
7884		64.453125
7885		56.640625
7886		62.500000
7887		56.640625
7888		60.546875
7889		52.734375
7890		60.546875
7891		50.781250
7892		54.687500
7893		48.828125
7894		52.734375
7895		46.875000
7896		50.781250
7897		41.015625
7898		50.781250
7899		41.015625
7900		46.875000
7901		37.109375
7902		42.968750
7903		35.156250
7904		41.015625
7905		31.250000
7906		37.109375
7907		29.296875
7908		33.203125
7909		25.390625
7910		31.250000
7911		23.437500
7912		27.343750
7913		19.531250
7914		23.437500
7915		15.625000
7916		21.484375
7917		11.718750
7918		17.578125
7919		9.765625
7920		13.671875
7921		5.859375
7922		11.718750
7923		1.953125
7924		7.812500
7925		0.000000
7926		3.906250
7927		-3.906250
7928		1.953125
7929		-5.859375
7930		-1.953125
7931		-9.765625
7932		-5.859375
7933		-13.671875
7934		-7.812500
7935		-15.625000
7936		-11.718750
7937		-19.531250
7938		-15.625000
7939		-23.437500
7940		-17.578125
7941		-25.390625
7942		-21.484375
7943		-27.343750
7944		-23.437500
7945		-31.250000
7946		-25.390625
7947		-33.203125
7948		-29.296875
7949		-35.156250
7950		-31.250000
7951		-39.062500
7952		-33.203125
7953		-41.015625
7954		-37.109375
7955		-42.968750
7956		-39.062500
7957		-44.921875
7958		-41.015625
7959		-46.875000
7960		-42.968750
7961		-48.828125
7962		-44.921875
7963		-50.781250
7964		-44.921875
7965		-52.734375
7966		-46.875000
7967		-54.687500
7968		-48.828125
7969		-54.687500
7970		-48.828125
7971		-56.640625
7972		-50.781250
7973		-56.640625
7974		-52.734375
7975		-56.640625
7976		-54.687500
7977		-58.593750
7978		-54.687500
7979		-58.593750
7980		-52.734375
7981		-58.593750
7982		-52.734375
7983		-58.593750
7984		-52.734375
7985		-58.593750
7986		-52.734375
7987		-58.593750
7988		-52.734375
7989		-56.640625
7990		-52.734375
7991		-56.640625
7992		-52.734375
7993		-54.687500
7994		-52.734375
7995		-54.687500
7996		-48.828125
7997		-54.687500
7998		-48.828125
7999		-52.734375
8000		-46.875000
8001		-50.781250
8002		-44.921875
8003		-48.828125
8004		-42.968750
8005		-46.875000
8006		-41.015625
8007		-46.875000
8008		-41.015625
8009		-42.968750
8010		-39.062500
8011		-41.015625
8012		-35.156250
8013		-39.062500
8014		-33.203125
8015		-37.109375
8016		-31.250000
8017		-35.156250
8018		-27.343750
8019		-31.250000
8020		-25.390625
8021		-27.343750
8022		-21.484375
8023		-25.390625
8024		-19.531250
8025		-21.484375
8026		-17.578125
8027		-19.531250
8028		-15.625000
8029		-17.578125
8030		-11.718750
8031		-13.671875
8032		-7.812500
8033		-9.765625
8034		-3.906250
8035		-7.812500
8036		0.000000
8037		-3.906250
8038		1.953125
8039		0.000000
8040		3.906250
8041		3.906250
8042		7.812500
8043		5.859375
8044		11.718750
8045		9.765625
8046		15.625000
8047		13.671875
8048		17.578125
8049		15.625000
8050		21.484375
8051		17.578125
8052		25.390625
8053		21.484375
8054		27.343750
8055		25.390625
8056		31.250000
8057		29.296875
8058		33.203125
8059		31.250000
8060		37.109375
8061		35.156250
8062		41.015625
8063		37.109375
8064		42.968750
8065		39.062500
8066		44.921875
8067		42.968750
8068		48.828125
8069		44.921875
8070		50.781250
8071		46.875000
8072		52.734375
8073		50.781250
8074		54.687500
8075		52.734375
8076		56.640625
8077		54.687500
8078		58.593750
8079		56.640625
8080		60.546875
8081		58.593750
8082		64.453125
8083		60.546875
8084		64.453125
8085		62.500000
8086		68.359375
8087		64.453125
8088		68.359375
8089		66.406250
8090		70.312500
8091		66.406250
8092		70.312500
8093		68.359375
8094		72.265625
8095		70.312500
8096		72.265625
8097		70.312500
8098		74.218750
8099		72.265625
8100		74.218750
8101		70.312500
8102		78.125000
8103		72.265625
8104		76.171875
8105		72.265625
8106		76.171875
8107		72.265625
8108		76.171875
8109		74.218750
8110		76.171875
8111		72.265625
8112		76.171875
8113		72.265625
8114		76.171875
8115		72.265625
8116		76.171875
8117		72.265625
8118		76.171875
8119		70.312500
8120		76.171875
8121		70.312500
8122		74.218750
8123		68.359375
8124		72.265625
8125		68.359375
8126		72.265625
8127		66.406250
8128		70.312500
8129		64.453125
8130		68.359375
8131		64.453125
8132		68.359375
8133		62.500000
8134		66.406250
8135		60.546875
8136		64.453125
8137		58.593750
8138		62.500000
8139		56.640625
8140		60.546875
8141		52.734375
8142		58.593750
8143		50.781250
8144		56.640625
8145		48.828125
8146		52.734375
8147		46.875000
8148		52.734375
8149		44.921875
8150		48.828125
8151		41.015625
8152		46.875000
8153		39.062500
8154		44.921875
8155		35.156250
8156		41.015625
8157		31.250000
8158		37.109375
8159		29.296875
8160		35.156250
8161		27.343750
8162		31.250000
8163		23.437500
8164		27.343750
8165		19.531250
8166		25.390625
8167		17.578125
8168		21.484375
8169		13.671875
8170		19.531250
8171		9.765625
8172		15.625000
8173		7.812500
8174		11.718750
8175		3.906250
8176		7.812500
8177		0.000000
8178		5.859375
8179		-3.906250
8180		1.953125
8181		-5.859375
8182		0.000000
8183		-9.765625
8184		-3.906250
8185		-13.671875
8186		-7.812500
8187		-15.625000
8188		-9.765625
8189		-17.578125
8190		-13.671875
8191		-21.484375
8192		-17.578125
8193		-25.390625
8194		-19.531250
8195		-27.343750
8196		-23.437500
8197		-29.296875
8198		-25.390625
8199		-33.203125
8200		-29.296875
8201		-35.156250
8202		-31.250000
8203		-37.109375
8204		-33.203125
8205		-41.015625
8206		-37.109375
8207		-42.968750
8208		-39.062500
8209		-44.921875
8210		-41.015625
8211		-46.875000
8212		-42.968750
8213		-48.828125
8214		-44.921875
8215		-50.781250
8216		-46.875000
8217		-50.781250
8218		-48.828125
8219		-52.734375
8220		-48.828125
8221		-54.687500
8222		-50.781250
8223		-54.687500
8224		-50.781250
8225		-56.640625
8226		-52.734375
8227		-56.640625
8228		-54.687500
8229		-56.640625
8230		-54.687500
8231		-58.593750
8232		-54.687500
8233		-58.593750
8234		-54.687500
8235		-58.593750
8236		-54.687500
8237		-58.593750
8238		-54.687500
8239		-58.593750
8240		-54.687500
8241		-58.593750
8242		-54.687500
8243		-56.640625
8244		-54.687500
8245		-56.640625
8246		-52.734375
8247		-56.640625
8248		-50.781250
8249		-54.687500
8250		-50.781250
8251		-52.734375
8252		-48.828125
8253		-52.734375
8254		-46.875000
8255		-50.781250
8256		-46.875000
8257		-48.828125
8258		-44.921875
8259		-46.875000
8260		-42.968750
8261		-44.921875
8262		-41.015625
8263		-42.968750
8264		-37.109375
8265		-41.015625
8266		-35.156250
8267		-37.109375
8268		-33.203125
8269		-35.156250
8270		-31.250000
8271		-33.203125
8272		-27.343750
8273		-31.250000
8274		-25.390625
8275		-27.343750
8276		-21.484375
8277		-23.437500
8278		-19.531250
8279		-21.484375
8280		-15.625000
8281		-17.578125
8282		-13.671875
8283		-15.625000
8284		-9.765625
8285		-11.718750
8286		-5.859375
8287		-7.812500
8288		-3.906250
8289		-5.859375
8290		0.000000
8291		-1.953125
8292		3.906250
8293		0.000000
8294		5.859375
8295		3.906250
8296		9.765625
8297		7.812500
8298		11.718750
8299		9.765625
8300		15.625000
8301		13.671875
8302		19.531250
8303		17.578125
8304		21.484375
8305		19.531250
8306		25.390625
8307		23.437500
8308		27.343750
8309		27.343750
8310		31.250000
8311		29.296875
8312		35.156250
8313		33.203125
8314		37.109375
8315		35.156250
8316		41.015625
8317		37.109375
8318		42.968750
8319		41.015625
8320		44.921875
8321		44.921875
8322		48.828125
8323		46.875000
8324		50.781250
8325		48.828125
8326		52.734375
8327		50.781250
8328		54.687500
8329		54.687500
8330		58.593750
8331		56.640625
8332		60.546875
8333		58.593750
8334		62.500000
8335		60.546875
8336		64.453125
8337		60.546875
8338		66.406250
8339		64.453125
8340		66.406250
8341		64.453125
8342		70.312500
8343		66.406250
8344		70.312500
8345		68.359375
8346		72.265625
8347		70.312500
8348		74.218750
8349		70.312500
8350		74.218750
8351		72.265625
8352		74.218750
8353		72.265625
8354		74.218750
8355		72.265625
8356		74.218750
8357		72.265625
8358		76.171875
8359		72.265625
8360		78.125000
8361		74.218750
8362		76.171875
8363		74.218750
8364		76.171875
8365		72.265625
8366		76.171875
8367		72.265625
8368		76.171875
8369		72.265625
8370		76.171875
8371		72.265625
8372		74.218750
8373		70.312500
8374		74.218750
8375		70.312500
8376		74.218750
8377		70.312500
8378		74.218750
8379		68.359375
8380		70.312500
8381		66.406250
8382		70.312500
8383		64.453125
8384		68.359375
8385		62.500000
8386		66.406250
8387		62.500000
8388		64.453125
8389		58.593750
8390		62.500000
8391		58.593750
8392		60.546875
8393		54.687500
8394		60.546875
8395		52.734375
8396		56.640625
8397		50.781250
8398		54.687500
8399		48.828125
8400		52.734375
8401		44.921875
8402		50.781250
8403		42.968750
8404		48.828125
8405		41.015625
8406		44.921875
8407		39.062500
8408		42.968750
8409		35.156250
8410		39.062500
8411		31.250000
8412		37.109375
8413		29.296875
8414		33.203125
8415		25.390625
8416		31.250000
8417		23.437500
8418		27.343750
8419		19.531250
8420		23.437500
8421		15.625000
8422		21.484375
8423		13.671875
8424		17.578125
8425		9.765625
8426		15.625000
8427		5.859375
8428		11.718750
8429		3.906250
8430		7.812500
8431		0.000000
8432		3.906250
8433		-3.906250
8434		1.953125
8435		-5.859375
8436		-1.953125
8437		-9.765625
8438		-3.906250
8439		-13.671875
8440		-7.812500
8441		-15.625000
8442		-11.718750
8443		-19.531250
8444		-13.671875
8445		-21.484375
8446		-17.578125
8447		-25.390625
8448		-21.484375
8449		-27.343750
8450		-23.437500
8451		-31.250000
8452		-25.390625
8453		-33.203125
8454		-29.296875
8455		-35.156250
8456		-31.250000
8457		-39.062500
8458		-33.203125
8459		-41.015625
8460		-37.109375
8461		-42.968750
8462		-39.062500
8463		-44.921875
8464		-41.015625
8465		-46.875000
8466		-42.968750
8467		-48.828125
8468		-44.921875
8469		-50.781250
8470		-46.875000
8471		-52.734375
8472		-48.828125
8473		-54.687500
8474		-48.828125
8475		-54.687500
8476		-50.781250
8477		-56.640625
8478		-52.734375
8479		-56.640625
8480		-52.734375
8481		-56.640625
8482		-54.687500
8483		-58.593750
8484		-52.734375
8485		-58.593750
8486		-54.687500
8487		-58.593750
8488		-54.687500
8489		-58.593750
8490		-54.687500
8491		-58.593750
8492		-54.687500
8493		-58.593750
8494		-54.687500
8495		-58.593750
8496		-54.687500
8497		-56.640625
8498		-54.687500
8499		-54.687500
8500		-52.734375
8501		-54.687500
8502		-52.734375
8503		-52.734375
8504		-50.781250
8505		-52.734375
8506		-48.828125
8507		-50.781250
8508		-46.875000
8509		-50.781250
8510		-46.875000
8511		-48.828125
8512		-42.968750
8513		-44.921875
8514		-42.968750
8515		-42.968750
8516		-39.062500
8517		-41.015625
8518		-37.109375
8519		-39.062500
8520		-35.156250
8521		-37.109375
8522		-33.203125
8523		-35.156250
8524		-29.296875
8525		-33.203125
8526		-27.343750
8527		-29.296875
8528		-23.437500
8529		-25.390625
8530		-21.484375
8531		-23.437500
8532		-19.531250
8533		-21.484375
8534		-15.625000
8535		-17.578125
8536		-11.718750
8537		-15.625000
8538		-9.765625
8539		-11.718750
8540		-5.859375
8541		-7.812500
8542		-1.953125
8543		-3.906250
8544		0.000000
8545		-1.953125
8546		3.906250
8547		1.953125
8548		5.859375
8549		5.859375
8550		11.718750
8551		7.812500
8552		13.671875
8553		11.718750
8554		17.578125
8555		15.625000
8556		19.531250
8557		17.578125
8558		23.437500
8559		21.484375
8560		25.390625
8561		25.390625
8562		29.296875
8563		27.343750
8564		31.250000
8565		31.250000
8566		35.156250
8567		33.203125
8568		39.062500
8569		37.109375
8570		41.015625
8571		39.062500
8572		42.968750
8573		42.968750
8574		46.875000
8575		44.921875
8576		48.828125
8577		46.875000
8578		52.734375
8579		48.828125
8580		54.687500
8581		52.734375
8582		56.640625
8583		54.687500
8584		58.593750
8585		56.640625
8586		60.546875
8587		58.593750
8588		62.500000
8589		60.546875
8590		64.453125
8591		62.500000
8592		66.406250
8593		64.453125
8594		68.359375
8595		66.406250
8596		70.312500
8597		66.406250
8598		70.312500
8599		68.359375
8600		72.265625
8601		68.359375
8602		74.218750
8603		70.312500
8604		74.218750
8605		72.265625
8606		74.218750
8607		72.265625
8608		74.218750
8609		72.265625
8610		76.171875
8611		72.265625
8612		76.171875
8613		74.218750
8614		76.171875
8615		74.218750
8616		76.171875
8617		72.265625
8618		76.171875
8619		74.218750
8620		76.171875
8621		72.265625
8622		76.171875
8623		72.265625
8624		74.218750
8625		72.265625
8626		74.218750
8627		70.312500
8628		74.218750
8629		70.312500
8630		74.218750
8631		68.359375
8632		72.265625
8633		66.406250
8634		70.312500
8635		66.406250
8636		70.312500
8637		64.453125
8638		68.359375
8639		62.500000
8640		66.406250
8641		60.546875
8642		64.453125
8643		58.593750
8644		64.453125
8645		56.640625
8646		60.546875
8647		54.687500
8648		58.593750
8649		52.734375
8650		56.640625
8651		50.781250
8652		54.687500
8653		48.828125
8654		52.734375
8655		44.921875
8656		48.828125
8657		42.968750
8658		46.875000
8659		41.015625
8660		44.921875
8661		37.109375
8662		42.968750
8663		35.156250
8664		39.062500
8665		31.250000
8666		35.156250
8667		27.343750
8668		33.203125
8669		25.390625
8670		29.296875
8671		21.484375
8672		27.343750
8673		17.578125
8674		23.437500
8675		15.625000
8676		19.531250
8677		11.718750
8678		17.578125
8679		9.765625
8680		13.671875
8681		5.859375
8682		9.765625
8683		0.000000
8684		7.812500
8685		-1.953125
8686		3.906250
8687		-3.906250
8688		1.953125
8689		-7.812500
8690		-1.953125
8691		-9.765625
8692		-5.859375
8693		-13.671875
8694		-9.765625
8695		-17.578125
8696		-11.718750
8697		-19.531250
8698		-15.625000
8699		-23.437500
8700		-17.578125
8701		-25.390625
8702		-21.484375
8703		-29.296875
8704		-23.437500
8705		-33.203125
8706		-27.343750
8707		-33.203125
8708		-29.296875
8709		-37.109375
8710		-31.250000
8711		-39.062500
8712		-35.156250
8713		-41.015625
8714		-37.109375
8715		-42.968750
8716		-39.062500
8717		-44.921875
8718		-41.015625
8719		-48.828125
8720		-42.968750
8721		-48.828125
8722		-44.921875
8723		-50.781250
8724		-46.875000
8725		-52.734375
8726		-48.828125
8727		-54.687500
8728		-50.781250
8729		-56.640625
8730		-50.781250
8731		-56.640625
8732		-52.734375
8733		-56.640625
8734		-52.734375
8735		-58.593750
8736		-52.734375
8737		-58.593750
8738		-54.687500
8739		-58.593750
8740		-54.687500
8741		-58.593750
8742		-54.687500
8743		-58.593750
8744		-54.687500
8745		-58.593750
8746		-54.687500
8747		-58.593750
8748		-54.687500
8749		-56.640625
8750		-54.687500
8751		-56.640625
8752		-52.734375
8753		-54.687500
8754		-52.734375
8755		-54.687500
8756		-50.781250
8757		-54.687500
8758		-48.828125
8759		-52.734375
8760		-48.828125
8761		-50.781250
8762		-46.875000
8763		-48.828125
8764		-44.921875
8765		-46.875000
8766		-42.968750
8767		-44.921875
8768		-41.015625
8769		-42.968750
8770		-39.062500
8771		-41.015625
8772		-37.109375
8773		-39.062500
8774		-35.156250
8775		-35.156250
8776		-31.250000
8777		-33.203125
8778		-29.296875
8779		-31.250000
8780		-25.390625
8781		-27.343750
8782		-23.437500
8783		-25.390625
8784		-21.484375
8785		-23.437500
8786		-17.578125
8787		-19.531250
8788		-15.625000
8789		-15.625000
8790		-11.718750
8791		-13.671875
8792		-7.812500
8793		-11.718750
8794		-3.906250
8795		-7.812500
8796		-1.953125
8797		-3.906250
8798		0.000000
8799		0.000000
8800		3.906250
8801		3.906250
8802		7.812500
8803		5.859375
8804		11.718750
8805		9.765625
8806		13.671875
8807		11.718750
8808		17.578125
8809		15.625000
8810		21.484375
8811		19.531250
8812		23.437500
8813		21.484375
8814		27.343750
8815		25.390625
8816		31.250000
8817		29.296875
8818		33.203125
8819		31.250000
8820		37.109375
8821		35.156250
8822		39.062500
8823		37.109375
8824		42.968750
8825		41.015625
8826		44.921875
8827		42.968750
8828		46.875000
8829		44.921875
8830		50.781250
8831		46.875000
8832		52.734375
8833		50.781250
8834		54.687500
8835		52.734375
8836		56.640625
8837		54.687500
8838		58.593750
8839		56.640625
8840		60.546875
8841		58.593750
8842		62.500000
8843		58.593750
8844		64.453125
8845		62.500000
8846		66.406250
8847		64.453125
8848		68.359375
8849		66.406250
8850		68.359375
8851		68.359375
8852		70.312500
8853		68.359375
8854		72.265625
8855		70.312500
8856		72.265625
8857		70.312500
8858		74.218750
8859		72.265625
8860		74.218750
8861		72.265625
8862		76.171875
8863		72.265625
8864		76.171875
8865		72.265625
8866		76.171875
8867		74.218750
8868		76.171875
8869		72.265625
8870		76.171875
8871		72.265625
8872		76.171875
8873		74.218750
8874		76.171875
8875		72.265625
8876		76.171875
8877		72.265625
8878		76.171875
8879		70.312500
8880		74.218750
8881		70.312500
8882		74.218750
8883		70.312500
8884		72.265625
8885		66.406250
8886		72.265625
8887		66.406250
8888		70.312500
8889		64.453125
8890		68.359375
8891		64.453125
8892		68.359375
8893		62.500000
8894		66.406250
8895		60.546875
8896		64.453125
8897		56.640625
8898		62.500000
8899		56.640625
8900		60.546875
8901		54.687500
8902		58.593750
8903		50.781250
8904		56.640625
8905		48.828125
8906		54.687500
8907		46.875000
8908		52.734375
8909		44.921875
8910		48.828125
8911		41.015625
8912		46.875000
8913		39.062500
8914		44.921875
8915		37.109375
8916		41.015625
8917		33.203125
8918		37.109375
8919		29.296875
8920		35.156250
8921		27.343750
8922		31.250000
8923		23.437500
8924		29.296875
8925		21.484375
8926		25.390625
8927		17.578125
8928		23.437500
8929		13.671875
8930		19.531250
8931		11.718750
8932		17.578125
8933		7.812500
8934		13.671875
8935		3.906250
8936		9.765625
8937		1.953125
8938		7.812500
8939		-1.953125
8940		3.906250
8941		-5.859375
8942		0.000000
8943		-9.765625
8944		-3.906250
8945		-11.718750
8946		-7.812500
8947		-15.625000
8948		-9.765625
8949		-17.578125
8950		-11.718750
8951		-21.484375
8952		-15.625000
8953		-23.437500
8954		-19.531250
8955		-27.343750
8956		-21.484375
8957		-29.296875
8958		-25.390625
8959		-31.250000
8960		-27.343750
8961		-35.156250
8962		-31.250000
8963		-37.109375
8964		-33.203125
8965		-39.062500
8966		-35.156250
8967		-41.015625
8968		-39.062500
8969		-44.921875
8970		-41.015625
8971		-46.875000
8972		-42.968750
8973		-48.828125
8974		-44.921875
8975		-50.781250
8976		-46.875000
8977		-50.781250
8978		-46.875000
8979		-52.734375
8980		-48.828125
8981		-54.687500
8982		-50.781250
8983		-54.687500
8984		-52.734375
8985		-56.640625
8986		-52.734375
8987		-56.640625
8988		-52.734375
8989		-56.640625
8990		-54.687500
8991		-58.593750
8992		-54.687500
8993		-58.593750
8994		-54.687500
8995		-58.593750
8996		-54.687500
8997		-58.593750
8998		-54.687500
8999		-58.593750
9000		-54.687500
9001		-56.640625
9002		-54.687500
9003		-58.593750
9004		-52.734375
9005		-56.640625
9006		-52.734375
9007		-54.687500
9008		-50.781250
9009		-54.687500
9010		-50.781250
9011		-52.734375
9012		-48.828125
9013		-50.781250
9014		-48.828125
9015		-50.781250
9016		-46.875000
9017		-48.828125
9018		-44.921875
9019		-46.875000
9020		-42.968750
9021		-46.875000
9022		-41.015625
9023		-42.968750
9024		-39.062500
9025		-41.015625
9026		-37.109375
9027		-37.109375
9028		-33.203125
9029		-35.156250
9030		-31.250000
9031		-33.203125
9032		-27.343750
9033		-31.250000
9034		-25.390625
9035		-27.343750
9036		-23.437500
9037		-25.390625
9038		-19.531250
9039		-21.484375
9040		-17.578125
9041		-17.578125
9042		-13.671875
9043		-15.625000
9044		-9.765625
9045		-11.718750
9046		-7.812500
9047		-9.765625
9048		-3.906250
9049		-5.859375
9050		-1.953125
9051		-1.953125
9052		1.953125
9053		0.000000
9054		5.859375
9055		3.906250
9056		9.765625
9057		7.812500
9058		11.718750
9059		9.765625
9060		15.625000
9061		13.671875
9062		17.578125
9063		15.625000
9064		23.437500
9065		19.531250
9066		25.390625
9067		23.437500
9068		27.343750
9069		27.343750
9070		31.250000
9071		29.296875
9072		35.156250
9073		33.203125
9074		37.109375
9075		35.156250
9076		41.015625
9077		39.062500
9078		42.968750
9079		41.015625
9080		44.921875
9081		42.968750
9082		48.828125
9083		46.875000
9084		50.781250
9085		48.828125
9086		52.734375
9087		52.734375
9088		56.640625
9089		54.687500
9090		58.593750
9091		56.640625
9092		60.546875
9093		58.593750
9094		62.500000
9095		60.546875
9096		64.453125
9097		62.500000
9098		64.453125
9099		62.500000
9100		68.359375
9101		66.406250
9102		68.359375
9103		66.406250
9104		70.312500
9105		66.406250
9106		72.265625
9107		68.359375
9108		74.218750
9109		70.312500
9110		74.218750
9111		72.265625
9112		74.218750
9113		72.265625
9114		74.218750
9115		72.265625
9116		76.171875
9117		72.265625
9118		76.171875
9119		74.218750
9120		76.171875
9121		74.218750
9122		78.125000
9123		74.218750
9124		76.171875
9125		72.265625
9126		76.171875
9127		72.265625
9128		76.171875
9129		72.265625
9130		76.171875
9131		72.265625
9132		76.171875
9133		70.312500
9134		74.218750
9135		70.312500
9136		72.265625
9137		68.359375
9138		72.265625
9139		68.359375
9140		72.265625
9141		66.406250
9142		70.312500
9143		64.453125
9144		68.359375
9145		64.453125
9146		68.359375
9147		62.500000
9148		66.406250
9149		60.546875
9150		64.453125
9151		58.593750
9152		62.500000
9153		56.640625
9154		60.546875
9155		52.734375
9156		58.593750
9157		50.781250
9158		56.640625
9159		48.828125
9160		52.734375
9161		46.875000
9162		50.781250
9163		42.968750
9164		48.828125
9165		41.015625
9166		44.921875
9167		39.062500
9168		42.968750
9169		35.156250
9170		41.015625
9171		33.203125
9172		37.109375
9173		29.296875
9174		35.156250
9175		25.390625
9176		31.250000
9177		23.437500
9178		27.343750
9179		19.531250
9180		25.390625
9181		17.578125
9182		21.484375
9183		13.671875
9184		19.531250
9185		9.765625
9186		15.625000
9187		7.812500
9188		11.718750
9189		3.906250
9190		9.765625
9191		0.000000
9192		5.859375
9193		-3.906250
9194		1.953125
9195		-5.859375
9196		-1.953125
9197		-9.765625
9198		-3.906250
9199		-13.671875
9200		-7.812500
9201		-15.625000
9202		-9.765625
9203		-17.578125
9204		-13.671875
9205		-21.484375
9206		-17.578125
9207		-25.390625
9208		-19.531250
9209		-27.343750
9210		-23.437500
9211		-31.250000
9212		-25.390625
9213		-33.203125
9214		-29.296875
9215		-35.156250
9216		-31.250000
9217		-37.109375
9218		-33.203125
9219		-41.015625
9220		-37.109375
9221		-42.968750
9222		-39.062500
9223		-44.921875
9224		-41.015625
9225		-46.875000
9226		-42.968750
9227		-48.828125
9228		-44.921875
9229		-50.781250
9230		-46.875000
9231		-50.781250
9232		-46.875000
9233		-52.734375
9234		-48.828125
9235		-52.734375
9236		-50.781250
9237		-54.687500
9238		-52.734375
9239		-56.640625
9240		-52.734375
9241		-56.640625
9242		-52.734375
9243		-56.640625
9244		-52.734375
9245		-58.593750
9246		-54.687500
9247		-58.593750
9248		-54.687500
9249		-58.593750
9250		-54.687500
9251		-58.593750
9252		-54.687500
9253		-56.640625
9254		-54.687500
9255		-56.640625
9256		-52.734375
9257		-56.640625
9258		-52.734375
9259		-56.640625
9260		-52.734375
9261		-54.687500
9262		-50.781250
9263		-52.734375
9264		-50.781250
9265		-52.734375
9266		-48.828125
9267		-50.781250
9268		-46.875000
9269		-48.828125
9270		-44.921875
9271		-46.875000
9272		-44.921875
9273		-44.921875
9274		-41.015625
9275		-44.921875
9276		-39.062500
9277		-41.015625
9278		-37.109375
9279		-39.062500
9280		-35.156250
9281		-37.109375
9282		-33.203125
9283		-35.156250
9284		-29.296875
9285		-33.203125
9286		-27.343750
9287		-29.296875
9288		-25.390625
9289		-25.390625
9290		-21.484375
9291		-23.437500
9292		-19.531250
9293		-21.484375
9294		-15.625000
9295		-17.578125
9296		-11.718750
9297		-13.671875
9298		-9.765625
9299		-11.718750
9300		-5.859375
9301		-7.812500
9302		-3.906250
9303		-3.906250
9304		0.000000
9305		-1.953125
9306		3.906250
9307		1.953125
9308		5.859375
9309		5.859375
9310		9.765625
9311		7.812500
9312		13.671875
9313		11.718750
9314		15.625000
9315		13.671875
9316		19.531250
9317		17.578125
9318		23.437500
9319		21.484375
9320		25.390625
9321		25.390625
9322		29.296875
9323		27.343750
9324		33.203125
9325		29.296875
9326		35.156250
9327		33.203125
9328		37.109375
9329		37.109375
9330		41.015625
9331		39.062500
9332		44.921875
9333		42.968750
9334		46.875000
9335		44.921875
9336		48.828125
9337		46.875000
9338		50.781250
9339		50.781250
9340		54.687500
9341		52.734375
9342		56.640625
9343		54.687500
9344		58.593750
9345		56.640625
9346		60.546875
9347		58.593750
9348		62.500000
9349		60.546875
9350		64.453125
9351		62.500000
9352		66.406250
9353		64.453125
9354		68.359375
9355		66.406250
9356		68.359375
9357		66.406250
9358		70.312500
9359		68.359375
9360		72.265625
9361		68.359375
9362		74.218750
9363		70.312500
9364		74.218750
9365		72.265625
9366		74.218750
9367		72.265625
9368		76.171875
9369		72.265625
9370		76.171875
9371		74.218750
9372		76.171875
9373		72.265625
9374		78.125000
9375		74.218750
9376		76.171875
9377		74.218750
9378		76.171875
9379		72.265625
9380		76.171875
9381		72.265625
9382		76.171875
9383		72.265625
9384		76.171875
9385		72.265625
9386		76.171875
9387		72.265625
9388		74.218750
9389		70.312500
9390		72.265625
9391		68.359375
9392		72.265625
9393		68.359375
9394		70.312500
9395		66.406250
9396		70.312500
9397		64.453125
9398		68.359375
9399		62.500000
9400		66.406250
9401		60.546875
9402		64.453125
9403		60.546875
9404		62.500000
9405		58.593750
9406		60.546875
9407		54.687500
9408		60.546875
9409		52.734375
9410		56.640625
9411		50.781250
9412		54.687500
9413		48.828125
9414		54.687500
9415		44.921875
9416		50.781250
9417		42.968750
9418		48.828125
9419		41.015625
9420		44.921875
9421		37.109375
9422		41.015625
9423		33.203125
9424		39.062500
9425		31.250000
9426		37.109375
9427		29.296875
9428		33.203125
9429		25.390625
9430		31.250000
9431		21.484375
9432		27.343750
9433		19.531250
9434		23.437500
9435		15.625000
9436		21.484375
9437		11.718750
9438		17.578125
9439		9.765625
9440		13.671875
9441		5.859375
9442		11.718750
9443		3.906250
9444		7.812500
9445		-1.953125
9446		5.859375
9447		-3.906250
9448		1.953125
9449		-7.812500
9450		-1.953125
9451		-9.765625
9452		-5.859375
9453		-13.671875
9454		-7.812500
9455		-15.625000
9456		-11.718750
9457		-19.531250
9458		-15.625000
9459		-21.484375
9460		-17.578125
9461		-25.390625
9462		-21.484375
9463		-27.343750
9464		-23.437500
9465		-31.250000
9466		-25.390625
9467		-33.203125
9468		-29.296875
9469		-37.109375
9470		-31.250000
9471		-39.062500
9472		-35.156250
9473		-41.015625
9474		-37.109375
9475		-42.968750
9476		-39.062500
9477		-44.921875
9478		-41.015625
9479		-46.875000
9480		-42.968750
9481		-48.828125
9482		-44.921875
9483		-50.781250
9484		-46.875000
9485		-52.734375
9486		-48.828125
9487		-52.734375
9488		-48.828125
9489		-54.687500
9490		-50.781250
9491		-56.640625
9492		-52.734375
9493		-56.640625
9494		-52.734375
9495		-56.640625
9496		-54.687500
9497		-56.640625
9498		-54.687500
9499		-58.593750
9500		-54.687500
9501		-58.593750
9502		-54.687500
9503		-58.593750
9504		-54.687500
9505		-58.593750
9506		-54.687500
9507		-58.593750
9508		-52.734375
9509		-56.640625
9510		-54.687500
9511		-56.640625
9512		-52.734375
9513		-54.687500
9514		-52.734375
9515		-54.687500
9516		-50.781250
9517		-54.687500
9518		-50.781250
9519		-52.734375
9520		-48.828125
9521		-50.781250
9522		-46.875000
9523		-48.828125
9524		-44.921875
9525		-48.828125
9526		-42.968750
9527		-44.921875
9528		-41.015625
9529		-42.968750
9530		-39.062500
9531		-41.015625
9532		-37.109375
9533		-39.062500
9534		-35.156250
9535		-35.156250
9536		-31.250000
9537		-35.156250
9538		-29.296875
9539		-31.250000
9540		-27.343750
9541		-27.343750
9542		-23.437500
9543		-25.390625
9544		-21.484375
9545		-23.437500
9546		-17.578125
9547		-19.531250
9548		-15.625000
9549		-17.578125
9550		-11.718750
9551		-13.671875
9552		-7.812500
9553		-9.765625
9554		-5.859375
9555		-7.812500
9556		-1.953125
9557		-3.906250
9558		1.953125
9559		-1.953125
9560		3.906250
9561		1.953125
9562		7.812500
9563		5.859375
9564		9.765625
9565		9.765625
9566		13.671875
9567		11.718750
9568		17.578125
9569		15.625000
9570		21.484375
9571		19.531250
9572		23.437500
9573		23.437500
9574		27.343750
9575		25.390625
9576		29.296875
9577		27.343750
9578		33.203125
9579		31.250000
9580		35.156250
9581		35.156250
9582		39.062500
9583		37.109375
9584		41.015625
9585		39.062500
9586		44.921875
9587		42.968750
9588		46.875000
9589		44.921875
9590		50.781250
9591		48.828125
9592		52.734375
9593		50.781250
9594		54.687500
9595		52.734375
9596		56.640625
9597		54.687500
9598		58.593750
9599		58.593750
9600		60.546875
9601		58.593750
9602		62.500000
9603		60.546875
9604		66.406250
9605		62.500000
9606		66.406250
9607		64.453125
9608		68.359375
9609		66.406250
9610		70.312500
9611		66.406250
9612		70.312500
9613		68.359375
9614		72.265625
9615		70.312500
9616		74.218750
9617		70.312500
9618		74.218750
9619		72.265625
9620		74.218750
9621		72.265625
9622		76.171875
9623		72.265625
9624		76.171875
9625		72.265625
9626		76.171875
9627		74.218750
9628		76.171875
9629		74.218750
9630		78.125000
9631		74.218750
9632		78.125000
9633		72.265625
9634		76.171875
9635		74.218750
9636		76.171875
9637		72.265625
9638		76.171875
9639		72.265625
9640		74.218750
9641		72.265625
9642		74.218750
9643		70.312500
9644		74.218750
9645		68.359375
9646		72.265625
9647		68.359375
9648		70.312500
9649		66.406250
9650		70.312500
9651		64.453125
9652		68.359375
9653		62.500000
9654		66.406250
9655		62.500000
9656		66.406250
9657		58.593750
9658		62.500000
9659		56.640625
9660		60.546875
9661		54.687500
9662		60.546875
9663		52.734375
9664		56.640625
9665		50.781250
9666		54.687500
9667		48.828125
9668		52.734375
9669		44.921875
9670		50.781250
9671		42.968750
9672		46.875000
9673		41.015625
9674		44.921875
9675		37.109375
9676		41.015625
9677		33.203125
9678		39.062500
9679		31.250000
9680		35.156250
9681		27.343750
9682		33.203125
9683		25.390625
9684		29.296875
9685		21.484375
9686		27.343750
9687		17.578125
9688		23.437500
9689		15.625000
9690		19.531250
9691		11.718750
9692		17.578125
9693		7.812500
9694		13.671875
9695		5.859375
9696		9.765625
9697		1.953125
9698		7.812500
9699		-1.953125
9700		3.906250
9701		-3.906250
9702		1.953125
9703		-7.812500
9704		-3.906250
9705		-9.765625
9706		-5.859375
9707		-13.671875
9708		-9.765625
9709		-17.578125
9710		-11.718750
9711		-19.531250
9712		-15.625000
9713		-23.437500
9714		-17.578125
9715		-25.390625
9716		-21.484375
9717		-29.296875
9718		-23.437500
9719		-31.250000
9720		-27.343750
9721		-35.156250
9722		-29.296875
9723		-37.109375
9724		-33.203125
9725		-39.062500
9726		-35.156250
9727		-41.015625
9728		-37.109375
9729		-44.921875
9730		-39.062500
9731		-44.921875
9732		-41.015625
9733		-46.875000
9734		-42.968750
9735		-48.828125
9736		-44.921875
9737		-50.781250
9738		-46.875000
9739		-52.734375
9740		-46.875000
9741		-52.734375
9742		-48.828125
9743		-54.687500
9744		-50.781250
9745		-54.687500
9746		-52.734375
9747		-56.640625
9748		-52.734375
9749		-56.640625
9750		-52.734375
9751		-56.640625
9752		-54.687500
9753		-56.640625
9754		-54.687500
9755		-58.593750
9756		-54.687500
9757		-56.640625
9758		-54.687500
9759		-56.640625
9760		-54.687500
9761		-56.640625
9762		-52.734375
9763		-56.640625
9764		-52.734375
9765		-56.640625
9766		-52.734375
9767		-54.687500
9768		-50.781250
9769		-54.687500
9770		-50.781250
9771		-52.734375
9772		-48.828125
9773		-50.781250
9774		-46.875000
9775		-50.781250
9776		-46.875000
9777		-48.828125
9778		-44.921875
9779		-46.875000
9780		-42.968750
9781		-44.921875
9782		-41.015625
9783		-42.968750
9784		-39.062500
9785		-41.015625
9786		-35.156250
9787		-37.109375
9788		-33.203125
9789		-35.156250
9790		-31.250000
9791		-33.203125
9792		-29.296875
9793		-29.296875
9794		-25.390625
9795		-27.343750
9796		-23.437500
9797		-25.390625
9798		-19.531250
9799		-21.484375
9800		-17.578125
9801		-19.531250
9802		-13.671875
9803		-15.625000
9804		-9.765625
9805		-11.718750
9806		-7.812500
9807		-9.765625
9808		-3.906250
9809		-5.859375
9810		-1.953125
9811		-3.906250
9812		1.953125
9813		0.000000
9814		5.859375
9815		3.906250
9816		7.812500
9817		5.859375
9818		11.718750
9819		9.765625
9820		15.625000
9821		13.671875
9822		19.531250
9823		15.625000
9824		21.484375
9825		19.531250
9826		25.390625
9827		23.437500
9828		29.296875
9829		27.343750
9830		31.250000
9831		29.296875
9832		35.156250
9833		33.203125
9834		37.109375
9835		35.156250
9836		39.062500
9837		39.062500
9838		42.968750
9839		41.015625
9840		44.921875
9841		42.968750
9842		48.828125
9843		46.875000
9844		50.781250
9845		48.828125
9846		52.734375
9847		50.781250
9848		54.687500
9849		52.734375
9850		58.593750
9851		56.640625
9852		60.546875
9853		58.593750
9854		62.500000
9855		60.546875
9856		64.453125
9857		62.500000
9858		66.406250
9859		64.453125
9860		66.406250
9861		64.453125
9862		68.359375
9863		66.406250
9864		70.312500
9865		68.359375
9866		72.265625
9867		70.312500
9868		74.218750
9869		70.312500
9870		74.218750
9871		72.265625
9872		74.218750
9873		72.265625
9874		76.171875
9875		74.218750
9876		76.171875
9877		74.218750
9878		76.171875
9879		74.218750
9880		76.171875
9881		74.218750
9882		76.171875
9883		74.218750
9884		78.125000
9885		74.218750
9886		76.171875
9887		72.265625
9888		76.171875
9889		72.265625
9890		76.171875
9891		72.265625
9892		76.171875
9893		72.265625
9894		74.218750
9895		70.312500
9896		74.218750
9897		68.359375
9898		74.218750
9899		68.359375
9900		72.265625
9901		66.406250
9902		70.312500
9903		66.406250
9904		70.312500
9905		64.453125
9906		68.359375
9907		62.500000
9908		66.406250
9909		60.546875
9910		64.453125
9911		58.593750
9912		62.500000
9913		56.640625
9914		60.546875
9915		54.687500
9916		58.593750
9917		52.734375
9918		56.640625
9919		50.781250
9920		54.687500
9921		46.875000
9922		52.734375
9923		44.921875
9924		48.828125
9925		42.968750
9926		46.875000
9927		39.062500
9928		42.968750
9929		37.109375
9930		42.968750
9931		33.203125
9932		39.062500
9933		31.250000
9934		35.156250
9935		27.343750
9936		31.250000
9937		23.437500
9938		29.296875
9939		19.531250
9940		27.343750
9941		17.578125
9942		23.437500
9943		15.625000
9944		19.531250
9945		9.765625
9946		15.625000
9947		7.812500
9948		13.671875
9949		3.906250
9950		9.765625
9951		1.953125
9952		5.859375
9953		-1.953125
9954		3.906250
9955		-5.859375
9956		0.000000
9957		-7.812500
9958		-3.906250
9959		-11.718750
9960		-7.812500
9961		-15.625000
9962		-9.765625
9963		-21.484375
9964		-11.718750
9965		-21.484375
9966		-13.671875
9967		-23.437500
9968		-17.578125
9969		-27.343750
9970		-21.484375
9971		-29.296875
9972		-25.390625
9973		-33.203125
9974		-25.390625
9975		-35.156250
9976		-31.250000
9977		-37.109375
9978		-33.203125
9979		-41.015625
9980		-33.203125
9981		-42.968750
9982		-35.156250
9983		-44.921875
9984		-37.109375
9985		-46.875000
9986		-41.015625
9987		-46.875000
9988		-44.921875
9989		-52.734375
9990		-44.921875
9991		-50.781250
9992		-44.921875
9993		-52.734375
9994		-48.828125
9995		-54.687500
9996		-48.828125
9997		-56.640625
9998		-48.828125
9999		-56.640625
10000		-50.781250
