Channel              :		CH1
Frequency            :		1.973kHz
Period               :		0.507ms
PK-PK                :		115.2mV
Probe attenuation    :		1X
Voltage per ADC value:		0.122070mV
Time interval        :		2.00000us

index		CH1_Voltage(mV)
1		60.546875
2		60.546875
3		64.453125
4		60.546875
5		64.453125
6		60.546875
7		62.500000
8		58.593750
9		62.500000
10		58.593750
11		60.546875
12		56.640625
13		60.546875
14		56.640625
15		58.593750
16		54.687500
17		58.593750
18		52.734375
19		56.640625
20		50.781250
21		56.640625
22		50.781250
23		54.687500
24		48.828125
25		52.734375
26		46.875000
27		50.781250
28		44.921875
29		48.828125
30		42.968750
31		46.875000
32		41.015625
33		44.921875
34		39.062500
35		42.968750
36		37.109375
37		41.015625
38		35.156250
39		39.062500
40		31.250000
41		37.109375
42		29.296875
43		33.203125
44		27.343750
45		31.250000
46		25.390625
47		29.296875
48		23.437500
49		27.343750
50		19.531250
51		23.437500
52		17.578125
53		21.484375
54		15.625000
55		19.531250
56		11.718750
57		17.578125
58		9.765625
59		13.671875
60		7.812500
61		11.718750
62		3.906250
63		7.812500
64		1.953125
65		5.859375
66		-1.953125
67		3.906250
68		-3.906250
69		0.000000
70		-5.859375
71		-1.953125
72		-9.765625
73		-3.906250
74		-11.718750
75		-7.812500
76		-13.671875
77		-9.765625
78		-17.578125
79		-11.718750
80		-19.531250
81		-13.671875
82		-21.484375
83		-15.625000
84		-23.437500
85		-19.531250
86		-25.390625
87		-21.484375
88		-27.343750
89		-23.437500
90		-29.296875
91		-25.390625
92		-31.250000
93		-27.343750
94		-33.203125
95		-29.296875
96		-33.203125
97		-29.296875
98		-35.156250
99		-31.250000
100		-37.109375
101		-33.203125
102		-39.062500
103		-35.156250
104		-39.062500
105		-37.109375
106		-41.015625
107		-37.109375
108		-41.015625
109		-37.109375
110		-42.968750
111		-39.062500
112		-42.968750
113		-41.015625
114		-42.968750
115		-41.015625
116		-42.968750
117		-41.015625
118		-44.921875
119		-41.015625
120		-44.921875
121		-41.015625
122		-44.921875
123		-41.015625
124		-44.921875
125		-41.015625
126		-42.968750
127		-41.015625
128		-42.968750
129		-41.015625
130		-42.968750
131		-39.062500
132		-42.968750
133		-39.062500
134		-41.015625
135		-37.109375
136		-41.015625
137		-37.109375
138		-39.062500
139		-35.156250
140		-39.062500
141		-35.156250
142		-37.109375
143		-33.203125
144		-35.156250
145		-31.250000
146		-33.203125
147		-29.296875
148		-31.250000
149		-29.296875
150		-31.250000
151		-27.343750
152		-29.296875
153		-23.437500
154		-27.343750
155		-21.484375
156		-23.437500
157		-19.531250
158		-21.484375
159		-17.578125
160		-19.531250
161		-15.625000
162		-17.578125
163		-13.671875
164		-17.578125
165		-11.718750
166		-13.671875
167		-7.812500
168		-9.765625
169		-5.859375
170		-7.812500
171		-3.906250
172		-5.859375
173		0.000000
174		-1.953125
175		1.953125
176		0.000000
177		3.906250
178		1.953125
179		5.859375
180		3.906250
181		9.765625
182		7.812500
183		11.718750
184		9.765625
185		13.671875
186		13.671875
187		17.578125
188		15.625000
189		19.531250
190		17.578125
191		21.484375
192		19.531250
193		25.390625
194		23.437500
195		27.343750
196		25.390625
197		31.250000
198		29.296875
199		33.203125
200		31.250000
201		35.156250
202		31.250000
203		37.109375
204		35.156250
205		39.062500
206		37.109375
207		41.015625
208		39.062500
209		44.921875
210		41.015625
211		44.921875
212		42.968750
213		46.875000
214		44.921875
215		48.828125
216		46.875000
217		50.781250
218		48.828125
219		52.734375
220		50.781250
221		54.687500
222		50.781250
223		56.640625
224		54.687500
225		56.640625
226		54.687500
227		58.593750
228		56.640625
229		58.593750
230		56.640625
231		60.546875
232		56.640625
233		60.546875
234		58.593750
235		62.500000
236		60.546875
237		62.500000
238		60.546875
239		62.500000
240		60.546875
241		64.453125
242		60.546875
243		64.453125
244		62.500000
245		64.453125
246		62.500000
247		64.453125
248		62.500000
249		64.453125
250		62.500000
251		64.453125
252		60.546875
253		64.453125
254		60.546875
255		64.453125
256		60.546875
257		64.453125
258		58.593750
259		64.453125
260		58.593750
261		62.500000
262		58.593750
263		62.500000
264		56.640625
265		60.546875
266		56.640625
267		60.546875
268		56.640625
269		58.593750
270		54.687500
271		58.593750
272		52.734375
273		56.640625
274		50.781250
275		54.687500
276		50.781250
277		54.687500
278		48.828125
279		50.781250
280		44.921875
281		50.781250
282		44.921875
283		48.828125
284		42.968750
285		46.875000
286		39.062500
287		44.921875
288		39.062500
289		42.968750
290		37.109375
291		41.015625
292		33.203125
293		39.062500
294		31.250000
295		35.156250
296		29.296875
297		33.203125
298		25.390625
299		31.250000
300		23.437500
301		27.343750
302		21.484375
303		25.390625
304		19.531250
305		23.437500
306		15.625000
307		21.484375
308		13.671875
309		17.578125
310		11.718750
311		15.625000
312		7.812500
313		11.718750
314		5.859375
315		9.765625
316		3.906250
317		7.812500
318		0.000000
319		5.859375
320		-1.953125
321		1.953125
322		-3.906250
323		0.000000
324		-7.812500
325		-1.953125
326		-9.765625
327		-5.859375
328		-11.718750
329		-7.812500
330		-13.671875
331		-9.765625
332		-17.578125
333		-11.718750
334		-19.531250
335		-15.625000
336		-21.484375
337		-17.578125
338		-23.437500
339		-19.531250
340		-25.390625
341		-21.484375
342		-27.343750
343		-23.437500
344		-29.296875
345		-25.390625
346		-31.250000
347		-27.343750
348		-33.203125
349		-29.296875
350		-35.156250
351		-31.250000
352		-37.109375
353		-33.203125
354		-37.109375
355		-33.203125
356		-39.062500
357		-35.156250
358		-41.015625
359		-37.109375
360		-41.015625
361		-37.109375
362		-41.015625
363		-39.062500
364		-42.968750
365		-39.062500
366		-42.968750
367		-41.015625
368		-44.921875
369		-41.015625
370		-44.921875
371		-41.015625
372		-44.921875
373		-41.015625
374		-44.921875
375		-41.015625
376		-44.921875
377		-41.015625
378		-42.968750
379		-41.015625
380		-42.968750
381		-41.015625
382		-42.968750
383		-39.062500
384		-42.968750
385		-39.062500
386		-42.968750
387		-39.062500
388		-41.015625
389		-39.062500
390		-41.015625
391		-37.109375
392		-39.062500
393		-35.156250
394		-39.062500
395		-35.156250
396		-37.109375
397		-33.203125
398		-35.156250
399		-31.250000
400		-33.203125
401		-29.296875
402		-31.250000
403		-27.343750
404		-29.296875
405		-25.390625
406		-27.343750
407		-25.390625
408		-25.390625
409		-21.484375
410		-23.437500
411		-19.531250
412		-21.484375
413		-17.578125
414		-19.531250
415		-15.625000
416		-17.578125
417		-13.671875
418		-15.625000
419		-9.765625
420		-11.718750
421		-7.812500
422		-9.765625
423		-5.859375
424		-7.812500
425		-3.906250
426		-5.859375
427		0.000000
428		-1.953125
429		1.953125
430		0.000000
431		3.906250
432		1.953125
433		7.812500
434		5.859375
435		9.765625
436		7.812500
437		11.718750
438		9.765625
439		15.625000
440		13.671875
441		17.578125
442		15.625000
443		19.531250
444		17.578125
445		23.437500
446		21.484375
447		25.390625
448		23.437500
449		29.296875
450		25.390625
451		31.250000
452		29.296875
453		33.203125
454		31.250000
455		35.156250
456		33.203125
457		37.109375
458		35.156250
459		39.062500
460		39.062500
461		42.968750
462		39.062500
463		44.921875
464		42.968750
465		44.921875
466		44.921875
467		48.828125
468		44.921875
469		48.828125
470		46.875000
471		50.781250
472		48.828125
473		52.734375
474		50.781250
475		54.687500
476		52.734375
477		54.687500
478		52.734375
479		56.640625
480		54.687500
481		58.593750
482		56.640625
483		60.546875
484		56.640625
485		60.546875
486		58.593750
487		62.500000
488		58.593750
489		62.500000
490		58.593750
491		62.500000
492		60.546875
493		62.500000
494		60.546875
495		64.453125
496		62.500000
497		64.453125
498		62.500000
499		64.453125
500		60.546875
501		64.453125
502		62.500000
503		64.453125
504		62.500000
505		64.453125
506		62.500000
507		64.453125
508		60.546875
509		64.453125
510		60.546875
511		64.453125
512		60.546875
513		62.500000
514		58.593750
515		62.500000
516		58.593750
517		62.500000
518		56.640625
519		60.546875
520		56.640625
521		60.546875
522		54.687500
523		58.593750
524		54.687500
525		56.640625
526		52.734375
527		56.640625
528		50.781250
529		54.687500
530		48.828125
531		52.734375
532		46.875000
533		50.781250
534		44.921875
535		48.828125
536		42.968750
537		46.875000
538		42.968750
539		46.875000
540		39.062500
541		42.968750
542		37.109375
543		42.968750
544		35.156250
545		39.062500
546		33.203125
547		37.109375
548		31.250000
549		35.156250
550		27.343750
551		33.203125
552		25.390625
553		29.296875
554		23.437500
555		27.343750
556		21.484375
557		25.390625
558		17.578125
559		23.437500
560		15.625000
561		19.531250
562		13.671875
563		17.578125
564		9.765625
565		13.671875
566		5.859375
567		11.718750
568		5.859375
569		9.765625
570		1.953125
571		5.859375
572		0.000000
573		3.906250
574		-3.906250
575		1.953125
576		-5.859375
577		-1.953125
578		-9.765625
579		-3.906250
580		-9.765625
581		-5.859375
582		-13.671875
583		-9.765625
584		-15.625000
585		-11.718750
586		-17.578125
587		-13.671875
588		-19.531250
589		-15.625000
590		-21.484375
591		-17.578125
592		-23.437500
593		-19.531250
594		-27.343750
595		-21.484375
596		-29.296875
597		-23.437500
598		-31.250000
599		-27.343750
600		-33.203125
601		-29.296875
602		-33.203125
603		-29.296875
604		-35.156250
605		-31.250000
606		-37.109375
607		-33.203125
608		-39.062500
609		-35.156250
610		-41.015625
611		-35.156250
612		-41.015625
613		-37.109375
614		-41.015625
615		-39.062500
616		-42.968750
617		-39.062500
618		-42.968750
619		-39.062500
620		-42.968750
621		-41.015625
622		-44.921875
623		-41.015625
624		-44.921875
625		-41.015625
626		-44.921875
627		-41.015625
628		-44.921875
629		-41.015625
630		-44.921875
631		-41.015625
632		-44.921875
633		-41.015625
634		-44.921875
635		-41.015625
636		-44.921875
637		-41.015625
638		-42.968750
639		-39.062500
640		-41.015625
641		-39.062500
642		-41.015625
643		-37.109375
644		-41.015625
645		-37.109375
646		-41.015625
647		-35.156250
648		-37.109375
649		-33.203125
650		-37.109375
651		-33.203125
652		-35.156250
653		-31.250000
654		-33.203125
655		-29.296875
656		-31.250000
657		-27.343750
658		-29.296875
659		-25.390625
660		-27.343750
661		-23.437500
662		-25.390625
663		-21.484375
664		-23.437500
665		-19.531250
666		-21.484375
667		-17.578125
668		-19.531250
669		-15.625000
670		-17.578125
671		-11.718750
672		-15.625000
673		-9.765625
674		-11.718750
675		-7.812500
676		-9.765625
677		-5.859375
678		-7.812500
679		-1.953125
680		-3.906250
681		0.000000
682		-1.953125
683		1.953125
684		0.000000
685		5.859375
686		3.906250
687		7.812500
688		5.859375
689		9.765625
690		9.765625
691		13.671875
692		11.718750
693		15.625000
694		13.671875
695		19.531250
696		17.578125
697		21.484375
698		19.531250
699		23.437500
700		21.484375
701		27.343750
702		23.437500
703		29.296875
704		25.390625
705		31.250000
706		29.296875
707		33.203125
708		31.250000
709		35.156250
710		33.203125
711		39.062500
712		37.109375
713		41.015625
714		39.062500
715		42.968750
716		41.015625
717		44.921875
718		41.015625
719		46.875000
720		42.968750
721		48.828125
722		46.875000
723		50.781250
724		48.828125
725		52.734375
726		50.781250
727		52.734375
728		50.781250
729		54.687500
730		50.781250
731		56.640625
732		54.687500
733		56.640625
734		54.687500
735		58.593750
736		56.640625
737		60.546875
738		58.593750
739		60.546875
740		58.593750
741		62.500000
742		58.593750
743		62.500000
744		60.546875
745		64.453125
746		60.546875
747		64.453125
748		60.546875
749		64.453125
750		60.546875
751		64.453125
752		60.546875
753		64.453125
754		60.546875
755		64.453125
756		60.546875
757		64.453125
758		60.546875
759		64.453125
760		60.546875
761		64.453125
762		60.546875
763		64.453125
764		60.546875
765		64.453125
766		60.546875
767		62.500000
768		58.593750
769		62.500000
770		58.593750
771		60.546875
772		56.640625
773		60.546875
774		56.640625
775		58.593750
776		54.687500
777		58.593750
778		52.734375
779		56.640625
780		52.734375
781		54.687500
782		50.781250
783		54.687500
784		48.828125
785		52.734375
786		46.875000
787		50.781250
788		44.921875
789		48.828125
790		42.968750
791		46.875000
792		41.015625
793		44.921875
794		39.062500
795		42.968750
796		37.109375
797		41.015625
798		35.156250
799		39.062500
800		33.203125
801		37.109375
802		31.250000
803		33.203125
804		27.343750
805		31.250000
806		25.390625
807		29.296875
808		21.484375
809		27.343750
810		19.531250
811		23.437500
812		17.578125
813		21.484375
814		15.625000
815		19.531250
816		11.718750
817		17.578125
818		9.765625
819		13.671875
820		7.812500
821		11.718750
822		3.906250
823		7.812500
824		1.953125
825		5.859375
826		-1.953125
827		3.906250
828		-3.906250
829		0.000000
830		-5.859375
831		-1.953125
832		-7.812500
833		-3.906250
834		-11.718750
835		-7.812500
836		-13.671875
837		-9.765625
838		-15.625000
839		-11.718750
840		-19.531250
841		-13.671875
842		-21.484375
843		-17.578125
844		-23.437500
845		-19.531250
846		-25.390625
847		-21.484375
848		-27.343750
849		-23.437500
850		-29.296875
851		-25.390625
852		-31.250000
853		-27.343750
854		-33.203125
855		-29.296875
856		-35.156250
857		-31.250000
858		-35.156250
859		-33.203125
860		-37.109375
861		-33.203125
862		-39.062500
863		-35.156250
864		-39.062500
865		-37.109375
866		-41.015625
867		-37.109375
868		-41.015625
869		-39.062500
870		-42.968750
871		-39.062500
872		-42.968750
873		-39.062500
874		-42.968750
875		-41.015625
876		-44.921875
877		-41.015625
878		-44.921875
879		-41.015625
880		-44.921875
881		-41.015625
882		-44.921875
883		-41.015625
884		-44.921875
885		-41.015625
886		-44.921875
887		-41.015625
888		-44.921875
889		-41.015625
890		-42.968750
891		-39.062500
892		-42.968750
893		-39.062500
894		-42.968750
895		-39.062500
896		-41.015625
897		-37.109375
898		-39.062500
899		-37.109375
900		-39.062500
901		-33.203125
902		-37.109375
903		-33.203125
904		-35.156250
905		-31.250000
906		-35.156250
907		-31.250000
908		-33.203125
909		-29.296875
910		-31.250000
911		-27.343750
912		-29.296875
913		-25.390625
914		-27.343750
915		-23.437500
916		-25.390625
917		-21.484375
918		-23.437500
919		-19.531250
920		-21.484375
921		-15.625000
922		-19.531250
923		-13.671875
924		-17.578125
925		-11.718750
926		-13.671875
927		-9.765625
928		-11.718750
929		-7.812500
930		-7.812500
931		-3.906250
932		-7.812500
933		-1.953125
934		-3.906250
935		0.000000
936		-1.953125
937		3.906250
938		1.953125
939		5.859375
940		3.906250
941		7.812500
942		7.812500
943		11.718750
944		7.812500
945		13.671875
946		11.718750
947		15.625000
948		13.671875
949		19.531250
950		17.578125
951		21.484375
952		19.531250
953		23.437500
954		21.484375
955		27.343750
956		25.390625
957		29.296875
958		27.343750
959		31.250000
960		29.296875
961		33.203125
962		33.203125
963		37.109375
964		33.203125
965		39.062500
966		35.156250
967		41.015625
968		39.062500
969		42.968750
970		41.015625
971		44.921875
972		42.968750
973		46.875000
974		44.921875
975		48.828125
976		46.875000
977		50.781250
978		48.828125
979		50.781250
980		48.828125
981		54.687500
982		50.781250
983		54.687500
984		52.734375
985		56.640625
986		54.687500
987		58.593750
988		54.687500
989		58.593750
990		56.640625
991		60.546875
992		56.640625
993		60.546875
994		58.593750
995		62.500000
996		58.593750
997		62.500000
998		58.593750
999		64.453125
1000		60.546875
1001		62.500000
1002		60.546875
1003		64.453125
1004		60.546875
1005		64.453125
1006		62.500000
1007		64.453125
1008		60.546875
1009		64.453125
1010		60.546875
1011		64.453125
1012		60.546875
1013		64.453125
1014		60.546875
1015		64.453125
1016		60.546875
1017		64.453125
1018		60.546875
1019		62.500000
1020		58.593750
1021		62.500000
1022		58.593750
1023		62.500000
1024		56.640625
1025		60.546875
1026		56.640625
1027		60.546875
1028		54.687500
1029		58.593750
1030		54.687500
1031		58.593750
1032		52.734375
1033		56.640625
1034		50.781250
1035		54.687500
1036		50.781250
1037		52.734375
1038		48.828125
1039		52.734375
1040		46.875000
1041		50.781250
1042		44.921875
1043		48.828125
1044		42.968750
1045		46.875000
1046		41.015625
1047		44.921875
1048		37.109375
1049		42.968750
1050		37.109375
1051		41.015625
1052		33.203125
1053		37.109375
1054		31.250000
1055		35.156250
1056		29.296875
1057		33.203125
1058		27.343750
1059		31.250000
1060		23.437500
1061		29.296875
1062		21.484375
1063		25.390625
1064		19.531250
1065		23.437500
1066		15.625000
1067		21.484375
1068		13.671875
1069		17.578125
1070		11.718750
1071		15.625000
1072		7.812500
1073		13.671875
1074		5.859375
1075		9.765625
1076		3.906250
1077		7.812500
1078		0.000000
1079		5.859375
1080		-1.953125
1081		1.953125
1082		-5.859375
1083		0.000000
1084		-7.812500
1085		-1.953125
1086		-9.765625
1087		-5.859375
1088		-11.718750
1089		-7.812500
1090		-13.671875
1091		-9.765625
1092		-17.578125
1093		-13.671875
1094		-19.531250
1095		-15.625000
1096		-21.484375
1097		-17.578125
1098		-23.437500
1099		-19.531250
1100		-25.390625
1101		-21.484375
1102		-27.343750
1103		-23.437500
1104		-31.250000
1105		-25.390625
1106		-31.250000
1107		-27.343750
1108		-33.203125
1109		-29.296875
1110		-35.156250
1111		-31.250000
1112		-37.109375
1113		-33.203125
1114		-37.109375
1115		-35.156250
1116		-39.062500
1117		-35.156250
1118		-41.015625
1119		-37.109375
1120		-41.015625
1121		-39.062500
1122		-42.968750
1123		-37.109375
1124		-42.968750
1125		-39.062500
1126		-42.968750
1127		-41.015625
1128		-44.921875
1129		-41.015625
1130		-44.921875
1131		-41.015625
1132		-44.921875
1133		-41.015625
1134		-44.921875
1135		-41.015625
1136		-44.921875
1137		-41.015625
1138		-44.921875
1139		-41.015625
1140		-44.921875
1141		-41.015625
1142		-42.968750
1143		-41.015625
1144		-44.921875
1145		-39.062500
1146		-42.968750
1147		-39.062500
1148		-41.015625
1149		-39.062500
1150		-41.015625
1151		-37.109375
1152		-39.062500
1153		-37.109375
1154		-37.109375
1155		-33.203125
1156		-37.109375
1157		-33.203125
1158		-35.156250
1159		-33.203125
1160		-35.156250
1161		-31.250000
1162		-33.203125
1163		-29.296875
1164		-31.250000
1165		-27.343750
1166		-29.296875
1167		-23.437500
1168		-27.343750
1169		-23.437500
1170		-25.390625
1171		-21.484375
1172		-23.437500
1173		-17.578125
1174		-19.531250
1175		-15.625000
1176		-17.578125
1177		-13.671875
1178		-15.625000
1179		-11.718750
1180		-13.671875
1181		-7.812500
1182		-9.765625
1183		-5.859375
1184		-7.812500
1185		-3.906250
1186		-5.859375
1187		-1.953125
1188		-3.906250
1189		1.953125
1190		-1.953125
1191		3.906250
1192		1.953125
1193		5.859375
1194		5.859375
1195		9.765625
1196		7.812500
1197		11.718750
1198		9.765625
1199		13.671875
1200		11.718750
1201		17.578125
1202		15.625000
1203		19.531250
1204		17.578125
1205		23.437500
1206		19.531250
1207		25.390625
1208		23.437500
1209		27.343750
1210		25.390625
1211		29.296875
1212		27.343750
1213		31.250000
1214		31.250000
1215		35.156250
1216		31.250000
1217		37.109375
1218		33.203125
1219		39.062500
1220		37.109375
1221		41.015625
1222		39.062500
1223		42.968750
1224		41.015625
1225		44.921875
1226		42.968750
1227		46.875000
1228		44.921875
1229		48.828125
1230		46.875000
1231		50.781250
1232		48.828125
1233		52.734375
1234		50.781250
1235		54.687500
1236		52.734375
1237		54.687500
1238		52.734375
1239		56.640625
1240		54.687500
1241		58.593750
1242		54.687500
1243		58.593750
1244		56.640625
1245		60.546875
1246		58.593750
1247		60.546875
1248		58.593750
1249		62.500000
1250		60.546875
1251		62.500000
1252		60.546875
1253		62.500000
1254		60.546875
1255		64.453125
1256		60.546875
1257		64.453125
1258		60.546875
1259		64.453125
1260		62.500000
1261		64.453125
1262		62.500000
1263		64.453125
1264		60.546875
1265		64.453125
1266		60.546875
1267		64.453125
1268		60.546875
1269		64.453125
1270		60.546875
1271		62.500000
1272		58.593750
1273		62.500000
1274		58.593750
1275		62.500000
1276		58.593750
1277		62.500000
1278		56.640625
1279		60.546875
1280		56.640625
1281		60.546875
1282		54.687500
1283		58.593750
1284		52.734375
1285		56.640625
1286		52.734375
1287		56.640625
1288		50.781250
1289		54.687500
1290		48.828125
1291		52.734375
1292		46.875000
1293		50.781250
1294		46.875000
1295		50.781250
1296		42.968750
1297		48.828125
1298		41.015625
1299		46.875000
1300		41.015625
1301		44.921875
1302		37.109375
1303		42.968750
1304		35.156250
1305		39.062500
1306		33.203125
1307		37.109375
1308		29.296875
1309		35.156250
1310		29.296875
1311		33.203125
1312		25.390625
1313		31.250000
1314		23.437500
1315		27.343750
1316		21.484375
1317		25.390625
1318		19.531250
1319		23.437500
1320		15.625000
1321		19.531250
1322		13.671875
1323		17.578125
1324		9.765625
1325		15.625000
1326		7.812500
1327		13.671875
1328		5.859375
1329		9.765625
1330		1.953125
1331		7.812500
1332		0.000000
1333		3.906250
1334		-3.906250
1335		1.953125
1336		-3.906250
1337		0.000000
1338		-7.812500
1339		-1.953125
1340		-11.718750
1341		-5.859375
1342		-13.671875
1343		-5.859375
1344		-15.625000
1345		-9.765625
1346		-17.578125
1347		-11.718750
1348		-21.484375
1349		-13.671875
1350		-23.437500
1351		-17.578125
1352		-23.437500
1353		-19.531250
1354		-25.390625
1355		-21.484375
1356		-29.296875
1357		-25.390625
1358		-31.250000
1359		-25.390625
1360		-33.203125
1361		-27.343750
1362		-35.156250
1363		-27.343750
1364		-35.156250
1365		-31.250000
1366		-37.109375
1367		-33.203125
1368		-39.062500
1369		-33.203125
1370		-39.062500
1371		-37.109375
1372		-39.062500
1373		-37.109375
1374		-42.968750
1375		-37.109375
1376		-44.921875
1377		-37.109375
1378		-44.921875
1379		-39.062500
1380		-44.921875
1381		-39.062500
1382		-44.921875
1383		-39.062500
1384		-46.875000
1385		-39.062500
1386		-44.921875
1387		-41.015625
1388		-44.921875
1389		-42.968750
1390		-46.875000
1391		-39.062500
1392		-46.875000
1393		-39.062500
1394		-44.921875
1395		-39.062500
1396		-44.921875
1397		-39.062500
1398		-44.921875
1399		-39.062500
1400		-44.921875
1401		-37.109375
1402		-42.968750
1403		-37.109375
1404		-41.015625
1405		-37.109375
1406		-39.062500
1407		-35.156250
1408		-41.015625
1409		-31.250000
1410		-39.062500
1411		-31.250000
1412		-37.109375
1413		-29.296875
1414		-35.156250
1415		-27.343750
1416		-33.203125
1417		-27.343750
1418		-31.250000
1419		-25.390625
1420		-27.343750
1421		-23.437500
1422		-25.390625
1423		-23.437500
1424		-25.390625
1425		-17.578125
1426		-23.437500
1427		-15.625000
1428		-21.484375
1429		-13.671875
1430		-19.531250
1431		-11.718750
1432		-17.578125
1433		-9.765625
1434		-15.625000
1435		-7.812500
1436		-11.718750
1437		-5.859375
1438		-7.812500
1439		-3.906250
1440		-5.859375
1441		1.953125
1442		-3.906250
1443		3.906250
1444		-1.953125
1445		5.859375
1446		1.953125
1447		9.765625
1448		3.906250
1449		11.718750
1450		7.812500
1451		13.671875
1452		7.812500
1453		15.625000
1454		13.671875
1455		17.578125
1456		15.625000
1457		19.531250
1458		17.578125
1459		25.390625
1460		19.531250
1461		27.343750
1462		21.484375
1463		29.296875
1464		25.390625
1465		31.250000
1466		27.343750
1467		33.203125
1468		29.296875
1469		37.109375
1470		31.250000
1471		37.109375
1472		35.156250
1473		39.062500
1474		37.109375
1475		42.968750
1476		37.109375
1477		44.921875
1478		39.062500
1479		46.875000
1480		41.015625
1481		48.828125
1482		42.968750
1483		50.781250
1484		44.921875
1485		52.734375
1486		46.875000
1487		54.687500
1488		50.781250
1489		54.687500
1490		52.734375
1491		54.687500
1492		52.734375
1493		58.593750
1494		52.734375
1495		60.546875
1496		52.734375
1497		62.500000
1498		54.687500
1499		62.500000
1500		56.640625
1501		64.453125
1502		56.640625
1503		64.453125
1504		58.593750
1505		62.500000
1506		60.546875
1507		62.500000
1508		58.593750
1509		66.406250
1510		58.593750
1511		66.406250
1512		60.546875
1513		66.406250
1514		60.546875
1515		66.406250
1516		60.546875
1517		66.406250
1518		58.593750
1519		66.406250
1520		58.593750
1521		66.406250
1522		60.546875
1523		64.453125
1524		58.593750
1525		64.453125
1526		58.593750
1527		64.453125
1528		56.640625
1529		64.453125
1530		56.640625
1531		62.500000
1532		54.687500
1533		62.500000
1534		52.734375
1535		60.546875
1536		52.734375
1537		60.546875
1538		54.687500
1539		56.640625
1540		52.734375
1541		54.687500
1542		48.828125
1543		54.687500
1544		46.875000
1545		54.687500
1546		44.921875
1547		52.734375
1548		42.968750
1549		50.781250
1550		41.015625
1551		48.828125
1552		39.062500
1553		48.828125
1554		39.062500
1555		44.921875
1556		37.109375
1557		41.015625
1558		33.203125
1559		39.062500
1560		31.250000
1561		39.062500
1562		29.296875
1563		37.109375
1564		27.343750
1565		35.156250
1566		23.437500
1567		31.250000
1568		21.484375
1569		29.296875
1570		19.531250
1571		27.343750
1572		17.578125
1573		21.484375
1574		15.625000
1575		19.531250
1576		9.765625
1577		19.531250
1578		7.812500
1579		15.625000
1580		5.859375
1581		13.671875
1582		1.953125
1583		11.718750
1584		0.000000
1585		7.812500
1586		-1.953125
1587		5.859375
1588		-1.953125
1589		1.953125
1590		-5.859375
1591		-1.953125
1592		-9.765625
1593		-3.906250
1594		-11.718750
1595		-3.906250
1596		-15.625000
1597		-7.812500
1598		-17.578125
1599		-9.765625
1600		-19.531250
1601		-11.718750
1602		-23.437500
1603		-13.671875
1604		-23.437500
1605		-15.625000
1606		-23.437500
1607		-21.484375
1608		-29.296875
1609		-23.437500
1610		-31.250000
1611		-23.437500
1612		-33.203125
1613		-25.390625
1614		-35.156250
1615		-27.343750
1616		-35.156250
1617		-27.343750
1618		-37.109375
1619		-31.250000
1620		-39.062500
1621		-31.250000
1622		-39.062500
1623		-35.156250
1624		-39.062500
1625		-37.109375
1626		-41.015625
1627		-37.109375
1628		-42.968750
1629		-37.109375
1630		-42.968750
1631		-39.062500
1632		-44.921875
1633		-39.062500
1634		-44.921875
1635		-39.062500
1636		-44.921875
1637		-39.062500
1638		-44.921875
1639		-41.015625
1640		-44.921875
1641		-41.015625
1642		-46.875000
1643		-39.062500
1644		-46.875000
1645		-39.062500
1646		-46.875000
1647		-39.062500
1648		-44.921875
1649		-39.062500
1650		-44.921875
1651		-39.062500
1652		-44.921875
1653		-37.109375
1654		-42.968750
1655		-37.109375
1656		-41.015625
1657		-39.062500
1658		-39.062500
1659		-37.109375
1660		-41.015625
1661		-33.203125
1662		-39.062500
1663		-31.250000
1664		-37.109375
1665		-29.296875
1666		-37.109375
1667		-29.296875
1668		-35.156250
1669		-27.343750
1670		-33.203125
1671		-25.390625
1672		-29.296875
1673		-25.390625
1674		-27.343750
1675		-23.437500
1676		-25.390625
1677		-19.531250
1678		-25.390625
1679		-17.578125
1680		-23.437500
1681		-15.625000
1682		-19.531250
1683		-11.718750
1684		-17.578125
1685		-9.765625
1686		-15.625000
1687		-7.812500
1688		-13.671875
1689		-5.859375
1690		-9.765625
1691		-5.859375
1692		-5.859375
1693		0.000000
1694		-5.859375
1695		1.953125
1696		-3.906250
1697		5.859375
1698		0.000000
1699		7.812500
1700		1.953125
1701		9.765625
1702		5.859375
1703		11.718750
1704		7.812500
1705		15.625000
1706		11.718750
1707		15.625000
1708		13.671875
1709		19.531250
1710		15.625000
1711		21.484375
1712		17.578125
1713		25.390625
1714		21.484375
1715		29.296875
1716		21.484375
1717		31.250000
1718		25.390625
1719		33.203125
1720		27.343750
1721		35.156250
1722		29.296875
1723		35.156250
1724		35.156250
1725		39.062500
1726		35.156250
1727		42.968750
1728		37.109375
1729		44.921875
1730		39.062500
1731		46.875000
1732		41.015625
1733		48.828125
1734		42.968750
1735		50.781250
1736		44.921875
1737		52.734375
1738		46.875000
1739		52.734375
1740		50.781250
1741		52.734375
1742		52.734375
1743		54.687500
1744		50.781250
1745		58.593750
1746		52.734375
1747		58.593750
1748		54.687500
1749		60.546875
1750		54.687500
1751		62.500000
1752		56.640625
1753		62.500000
1754		56.640625
1755		64.453125
1756		58.593750
1757		62.500000
1758		60.546875
1759		62.500000
1760		58.593750
1761		66.406250
1762		58.593750
1763		66.406250
1764		58.593750
1765		66.406250
1766		58.593750
1767		66.406250
1768		60.546875
1769		66.406250
1770		60.546875
1771		66.406250
1772		60.546875
1773		66.406250
1774		62.500000
1775		64.453125
1776		58.593750
1777		64.453125
1778		58.593750
1779		64.453125
1780		58.593750
1781		64.453125
1782		56.640625
1783		64.453125
1784		56.640625
1785		64.453125
1786		54.687500
1787		62.500000
1788		54.687500
1789		60.546875
1790		54.687500
1791		58.593750
1792		52.734375
1793		56.640625
1794		48.828125
1795		56.640625
1796		48.828125
1797		56.640625
1798		46.875000
1799		54.687500
1800		44.921875
1801		52.734375
1802		42.968750
1803		50.781250
1804		41.015625
1805		48.828125
1806		41.015625
1807		46.875000
1808		39.062500
1809		42.968750
1810		33.203125
1811		41.015625
1812		31.250000
1813		41.015625
1814		29.296875
1815		39.062500
1816		27.343750
1817		37.109375
1818		25.390625
1819		33.203125
1820		23.437500
1821		31.250000
1822		21.484375
1823		29.296875
1824		19.531250
1825		23.437500
1826		17.578125
1827		21.484375
1828		13.671875
1829		19.531250
1830		9.765625
1831		17.578125
1832		7.812500
1833		15.625000
1834		3.906250
1835		13.671875
1836		1.953125
1837		9.765625
1838		0.000000
1839		7.812500
1840		-1.953125
1841		5.859375
1842		-3.906250
1843		0.000000
1844		-9.765625
1845		-1.953125
1846		-11.718750
1847		-3.906250
1848		-13.671875
1849		-5.859375
1850		-15.625000
1851		-7.812500
1852		-17.578125
1853		-9.765625
1854		-21.484375
1855		-11.718750
1856		-21.484375
1857		-13.671875
1858		-23.437500
1859		-19.531250
1860		-25.390625
1861		-21.484375
1862		-29.296875
1863		-21.484375
1864		-31.250000
1865		-23.437500
1866		-33.203125
1867		-25.390625
1868		-35.156250
1869		-27.343750
1870		-37.109375
1871		-29.296875
1872		-39.062500
1873		-31.250000
1874		-37.109375
1875		-35.156250
1876		-39.062500
1877		-35.156250
1878		-42.968750
1879		-35.156250
1880		-42.968750
1881		-35.156250
1882		-44.921875
1883		-37.109375
1884		-44.921875
1885		-37.109375
1886		-44.921875
1887		-39.062500
1888		-46.875000
1889		-39.062500
1890		-46.875000
1891		-39.062500
1892		-44.921875
1893		-41.015625
1894		-44.921875
1895		-39.062500
1896		-46.875000
1897		-39.062500
1898		-46.875000
1899		-39.062500
1900		-46.875000
1901		-39.062500
1902		-46.875000
1903		-39.062500
1904		-44.921875
1905		-39.062500
1906		-44.921875
1907		-37.109375
1908		-41.015625
1909		-39.062500
1910		-41.015625
1911		-37.109375
1912		-41.015625
1913		-35.156250
1914		-41.015625
1915		-33.203125
1916		-39.062500
1917		-31.250000
1918		-37.109375
1919		-31.250000
1920		-37.109375
1921		-29.296875
1922		-35.156250
1923		-27.343750
1924		-33.203125
1925		-27.343750
1926		-29.296875
1927		-25.390625
1928		-27.343750
1929		-21.484375
1930		-27.343750
1931		-19.531250
1932		-25.390625
1933		-17.578125
1934		-21.484375
1935		-15.625000
1936		-19.531250
1937		-11.718750
1938		-17.578125
1939		-9.765625
1940		-15.625000
1941		-7.812500
1942		-11.718750
1943		-7.812500
1944		-7.812500
1945		-3.906250
1946		-7.812500
1947		0.000000
1948		-5.859375
1949		1.953125
1950		-3.906250
1951		5.859375
1952		0.000000
1953		7.812500
1954		1.953125
1955		9.765625
1956		5.859375
1957		13.671875
1958		7.812500
1959		13.671875
1960		11.718750
1961		15.625000
1962		13.671875
1963		21.484375
1964		15.625000
1965		23.437500
1966		17.578125
1967		25.390625
1968		21.484375
1969		29.296875
1970		23.437500
1971		31.250000
1972		25.390625
1973		33.203125
1974		27.343750
1975		35.156250
1976		33.203125
1977		37.109375
1978		35.156250
1979		41.015625
1980		35.156250
1981		42.968750
1982		37.109375
1983		44.921875
1984		39.062500
1985		46.875000
1986		41.015625
1987		48.828125
1988		42.968750
1989		50.781250
1990		44.921875
1991		50.781250
1992		48.828125
1993		52.734375
1994		50.781250
1995		54.687500
1996		50.781250
1997		56.640625
1998		50.781250
1999		58.593750
2000		52.734375
2001		60.546875
2002		54.687500
2003		60.546875
2004		54.687500
2005		62.500000
2006		56.640625
2007		62.500000
2008		56.640625
2009		62.500000
2010		60.546875
2011		62.500000
2012		58.593750
2013		64.453125
2014		58.593750
2015		66.406250
2016		58.593750
2017		66.406250
2018		58.593750
2019		66.406250
2020		58.593750
2021		66.406250
2022		60.546875
2023		66.406250
2024		58.593750
2025		66.406250
2026		60.546875
2027		64.453125
2028		60.546875
2029		64.453125
2030		58.593750
2031		66.406250
2032		56.640625
2033		64.453125
2034		56.640625
2035		64.453125
2036		56.640625
2037		62.500000
2038		54.687500
2039		62.500000
2040		54.687500
2041		62.500000
2042		54.687500
2043		58.593750
2044		54.687500
2045		56.640625
2046		50.781250
2047		56.640625
2048		48.828125
2049		56.640625
2050		46.875000
2051		54.687500
2052		44.921875
2053		52.734375
2054		42.968750
2055		52.734375
2056		42.968750
2057		50.781250
2058		41.015625
2059		46.875000
2060		41.015625
2061		44.921875
2062		37.109375
2063		42.968750
2064		35.156250
2065		41.015625
2066		31.250000
2067		39.062500
2068		29.296875
2069		37.109375
2070		27.343750
2071		35.156250
2072		25.390625
2073		33.203125
2074		21.484375
2075		29.296875
2076		21.484375
2077		25.390625
2078		19.531250
2079		23.437500
2080		13.671875
2081		21.484375
2082		11.718750
2083		19.531250
2084		9.765625
2085		17.578125
2086		5.859375
2087		15.625000
2088		3.906250
2089		11.718750
2090		1.953125
2091		9.765625
2092		0.000000
2093		7.812500
2094		-1.953125
2095		1.953125
2096		-5.859375
2097		0.000000
2098		-9.765625
2099		0.000000
2100		-11.718750
2101		-3.906250
2102		-13.671875
2103		-5.859375
2104		-17.578125
2105		-9.765625
2106		-19.531250
2107		-9.765625
2108		-19.531250
2109		-13.671875
2110		-21.484375
2111		-17.578125
2112		-23.437500
2113		-19.531250
2114		-29.296875
2115		-21.484375
2116		-29.296875
2117		-21.484375
2118		-33.203125
2119		-23.437500
2120		-33.203125
2121		-27.343750
2122		-35.156250
2123		-27.343750
2124		-37.109375
2125		-29.296875
2126		-37.109375
2127		-31.250000
2128		-37.109375
2129		-35.156250
2130		-41.015625
2131		-35.156250
2132		-42.968750
2133		-35.156250
2134		-42.968750
2135		-37.109375
2136		-44.921875
2137		-37.109375
2138		-44.921875
2139		-37.109375
2140		-44.921875
2141		-39.062500
2142		-44.921875
2143		-39.062500
2144		-44.921875
2145		-41.015625
2146		-46.875000
2147		-39.062500
2148		-46.875000
2149		-39.062500
2150		-46.875000
2151		-39.062500
2152		-46.875000
2153		-39.062500
2154		-46.875000
2155		-39.062500
2156		-46.875000
2157		-39.062500
2158		-44.921875
2159		-39.062500
2160		-42.968750
2161		-39.062500
2162		-41.015625
2163		-39.062500
2164		-42.968750
2165		-35.156250
2166		-41.015625
2167		-35.156250
2168		-41.015625
2169		-33.203125
2170		-39.062500
2171		-31.250000
2172		-37.109375
2173		-29.296875
2174		-35.156250
2175		-27.343750
2176		-33.203125
2177		-29.296875
2178		-29.296875
2179		-27.343750
2180		-29.296875
2181		-21.484375
2182		-27.343750
2183		-21.484375
2184		-27.343750
2185		-17.578125
2186		-23.437500
2187		-15.625000
2188		-21.484375
2189		-13.671875
2190		-19.531250
2191		-11.718750
2192		-17.578125
2193		-9.765625
2194		-11.718750
2195		-7.812500
2196		-9.765625
2197		-5.859375
2198		-9.765625
2199		-1.953125
2200		-7.812500
2201		0.000000
2202		-3.906250
2203		3.906250
2204		-1.953125
2205		5.859375
2206		0.000000
2207		9.765625
2208		3.906250
2209		11.718750
2210		7.812500
2211		11.718750
2212		9.765625
2213		15.625000
2214		11.718750
2215		19.531250
2216		13.671875
2217		21.484375
2218		15.625000
2219		23.437500
2220		19.531250
2221		27.343750
2222		21.484375
2223		29.296875
2224		23.437500
2225		31.250000
2226		25.390625
2227		33.203125
2228		31.250000
2229		35.156250
2230		33.203125
2231		39.062500
2232		33.203125
2233		41.015625
2234		35.156250
2235		42.968750
2236		39.062500
2237		44.921875
2238		39.062500
2239		46.875000
2240		41.015625
2241		48.828125
2242		42.968750
2243		50.781250
2244		46.875000
2245		50.781250
2246		48.828125
2247		52.734375
2248		48.828125
2249		56.640625
2250		50.781250
2251		58.593750
2252		50.781250
2253		58.593750
2254		52.734375
2255		60.546875
2256		54.687500
2257		60.546875
2258		54.687500
2259		62.500000
2260		56.640625
2261		62.500000
2262		58.593750
2263		62.500000
2264		58.593750
2265		64.453125
2266		58.593750
2267		64.453125
2268		58.593750
2269		66.406250
2270		58.593750
2271		66.406250
2272		58.593750
2273		66.406250
2274		58.593750
2275		66.406250
2276		60.546875
2277		66.406250
2278		62.500000
2279		64.453125
2280		62.500000
2281		64.453125
2282		58.593750
2283		66.406250
2284		58.593750
2285		64.453125
2286		58.593750
2287		64.453125
2288		56.640625
2289		64.453125
2290		56.640625
2291		64.453125
2292		54.687500
2293		62.500000
2294		54.687500
2295		60.546875
2296		54.687500
2297		58.593750
2298		52.734375
2299		58.593750
2300		50.781250
2301		58.593750
2302		48.828125
2303		56.640625
2304		46.875000
2305		54.687500
2306		44.921875
2307		52.734375
2308		42.968750
2309		50.781250
2310		42.968750
2311		48.828125
2312		41.015625
2313		44.921875
2314		39.062500
2315		42.968750
2316		35.156250
2317		42.968750
2318		33.203125
2319		41.015625
2320		31.250000
2321		39.062500
2322		27.343750
2323		37.109375
2324		25.390625
2325		33.203125
2326		23.437500
2327		33.203125
2328		23.437500
2329		27.343750
2330		21.484375
2331		25.390625
2332		17.578125
2333		23.437500
2334		13.671875
2335		21.484375
2336		11.718750
2337		19.531250
2338		9.765625
2339		17.578125
2340		5.859375
2341		13.671875
2342		3.906250
2343		11.718750
2344		1.953125
2345		9.765625
2346		0.000000
2347		3.906250
2348		-5.859375
2349		1.953125
2350		-7.812500
2351		0.000000
2352		-11.718750
2353		-1.953125
2354		-11.718750
2355		-3.906250
2356		-13.671875
2357		-5.859375
2358		-17.578125
2359		-9.765625
2360		-19.531250
2361		-11.718750
2362		-19.531250
2363		-15.625000
2364		-21.484375
2365		-17.578125
2366		-27.343750
2367		-19.531250
2368		-29.296875
2369		-21.484375
2370		-31.250000
2371		-23.437500
2372		-33.203125
2373		-25.390625
2374		-33.203125
2375		-27.343750
2376		-35.156250
2377		-29.296875
2378		-35.156250
2379		-31.250000
2380		-37.109375
2381		-33.203125
2382		-41.015625
2383		-33.203125
2384		-41.015625
2385		-35.156250
2386		-42.968750
2387		-35.156250
2388		-42.968750
2389		-37.109375
2390		-44.921875
2391		-37.109375
2392		-44.921875
2393		-39.062500
2394		-44.921875
2395		-39.062500
2396		-44.921875
2397		-41.015625
2398		-44.921875
2399		-41.015625
2400		-46.875000
2401		-39.062500
2402		-46.875000
2403		-39.062500
2404		-46.875000
2405		-39.062500
2406		-46.875000
2407		-39.062500
2408		-44.921875
2409		-39.062500
2410		-44.921875
2411		-39.062500
2412		-42.968750
2413		-39.062500
2414		-42.968750
2415		-39.062500
2416		-42.968750
2417		-37.109375
2418		-42.968750
2419		-35.156250
2420		-41.015625
2421		-35.156250
2422		-41.015625
2423		-33.203125
2424		-39.062500
2425		-31.250000
2426		-37.109375
2427		-29.296875
2428		-35.156250
2429		-29.296875
2430		-31.250000
2431		-27.343750
2432		-29.296875
2433		-23.437500
2434		-29.296875
2435		-21.484375
2436		-27.343750
2437		-19.531250
2438		-25.390625
2439		-17.578125
2440		-23.437500
2441		-15.625000
2442		-21.484375
2443		-11.718750
2444		-19.531250
2445		-11.718750
2446		-13.671875
2447		-9.765625
2448		-11.718750
2449		-7.812500
2450		-9.765625
2451		-3.906250
2452		-9.765625
2453		-1.953125
2454		-7.812500
2455		1.953125
2456		-3.906250
2457		3.906250
2458		-1.953125
2459		5.859375
2460		0.000000
2461		9.765625
2462		3.906250
2463		9.765625
2464		9.765625
2465		13.671875
2466		11.718750
2467		17.578125
2468		11.718750
2469		19.531250
2470		13.671875
2471		21.484375
2472		17.578125
2473		25.390625
2474		19.531250
2475		27.343750
2476		23.437500
2477		31.250000
2478		25.390625
2479		31.250000
2480		29.296875
2481		33.203125
2482		31.250000
2483		35.156250
2484		31.250000
2485		39.062500
2486		33.203125
2487		42.968750
2488		37.109375
2489		44.921875
2490		39.062500
2491		46.875000
2492		41.015625
2493		48.828125
2494		41.015625
2495		48.828125
2496		46.875000
2497		48.828125
2498		48.828125
2499		50.781250
2500		48.828125
2501		54.687500
2502		48.828125
2503		56.640625
2504		50.781250
2505		58.593750
2506		52.734375
2507		58.593750
2508		52.734375
2509		60.546875
2510		54.687500
2511		60.546875
2512		56.640625
2513		62.500000
2514		58.593750
2515		62.500000
2516		58.593750
2517		62.500000
2518		56.640625
2519		64.453125
2520		58.593750
2521		64.453125
2522		58.593750
2523		66.406250
2524		58.593750
2525		66.406250
2526		58.593750
2527		66.406250
2528		60.546875
2529		66.406250
2530		62.500000
2531		64.453125
2532		62.500000
2533		64.453125
2534		58.593750
2535		66.406250
2536		58.593750
2537		66.406250
2538		58.593750
2539		64.453125
2540		58.593750
2541		64.453125
2542		56.640625
2543		64.453125
2544		56.640625
2545		62.500000
2546		56.640625
2547		60.546875
2548		56.640625
2549		58.593750
2550		52.734375
2551		58.593750
2552		50.781250
2553		58.593750
2554		48.828125
2555		56.640625
2556		48.828125
2557		54.687500
2558		46.875000
2559		54.687500
2560		44.921875
2561		52.734375
2562		44.921875
2563		50.781250
2564		42.968750
2565		46.875000
2566		41.015625
2567		44.921875
2568		37.109375
2569		44.921875
2570		35.156250
2571		42.968750
2572		33.203125
2573		41.015625
2574		31.250000
2575		39.062500
2576		29.296875
2577		37.109375
2578		25.390625
2579		33.203125
2580		25.390625
2581		29.296875
2582		23.437500
2583		27.343750
2584		17.578125
2585		25.390625
2586		15.625000
2587		23.437500
2588		11.718750
2589		21.484375
2590		9.765625
2591		17.578125
2592		7.812500
2593		15.625000
2594		3.906250
2595		13.671875
2596		3.906250
2597		9.765625
2598		1.953125
2599		5.859375
2600		-3.906250
2601		3.906250
2602		-5.859375
2603		1.953125
2604		-7.812500
2605		0.000000
2606		-9.765625
2607		-1.953125
2608		-13.671875
2609		-5.859375
2610		-15.625000
2611		-7.812500
2612		-17.578125
2613		-9.765625
2614		-19.531250
2615		-13.671875
2616		-21.484375
2617		-17.578125
2618		-25.390625
2619		-17.578125
2620		-27.343750
2621		-19.531250
2622		-29.296875
2623		-21.484375
2624		-31.250000
2625		-23.437500
2626		-33.203125
2627		-25.390625
2628		-35.156250
2629		-27.343750
2630		-35.156250
2631		-29.296875
2632		-35.156250
2633		-33.203125
2634		-39.062500
2635		-33.203125
2636		-41.015625
2637		-33.203125
2638		-42.968750
2639		-35.156250
2640		-42.968750
2641		-35.156250
2642		-42.968750
2643		-37.109375
2644		-44.921875
2645		-37.109375
2646		-44.921875
2647		-39.062500
2648		-42.968750
2649		-41.015625
2650		-44.921875
2651		-41.015625
2652		-46.875000
2653		-39.062500
2654		-46.875000
2655		-39.062500
2656		-46.875000
2657		-41.015625
2658		-46.875000
2659		-39.062500
2660		-46.875000
2661		-39.062500
2662		-46.875000
2663		-39.062500
2664		-44.921875
2665		-41.015625
2666		-42.968750
2667		-39.062500
2668		-42.968750
2669		-37.109375
2670		-42.968750
2671		-35.156250
2672		-42.968750
2673		-35.156250
2674		-41.015625
2675		-33.203125
2676		-39.062500
2677		-31.250000
2678		-37.109375
2679		-31.250000
2680		-37.109375
2681		-29.296875
2682		-33.203125
2683		-29.296875
2684		-31.250000
2685		-25.390625
2686		-31.250000
2687		-23.437500
2688		-29.296875
2689		-21.484375
2690		-27.343750
2691		-19.531250
2692		-25.390625
2693		-17.578125
2694		-23.437500
2695		-15.625000
2696		-19.531250
2697		-13.671875
2698		-15.625000
2699		-11.718750
2700		-13.671875
2701		-9.765625
2702		-13.671875
2703		-5.859375
2704		-9.765625
2705		-1.953125
2706		-7.812500
2707		0.000000
2708		-5.859375
2709		1.953125
2710		-3.906250
2711		5.859375
2712		0.000000
2713		7.812500
2714		1.953125
2715		7.812500
2716		5.859375
2717		11.718750
2718		9.765625
2719		15.625000
2720		9.765625
2721		17.578125
2722		13.671875
2723		21.484375
2724		15.625000
2725		23.437500
2726		17.578125
2727		25.390625
2728		19.531250
2729		29.296875
2730		23.437500
2731		31.250000
2732		27.343750
2733		31.250000
2734		29.296875
2735		33.203125
2736		31.250000
2737		39.062500
2738		33.203125
2739		41.015625
2740		35.156250
2741		42.968750
2742		37.109375
2743		44.921875
2744		39.062500
2745		46.875000
2746		41.015625
2747		48.828125
2748		42.968750
2749		48.828125
2750		46.875000
2751		50.781250
2752		46.875000
2753		52.734375
2754		48.828125
2755		54.687500
2756		48.828125
2757		56.640625
2758		50.781250
2759		58.593750
2760		52.734375
2761		58.593750
2762		52.734375
2763		60.546875
2764		54.687500
2765		62.500000
2766		58.593750
2767		60.546875
2768		58.593750
2769		62.500000
2770		58.593750
2771		64.453125
2772		58.593750
2773		64.453125
2774		58.593750
2775		64.453125
2776		58.593750
2777		66.406250
2778		58.593750
2779		66.406250
2780		58.593750
2781		66.406250
2782		62.500000
2783		64.453125
2784		62.500000
2785		64.453125
2786		58.593750
2787		66.406250
2788		58.593750
2789		66.406250
2790		58.593750
2791		66.406250
2792		56.640625
2793		64.453125
2794		56.640625
2795		64.453125
2796		56.640625
2797		64.453125
2798		56.640625
2799		62.500000
2800		56.640625
2801		60.546875
2802		54.687500
2803		58.593750
2804		52.734375
2805		60.546875
2806		50.781250
2807		58.593750
2808		50.781250
2809		56.640625
2810		46.875000
2811		54.687500
2812		46.875000
2813		52.734375
2814		44.921875
2815		52.734375
2816		44.921875
2817		48.828125
2818		42.968750
2819		46.875000
2820		39.062500
2821		46.875000
2822		37.109375
2823		44.921875
2824		35.156250
2825		42.968750
2826		31.250000
2827		41.015625
2828		29.296875
2829		37.109375
2830		27.343750
2831		35.156250
2832		27.343750
2833		33.203125
2834		23.437500
2835		29.296875
2836		19.531250
2837		27.343750
2838		17.578125
2839		25.390625
2840		13.671875
2841		23.437500
2842		11.718750
2843		19.531250
2844		9.765625
2845		17.578125
2846		7.812500
2847		15.625000
2848		5.859375
2849		11.718750
2850		3.906250
2851		7.812500
2852		0.000000
2853		5.859375
2854		-3.906250
2855		3.906250
2856		-5.859375
2857		1.953125
2858		-7.812500
2859		0.000000
2860		-9.765625
2861		-1.953125
2862		-13.671875
2863		-5.859375
2864		-15.625000
2865		-7.812500
2866		-15.625000
2867		-11.718750
2868		-19.531250
2869		-15.625000
2870		-23.437500
2871		-17.578125
2872		-25.390625
2873		-17.578125
2874		-27.343750
2875		-19.531250
2876		-29.296875
2877		-21.484375
2878		-31.250000
2879		-23.437500
2880		-35.156250
2881		-25.390625
2882		-33.203125
2883		-27.343750
2884		-35.156250
2885		-31.250000
2886		-39.062500
2887		-31.250000
2888		-39.062500
2889		-31.250000
2890		-41.015625
2891		-33.203125
2892		-41.015625
2893		-35.156250
2894		-42.968750
2895		-35.156250
2896		-42.968750
2897		-35.156250
2898		-44.921875
2899		-37.109375
2900		-42.968750
2901		-41.015625
2902		-42.968750
2903		-41.015625
2904		-46.875000
2905		-39.062500
2906		-46.875000
2907		-39.062500
2908		-46.875000
2909		-39.062500
2910		-46.875000
2911		-39.062500
2912		-46.875000
2913		-39.062500
2914		-46.875000
2915		-39.062500
2916		-44.921875
2917		-39.062500
2918		-42.968750
2919		-41.015625
2920		-44.921875
2921		-37.109375
2922		-42.968750
2923		-37.109375
2924		-42.968750
2925		-35.156250
2926		-41.015625
2927		-35.156250
2928		-41.015625
2929		-31.250000
2930		-39.062500
2931		-31.250000
2932		-37.109375
2933		-31.250000
2934		-33.203125
2935		-31.250000
2936		-31.250000
2937		-27.343750
2938		-33.203125
2939		-25.390625
2940		-31.250000
2941		-23.437500
2942		-29.296875
2943		-21.484375
2944		-27.343750
2945		-17.578125
2946		-25.390625
2947		-15.625000
2948		-21.484375
2949		-15.625000
2950		-17.578125
2951		-13.671875
2952		-15.625000
2953		-11.718750
2954		-13.671875
2955		-7.812500
2956		-13.671875
2957		-3.906250
2958		-9.765625
2959		-1.953125
2960		-7.812500
2961		0.000000
2962		-5.859375
2963		3.906250
2964		-1.953125
2965		5.859375
2966		0.000000
2967		7.812500
2968		3.906250
2969		9.765625
2970		7.812500
2971		13.671875
2972		7.812500
2973		15.625000
2974		11.718750
2975		19.531250
2976		13.671875
2977		21.484375
2978		15.625000
2979		23.437500
2980		17.578125
2981		27.343750
2982		21.484375
2983		29.296875
2984		25.390625
2985		29.296875
2986		27.343750
2987		33.203125
2988		29.296875
2989		37.109375
2990		31.250000
2991		39.062500
2992		33.203125
2993		41.015625
2994		35.156250
2995		42.968750
2996		37.109375
2997		44.921875
2998		39.062500
2999		46.875000
3000		41.015625
3001		46.875000
3002		44.921875
3003		48.828125
3004		44.921875
3005		52.734375
3006		46.875000
3007		54.687500
3008		48.828125
3009		54.687500
3010		48.828125
3011		56.640625
3012		50.781250
3013		58.593750
3014		52.734375
3015		60.546875
3016		54.687500
3017		60.546875
3018		56.640625
3019		60.546875
3020		58.593750
3021		62.500000
3022		56.640625
3023		64.453125
3024		56.640625
3025		64.453125
3026		58.593750
3027		64.453125
3028		58.593750
3029		66.406250
3030		58.593750
3031		66.406250
3032		58.593750
3033		66.406250
3034		62.500000
3035		64.453125
3036		62.500000
3037		64.453125
3038		58.593750
3039		66.406250
3040		60.546875
3041		66.406250
3042		58.593750
3043		66.406250
3044		58.593750
3045		64.453125
3046		58.593750
3047		64.453125
3048		56.640625
3049		64.453125
3050		56.640625
3051		64.453125
3052		56.640625
3053		60.546875
3054		54.687500
3055		60.546875
3056		52.734375
3057		60.546875
3058		50.781250
3059		58.593750
3060		50.781250
3061		58.593750
3062		48.828125
3063		56.640625
3064		46.875000
3065		54.687500
3066		44.921875
3067		52.734375
3068		44.921875
3069		48.828125
3070		42.968750
3071		46.875000
3072		41.015625
3073		46.875000
3074		37.109375
3075		46.875000
3076		35.156250
3077		42.968750
3078		33.203125
3079		42.968750
3080		31.250000
3081		39.062500
3082		29.296875
3083		37.109375
3084		29.296875
3085		35.156250
3086		25.390625
3087		29.296875
3088		21.484375
3089		29.296875
3090		19.531250
3091		27.343750
3092		17.578125
3093		25.390625
3094		13.671875
3095		21.484375
3096		11.718750
3097		19.531250
3098		7.812500
3099		17.578125
3100		7.812500
3101		13.671875
3102		5.859375
3103		9.765625
3104		1.953125
3105		7.812500
3106		-1.953125
3107		5.859375
3108		-3.906250
3109		3.906250
3110		-7.812500
3111		0.000000
3112		-9.765625
3113		-1.953125
3114		-11.718750
3115		-3.906250
3116		-13.671875
3117		-5.859375
3118		-15.625000
3119		-9.765625
3120		-17.578125
3121		-13.671875
3122		-21.484375
3123		-15.625000
3124		-23.437500
3125		-17.578125
3126		-25.390625
3127		-17.578125
3128		-29.296875
3129		-21.484375
3130		-29.296875
3131		-23.437500
3132		-31.250000
3133		-25.390625
3134		-33.203125
3135		-27.343750
3136		-33.203125
3137		-29.296875
3138		-39.062500
3139		-31.250000
3140		-39.062500
3141		-31.250000
3142		-39.062500
3143		-33.203125
3144		-41.015625
3145		-35.156250
3146		-42.968750
3147		-35.156250
3148		-42.968750
3149		-37.109375
3150		-44.921875
3151		-37.109375
3152		-42.968750
3153		-41.015625
3154		-42.968750
3155		-41.015625
3156		-44.921875
3157		-39.062500
3158		-44.921875
3159		-39.062500
3160		-46.875000
3161		-39.062500
3162		-46.875000
3163		-41.015625
3164		-46.875000
3165		-41.015625
3166		-46.875000
3167		-39.062500
3168		-44.921875
3169		-39.062500
3170		-42.968750
3171		-41.015625
3172		-44.921875
3173		-37.109375
3174		-44.921875
3175		-37.109375
3176		-42.968750
3177		-37.109375
3178		-41.015625
3179		-35.156250
3180		-41.015625
3181		-33.203125
3182		-39.062500
3183		-33.203125
3184		-39.062500
3185		-31.250000
3186		-35.156250
3187		-31.250000
3188		-33.203125
3189		-29.296875
3190		-33.203125
3191		-27.343750
3192		-31.250000
3193		-23.437500
3194		-29.296875
3195		-23.437500
3196		-27.343750
3197		-19.531250
3198		-25.390625
3199		-17.578125
3200		-23.437500
3201		-15.625000
3202		-19.531250
3203		-15.625000
3204		-17.578125
3205		-13.671875
3206		-15.625000
3207		-7.812500
3208		-13.671875
3209		-5.859375
3210		-11.718750
3211		-3.906250
3212		-7.812500
3213		-1.953125
3214		-7.812500
3215		1.953125
3216		-3.906250
3217		3.906250
3218		0.000000
3219		3.906250
3220		3.906250
3221		7.812500
3222		5.859375
3223		9.765625
3224		7.812500
3225		13.671875
3226		9.765625
3227		15.625000
3228		13.671875
3229		17.578125
3230		13.671875
3231		21.484375
3232		17.578125
3233		25.390625
3234		19.531250
3235		27.343750
3236		23.437500
3237		27.343750
3238		27.343750
3239		31.250000
3240		27.343750
3241		33.203125
3242		29.296875
3243		37.109375
3244		33.203125
3245		37.109375
3246		35.156250
3247		41.015625
3248		37.109375
3249		42.968750
3250		39.062500
3251		46.875000
3252		41.015625
3253		44.921875
3254		42.968750
3255		46.875000
3256		44.921875
3257		48.828125
3258		46.875000
3259		50.781250
3260		48.828125
3261		52.734375
3262		50.781250
3263		54.687500
3264		50.781250
3265		56.640625
3266		54.687500
3267		58.593750
3268		54.687500
3269		58.593750
3270		56.640625
3271		58.593750
3272		56.640625
3273		60.546875
3274		56.640625
3275		62.500000
3276		58.593750
3277		62.500000
3278		60.546875
3279		62.500000
3280		58.593750
3281		64.453125
3282		60.546875
3283		64.453125
3284		60.546875
3285		64.453125
3286		60.546875
3287		64.453125
3288		62.500000
3289		64.453125
3290		62.500000
3291		64.453125
3292		60.546875
3293		64.453125
3294		60.546875
3295		64.453125
3296		60.546875
3297		64.453125
3298		60.546875
3299		62.500000
3300		58.593750
3301		62.500000
3302		58.593750
3303		62.500000
3304		58.593750
3305		60.546875
3306		56.640625
3307		60.546875
3308		56.640625
3309		58.593750
3310		54.687500
3311		58.593750
3312		52.734375
3313		56.640625
3314		52.734375
3315		54.687500
3316		50.781250
3317		52.734375
3318		48.828125
3319		52.734375
3320		46.875000
3321		50.781250
3322		44.921875
3323		48.828125
3324		42.968750
3325		46.875000
3326		41.015625
3327		44.921875
3328		39.062500
3329		42.968750
3330		37.109375
3331		41.015625
3332		35.156250
3333		39.062500
3334		33.203125
3335		37.109375
3336		29.296875
3337		35.156250
3338		27.343750
3339		31.250000
3340		23.437500
3341		29.296875
3342		23.437500
3343		27.343750
3344		19.531250
3345		25.390625
3346		17.578125
3347		21.484375
3348		15.625000
3349		19.531250
3350		11.718750
3351		17.578125
3352		9.765625
3353		13.671875
3354		7.812500
3355		11.718750
3356		3.906250
3357		7.812500
3358		1.953125
3359		5.859375
3360		0.000000
3361		3.906250
3362		-3.906250
3363		1.953125
3364		-5.859375
3365		-1.953125
3366		-7.812500
3367		-3.906250
3368		-11.718750
3369		-5.859375
3370		-13.671875
3371		-7.812500
3372		-15.625000
3373		-11.718750
3374		-17.578125
3375		-13.671875
3376		-19.531250
3377		-15.625000
3378		-23.437500
3379		-19.531250
3380		-25.390625
3381		-21.484375
3382		-27.343750
3383		-23.437500
3384		-29.296875
3385		-23.437500
3386		-31.250000
3387		-27.343750
3388		-33.203125
3389		-29.296875
3390		-35.156250
3391		-31.250000
3392		-35.156250
3393		-31.250000
3394		-37.109375
3395		-33.203125
3396		-39.062500
3397		-35.156250
3398		-41.015625
3399		-37.109375
3400		-41.015625
3401		-37.109375
3402		-41.015625
3403		-39.062500
3404		-42.968750
3405		-39.062500
3406		-42.968750
3407		-41.015625
3408		-44.921875
3409		-41.015625
3410		-44.921875
3411		-41.015625
3412		-44.921875
3413		-41.015625
3414		-44.921875
3415		-42.968750
3416		-44.921875
3417		-41.015625
3418		-44.921875
3419		-42.968750
3420		-44.921875
3421		-41.015625
3422		-42.968750
3423		-41.015625
3424		-42.968750
3425		-41.015625
3426		-42.968750
3427		-39.062500
3428		-42.968750
3429		-39.062500
3430		-41.015625
3431		-39.062500
3432		-41.015625
3433		-37.109375
3434		-39.062500
3435		-35.156250
3436		-39.062500
3437		-33.203125
3438		-37.109375
3439		-33.203125
3440		-35.156250
3441		-31.250000
3442		-33.203125
3443		-29.296875
3444		-33.203125
3445		-27.343750
3446		-29.296875
3447		-25.390625
3448		-27.343750
3449		-23.437500
3450		-25.390625
3451		-21.484375
3452		-23.437500
3453		-19.531250
3454		-23.437500
3455		-17.578125
3456		-19.531250
3457		-15.625000
3458		-17.578125
3459		-13.671875
3460		-13.671875
3461		-9.765625
3462		-11.718750
3463		-7.812500
3464		-9.765625
3465		-3.906250
3466		-7.812500
3467		-1.953125
3468		-3.906250
3469		0.000000
3470		-1.953125
3471		1.953125
3472		1.953125
3473		5.859375
3474		3.906250
3475		7.812500
3476		5.859375
3477		9.765625
3478		7.812500
3479		13.671875
3480		11.718750
3481		15.625000
3482		13.671875
3483		17.578125
3484		15.625000
3485		21.484375
3486		19.531250
3487		23.437500
3488		21.484375
3489		25.390625
3490		23.437500
3491		29.296875
3492		25.390625
3493		31.250000
3494		29.296875
3495		33.203125
3496		31.250000
3497		35.156250
3498		33.203125
3499		39.062500
3500		37.109375
3501		41.015625
3502		39.062500
3503		41.015625
3504		39.062500
3505		44.921875
3506		42.968750
3507		46.875000
3508		44.921875
3509		48.828125
3510		46.875000
3511		50.781250
3512		48.828125
3513		50.781250
3514		48.828125
3515		52.734375
3516		50.781250
3517		54.687500
3518		52.734375
3519		56.640625
3520		54.687500
3521		56.640625
3522		54.687500
3523		58.593750
3524		56.640625
3525		58.593750
3526		56.640625
3527		60.546875
3528		58.593750
3529		62.500000
3530		58.593750
3531		62.500000
3532		60.546875
3533		62.500000
3534		60.546875
3535		64.453125
3536		60.546875
3537		64.453125
3538		60.546875
3539		64.453125
3540		62.500000
3541		64.453125
3542		60.546875
3543		64.453125
3544		60.546875
3545		64.453125
3546		60.546875
3547		64.453125
3548		60.546875
3549		64.453125
3550		60.546875
3551		62.500000
3552		58.593750
3553		62.500000
3554		58.593750
3555		62.500000
3556		58.593750
3557		60.546875
3558		56.640625
3559		60.546875
3560		56.640625
3561		60.546875
3562		54.687500
3563		58.593750
3564		54.687500
3565		58.593750
3566		52.734375
3567		56.640625
3568		50.781250
3569		54.687500
3570		48.828125
3571		52.734375
3572		48.828125
3573		50.781250
3574		46.875000
3575		50.781250
3576		44.921875
3577		48.828125
3578		42.968750
3579		46.875000
3580		41.015625
3581		44.921875
3582		39.062500
3583		42.968750
3584		37.109375
3585		41.015625
3586		35.156250
3587		39.062500
3588		31.250000
3589		37.109375
3590		29.296875
3591		33.203125
3592		25.390625
3593		31.250000
3594		25.390625
3595		29.296875
3596		21.484375
3597		27.343750
3598		19.531250
3599		23.437500
3600		17.578125
3601		21.484375
3602		13.671875
3603		19.531250
3604		11.718750
3605		15.625000
3606		9.765625
3607		13.671875
3608		5.859375
3609		11.718750
3610		3.906250
3611		9.765625
3612		0.000000
3613		5.859375
3614		-1.953125
3615		3.906250
3616		-3.906250
3617		0.000000
3618		-5.859375
3619		-1.953125
3620		-9.765625
3621		-3.906250
3622		-11.718750
3623		-7.812500
3624		-13.671875
3625		-9.765625
3626		-17.578125
3627		-11.718750
3628		-19.531250
3629		-15.625000
3630		-21.484375
3631		-17.578125
3632		-23.437500
3633		-19.531250
3634		-25.390625
3635		-21.484375
3636		-29.296875
3637		-23.437500
3638		-29.296875
3639		-25.390625
3640		-31.250000
3641		-27.343750
3642		-33.203125
3643		-29.296875
3644		-35.156250
3645		-29.296875
3646		-37.109375
3647		-33.203125
3648		-39.062500
3649		-33.203125
3650		-39.062500
3651		-35.156250
3652		-41.015625
3653		-37.109375
3654		-42.968750
3655		-39.062500
3656		-41.015625
3657		-39.062500
3658		-42.968750
3659		-39.062500
3660		-42.968750
3661		-41.015625
3662		-44.921875
3663		-41.015625
3664		-44.921875
3665		-41.015625
3666		-44.921875
3667		-41.015625
3668		-44.921875
3669		-41.015625
3670		-44.921875
3671		-41.015625
3672		-44.921875
3673		-41.015625
3674		-44.921875
3675		-41.015625
3676		-44.921875
3677		-41.015625
3678		-44.921875
3679		-41.015625
3680		-42.968750
3681		-39.062500
3682		-41.015625
3683		-39.062500
3684		-41.015625
3685		-37.109375
3686		-39.062500
3687		-37.109375
3688		-39.062500
3689		-35.156250
3690		-37.109375
3691		-33.203125
3692		-35.156250
3693		-33.203125
3694		-35.156250
3695		-29.296875
3696		-33.203125
3697		-27.343750
3698		-31.250000
3699		-27.343750
3700		-29.296875
3701		-25.390625
3702		-27.343750
3703		-23.437500
3704		-25.390625
3705		-21.484375
3706		-23.437500
3707		-19.531250
3708		-21.484375
3709		-17.578125
3710		-17.578125
3711		-13.671875
3712		-15.625000
3713		-11.718750
3714		-13.671875
3715		-9.765625
3716		-11.718750
3717		-5.859375
3718		-7.812500
3719		-3.906250
3720		-7.812500
3721		-1.953125
3722		-3.906250
3723		0.000000
3724		0.000000
3725		3.906250
3726		1.953125
3727		5.859375
3728		3.906250
3729		7.812500
3730		5.859375
3731		11.718750
3732		9.765625
3733		13.671875
3734		11.718750
3735		15.625000
3736		13.671875
3737		19.531250
3738		17.578125
3739		23.437500
3740		19.531250
3741		23.437500
3742		23.437500
3743		27.343750
3744		25.390625
3745		29.296875
3746		27.343750
3747		31.250000
3748		29.296875
3749		35.156250
3750		31.250000
3751		37.109375
3752		35.156250
3753		39.062500
3754		37.109375
3755		41.015625
3756		39.062500
3757		42.968750
3758		41.015625
3759		44.921875
3760		42.968750
3761		46.875000
3762		44.921875
3763		48.828125
3764		46.875000
3765		50.781250
3766		48.828125
3767		50.781250
3768		48.828125
3769		52.734375
3770		50.781250
3771		54.687500
3772		52.734375
3773		56.640625
3774		54.687500
3775		56.640625
3776		54.687500
3777		58.593750
3778		56.640625
3779		60.546875
3780		56.640625
3781		60.546875
3782		58.593750
3783		62.500000
3784		58.593750
3785		62.500000
3786		60.546875
3787		62.500000
3788		60.546875
3789		64.453125
3790		60.546875
3791		64.453125
3792		60.546875
3793		64.453125
3794		60.546875
3795		64.453125
3796		60.546875
3797		64.453125
3798		60.546875
3799		64.453125
3800		60.546875
3801		64.453125
3802		60.546875
3803		64.453125
3804		60.546875
3805		62.500000
3806		58.593750
3807		64.453125
3808		58.593750
3809		62.500000
3810		58.593750
3811		60.546875
3812		56.640625
3813		60.546875
3814		56.640625
3815		60.546875
3816		54.687500
3817		58.593750
3818		54.687500
3819		58.593750
3820		52.734375
3821		56.640625
3822		50.781250
3823		54.687500
3824		48.828125
3825		52.734375
3826		48.828125
3827		50.781250
3828		44.921875
3829		50.781250
3830		44.921875
3831		48.828125
3832		42.968750
3833		46.875000
3834		41.015625
3835		44.921875
3836		37.109375
3837		41.015625
3838		35.156250
3839		39.062500
3840		33.203125
3841		39.062500
3842		31.250000
3843		35.156250
3844		29.296875
3845		33.203125
3846		25.390625
3847		31.250000
3848		23.437500
3849		27.343750
3850		21.484375
3851		25.390625
3852		19.531250
3853		23.437500
3854		15.625000
3855		19.531250
3856		13.671875
3857		17.578125
3858		11.718750
3859		15.625000
3860		7.812500
3861		11.718750
3862		5.859375
3863		9.765625
3864		3.906250
3865		7.812500
3866		0.000000
3867		5.859375
3868		-3.906250
3869		1.953125
3870		-3.906250
3871		0.000000
3872		-7.812500
3873		-3.906250
3874		-9.765625
3875		-5.859375
3876		-11.718750
3877		-7.812500
3878		-15.625000
3879		-9.765625
3880		-17.578125
3881		-13.671875
3882		-19.531250
3883		-15.625000
3884		-21.484375
3885		-17.578125
3886		-23.437500
3887		-19.531250
3888		-27.343750
3889		-21.484375
3890		-27.343750
3891		-23.437500
3892		-29.296875
3893		-25.390625
3894		-31.250000
3895		-27.343750
3896		-33.203125
3897		-29.296875
3898		-35.156250
3899		-31.250000
3900		-37.109375
3901		-33.203125
3902		-39.062500
3903		-35.156250
3904		-39.062500
3905		-35.156250
3906		-41.015625
3907		-37.109375
3908		-41.015625
3909		-37.109375
3910		-42.968750
3911		-39.062500
3912		-42.968750
3913		-39.062500
3914		-42.968750
3915		-41.015625
3916		-44.921875
3917		-41.015625
3918		-44.921875
3919		-41.015625
3920		-44.921875
3921		-41.015625
3922		-44.921875
3923		-41.015625
3924		-46.875000
3925		-41.015625
3926		-44.921875
3927		-41.015625
3928		-44.921875
3929		-41.015625
3930		-42.968750
3931		-41.015625
3932		-42.968750
3933		-41.015625
3934		-42.968750
3935		-39.062500
3936		-41.015625
3937		-39.062500
3938		-41.015625
3939		-37.109375
3940		-39.062500
3941		-35.156250
3942		-39.062500
3943		-35.156250
3944		-37.109375
3945		-33.203125
3946		-37.109375
3947		-31.250000
3948		-33.203125
3949		-29.296875
3950		-33.203125
3951		-27.343750
3952		-31.250000
3953		-27.343750
3954		-29.296875
3955		-25.390625
3956		-27.343750
3957		-21.484375
3958		-25.390625
3959		-21.484375
3960		-21.484375
3961		-17.578125
3962		-21.484375
3963		-15.625000
3964		-17.578125
3965		-13.671875
3966		-15.625000
3967		-9.765625
3968		-13.671875
3969		-9.765625
3970		-11.718750
3971		-5.859375
3972		-7.812500
3973		-3.906250
3974		-5.859375
3975		-1.953125
3976		-3.906250
3977		1.953125
3978		0.000000
3979		3.906250
3980		1.953125
3981		5.859375
3982		5.859375
3983		9.765625
3984		7.812500
3985		11.718750
3986		9.765625
3987		13.671875
3988		13.671875
3989		17.578125
3990		15.625000
3991		19.531250
3992		17.578125
3993		23.437500
3994		21.484375
3995		25.390625
3996		23.437500
3997		27.343750
3998		25.390625
3999		29.296875
4000		27.343750
4001		31.250000
4002		31.250000
4003		35.156250
4004		33.203125
4005		37.109375
4006		35.156250
4007		39.062500
4008		37.109375
4009		41.015625
4010		39.062500
4011		42.968750
4012		41.015625
4013		44.921875
4014		42.968750
4015		48.828125
4016		44.921875
4017		48.828125
4018		46.875000
4019		50.781250
4020		48.828125
4021		52.734375
4022		50.781250
4023		54.687500
4024		52.734375
4025		56.640625
4026		52.734375
4027		56.640625
4028		54.687500
4029		58.593750
4030		54.687500
4031		58.593750
4032		56.640625
4033		60.546875
4034		58.593750
4035		60.546875
4036		58.593750
4037		62.500000
4038		58.593750
4039		62.500000
4040		60.546875
4041		62.500000
4042		60.546875
4043		64.453125
4044		62.500000
4045		64.453125
4046		60.546875
4047		64.453125
4048		60.546875
4049		64.453125
4050		60.546875
4051		64.453125
4052		60.546875
4053		64.453125
4054		60.546875
4055		64.453125
4056		60.546875
4057		64.453125
4058		60.546875
4059		64.453125
4060		60.546875
4061		62.500000
4062		58.593750
4063		62.500000
4064		58.593750
4065		62.500000
4066		56.640625
4067		60.546875
4068		56.640625
4069		58.593750
4070		54.687500
4071		58.593750
4072		52.734375
4073		56.640625
4074		52.734375
4075		56.640625
4076		50.781250
4077		54.687500
4078		48.828125
4079		52.734375
4080		46.875000
4081		50.781250
4082		44.921875
4083		48.828125
4084		44.921875
4085		46.875000
4086		41.015625
4087		46.875000
4088		39.062500
4089		42.968750
4090		37.109375
4091		41.015625
4092		35.156250
4093		39.062500
4094		33.203125
4095		37.109375
4096		29.296875
4097		35.156250
4098		29.296875
4099		33.203125
4100		25.390625
4101		29.296875
4102		23.437500
4103		27.343750
4104		21.484375
4105		25.390625
4106		19.531250
4107		23.437500
4108		15.625000
4109		19.531250
4110		13.671875
4111		17.578125
4112		9.765625
4113		15.625000
4114		7.812500
4115		11.718750
4116		5.859375
4117		9.765625
4118		1.953125
4119		7.812500
4120		0.000000
4121		3.906250
4122		-3.906250
4123		1.953125
4124		-5.859375
4125		0.000000
4126		-7.812500
4127		-3.906250
4128		-9.765625
4129		-5.859375
4130		-13.671875
4131		-7.812500
4132		-15.625000
4133		-11.718750
4134		-17.578125
4135		-13.671875
4136		-19.531250
4137		-15.625000
4138		-21.484375
4139		-17.578125
4140		-25.390625
4141		-19.531250
4142		-27.343750
4143		-21.484375
4144		-27.343750
4145		-25.390625
4146		-29.296875
4147		-27.343750
4148		-31.250000
4149		-29.296875
4150		-33.203125
4151		-29.296875
4152		-35.156250
4153		-31.250000
4154		-37.109375
4155		-33.203125
4156		-37.109375
4157		-35.156250
4158		-39.062500
4159		-37.109375
4160		-41.015625
4161		-37.109375
4162		-41.015625
4163		-39.062500
4164		-42.968750
4165		-39.062500
4166		-44.921875
4167		-39.062500
4168		-42.968750
4169		-41.015625
4170		-44.921875
4171		-41.015625
4172		-44.921875
4173		-41.015625
4174		-44.921875
4175		-41.015625
4176		-44.921875
4177		-41.015625
4178		-44.921875
4179		-41.015625
4180		-44.921875
4181		-41.015625
4182		-44.921875
4183		-41.015625
4184		-42.968750
4185		-41.015625
4186		-42.968750
4187		-39.062500
4188		-42.968750
4189		-39.062500
4190		-41.015625
4191		-37.109375
4192		-41.015625
4193		-37.109375
4194		-39.062500
4195		-35.156250
4196		-37.109375
4197		-33.203125
4198		-37.109375
4199		-33.203125
4200		-35.156250
4201		-31.250000
4202		-33.203125
4203		-29.296875
4204		-31.250000
4205		-27.343750
4206		-29.296875
4207		-25.390625
4208		-27.343750
4209		-23.437500
4210		-27.343750
4211		-21.484375
4212		-23.437500
4213		-19.531250
4214		-21.484375
4215		-17.578125
4216		-19.531250
4217		-15.625000
4218		-17.578125
4219		-11.718750
4220		-13.671875
4221		-9.765625
4222		-11.718750
4223		-7.812500
4224		-9.765625
4225		-5.859375
4226		-7.812500
4227		-1.953125
4228		-3.906250
4229		0.000000
4230		-1.953125
4231		1.953125
4232		0.000000
4233		3.906250
4234		3.906250
4235		7.812500
4236		5.859375
4237		9.765625
4238		7.812500
4239		13.671875
4240		11.718750
4241		15.625000
4242		13.671875
4243		17.578125
4244		15.625000
4245		21.484375
4246		19.531250
4247		23.437500
4248		21.484375
4249		25.390625
4250		23.437500
4251		29.296875
4252		27.343750
4253		31.250000
4254		29.296875
4255		33.203125
4256		31.250000
4257		35.156250
4258		33.203125
4259		37.109375
4260		35.156250
4261		41.015625
4262		39.062500
4263		41.015625
4264		39.062500
4265		44.921875
4266		42.968750
4267		46.875000
4268		42.968750
4269		48.828125
4270		46.875000
4271		48.828125
4272		48.828125
4273		50.781250
4274		48.828125
4275		54.687500
4276		50.781250
4277		54.687500
4278		52.734375
4279		56.640625
4280		54.687500
4281		56.640625
4282		54.687500
4283		58.593750
4284		56.640625
4285		60.546875
4286		56.640625
4287		60.546875
4288		58.593750
4289		62.500000
4290		58.593750
4291		62.500000
4292		60.546875
4293		62.500000
4294		60.546875
4295		64.453125
4296		60.546875
4297		64.453125
4298		60.546875
4299		64.453125
4300		60.546875
4301		64.453125
4302		60.546875
4303		64.453125
4304		62.500000
4305		64.453125
4306		60.546875
4307		64.453125
4308		60.546875
4309		64.453125
4310		60.546875
4311		64.453125
4312		60.546875
4313		62.500000
4314		60.546875
4315		64.453125
4316		58.593750
4317		62.500000
4318		58.593750
4319		60.546875
4320		56.640625
4321		60.546875
4322		56.640625
4323		60.546875
4324		54.687500
4325		58.593750
4326		52.734375
4327		56.640625
4328		52.734375
4329		56.640625
4330		48.828125
4331		54.687500
4332		48.828125
4333		52.734375
4334		46.875000
4335		50.781250
4336		44.921875
4337		48.828125
4338		42.968750
4339		46.875000
4340		41.015625
4341		44.921875
4342		39.062500
4343		42.968750
4344		37.109375
4345		41.015625
4346		35.156250
4347		39.062500
4348		31.250000
4349		37.109375
4350		29.296875
4351		35.156250
4352		27.343750
4353		33.203125
4354		25.390625
4355		29.296875
4356		23.437500
4357		27.343750
4358		19.531250
4359		25.390625
4360		17.578125
4361		21.484375
4362		15.625000
4363		19.531250
4364		11.718750
4365		15.625000
4366		9.765625
4367		13.671875
4368		7.812500
4369		11.718750
4370		3.906250
4371		7.812500
4372		1.953125
4373		5.859375
4374		0.000000
4375		3.906250
4376		-3.906250
4377		0.000000
4378		-5.859375
4379		-1.953125
4380		-7.812500
4381		-3.906250
4382		-11.718750
4383		-5.859375
4384		-13.671875
4385		-7.812500
4386		-15.625000
4387		-11.718750
4388		-17.578125
4389		-13.671875
4390		-21.484375
4391		-15.625000
4392		-21.484375
4393		-19.531250
4394		-25.390625
4395		-21.484375
4396		-27.343750
4397		-23.437500
4398		-29.296875
4399		-25.390625
4400		-31.250000
4401		-27.343750
4402		-33.203125
4403		-29.296875
4404		-33.203125
4405		-29.296875
4406		-35.156250
4407		-33.203125
4408		-37.109375
4409		-33.203125
4410		-39.062500
4411		-35.156250
4412		-41.015625
4413		-35.156250
4414		-41.015625
4415		-37.109375
4416		-41.015625
4417		-39.062500
4418		-42.968750
4419		-39.062500
4420		-42.968750
4421		-39.062500
4422		-44.921875
4423		-41.015625
4424		-44.921875
4425		-41.015625
4426		-44.921875
4427		-41.015625
4428		-44.921875
4429		-41.015625
4430		-44.921875
4431		-42.968750
4432		-44.921875
4433		-41.015625
4434		-44.921875
4435		-41.015625
4436		-42.968750
4437		-41.015625
4438		-42.968750
4439		-41.015625
4440		-42.968750
4441		-39.062500
4442		-42.968750
4443		-39.062500
4444		-42.968750
4445		-37.109375
4446		-39.062500
4447		-37.109375
4448		-39.062500
4449		-35.156250
4450		-37.109375
4451		-33.203125
4452		-37.109375
4453		-31.250000
4454		-35.156250
4455		-31.250000
4456		-33.203125
4457		-29.296875
4458		-31.250000
4459		-27.343750
4460		-29.296875
4461		-25.390625
4462		-27.343750
4463		-23.437500
4464		-25.390625
4465		-21.484375
4466		-23.437500
4467		-17.578125
4468		-21.484375
4469		-17.578125
4470		-17.578125
4471		-13.671875
4472		-17.578125
4473		-11.718750
4474		-13.671875
4475		-9.765625
4476		-11.718750
4477		-7.812500
4478		-9.765625
4479		-3.906250
4480		-5.859375
4481		-1.953125
4482		-3.906250
4483		0.000000
4484		-1.953125
4485		3.906250
4486		1.953125
4487		5.859375
4488		3.906250
4489		7.812500
4490		5.859375
4491		11.718750
4492		9.765625
4493		13.671875
4494		11.718750
4495		17.578125
4496		13.671875
4497		19.531250
4498		17.578125
4499		21.484375
4500		19.531250
4501		25.390625
4502		21.484375
4503		25.390625
4504		23.437500
4505		29.296875
4506		27.343750
4507		31.250000
4508		29.296875
4509		33.203125
4510		31.250000
4511		37.109375
4512		35.156250
4513		39.062500
4514		37.109375
4515		41.015625
4516		39.062500
4517		42.968750
4518		39.062500
4519		44.921875
4520		42.968750
4521		46.875000
4522		44.921875
4523		48.828125
4524		46.875000
4525		50.781250
4526		48.828125
4527		52.734375
4528		50.781250
4529		52.734375
4530		50.781250
4531		54.687500
4532		52.734375
4533		56.640625
4534		54.687500
4535		58.593750
4536		54.687500
4537		58.593750
4538		56.640625
4539		60.546875
4540		58.593750
4541		60.546875
4542		58.593750
4543		62.500000
4544		58.593750
4545		62.500000
4546		58.593750
4547		64.453125
4548		60.546875
4549		62.500000
4550		60.546875
4551		64.453125
4552		62.500000
4553		64.453125
4554		62.500000
4555		64.453125
4556		60.546875
4557		64.453125
4558		60.546875
4559		64.453125
4560		60.546875
4561		64.453125
4562		60.546875
4563		64.453125
4564		60.546875
4565		62.500000
4566		60.546875
4567		62.500000
4568		58.593750
4569		62.500000
4570		58.593750
4571		62.500000
4572		58.593750
4573		60.546875
4574		56.640625
4575		60.546875
4576		56.640625
4577		58.593750
4578		54.687500
4579		58.593750
4580		52.734375
4581		56.640625
4582		50.781250
4583		54.687500
4584		48.828125
4585		52.734375
4586		48.828125
4587		52.734375
4588		46.875000
4589		50.781250
4590		44.921875
4591		48.828125
4592		42.968750
4593		46.875000
4594		41.015625
4595		44.921875
4596		39.062500
4597		42.968750
4598		37.109375
4599		41.015625
4600		33.203125
4601		39.062500
4602		31.250000
4603		37.109375
4604		29.296875
4605		33.203125
4606		27.343750
4607		31.250000
4608		25.390625
4609		29.296875
4610		21.484375
4611		25.390625
4612		19.531250
4613		25.390625
4614		17.578125
4615		21.484375
4616		13.671875
4617		19.531250
4618		11.718750
4619		15.625000
4620		9.765625
4621		13.671875
4622		5.859375
4623		9.765625
4624		3.906250
4625		7.812500
4626		1.953125
4627		5.859375
4628		-1.953125
4629		3.906250
4630		-3.906250
4631		0.000000
4632		-5.859375
4633		-1.953125
4634		-9.765625
4635		-3.906250
4636		-11.718750
4637		-5.859375
4638		-13.671875
4639		-9.765625
4640		-15.625000
4641		-11.718750
4642		-19.531250
4643		-15.625000
4644		-21.484375
4645		-15.625000
4646		-23.437500
4647		-19.531250
4648		-25.390625
4649		-21.484375
4650		-27.343750
4651		-23.437500
4652		-29.296875
4653		-25.390625
4654		-31.250000
4655		-27.343750
4656		-33.203125
4657		-29.296875
4658		-35.156250
4659		-31.250000
4660		-35.156250
4661		-31.250000
4662		-37.109375
4663		-33.203125
4664		-39.062500
4665		-35.156250
4666		-39.062500
4667		-37.109375
4668		-41.015625
4669		-37.109375
4670		-41.015625
4671		-39.062500
4672		-42.968750
4673		-39.062500
4674		-42.968750
4675		-39.062500
4676		-42.968750
4677		-41.015625
4678		-44.921875
4679		-41.015625
4680		-44.921875
4681		-41.015625
4682		-44.921875
4683		-41.015625
4684		-44.921875
4685		-41.015625
4686		-44.921875
4687		-41.015625
4688		-44.921875
4689		-41.015625
4690		-42.968750
4691		-41.015625
4692		-42.968750
4693		-39.062500
4694		-42.968750
4695		-39.062500
4696		-42.968750
4697		-37.109375
4698		-41.015625
4699		-37.109375
4700		-39.062500
4701		-35.156250
4702		-39.062500
4703		-35.156250
4704		-37.109375
4705		-33.203125
4706		-35.156250
4707		-31.250000
4708		-33.203125
4709		-29.296875
4710		-33.203125
4711		-29.296875
4712		-31.250000
4713		-27.343750
4714		-27.343750
4715		-25.390625
4716		-27.343750
4717		-23.437500
4718		-25.390625
4719		-19.531250
4720		-23.437500
4721		-17.578125
4722		-19.531250
4723		-15.625000
4724		-17.578125
4725		-13.671875
4726		-15.625000
4727		-11.718750
4728		-13.671875
4729		-7.812500
4730		-9.765625
4731		-5.859375
4732		-7.812500
4733		-3.906250
4734		-5.859375
4735		-1.953125
4736		-3.906250
4737		1.953125
4738		0.000000
4739		3.906250
4740		1.953125
4741		7.812500
4742		5.859375
4743		9.765625
4744		7.812500
4745		11.718750
4746		9.765625
4747		13.671875
4748		11.718750
4749		17.578125
4750		15.625000
4751		19.531250
4752		17.578125
4753		23.437500
4754		21.484375
4755		25.390625
4756		21.484375
4757		27.343750
4758		25.390625
4759		29.296875
4760		27.343750
4761		31.250000
4762		31.250000
4763		35.156250
4764		33.203125
4765		37.109375
4766		35.156250
4767		39.062500
4768		37.109375
4769		41.015625
4770		39.062500
4771		42.968750
4772		41.015625
4773		44.921875
4774		42.968750
4775		46.875000
4776		44.921875
4777		48.828125
4778		46.875000
4779		50.781250
4780		48.828125
4781		52.734375
4782		50.781250
4783		54.687500
4784		52.734375
4785		54.687500
4786		52.734375
4787		56.640625
4788		54.687500
4789		58.593750
4790		56.640625
4791		58.593750
4792		56.640625
4793		60.546875
4794		58.593750
4795		60.546875
4796		58.593750
4797		62.500000
4798		58.593750
4799		62.500000
4800		60.546875
4801		62.500000
4802		60.546875
4803		64.453125
4804		60.546875
4805		64.453125
4806		60.546875
4807		64.453125
4808		60.546875
4809		64.453125
4810		62.500000
4811		64.453125
4812		60.546875
4813		64.453125
4814		60.546875
4815		64.453125
4816		60.546875
4817		64.453125
4818		60.546875
4819		62.500000
4820		60.546875
4821		62.500000
4822		58.593750
4823		62.500000
4824		58.593750
4825		62.500000
4826		56.640625
4827		60.546875
4828		56.640625
4829		60.546875
4830		54.687500
4831		58.593750
4832		54.687500
4833		58.593750
4834		52.734375
4835		56.640625
4836		50.781250
4837		54.687500
4838		48.828125
4839		52.734375
4840		46.875000
4841		52.734375
4842		46.875000
4843		50.781250
4844		44.921875
4845		48.828125
4846		42.968750
4847		46.875000
4848		41.015625
4849		44.921875
4850		39.062500
4851		42.968750
4852		35.156250
4853		39.062500
4854		33.203125
4855		39.062500
4856		31.250000
4857		35.156250
4858		29.296875
4859		33.203125
4860		25.390625
4861		31.250000
4862		23.437500
4863		27.343750
4864		21.484375
4865		25.390625
4866		19.531250
4867		23.437500
4868		15.625000
4869		19.531250
4870		13.671875
4871		17.578125
4872		9.765625
4873		15.625000
4874		7.812500
4875		13.671875
4876		3.906250
4877		9.765625
4878		3.906250
4879		7.812500
4880		0.000000
4881		5.859375
4882		-1.953125
4883		1.953125
4884		-5.859375
4885		0.000000
4886		-7.812500
4887		-1.953125
4888		-9.765625
4889		-5.859375
4890		-11.718750
4891		-7.812500
4892		-13.671875
4893		-9.765625
4894		-17.578125
4895		-13.671875
4896		-21.484375
4897		-15.625000
4898		-23.437500
4899		-17.578125
4900		-23.437500
4901		-19.531250
4902		-25.390625
4903		-21.484375
4904		-29.296875
4905		-23.437500
4906		-29.296875
4907		-25.390625
4908		-33.203125
4909		-27.343750
4910		-33.203125
4911		-29.296875
4912		-35.156250
4913		-31.250000
4914		-37.109375
4915		-33.203125
4916		-37.109375
4917		-33.203125
4918		-39.062500
4919		-35.156250
4920		-42.968750
4921		-37.109375
4922		-41.015625
4923		-37.109375
4924		-42.968750
4925		-39.062500
4926		-42.968750
4927		-39.062500
4928		-42.968750
4929		-41.015625
4930		-42.968750
4931		-41.015625
4932		-44.921875
4933		-41.015625
4934		-42.968750
4935		-41.015625
4936		-44.921875
4937		-41.015625
4938		-44.921875
4939		-41.015625
4940		-44.921875
4941		-41.015625
4942		-44.921875
4943		-41.015625
4944		-44.921875
4945		-39.062500
4946		-42.968750
4947		-39.062500
4948		-42.968750
4949		-39.062500
4950		-42.968750
4951		-39.062500
4952		-41.015625
4953		-37.109375
4954		-39.062500
4955		-35.156250
4956		-39.062500
4957		-35.156250
4958		-37.109375
4959		-33.203125
4960		-35.156250
4961		-31.250000
4962		-33.203125
4963		-29.296875
4964		-31.250000
4965		-27.343750
4966		-29.296875
4967		-25.390625
4968		-29.296875
4969		-25.390625
4970		-25.390625
4971		-21.484375
4972		-25.390625
4973		-19.531250
4974		-23.437500
4975		-17.578125
4976		-19.531250
4977		-15.625000
4978		-17.578125
4979		-11.718750
4980		-15.625000
4981		-9.765625
4982		-11.718750
4983		-7.812500
4984		-9.765625
4985		-5.859375
4986		-7.812500
4987		-3.906250
4988		-5.859375
4989		0.000000
4990		-1.953125
4991		1.953125
4992		0.000000
4993		3.906250
4994		1.953125
4995		7.812500
4996		5.859375
4997		9.765625
4998		7.812500
4999		11.718750
5000		11.718750
5001		15.625000
5002		13.671875
5003		19.531250
5004		15.625000
5005		21.484375
5006		17.578125
5007		23.437500
5008		21.484375
5009		25.390625
5010		23.437500
5011		27.343750
5012		25.390625
5013		31.250000
5014		29.296875
5015		33.203125
5016		31.250000
5017		35.156250
5018		33.203125
5019		37.109375
5020		35.156250
5021		39.062500
5022		37.109375
5023		42.968750
5024		39.062500
5025		42.968750
5026		41.015625
5027		46.875000
5028		44.921875
5029		48.828125
5030		44.921875
5031		50.781250
5032		46.875000
5033		52.734375
5034		48.828125
5035		52.734375
5036		50.781250
5037		54.687500
5038		52.734375
5039		56.640625
5040		54.687500
5041		56.640625
5042		54.687500
5043		58.593750
5044		56.640625
5045		60.546875
5046		56.640625
5047		60.546875
5048		58.593750
5049		62.500000
5050		58.593750
5051		62.500000
5052		60.546875
5053		62.500000
5054		60.546875
5055		62.500000
5056		60.546875
5057		64.453125
5058		60.546875
5059		64.453125
5060		62.500000
5061		64.453125
5062		60.546875
5063		64.453125
5064		62.500000
5065		64.453125
5066		60.546875
5067		64.453125
5068		62.500000
5069		64.453125
5070		62.500000
5071		64.453125
5072		60.546875
5073		64.453125
5074		60.546875
5075		62.500000
5076		58.593750
5077		62.500000
5078		58.593750
5079		60.546875
5080		56.640625
5081		60.546875
5082		56.640625
5083		58.593750
5084		54.687500
5085		58.593750
5086		54.687500
5087		56.640625
5088		52.734375
5089		54.687500
5090		50.781250
5091		54.687500
5092		48.828125
5093		52.734375
5094		46.875000
5095		50.781250
5096		44.921875
5097		48.828125
5098		42.968750
5099		46.875000
5100		41.015625
5101		44.921875
5102		41.015625
5103		42.968750
5104		37.109375
5105		41.015625
5106		35.156250
5107		39.062500
5108		33.203125
5109		37.109375
5110		31.250000
5111		35.156250
5112		29.296875
5113		33.203125
5114		25.390625
5115		31.250000
5116		23.437500
5117		27.343750
5118		21.484375
5119		25.390625
5120		17.578125
5121		23.437500
5122		15.625000
5123		19.531250
5124		13.671875
5125		17.578125
5126		9.765625
5127		15.625000
5128		7.812500
5129		11.718750
5130		3.906250
5131		9.765625
5132		1.953125
5133		7.812500
5134		0.000000
5135		3.906250
5136		-1.953125
5137		1.953125
5138		-5.859375
5139		-1.953125
5140		-7.812500
5141		-1.953125
5142		-11.718750
5143		-5.859375
5144		-11.718750
5145		-7.812500
5146		-15.625000
5147		-11.718750
5148		-17.578125
5149		-13.671875
5150		-19.531250
5151		-15.625000
5152		-21.484375
5153		-17.578125
5154		-25.390625
5155		-19.531250
5156		-25.390625
5157		-21.484375
5158		-29.296875
5159		-23.437500
5160		-29.296875
5161		-25.390625
5162		-31.250000
5163		-27.343750
5164		-33.203125
5165		-29.296875
5166		-35.156250
5167		-31.250000
5168		-37.109375
5169		-33.203125
5170		-37.109375
5171		-35.156250
5172		-39.062500
5173		-35.156250
5174		-41.015625
5175		-37.109375
5176		-41.015625
5177		-37.109375
5178		-42.968750
5179		-39.062500
5180		-42.968750
5181		-39.062500
5182		-42.968750
5183		-41.015625
5184		-44.921875
5185		-39.062500
5186		-42.968750
5187		-41.015625
5188		-44.921875
5189		-41.015625
5190		-44.921875
5191		-41.015625
5192		-44.921875
5193		-41.015625
5194		-42.968750
5195		-41.015625
5196		-42.968750
5197		-41.015625
5198		-42.968750
5199		-39.062500
5200		-42.968750
5201		-39.062500
5202		-41.015625
5203		-39.062500
5204		-41.015625
5205		-37.109375
5206		-41.015625
5207		-35.156250
5208		-39.062500
5209		-35.156250
5210		-37.109375
5211		-33.203125
5212		-37.109375
5213		-33.203125
5214		-35.156250
5215		-31.250000
5216		-33.203125
5217		-29.296875
5218		-31.250000
5219		-27.343750
5220		-29.296875
5221		-25.390625
5222		-27.343750
5223		-23.437500
5224		-25.390625
5225		-21.484375
5226		-23.437500
5227		-19.531250
5228		-21.484375
5229		-15.625000
5230		-17.578125
5231		-13.671875
5232		-15.625000
5233		-11.718750
5234		-13.671875
5235		-9.765625
5236		-11.718750
5237		-7.812500
5238		-7.812500
5239		-3.906250
5240		-5.859375
5241		-1.953125
5242		-3.906250
5243		0.000000
5244		-1.953125
5245		3.906250
5246		1.953125
5247		5.859375
5248		3.906250
5249		7.812500
5250		5.859375
5251		11.718750
5252		9.765625
5253		13.671875
5254		11.718750
5255		15.625000
5256		15.625000
5257		19.531250
5258		17.578125
5259		21.484375
5260		19.531250
5261		23.437500
5262		21.484375
5263		27.343750
5264		25.390625
5265		29.296875
5266		27.343750
5267		31.250000
5268		29.296875
5269		35.156250
5270		31.250000
5271		35.156250
5272		33.203125
5273		39.062500
5274		37.109375
5275		41.015625
5276		39.062500
5277		42.968750
5278		41.015625
5279		44.921875
5280		42.968750
5281		46.875000
5282		44.921875
5283		48.828125
5284		46.875000
5285		50.781250
5286		48.828125
5287		52.734375
5288		50.781250
5289		52.734375
5290		50.781250
5291		56.640625
5292		52.734375
5293		56.640625
5294		54.687500
5295		58.593750
5296		56.640625
5297		58.593750
5298		56.640625
5299		60.546875
5300		56.640625
5301		60.546875
5302		58.593750
5303		62.500000
5304		58.593750
5305		62.500000
5306		60.546875
5307		62.500000
5308		60.546875
5309		64.453125
5310		60.546875
5311		64.453125
5312		62.500000
5313		64.453125
5314		60.546875
5315		64.453125
5316		62.500000
5317		64.453125
5318		62.500000
5319		64.453125
5320		60.546875
5321		64.453125
5322		62.500000
5323		64.453125
5324		60.546875
5325		64.453125
5326		60.546875
5327		64.453125
5328		60.546875
5329		62.500000
5330		58.593750
5331		62.500000
5332		58.593750
5333		60.546875
5334		56.640625
5335		60.546875
5336		56.640625
5337		60.546875
5338		54.687500
5339		58.593750
5340		52.734375
5341		56.640625
5342		52.734375
5343		56.640625
5344		50.781250
5345		54.687500
5346		48.828125
5347		52.734375
5348		46.875000
5349		50.781250
5350		44.921875
5351		48.828125
5352		42.968750
5353		46.875000
5354		41.015625
5355		44.921875
5356		39.062500
5357		42.968750
5358		37.109375
5359		41.015625
5360		35.156250
5361		39.062500
5362		33.203125
5363		37.109375
5364		31.250000
5365		35.156250
5366		27.343750
5367		33.203125
5368		25.390625
5369		29.296875
5370		23.437500
5371		27.343750
5372		19.531250
5373		23.437500
5374		17.578125
5375		21.484375
5376		15.625000
5377		19.531250
5378		11.718750
5379		17.578125
5380		9.765625
5381		13.671875
5382		7.812500
5383		11.718750
5384		3.906250
5385		7.812500
5386		1.953125
5387		5.859375
5388		0.000000
5389		3.906250
5390		-3.906250
5391		0.000000
5392		-5.859375
5393		-1.953125
5394		-7.812500
5395		-3.906250
5396		-11.718750
5397		-7.812500
5398		-13.671875
5399		-9.765625
5400		-15.625000
5401		-11.718750
5402		-17.578125
5403		-13.671875
5404		-19.531250
5405		-15.625000
5406		-23.437500
5407		-19.531250
5408		-25.390625
5409		-21.484375
5410		-27.343750
5411		-21.484375
5412		-29.296875
5413		-25.390625
5414		-31.250000
5415		-27.343750
5416		-33.203125
5417		-29.296875
5418		-35.156250
5419		-31.250000
5420		-35.156250
5421		-31.250000
5422		-37.109375
5423		-33.203125
5424		-39.062500
5425		-35.156250
5426		-39.062500
5427		-35.156250
5428		-41.015625
5429		-37.109375
5430		-41.015625
5431		-37.109375
5432		-42.968750
5433		-39.062500
5434		-42.968750
5435		-39.062500
5436		-44.921875
5437		-41.015625
5438		-42.968750
5439		-41.015625
5440		-42.968750
5441		-41.015625
5442		-44.921875
5443		-41.015625
5444		-44.921875
5445		-41.015625
5446		-44.921875
5447		-41.015625
5448		-44.921875
5449		-41.015625
5450		-42.968750
5451		-41.015625
5452		-42.968750
5453		-39.062500
5454		-42.968750
5455		-39.062500
5456		-41.015625
5457		-39.062500
5458		-41.015625
5459		-37.109375
5460		-39.062500
5461		-35.156250
5462		-39.062500
5463		-35.156250
5464		-37.109375
5465		-33.203125
5466		-35.156250
5467		-31.250000
5468		-33.203125
5469		-29.296875
5470		-33.203125
5471		-27.343750
5472		-31.250000
5473		-27.343750
5474		-29.296875
5475		-25.390625
5476		-27.343750
5477		-23.437500
5478		-25.390625
5479		-21.484375
5480		-21.484375
5481		-17.578125
5482		-19.531250
5483		-15.625000
5484		-17.578125
5485		-13.671875
5486		-15.625000
5487		-11.718750
5488		-13.671875
5489		-9.765625
5490		-11.718750
5491		-5.859375
5492		-7.812500
5493		-3.906250
5494		-5.859375
5495		0.000000
5496		-3.906250
5497		1.953125
5498		0.000000
5499		3.906250
5500		1.953125
5501		5.859375
5502		3.906250
5503		9.765625
5504		7.812500
5505		11.718750
5506		9.765625
5507		13.671875
5508		11.718750
5509		17.578125
5510		15.625000
5511		19.531250
5512		17.578125
5513		23.437500
5514		19.531250
5515		25.390625
5516		23.437500
5517		27.343750
5518		25.390625
5519		29.296875
5520		27.343750
5521		33.203125
5522		31.250000
5523		35.156250
5524		33.203125
5525		37.109375
5526		35.156250
5527		39.062500
5528		37.109375
5529		41.015625
5530		39.062500
5531		42.968750
5532		41.015625
5533		44.921875
5534		42.968750
5535		48.828125
5536		44.921875
5537		48.828125
5538		46.875000
5539		50.781250
5540		48.828125
5541		52.734375
5542		50.781250
5543		54.687500
5544		52.734375
5545		54.687500
5546		52.734375
5547		56.640625
5548		54.687500
5549		58.593750
5550		56.640625
5551		60.546875
5552		56.640625
5553		60.546875
5554		58.593750
5555		62.500000
5556		58.593750
5557		62.500000
5558		60.546875
5559		62.500000
5560		60.546875
5561		64.453125
5562		60.546875
5563		64.453125
5564		60.546875
5565		64.453125
5566		62.500000
5567		66.406250
5568		60.546875
5569		64.453125
5570		62.500000
5571		64.453125
5572		62.500000
5573		64.453125
5574		62.500000
5575		64.453125
5576		60.546875
5577		64.453125
5578		60.546875
5579		64.453125
5580		58.593750
5581		64.453125
5582		58.593750
5583		62.500000
5584		58.593750
5585		62.500000
5586		56.640625
5587		62.500000
5588		56.640625
5589		60.546875
5590		56.640625
5591		58.593750
5592		54.687500
5593		58.593750
5594		52.734375
5595		58.593750
5596		50.781250
5597		56.640625
5598		50.781250
5599		54.687500
5600		48.828125
5601		52.734375
5602		46.875000
5603		50.781250
5604		42.968750
5605		48.828125
5606		42.968750
5607		46.875000
5608		41.015625
5609		44.921875
5610		39.062500
5611		42.968750
5612		35.156250
5613		41.015625
5614		35.156250
5615		39.062500
5616		31.250000
5617		37.109375
5618		29.296875
5619		35.156250
5620		27.343750
5621		31.250000
5622		25.390625
5623		29.296875
5624		21.484375
5625		27.343750
5626		19.531250
5627		23.437500
5628		17.578125
5629		21.484375
5630		13.671875
5631		19.531250
5632		11.718750
5633		17.578125
5634		7.812500
5635		13.671875
5636		5.859375
5637		11.718750
5638		1.953125
5639		7.812500
5640		1.953125
5641		5.859375
5642		-1.953125
5643		1.953125
5644		-3.906250
5645		1.953125
5646		-5.859375
5647		-1.953125
5648		-9.765625
5649		-3.906250
5650		-11.718750
5651		-7.812500
5652		-13.671875
5653		-9.765625
5654		-17.578125
5655		-11.718750
5656		-17.578125
5657		-13.671875
5658		-21.484375
5659		-17.578125
5660		-23.437500
5661		-19.531250
5662		-25.390625
5663		-21.484375
5664		-27.343750
5665		-23.437500
5666		-29.296875
5667		-25.390625
5668		-31.250000
5669		-27.343750
5670		-33.203125
5671		-29.296875
5672		-35.156250
5673		-31.250000
5674		-35.156250
5675		-31.250000
5676		-37.109375
5677		-33.203125
5678		-39.062500
5679		-35.156250
5680		-41.015625
5681		-35.156250
5682		-41.015625
5683		-37.109375
5684		-42.968750
5685		-39.062500
5686		-42.968750
5687		-39.062500
5688		-42.968750
5689		-39.062500
5690		-42.968750
5691		-41.015625
5692		-42.968750
5693		-41.015625
5694		-44.921875
5695		-41.015625
5696		-44.921875
5697		-41.015625
5698		-42.968750
5699		-41.015625
5700		-44.921875
5701		-41.015625
5702		-44.921875
5703		-41.015625
5704		-42.968750
5705		-41.015625
5706		-42.968750
5707		-39.062500
5708		-41.015625
5709		-39.062500
5710		-41.015625
5711		-37.109375
5712		-41.015625
5713		-37.109375
5714		-39.062500
5715		-35.156250
5716		-39.062500
5717		-33.203125
5718		-37.109375
5719		-33.203125
5720		-37.109375
5721		-31.250000
5722		-33.203125
5723		-29.296875
5724		-31.250000
5725		-29.296875
5726		-29.296875
5727		-25.390625
5728		-27.343750
5729		-23.437500
5730		-27.343750
5731		-21.484375
5732		-25.390625
5733		-19.531250
5734		-21.484375
5735		-17.578125
5736		-21.484375
5737		-15.625000
5738		-17.578125
5739		-11.718750
5740		-15.625000
5741		-11.718750
5742		-13.671875
5743		-7.812500
5744		-9.765625
5745		-3.906250
5746		-7.812500
5747		-3.906250
5748		-5.859375
5749		0.000000
5750		-1.953125
5751		1.953125
5752		0.000000
5753		5.859375
5754		1.953125
5755		7.812500
5756		5.859375
5757		9.765625
5758		7.812500
5759		11.718750
5760		9.765625
5761		15.625000
5762		11.718750
5763		19.531250
5764		15.625000
5765		21.484375
5766		17.578125
5767		23.437500
5768		19.531250
5769		27.343750
5770		23.437500
5771		29.296875
5772		25.390625
5773		31.250000
5774		27.343750
5775		33.203125
5776		31.250000
5777		35.156250
5778		33.203125
5779		39.062500
5780		33.203125
5781		41.015625
5782		37.109375
5783		41.015625
5784		39.062500
5785		44.921875
5786		41.015625
5787		46.875000
5788		42.968750
5789		48.828125
5790		44.921875
5791		48.828125
5792		46.875000
5793		50.781250
5794		48.828125
5795		52.734375
5796		50.781250
5797		54.687500
5798		50.781250
5799		56.640625
5800		52.734375
5801		58.593750
5802		54.687500
5803		58.593750
5804		56.640625
5805		60.546875
5806		56.640625
5807		60.546875
5808		58.593750
5809		60.546875
5810		58.593750
5811		62.500000
5812		58.593750
5813		64.453125
5814		58.593750
5815		64.453125
5816		60.546875
5817		64.453125
5818		60.546875
5819		64.453125
5820		60.546875
5821		66.406250
5822		60.546875
5823		66.406250
5824		62.500000
5825		64.453125
5826		62.500000
5827		64.453125
5828		60.546875
5829		64.453125
5830		60.546875
5831		64.453125
5832		60.546875
5833		62.500000
5834		60.546875
5835		62.500000
5836		60.546875
5837		62.500000
5838		58.593750
5839		62.500000
5840		56.640625
5841		60.546875
5842		56.640625
5843		60.546875
5844		56.640625
5845		58.593750
5846		54.687500
5847		58.593750
5848		52.734375
5849		56.640625
5850		50.781250
5851		54.687500
5852		50.781250
5853		52.734375
5854		48.828125
5855		50.781250
5856		46.875000
5857		50.781250
5858		44.921875
5859		48.828125
5860		42.968750
5861		46.875000
5862		41.015625
5863		44.921875
5864		39.062500
5865		42.968750
5866		37.109375
5867		39.062500
5868		33.203125
5869		37.109375
5870		31.250000
5871		35.156250
5872		29.296875
5873		33.203125
5874		27.343750
5875		31.250000
5876		23.437500
5877		27.343750
5878		21.484375
5879		25.390625
5880		17.578125
5881		23.437500
5882		15.625000
5883		21.484375
5884		13.671875
5885		17.578125
5886		11.718750
5887		15.625000
5888		7.812500
5889		13.671875
5890		5.859375
5891		9.765625
5892		3.906250
5893		7.812500
5894		0.000000
5895		5.859375
5896		-1.953125
5897		1.953125
5898		-3.906250
5899		0.000000
5900		-7.812500
5901		-3.906250
5902		-9.765625
5903		-5.859375
5904		-11.718750
5905		-7.812500
5906		-13.671875
5907		-11.718750
5908		-17.578125
5909		-13.671875
5910		-19.531250
5911		-15.625000
5912		-21.484375
5913		-17.578125
5914		-23.437500
5915		-19.531250
5916		-25.390625
5917		-21.484375
5918		-27.343750
5919		-23.437500
5920		-29.296875
5921		-25.390625
5922		-31.250000
5923		-27.343750
5924		-33.203125
5925		-29.296875
5926		-35.156250
5927		-31.250000
5928		-35.156250
5929		-33.203125
5930		-39.062500
5931		-31.250000
5932		-41.015625
5933		-33.203125
5934		-42.968750
5935		-33.203125
5936		-41.015625
5937		-37.109375
5938		-41.015625
5939		-39.062500
5940		-42.968750
5941		-39.062500
5942		-42.968750
5943		-41.015625
5944		-42.968750
5945		-41.015625
5946		-46.875000
5947		-39.062500
5948		-46.875000
5949		-39.062500
5950		-46.875000
5951		-39.062500
5952		-42.968750
5953		-41.015625
5954		-42.968750
5955		-41.015625
5956		-42.968750
5957		-41.015625
5958		-42.968750
5959		-41.015625
5960		-42.968750
5961		-39.062500
5962		-44.921875
5963		-35.156250
5964		-44.921875
5965		-35.156250
5966		-42.968750
5967		-35.156250
5968		-41.015625
5969		-33.203125
5970		-37.109375
5971		-33.203125
5972		-35.156250
5973		-33.203125
5974		-35.156250
5975		-31.250000
5976		-33.203125
5977		-29.296875
5978		-31.250000
5979		-27.343750
5980		-33.203125
5981		-23.437500
5982		-31.250000
5983		-19.531250
5984		-27.343750
5985		-19.531250
5986		-23.437500
5987		-19.531250
5988		-21.484375
5989		-17.578125
5990		-19.531250
5991		-15.625000
5992		-17.578125
5993		-13.671875
5994		-13.671875
5995		-9.765625
5996		-13.671875
5997		-3.906250
5998		-13.671875
5999		-1.953125
6000		-9.765625
6001		1.953125
6002		-7.812500
6003		0.000000
6004		-1.953125
6005		1.953125
6006		0.000000
6007		5.859375
6008		3.906250
6009		7.812500
6010		5.859375
6011		9.765625
6012		7.812500
6013		13.671875
6014		7.812500
6015		17.578125
6016		11.718750
6017		19.531250
6018		13.671875
6019		23.437500
6020		19.531250
6021		23.437500
6022		21.484375
6023		25.390625
6024		23.437500
6025		27.343750
6026		27.343750
6027		31.250000
6028		29.296875
6029		33.203125
6030		29.296875
6031		39.062500
6032		31.250000
6033		41.015625
6034		33.203125
6035		42.968750
6036		39.062500
6037		41.015625
6038		41.015625
6039		44.921875
6040		42.968750
6041		46.875000
6042		44.921875
6043		48.828125
6044		46.875000
6045		50.781250
6046		46.875000
6047		54.687500
6048		44.921875
6049		56.640625
6050		48.828125
6051		58.593750
6052		50.781250
6053		58.593750
6054		54.687500
6055		56.640625
6056		56.640625
6057		58.593750
6058		56.640625
6059		60.546875
6060		58.593750
6061		60.546875
6062		58.593750
6063		62.500000
6064		56.640625
6065		66.406250
6066		56.640625
6067		66.406250
6068		58.593750
6069		66.406250
6070		62.500000
6071		64.453125
6072		62.500000
6073		64.453125
6074		62.500000
6075		64.453125
6076		62.500000
6077		64.453125
6078		62.500000
6079		64.453125
6080		58.593750
6081		68.359375
6082		58.593750
6083		68.359375
6084		58.593750
6085		68.359375
6086		58.593750
6087		66.406250
6088		60.546875
6089		62.500000
6090		60.546875
6091		62.500000
6092		58.593750
6093		60.546875
6094		58.593750
6095		60.546875
6096		56.640625
6097		58.593750
6098		52.734375
6099		62.500000
6100		50.781250
6101		60.546875
6102		50.781250
6103		58.593750
6104		50.781250
6105		54.687500
6106		48.828125
6107		52.734375
6108		46.875000
6109		50.781250
6110		46.875000
6111		48.828125
6112		44.921875
6113		46.875000
6114		42.968750
6115		44.921875
6116		39.062500
6117		44.921875
6118		37.109375
6119		44.921875
6120		35.156250
6121		39.062500
6122		33.203125
6123		37.109375
6124		31.250000
6125		35.156250
6126		29.296875
6127		33.203125
6128		25.390625
6129		31.250000
6130		23.437500
6131		27.343750
6132		17.578125
6133		25.390625
6134		17.578125
6135		25.390625
6136		15.625000
6137		21.484375
6138		13.671875
6139		17.578125
6140		9.765625
6141		15.625000
6142		7.812500
6143		11.718750
6144		5.859375
6145		9.765625
6146		1.953125
6147		7.812500
6148		0.000000
6149		3.906250
6150		-3.906250
6151		1.953125
6152		-5.859375
6153		0.000000
6154		-7.812500
6155		-3.906250
6156		-9.765625
6157		-5.859375
6158		-13.671875
6159		-7.812500
6160		-15.625000
6161		-11.718750
6162		-17.578125
6163		-13.671875
6164		-19.531250
6165		-15.625000
6166		-21.484375
6167		-17.578125
6168		-23.437500
6169		-19.531250
6170		-25.390625
6171		-21.484375
6172		-29.296875
6173		-25.390625
6174		-29.296875
6175		-27.343750
6176		-31.250000
6177		-29.296875
6178		-33.203125
6179		-29.296875
6180		-35.156250
6181		-31.250000
6182		-37.109375
6183		-31.250000
6184		-37.109375
6185		-35.156250
6186		-39.062500
6187		-35.156250
6188		-39.062500
6189		-37.109375
6190		-41.015625
6191		-37.109375
6192		-42.968750
6193		-39.062500
6194		-42.968750
6195		-39.062500
6196		-42.968750
6197		-41.015625
6198		-42.968750
6199		-41.015625
6200		-44.921875
6201		-41.015625
6202		-44.921875
6203		-41.015625
6204		-44.921875
6205		-41.015625
6206		-44.921875
6207		-41.015625
6208		-42.968750
6209		-41.015625
6210		-42.968750
6211		-39.062500
6212		-42.968750
6213		-39.062500
6214		-42.968750
6215		-39.062500
6216		-41.015625
6217		-37.109375
6218		-41.015625
6219		-37.109375
6220		-39.062500
6221		-37.109375
6222		-39.062500
6223		-35.156250
6224		-37.109375
6225		-33.203125
6226		-35.156250
6227		-33.203125
6228		-33.203125
6229		-31.250000
6230		-31.250000
6231		-29.296875
6232		-31.250000
6233		-27.343750
6234		-29.296875
6235		-25.390625
6236		-27.343750
6237		-23.437500
6238		-25.390625
6239		-19.531250
6240		-23.437500
6241		-19.531250
6242		-21.484375
6243		-15.625000
6244		-17.578125
6245		-13.671875
6246		-15.625000
6247		-11.718750
6248		-13.671875
6249		-7.812500
6250		-11.718750
6251		-5.859375
6252		-7.812500
6253		-3.906250
6254		-5.859375
6255		-1.953125
6256		-3.906250
6257		1.953125
6258		0.000000
6259		3.906250
6260		1.953125
6261		5.859375
6262		3.906250
6263		9.765625
6264		7.812500
6265		11.718750
6266		7.812500
6267		13.671875
6268		11.718750
6269		15.625000
6270		15.625000
6271		19.531250
6272		17.578125
6273		21.484375
6274		19.531250
6275		23.437500
6276		23.437500
6277		27.343750
6278		25.390625
6279		29.296875
6280		27.343750
6281		31.250000
6282		29.296875
6283		35.156250
6284		31.250000
6285		37.109375
6286		35.156250
6287		39.062500
6288		37.109375
6289		41.015625
6290		39.062500
6291		42.968750
6292		41.015625
6293		44.921875
6294		42.968750
6295		46.875000
6296		44.921875
6297		48.828125
6298		46.875000
6299		52.734375
6300		48.828125
6301		52.734375
6302		50.781250
6303		52.734375
6304		50.781250
6305		56.640625
6306		52.734375
6307		56.640625
6308		54.687500
6309		58.593750
6310		56.640625
6311		60.546875
6312		56.640625
6313		60.546875
6314		58.593750
6315		60.546875
6316		56.640625
6317		62.500000
6318		60.546875
6319		62.500000
6320		60.546875
6321		62.500000
6322		60.546875
6323		64.453125
6324		60.546875
6325		64.453125
6326		62.500000
6327		64.453125
6328		62.500000
6329		64.453125
6330		62.500000
6331		64.453125
6332		60.546875
6333		66.406250
6334		62.500000
6335		64.453125
6336		60.546875
6337		64.453125
6338		60.546875
6339		64.453125
6340		60.546875
6341		64.453125
6342		60.546875
6343		62.500000
6344		58.593750
6345		62.500000
6346		58.593750
6347		60.546875
6348		56.640625
6349		60.546875
6350		54.687500
6351		60.546875
6352		54.687500
6353		58.593750
6354		54.687500
6355		56.640625
6356		52.734375
6357		56.640625
6358		50.781250
6359		54.687500
6360		48.828125
6361		52.734375
6362		46.875000
6363		50.781250
6364		44.921875
6365		48.828125
6366		42.968750
6367		46.875000
6368		41.015625
6369		46.875000
6370		39.062500
6371		42.968750
6372		37.109375
6373		41.015625
6374		35.156250
6375		39.062500
6376		33.203125
6377		37.109375
6378		29.296875
6379		35.156250
6380		27.343750
6381		31.250000
6382		23.437500
6383		29.296875
6384		21.484375
6385		27.343750
6386		21.484375
6387		25.390625
6388		17.578125
6389		21.484375
6390		13.671875
6391		19.531250
6392		11.718750
6393		17.578125
6394		9.765625
6395		13.671875
6396		7.812500
6397		11.718750
6398		5.859375
6399		9.765625
6400		1.953125
6401		5.859375
6402		0.000000
6403		3.906250
6404		-3.906250
6405		1.953125
6406		-5.859375
6407		-1.953125
6408		-7.812500
6409		-3.906250
6410		-11.718750
6411		-7.812500
6412		-13.671875
6413		-9.765625
6414		-15.625000
6415		-11.718750
6416		-17.578125
6417		-13.671875
6418		-21.484375
6419		-15.625000
6420		-23.437500
6421		-17.578125
6422		-25.390625
6423		-21.484375
6424		-27.343750
6425		-23.437500
6426		-29.296875
6427		-25.390625
6428		-29.296875
6429		-27.343750
6430		-31.250000
6431		-29.296875
6432		-33.203125
6433		-29.296875
6434		-35.156250
6435		-31.250000
6436		-37.109375
6437		-33.203125
6438		-37.109375
6439		-35.156250
6440		-39.062500
6441		-35.156250
6442		-39.062500
6443		-37.109375
6444		-41.015625
6445		-37.109375
6446		-41.015625
6447		-39.062500
6448		-42.968750
6449		-39.062500
6450		-42.968750
6451		-39.062500
6452		-42.968750
6453		-41.015625
6454		-42.968750
6455		-41.015625
6456		-44.921875
6457		-41.015625
6458		-42.968750
6459		-41.015625
6460		-42.968750
6461		-41.015625
6462		-42.968750
6463		-41.015625
6464		-42.968750
6465		-41.015625
6466		-42.968750
6467		-39.062500
6468		-41.015625
6469		-39.062500
6470		-41.015625
6471		-37.109375
6472		-41.015625
6473		-37.109375
6474		-39.062500
6475		-35.156250
6476		-37.109375
6477		-35.156250
6478		-37.109375
6479		-33.203125
6480		-35.156250
6481		-31.250000
6482		-33.203125
6483		-29.296875
6484		-31.250000
6485		-27.343750
6486		-29.296875
6487		-27.343750
6488		-27.343750
6489		-23.437500
6490		-25.390625
6491		-21.484375
6492		-23.437500
6493		-19.531250
6494		-21.484375
6495		-17.578125
6496		-19.531250
6497		-15.625000
6498		-17.578125
6499		-13.671875
6500		-15.625000
6501		-11.718750
6502		-13.671875
6503		-7.812500
6504		-9.765625
6505		-5.859375
6506		-7.812500
6507		-3.906250
6508		-5.859375
6509		0.000000
6510		-1.953125
6511		1.953125
6512		0.000000
6513		3.906250
6514		1.953125
6515		5.859375
6516		5.859375
6517		9.765625
6518		5.859375
6519		11.718750
6520		9.765625
6521		15.625000
6522		13.671875
6523		17.578125
6524		15.625000
6525		19.531250
6526		19.531250
6527		23.437500
6528		21.484375
6529		25.390625
6530		23.437500
6531		27.343750
6532		25.390625
6533		29.296875
6534		29.296875
6535		33.203125
6536		31.250000
6537		35.156250
6538		33.203125
6539		37.109375
6540		35.156250
6541		39.062500
6542		37.109375
6543		41.015625
6544		39.062500
6545		42.968750
6546		41.015625
6547		44.921875
6548		42.968750
6549		46.875000
6550		46.875000
6551		48.828125
6552		46.875000
6553		52.734375
6554		48.828125
6555		52.734375
6556		50.781250
6557		54.687500
6558		52.734375
6559		56.640625
6560		54.687500
6561		56.640625
6562		54.687500
6563		58.593750
6564		56.640625
6565		58.593750
6566		56.640625
6567		60.546875
6568		56.640625
6569		62.500000
6570		58.593750
6571		64.453125
6572		60.546875
6573		62.500000
6574		60.546875
6575		64.453125
6576		62.500000
6577		64.453125
6578		62.500000
6579		64.453125
6580		62.500000
6581		64.453125
6582		62.500000
6583		64.453125
6584		60.546875
6585		66.406250
6586		60.546875
6587		66.406250
6588		62.500000
6589		64.453125
6590		62.500000
6591		64.453125
6592		60.546875
6593		64.453125
6594		60.546875
6595		62.500000
6596		60.546875
6597		62.500000
6598		58.593750
6599		62.500000
6600		58.593750
6601		62.500000
6602		56.640625
6603		62.500000
6604		54.687500
6605		60.546875
6606		54.687500
6607		58.593750
6608		52.734375
6609		56.640625
6610		52.734375
6611		54.687500
6612		50.781250
6613		54.687500
6614		48.828125
6615		52.734375
6616		46.875000
6617		50.781250
6618		42.968750
6619		48.828125
6620		41.015625
6621		48.828125
6622		41.015625
6623		44.921875
6624		39.062500
6625		42.968750
6626		37.109375
6627		41.015625
6628		35.156250
6629		39.062500
6630		31.250000
6631		37.109375
6632		29.296875
6633		33.203125
6634		27.343750
6635		31.250000
6636		23.437500
6637		31.250000
6638		21.484375
6639		27.343750
6640		19.531250
6641		23.437500
6642		17.578125
6643		21.484375
6644		15.625000
6645		19.531250
6646		11.718750
6647		15.625000
6648		9.765625
6649		13.671875
6650		5.859375
6651		11.718750
6652		1.953125
6653		9.765625
6654		0.000000
6655		5.859375
6656		-1.953125
6657		3.906250
6658		-3.906250
6659		0.000000
6660		-5.859375
6661		-1.953125
6662		-9.765625
6663		-5.859375
6664		-11.718750
6665		-7.812500
6666		-13.671875
6667		-9.765625
6668		-17.578125
6669		-11.718750
6670		-19.531250
6671		-13.671875
6672		-21.484375
6673		-15.625000
6674		-23.437500
6675		-19.531250
6676		-25.390625
6677		-21.484375
6678		-27.343750
6679		-23.437500
6680		-29.296875
6681		-25.390625
6682		-31.250000
6683		-27.343750
6684		-33.203125
6685		-29.296875
6686		-35.156250
6687		-29.296875
6688		-37.109375
6689		-31.250000
6690		-37.109375
6691		-33.203125
6692		-39.062500
6693		-35.156250
6694		-39.062500
6695		-37.109375
6696		-41.015625
6697		-37.109375
6698		-41.015625
6699		-39.062500
6700		-42.968750
6701		-39.062500
6702		-44.921875
6703		-37.109375
6704		-44.921875
6705		-39.062500
6706		-42.968750
6707		-41.015625
6708		-42.968750
6709		-41.015625
6710		-42.968750
6711		-41.015625
6712		-42.968750
6713		-41.015625
6714		-42.968750
6715		-41.015625
6716		-42.968750
6717		-41.015625
6718		-42.968750
6719		-41.015625
6720		-42.968750
6721		-37.109375
6722		-42.968750
6723		-37.109375
6724		-41.015625
6725		-37.109375
6726		-39.062500
6727		-37.109375
6728		-39.062500
6729		-35.156250
6730		-37.109375
6731		-33.203125
6732		-35.156250
6733		-33.203125
6734		-35.156250
6735		-31.250000
6736		-33.203125
6737		-29.296875
6738		-31.250000
6739		-27.343750
6740		-29.296875
6741		-25.390625
6742		-27.343750
6743		-23.437500
6744		-25.390625
6745		-21.484375
6746		-23.437500
6747		-19.531250
6748		-21.484375
6749		-17.578125
6750		-19.531250
6751		-15.625000
6752		-17.578125
6753		-11.718750
6754		-13.671875
6755		-9.765625
6756		-11.718750
6757		-7.812500
6758		-9.765625
6759		-5.859375
6760		-7.812500
6761		-1.953125
6762		-3.906250
6763		0.000000
6764		-1.953125
6765		1.953125
6766		0.000000
6767		3.906250
6768		3.906250
6769		7.812500
6770		5.859375
6771		9.765625
6772		7.812500
6773		11.718750
6774		11.718750
6775		15.625000
6776		13.671875
6777		17.578125
6778		15.625000
6779		21.484375
6780		19.531250
6781		23.437500
6782		21.484375
6783		25.390625
6784		23.437500
6785		27.343750
6786		27.343750
6787		31.250000
6788		29.296875
6789		33.203125
6790		31.250000
6791		35.156250
6792		33.203125
6793		37.109375
6794		35.156250
6795		39.062500
6796		39.062500
6797		42.968750
6798		41.015625
6799		42.968750
6800		41.015625
6801		46.875000
6802		44.921875
6803		46.875000
6804		46.875000
6805		48.828125
6806		48.828125
6807		50.781250
6808		48.828125
6809		52.734375
6810		50.781250
6811		54.687500
6812		52.734375
6813		56.640625
6814		54.687500
6815		56.640625
6816		54.687500
6817		58.593750
6818		56.640625
6819		60.546875
6820		56.640625
6821		60.546875
6822		58.593750
6823		60.546875
6824		58.593750
6825		62.500000
6826		60.546875
6827		62.500000
6828		60.546875
6829		62.500000
6830		60.546875
6831		64.453125
6832		62.500000
6833		64.453125
6834		62.500000
6835		64.453125
6836		62.500000
6837		66.406250
6838		62.500000
6839		64.453125
6840		62.500000
6841		64.453125
6842		62.500000
6843		64.453125
6844		62.500000
6845		64.453125
6846		60.546875
6847		64.453125
6848		60.546875
6849		62.500000
6850		60.546875
6851		62.500000
6852		58.593750
6853		62.500000
6854		58.593750
6855		60.546875
6856		56.640625
6857		58.593750
6858		54.687500
6859		58.593750
6860		54.687500
6861		58.593750
6862		52.734375
6863		56.640625
6864		50.781250
6865		54.687500
6866		48.828125
6867		52.734375
6868		48.828125
6869		50.781250
6870		46.875000
6871		48.828125
6872		44.921875
6873		48.828125
6874		42.968750
6875		44.921875
6876		41.015625
6877		44.921875
6878		37.109375
6879		41.015625
6880		35.156250
6881		39.062500
6882		33.203125
6883		37.109375
6884		31.250000
6885		35.156250
6886		29.296875
6887		33.203125
6888		25.390625
6889		29.296875
6890		23.437500
6891		27.343750
6892		21.484375
6893		25.390625
6894		19.531250
6895		23.437500
6896		15.625000
6897		19.531250
6898		13.671875
6899		17.578125
6900		9.765625
6901		15.625000
6902		7.812500
6903		11.718750
6904		5.859375
6905		9.765625
6906		1.953125
6907		7.812500
6908		0.000000
6909		3.906250
6910		-1.953125
6911		1.953125
6912		-5.859375
6913		-1.953125
6914		-7.812500
6915		-3.906250
6916		-9.765625
6917		-5.859375
6918		-11.718750
6919		-7.812500
6920		-15.625000
6921		-11.718750
6922		-17.578125
6923		-13.671875
6924		-19.531250
6925		-15.625000
6926		-21.484375
6927		-17.578125
6928		-23.437500
6929		-19.531250
6930		-25.390625
6931		-21.484375
6932		-27.343750
6933		-23.437500
6934		-29.296875
6935		-25.390625
6936		-31.250000
6937		-27.343750
6938		-33.203125
6939		-29.296875
6940		-35.156250
6941		-31.250000
6942		-35.156250
6943		-33.203125
6944		-37.109375
6945		-35.156250
6946		-39.062500
6947		-35.156250
6948		-39.062500
6949		-37.109375
6950		-41.015625
6951		-39.062500
6952		-41.015625
6953		-39.062500
6954		-42.968750
6955		-39.062500
6956		-42.968750
6957		-41.015625
6958		-42.968750
6959		-41.015625
6960		-42.968750
6961		-41.015625
6962		-42.968750
6963		-41.015625
6964		-44.921875
6965		-41.015625
6966		-42.968750
6967		-41.015625
6968		-42.968750
6969		-41.015625
6970		-42.968750
6971		-41.015625
6972		-42.968750
6973		-41.015625
6974		-42.968750
6975		-39.062500
6976		-41.015625
6977		-39.062500
6978		-41.015625
6979		-37.109375
6980		-39.062500
6981		-37.109375
6982		-39.062500
6983		-35.156250
6984		-37.109375
6985		-33.203125
6986		-35.156250
6987		-33.203125
6988		-33.203125
6989		-31.250000
6990		-33.203125
6991		-29.296875
6992		-31.250000
6993		-27.343750
6994		-29.296875
6995		-25.390625
6996		-27.343750
6997		-23.437500
6998		-25.390625
6999		-21.484375
7000		-23.437500
7001		-19.531250
7002		-21.484375
7003		-17.578125
7004		-19.531250
7005		-13.671875
7006		-15.625000
7007		-11.718750
7008		-13.671875
7009		-9.765625
7010		-11.718750
7011		-7.812500
7012		-9.765625
7013		-5.859375
7014		-5.859375
7015		-1.953125
7016		-3.906250
7017		0.000000
7018		-1.953125
7019		3.906250
7020		1.953125
7021		5.859375
7022		3.906250
7023		7.812500
7024		5.859375
7025		9.765625
7026		9.765625
7027		13.671875
7028		11.718750
7029		15.625000
7030		13.671875
7031		17.578125
7032		17.578125
7033		21.484375
7034		19.531250
7035		23.437500
7036		21.484375
7037		25.390625
7038		25.390625
7039		29.296875
7040		27.343750
7041		31.250000
7042		29.296875
7043		33.203125
7044		31.250000
7045		35.156250
7046		33.203125
7047		39.062500
7048		37.109375
7049		41.015625
7050		39.062500
7051		42.968750
7052		41.015625
7053		44.921875
7054		42.968750
7055		46.875000
7056		44.921875
7057		48.828125
7058		46.875000
7059		50.781250
7060		48.828125
7061		50.781250
7062		50.781250
7063		52.734375
7064		50.781250
7065		54.687500
7066		52.734375
7067		56.640625
7068		54.687500
7069		56.640625
7070		56.640625
7071		58.593750
7072		56.640625
7073		60.546875
7074		58.593750
7075		60.546875
7076		58.593750
7077		62.500000
7078		60.546875
7079		62.500000
7080		60.546875
7081		62.500000
7082		60.546875
7083		64.453125
7084		62.500000
7085		64.453125
7086		62.500000
7087		64.453125
7088		62.500000
7089		64.453125
7090		62.500000
7091		64.453125
7092		62.500000
7093		64.453125
7094		62.500000
7095		64.453125
7096		62.500000
7097		64.453125
7098		60.546875
7099		64.453125
7100		60.546875
7101		62.500000
7102		60.546875
7103		62.500000
7104		58.593750
7105		62.500000
7106		58.593750
7107		60.546875
7108		56.640625
7109		60.546875
7110		56.640625
7111		58.593750
7112		54.687500
7113		58.593750
7114		54.687500
7115		56.640625
7116		52.734375
7117		54.687500
7118		50.781250
7119		54.687500
7120		48.828125
7121		52.734375
7122		46.875000
7123		50.781250
7124		44.921875
7125		48.828125
7126		42.968750
7127		46.875000
7128		41.015625
7129		44.921875
7130		39.062500
7131		42.968750
7132		37.109375
7133		41.015625
7134		35.156250
7135		39.062500
7136		33.203125
7137		37.109375
7138		31.250000
7139		35.156250
7140		27.343750
7141		31.250000
7142		25.390625
7143		29.296875
7144		23.437500
7145		27.343750
7146		21.484375
7147		25.390625
7148		17.578125
7149		21.484375
7150		15.625000
7151		19.531250
7152		11.718750
7153		17.578125
7154		9.765625
7155		13.671875
7156		7.812500
7157		11.718750
7158		5.859375
7159		9.765625
7160		1.953125
7161		5.859375
7162		0.000000
7163		3.906250
7164		-3.906250
7165		1.953125
7166		-5.859375
7167		-1.953125
7168		-7.812500
7169		-3.906250
7170		-11.718750
7171		-5.859375
7172		-13.671875
7173		-9.765625
7174		-15.625000
7175		-11.718750
7176		-17.578125
7177		-13.671875
7178		-19.531250
7179		-15.625000
7180		-21.484375
7181		-17.578125
7182		-23.437500
7183		-19.531250
7184		-27.343750
7185		-23.437500
7186		-27.343750
7187		-25.390625
7188		-31.250000
7189		-27.343750
7190		-31.250000
7191		-29.296875
7192		-33.203125
7193		-31.250000
7194		-35.156250
7195		-31.250000
7196		-37.109375
7197		-33.203125
7198		-37.109375
7199		-35.156250
7200		-39.062500
7201		-37.109375
7202		-41.015625
7203		-37.109375
7204		-41.015625
7205		-39.062500
7206		-42.968750
7207		-39.062500
7208		-42.968750
7209		-39.062500
7210		-42.968750
7211		-41.015625
7212		-42.968750
7213		-41.015625
7214		-42.968750
7215		-41.015625
7216		-42.968750
7217		-41.015625
7218		-44.921875
7219		-41.015625
7220		-42.968750
7221		-41.015625
7222		-42.968750
7223		-41.015625
7224		-42.968750
7225		-41.015625
7226		-42.968750
7227		-41.015625
7228		-41.015625
7229		-39.062500
7230		-41.015625
7231		-39.062500
7232		-41.015625
7233		-37.109375
7234		-39.062500
7235		-37.109375
7236		-39.062500
7237		-35.156250
7238		-37.109375
7239		-33.203125
7240		-35.156250
7241		-31.250000
7242		-33.203125
7243		-31.250000
7244		-33.203125
7245		-29.296875
7246		-31.250000
7247		-27.343750
7248		-29.296875
7249		-25.390625
7250		-27.343750
7251		-23.437500
7252		-25.390625
7253		-21.484375
7254		-23.437500
7255		-19.531250
7256		-19.531250
7257		-15.625000
7258		-17.578125
7259		-13.671875
7260		-15.625000
7261		-11.718750
7262		-13.671875
7263		-9.765625
7264		-11.718750
7265		-7.812500
7266		-7.812500
7267		-3.906250
7268		-5.859375
7269		-1.953125
7270		-3.906250
7271		0.000000
7272		-1.953125
7273		3.906250
7274		1.953125
7275		5.859375
7276		3.906250
7277		7.812500
7278		7.812500
7279		11.718750
7280		9.765625
7281		13.671875
7282		11.718750
7283		15.625000
7284		15.625000
7285		19.531250
7286		17.578125
7287		21.484375
7288		19.531250
7289		23.437500
7290		23.437500
7291		27.343750
7292		25.390625
7293		29.296875
7294		27.343750
7295		31.250000
7296		29.296875
7297		33.203125
7298		31.250000
7299		37.109375
7300		35.156250
7301		39.062500
7302		37.109375
7303		41.015625
7304		39.062500
7305		42.968750
7306		41.015625
7307		44.921875
7308		42.968750
7309		46.875000
7310		44.921875
7311		48.828125
7312		46.875000
7313		50.781250
7314		48.828125
7315		52.734375
7316		50.781250
7317		52.734375
7318		52.734375
7319		54.687500
7320		52.734375
7321		56.640625
7322		54.687500
7323		56.640625
7324		56.640625
7325		58.593750
7326		56.640625
7327		60.546875
7328		56.640625
7329		60.546875
7330		58.593750
7331		62.500000
7332		60.546875
7333		62.500000
7334		60.546875
7335		62.500000
7336		60.546875
7337		62.500000
7338		60.546875
7339		64.453125
7340		62.500000
7341		64.453125
7342		62.500000
7343		64.453125
7344		62.500000
7345		64.453125
7346		62.500000
7347		64.453125
7348		62.500000
7349		64.453125
7350		62.500000
7351		64.453125
7352		60.546875
7353		62.500000
7354		60.546875
7355		62.500000
7356		60.546875
7357		62.500000
7358		58.593750
7359		60.546875
7360		58.593750
7361		60.546875
7362		56.640625
7363		60.546875
7364		54.687500
7365		58.593750
7366		54.687500
7367		56.640625
7368		52.734375
7369		56.640625
7370		52.734375
7371		54.687500
7372		50.781250
7373		52.734375
7374		48.828125
7375		52.734375
7376		46.875000
7377		50.781250
7378		44.921875
7379		48.828125
7380		42.968750
7381		46.875000
7382		41.015625
7383		44.921875
7384		39.062500
7385		42.968750
7386		37.109375
7387		41.015625
7388		33.203125
7389		39.062500
7390		31.250000
7391		37.109375
7392		29.296875
7393		33.203125
7394		27.343750
7395		31.250000
7396		25.390625
7397		29.296875
7398		21.484375
7399		25.390625
7400		19.531250
7401		23.437500
7402		17.578125
7403		21.484375
7404		13.671875
7405		19.531250
7406		11.718750
7407		15.625000
7408		9.765625
7409		13.671875
7410		5.859375
7411		9.765625
7412		3.906250
7413		7.812500
7414		1.953125
7415		5.859375
7416		-1.953125
7417		3.906250
7418		-3.906250
7419		0.000000
7420		-5.859375
7421		-1.953125
7422		-9.765625
7423		-5.859375
7424		-11.718750
7425		-7.812500
7426		-13.671875
7427		-9.765625
7428		-15.625000
7429		-11.718750
7430		-17.578125
7431		-13.671875
7432		-21.484375
7433		-17.578125
7434		-23.437500
7435		-19.531250
7436		-25.390625
7437		-21.484375
7438		-27.343750
7439		-23.437500
7440		-29.296875
7441		-25.390625
7442		-31.250000
7443		-27.343750
7444		-33.203125
7445		-29.296875
7446		-35.156250
7447		-31.250000
7448		-35.156250
7449		-31.250000
7450		-37.109375
7451		-33.203125
7452		-39.062500
7453		-35.156250
7454		-39.062500
7455		-37.109375
7456		-41.015625
7457		-37.109375
7458		-42.968750
7459		-39.062500
7460		-42.968750
7461		-39.062500
7462		-42.968750
7463		-41.015625
7464		-42.968750
7465		-41.015625
7466		-42.968750
7467		-41.015625
7468		-44.921875
7469		-41.015625
7470		-44.921875
7471		-41.015625
7472		-44.921875
7473		-41.015625
7474		-44.921875
7475		-41.015625
7476		-42.968750
7477		-41.015625
7478		-42.968750
7479		-41.015625
7480		-42.968750
7481		-39.062500
7482		-41.015625
7483		-39.062500
7484		-41.015625
7485		-39.062500
7486		-41.015625
7487		-37.109375
7488		-39.062500
7489		-37.109375
7490		-37.109375
7491		-35.156250
7492		-37.109375
7493		-33.203125
7494		-35.156250
7495		-31.250000
7496		-33.203125
7497		-29.296875
7498		-31.250000
7499		-29.296875
7500		-29.296875
7501		-27.343750
7502		-27.343750
7503		-25.390625
7504		-27.343750
7505		-23.437500
7506		-23.437500
7507		-21.484375
7508		-21.484375
7509		-17.578125
7510		-19.531250
7511		-15.625000
7512		-17.578125
7513		-13.671875
7514		-15.625000
7515		-11.718750
7516		-13.671875
7517		-9.765625
7518		-11.718750
7519		-5.859375
7520		-7.812500
7521		-3.906250
7522		-5.859375
7523		0.000000
7524		-1.953125
7525		1.953125
7526		0.000000
7527		3.906250
7528		1.953125
7529		7.812500
7530		3.906250
7531		9.765625
7532		7.812500
7533		11.718750
7534		9.765625
7535		13.671875
7536		13.671875
7537		17.578125
7538		15.625000
7539		19.531250
7540		17.578125
7541		23.437500
7542		21.484375
7543		25.390625
7544		23.437500
7545		27.343750
7546		25.390625
7547		29.296875
7548		27.343750
7549		33.203125
7550		31.250000
7551		35.156250
7552		33.203125
7553		37.109375
7554		35.156250
7555		39.062500
7556		37.109375
7557		41.015625
7558		39.062500
7559		42.968750
7560		41.015625
7561		44.921875
7562		42.968750
7563		46.875000
7564		44.921875
7565		48.828125
7566		46.875000
7567		50.781250
7568		48.828125
7569		52.734375
7570		50.781250
7571		54.687500
7572		52.734375
7573		54.687500
7574		54.687500
7575		56.640625
7576		54.687500
7577		58.593750
7578		56.640625
7579		58.593750
7580		56.640625
7581		60.546875
7582		56.640625
7583		60.546875
7584		58.593750
7585		62.500000
7586		58.593750
7587		62.500000
7588		60.546875
7589		62.500000
7590		60.546875
7591		64.453125
7592		62.500000
7593		64.453125
7594		62.500000
7595		64.453125
7596		62.500000
7597		64.453125
7598		60.546875
7599		66.406250
7600		62.500000
7601		64.453125
7602		60.546875
7603		66.406250
7604		60.546875
7605		64.453125
7606		58.593750
7607		66.406250
7608		60.546875
7609		62.500000
7610		58.593750
7611		62.500000
7612		58.593750
7613		62.500000
7614		56.640625
7615		62.500000
7616		56.640625
7617		60.546875
7618		54.687500
7619		58.593750
7620		54.687500
7621		56.640625
7622		52.734375
7623		58.593750
7624		50.781250
7625		54.687500
7626		48.828125
7627		52.734375
7628		46.875000
7629		52.734375
7630		44.921875
7631		50.781250
7632		44.921875
7633		48.828125
7634		41.015625
7635		46.875000
7636		39.062500
7637		44.921875
7638		35.156250
7639		42.968750
7640		37.109375
7641		39.062500
7642		33.203125
7643		37.109375
7644		31.250000
7645		35.156250
7646		27.343750
7647		35.156250
7648		25.390625
7649		33.203125
7650		23.437500
7651		29.296875
7652		19.531250
7653		25.390625
7654		19.531250
7655		23.437500
7656		15.625000
7657		23.437500
7658		13.671875
7659		17.578125
7660		9.765625
7661		15.625000
7662		5.859375
7663		13.671875
7664		3.906250
7665		11.718750
7666		1.953125
7667		7.812500
7668		0.000000
7669		3.906250
7670		-3.906250
7671		5.859375
7672		-7.812500
7673		0.000000
7674		-7.812500
7675		-3.906250
7676		-9.765625
7677		-5.859375
7678		-13.671875
7679		-7.812500
7680		-15.625000
7681		-9.765625
7682		-17.578125
7683		-11.718750
7684		-19.531250
7685		-15.625000
7686		-23.437500
7687		-15.625000
7688		-23.437500
7689		-19.531250
7690		-27.343750
7691		-19.531250
7692		-27.343750
7693		-23.437500
7694		-31.250000
7695		-25.390625
7696		-35.156250
7697		-25.390625
7698		-33.203125
7699		-29.296875
7700		-35.156250
7701		-31.250000
7702		-39.062500
7703		-31.250000
7704		-39.062500
7705		-31.250000
7706		-41.015625
7707		-33.203125
7708		-39.062500
7709		-37.109375
7710		-41.015625
7711		-39.062500
7712		-42.968750
7713		-39.062500
7714		-46.875000
7715		-37.109375
7716		-42.968750
7717		-39.062500
7718		-44.921875
7719		-41.015625
7720		-46.875000
7721		-37.109375
7722		-46.875000
7723		-37.109375
7724		-44.921875
7725		-41.015625
7726		-44.921875
7727		-41.015625
7728		-44.921875
7729		-41.015625
7730		-44.921875
7731		-37.109375
7732		-44.921875
7733		-39.062500
7734		-42.968750
7735		-41.015625
7736		-44.921875
7737		-35.156250
7738		-44.921875
7739		-35.156250
7740		-42.968750
7741		-35.156250
7742		-39.062500
7743		-35.156250
7744		-37.109375
7745		-33.203125
7746		-37.109375
7747		-31.250000
7748		-39.062500
7749		-29.296875
7750		-33.203125
7751		-29.296875
7752		-31.250000
7753		-27.343750
7754		-33.203125
7755		-23.437500
7756		-29.296875
7757		-21.484375
7758		-25.390625
7759		-21.484375
7760		-23.437500
7761		-19.531250
7762		-21.484375
7763		-17.578125
7764		-21.484375
7765		-13.671875
7766		-17.578125
7767		-13.671875
7768		-15.625000
7769		-11.718750
7770		-13.671875
7771		-5.859375
7772		-11.718750
7773		-5.859375
7774		-7.812500
7775		-1.953125
7776		-5.859375
7777		0.000000
7778		-1.953125
7779		3.906250
7780		0.000000
7781		7.812500
7782		1.953125
7783		7.812500
7784		5.859375
7785		9.765625
7786		7.812500
7787		15.625000
7788		7.812500
7789		17.578125
7790		11.718750
7791		19.531250
7792		15.625000
7793		19.531250
7794		19.531250
7795		23.437500
7796		21.484375
7797		25.390625
7798		21.484375
7799		29.296875
7800		25.390625
7801		31.250000
7802		29.296875
7803		33.203125
7804		29.296875
7805		37.109375
7806		33.203125
7807		41.015625
7808		35.156250
7809		39.062500
7810		37.109375
7811		41.015625
7812		41.015625
7813		44.921875
7814		41.015625
7815		48.828125
7816		42.968750
7817		48.828125
7818		44.921875
7819		48.828125
7820		46.875000
7821		52.734375
7822		46.875000
7823		54.687500
7824		48.828125
7825		56.640625
7826		52.734375
7827		56.640625
7828		54.687500
7829		56.640625
7830		54.687500
7831		58.593750
7832		54.687500
7833		62.500000
7834		56.640625
7835		60.546875
7836		58.593750
7837		62.500000
7838		56.640625
7839		64.453125
7840		58.593750
7841		64.453125
7842		60.546875
7843		62.500000
7844		60.546875
7845		64.453125
7846		60.546875
7847		64.453125
7848		58.593750
7849		66.406250
7850		58.593750
7851		66.406250
7852		62.500000
7853		64.453125
7854		60.546875
7855		66.406250
7856		60.546875
7857		64.453125
7858		58.593750
7859		66.406250
7860		60.546875
7861		62.500000
7862		60.546875
7863		62.500000
7864		56.640625
7865		64.453125
7866		56.640625
7867		62.500000
7868		56.640625
7869		60.546875
7870		54.687500
7871		60.546875
7872		54.687500
7873		58.593750
7874		52.734375
7875		56.640625
7876		52.734375
7877		54.687500
7878		50.781250
7879		54.687500
7880		48.828125
7881		52.734375
7882		46.875000
7883		50.781250
7884		44.921875
7885		50.781250
7886		42.968750
7887		46.875000
7888		41.015625
7889		46.875000
7890		39.062500
7891		42.968750
7892		37.109375
7893		41.015625
7894		35.156250
7895		39.062500
7896		33.203125
7897		37.109375
7898		31.250000
7899		35.156250
7900		27.343750
7901		31.250000
7902		25.390625
7903		29.296875
7904		23.437500
7905		27.343750
7906		21.484375
7907		25.390625
7908		17.578125
7909		21.484375
7910		15.625000
7911		19.531250
7912		11.718750
7913		17.578125
7914		9.765625
7915		13.671875
7916		7.812500
7917		11.718750
7918		3.906250
7919		9.765625
7920		1.953125
7921		5.859375
7922		0.000000
7923		3.906250
7924		-3.906250
7925		1.953125
7926		-5.859375
7927		-1.953125
7928		-7.812500
7929		-3.906250
7930		-11.718750
7931		-5.859375
7932		-13.671875
7933		-7.812500
7934		-15.625000
7935		-9.765625
7936		-19.531250
7937		-13.671875
7938		-21.484375
7939		-15.625000
7940		-23.437500
7941		-17.578125
7942		-25.390625
7943		-19.531250
7944		-27.343750
7945		-23.437500
7946		-29.296875
7947		-25.390625
7948		-31.250000
7949		-25.390625
7950		-33.203125
7951		-27.343750
7952		-35.156250
7953		-29.296875
7954		-37.109375
7955		-31.250000
7956		-37.109375
7957		-33.203125
7958		-39.062500
7959		-33.203125
7960		-39.062500
7961		-37.109375
7962		-41.015625
7963		-37.109375
7964		-42.968750
7965		-37.109375
7966		-42.968750
7967		-39.062500
7968		-44.921875
7969		-39.062500
7970		-44.921875
7971		-39.062500
7972		-44.921875
7973		-41.015625
7974		-44.921875
7975		-41.015625
7976		-44.921875
7977		-41.015625
7978		-44.921875
7979		-42.968750
7980		-44.921875
7981		-41.015625
7982		-44.921875
7983		-41.015625
7984		-44.921875
7985		-39.062500
7986		-44.921875
7987		-39.062500
7988		-42.968750
7989		-39.062500
7990		-42.968750
7991		-37.109375
7992		-42.968750
7993		-37.109375
7994		-39.062500
7995		-37.109375
7996		-39.062500
7997		-33.203125
7998		-37.109375
7999		-33.203125
8000		-37.109375
8001		-31.250000
8002		-35.156250
8003		-29.296875
8004		-35.156250
8005		-29.296875
8006		-31.250000
8007		-27.343750
8008		-31.250000
8009		-25.390625
8010		-27.343750
8011		-23.437500
8012		-25.390625
8013		-21.484375
8014		-23.437500
8015		-19.531250
8016		-23.437500
8017		-15.625000
8018		-19.531250
8019		-13.671875
8020		-19.531250
8021		-11.718750
8022		-15.625000
8023		-9.765625
8024		-11.718750
8025		-7.812500
8026		-9.765625
8027		-5.859375
8028		-7.812500
8029		-1.953125
8030		-3.906250
8031		0.000000
8032		-1.953125
8033		3.906250
8034		0.000000
8035		5.859375
8036		1.953125
8037		9.765625
8038		5.859375
8039		11.718750
8040		7.812500
8041		15.625000
8042		9.765625
8043		15.625000
8044		13.671875
8045		17.578125
8046		17.578125
8047		21.484375
8048		19.531250
8049		23.437500
8050		21.484375
8051		25.390625
8052		23.437500
8053		29.296875
8054		25.390625
8055		31.250000
8056		29.296875
8057		33.203125
8058		31.250000
8059		37.109375
8060		33.203125
8061		39.062500
8062		37.109375
8063		41.015625
8064		39.062500
8065		42.968750
8066		39.062500
8067		44.921875
8068		42.968750
8069		46.875000
8070		42.968750
8071		48.828125
8072		46.875000
8073		50.781250
8074		46.875000
8075		52.734375
8076		48.828125
8077		52.734375
8078		50.781250
8079		54.687500
8080		52.734375
8081		56.640625
8082		54.687500
8083		58.593750
8084		54.687500
8085		58.593750
8086		54.687500
8087		62.500000
8088		54.687500
8089		60.546875
8090		58.593750
8091		62.500000
8092		58.593750
8093		62.500000
8094		60.546875
8095		62.500000
8096		60.546875
8097		64.453125
8098		60.546875
8099		64.453125
8100		60.546875
8101		64.453125
8102		60.546875
8103		64.453125
8104		60.546875
8105		66.406250
8106		60.546875
8107		64.453125
8108		60.546875
8109		64.453125
8110		60.546875
8111		64.453125
8112		60.546875
8113		62.500000
8114		58.593750
8115		62.500000
8116		58.593750
8117		62.500000
8118		58.593750
8119		62.500000
8120		56.640625
8121		60.546875
8122		56.640625
8123		60.546875
8124		56.640625
8125		58.593750
8126		52.734375
8127		58.593750
8128		52.734375
8129		56.640625
8130		52.734375
8131		54.687500
8132		50.781250
8133		54.687500
8134		48.828125
8135		52.734375
8136		46.875000
8137		50.781250
8138		44.921875
8139		50.781250
8140		42.968750
8141		46.875000
8142		41.015625
8143		44.921875
8144		39.062500
8145		42.968750
8146		37.109375
8147		41.015625
8148		33.203125
8149		39.062500
8150		31.250000
8151		37.109375
8152		29.296875
8153		33.203125
8154		27.343750
8155		31.250000
8156		25.390625
8157		31.250000
8158		21.484375
8159		27.343750
8160		19.531250
8161		23.437500
8162		17.578125
8163		21.484375
8164		13.671875
8165		19.531250
8166		11.718750
8167		17.578125
8168		9.765625
8169		13.671875
8170		5.859375
8171		11.718750
8172		3.906250
8173		9.765625
8174		0.000000
8175		5.859375
8176		-1.953125
8177		1.953125
8178		-3.906250
8179		0.000000
8180		-5.859375
8181		-1.953125
8182		-9.765625
8183		-3.906250
8184		-11.718750
8185		-7.812500
8186		-13.671875
8187		-9.765625
8188		-15.625000
8189		-11.718750
8190		-19.531250
8191		-13.671875
8192		-21.484375
8193		-17.578125
8194		-23.437500
8195		-19.531250
8196		-25.390625
8197		-21.484375
8198		-29.296875
8199		-23.437500
8200		-29.296875
8201		-25.390625
8202		-31.250000
8203		-27.343750
8204		-33.203125
8205		-29.296875
8206		-35.156250
8207		-31.250000
8208		-35.156250
8209		-33.203125
8210		-39.062500
8211		-33.203125
8212		-39.062500
8213		-35.156250
8214		-39.062500
8215		-37.109375
8216		-41.015625
8217		-37.109375
8218		-41.015625
8219		-39.062500
8220		-42.968750
8221		-39.062500
8222		-42.968750
8223		-41.015625
8224		-44.921875
8225		-41.015625
8226		-44.921875
8227		-41.015625
8228		-44.921875
8229		-41.015625
8230		-44.921875
8231		-42.968750
8232		-44.921875
8233		-41.015625
8234		-44.921875
8235		-41.015625
8236		-44.921875
8237		-41.015625
8238		-42.968750
8239		-41.015625
8240		-42.968750
8241		-41.015625
8242		-42.968750
8243		-39.062500
8244		-41.015625
8245		-37.109375
8246		-41.015625
8247		-37.109375
8248		-39.062500
8249		-37.109375
8250		-41.015625
8251		-35.156250
8252		-37.109375
8253		-33.203125
8254		-35.156250
8255		-31.250000
8256		-35.156250
8257		-31.250000
8258		-33.203125
8259		-29.296875
8260		-31.250000
8261		-27.343750
8262		-29.296875
8263		-25.390625
8264		-27.343750
8265		-23.437500
8266		-25.390625
8267		-21.484375
8268		-23.437500
8269		-17.578125
8270		-21.484375
8271		-17.578125
8272		-19.531250
8273		-13.671875
8274		-15.625000
8275		-11.718750
8276		-13.671875
8277		-9.765625
8278		-11.718750
8279		-7.812500
8280		-7.812500
8281		-3.906250
8282		-5.859375
8283		-1.953125
8284		-3.906250
8285		0.000000
8286		-1.953125
8287		3.906250
8288		0.000000
8289		5.859375
8290		3.906250
8291		7.812500
8292		5.859375
8293		11.718750
8294		9.765625
8295		13.671875
8296		11.718750
8297		15.625000
8298		13.671875
8299		19.531250
8300		15.625000
8301		21.484375
8302		19.531250
8303		23.437500
8304		21.484375
8305		27.343750
8306		25.390625
8307		29.296875
8308		27.343750
8309		33.203125
8310		29.296875
8311		35.156250
8312		31.250000
8313		35.156250
8314		35.156250
8315		39.062500
8316		37.109375
8317		41.015625
8318		39.062500
8319		42.968750
8320		41.015625
8321		44.921875
8322		42.968750
8323		46.875000
8324		44.921875
8325		48.828125
8326		46.875000
8327		50.781250
8328		48.828125
8329		52.734375
8330		50.781250
8331		52.734375
8332		52.734375
8333		54.687500
8334		50.781250
8335		56.640625
8336		54.687500
8337		58.593750
8338		54.687500
8339		58.593750
8340		56.640625
8341		60.546875
8342		56.640625
8343		60.546875
8344		58.593750
8345		62.500000
8346		58.593750
8347		62.500000
8348		60.546875
8349		62.500000
8350		60.546875
8351		64.453125
8352		60.546875
8353		64.453125
8354		60.546875
8355		64.453125
8356		60.546875
8357		64.453125
8358		62.500000
8359		64.453125
8360		60.546875
8361		64.453125
8362		60.546875
8363		64.453125
8364		60.546875
8365		62.500000
8366		60.546875
8367		64.453125
8368		58.593750
8369		62.500000
8370		58.593750
8371		62.500000
8372		58.593750
8373		62.500000
8374		56.640625
8375		60.546875
8376		56.640625
8377		58.593750
8378		54.687500
8379		58.593750
8380		54.687500
8381		56.640625
8382		52.734375
8383		56.640625
8384		50.781250
8385		54.687500
8386		48.828125
8387		52.734375
8388		46.875000
8389		50.781250
8390		46.875000
8391		48.828125
8392		44.921875
8393		48.828125
8394		42.968750
8395		44.921875
8396		41.015625
8397		44.921875
8398		37.109375
8399		41.015625
8400		35.156250
8401		39.062500
8402		33.203125
8403		37.109375
8404		31.250000
8405		35.156250
8406		29.296875
8407		33.203125
8408		27.343750
8409		31.250000
8410		23.437500
8411		27.343750
8412		21.484375
8413		25.390625
8414		19.531250
8415		23.437500
8416		15.625000
8417		21.484375
8418		13.671875
8419		19.531250
8420		9.765625
8421		15.625000
8422		7.812500
8423		13.671875
8424		5.859375
8425		9.765625
8426		3.906250
8427		7.812500
8428		0.000000
8429		5.859375
8430		-1.953125
8431		3.906250
8432		-3.906250
8433		0.000000
8434		-7.812500
8435		-3.906250
8436		-9.765625
8437		-5.859375
8438		-13.671875
8439		-7.812500
8440		-15.625000
8441		-9.765625
8442		-17.578125
8443		-11.718750
8444		-19.531250
8445		-15.625000
8446		-21.484375
8447		-17.578125
8448		-23.437500
8449		-19.531250
8450		-27.343750
8451		-21.484375
8452		-29.296875
8453		-23.437500
8454		-29.296875
8455		-25.390625
8456		-31.250000
8457		-27.343750
8458		-33.203125
8459		-29.296875
8460		-35.156250
8461		-31.250000
8462		-37.109375
8463		-33.203125
8464		-37.109375
8465		-35.156250
8466		-39.062500
8467		-37.109375
8468		-41.015625
8469		-37.109375
8470		-41.015625
8471		-39.062500
8472		-42.968750
8473		-39.062500
8474		-42.968750
8475		-41.015625
8476		-44.921875
8477		-41.015625
8478		-44.921875
8479		-41.015625
8480		-44.921875
8481		-41.015625
8482		-44.921875
8483		-42.968750
8484		-44.921875
8485		-42.968750
8486		-44.921875
8487		-41.015625
8488		-44.921875
8489		-41.015625
8490		-44.921875
8491		-41.015625
8492		-44.921875
8493		-41.015625
8494		-42.968750
8495		-41.015625
8496		-42.968750
8497		-39.062500
8498		-42.968750
8499		-39.062500
8500		-41.015625
8501		-39.062500
8502		-41.015625
8503		-37.109375
8504		-39.062500
8505		-35.156250
8506		-37.109375
8507		-33.203125
8508		-35.156250
8509		-31.250000
8510		-33.203125
8511		-31.250000
8512		-33.203125
8513		-29.296875
8514		-31.250000
8515		-27.343750
8516		-29.296875
8517		-25.390625
8518		-27.343750
8519		-23.437500
8520		-25.390625
8521		-21.484375
8522		-21.484375
8523		-17.578125
8524		-21.484375
8525		-15.625000
8526		-17.578125
8527		-13.671875
8528		-15.625000
8529		-11.718750
8530		-13.671875
8531		-9.765625
8532		-11.718750
8533		-7.812500
8534		-7.812500
8535		-3.906250
8536		-5.859375
8537		-1.953125
8538		-3.906250
8539		0.000000
8540		-1.953125
8541		3.906250
8542		1.953125
8543		5.859375
8544		3.906250
8545		9.765625
8546		7.812500
8547		11.718750
8548		9.765625
8549		13.671875
8550		13.671875
8551		15.625000
8552		15.625000
8553		19.531250
8554		17.578125
8555		21.484375
8556		19.531250
8557		25.390625
8558		23.437500
8559		27.343750
8560		25.390625
8561		29.296875
8562		27.343750
8563		31.250000
8564		29.296875
8565		33.203125
8566		33.203125
8567		37.109375
8568		35.156250
8569		39.062500
8570		37.109375
8571		41.015625
8572		39.062500
8573		44.921875
8574		41.015625
8575		44.921875
8576		42.968750
8577		46.875000
8578		44.921875
8579		48.828125
8580		46.875000
8581		50.781250
8582		48.828125
8583		52.734375
8584		50.781250
8585		52.734375
8586		50.781250
8587		54.687500
8588		52.734375
8589		56.640625
8590		54.687500
8591		58.593750
8592		56.640625
8593		58.593750
8594		56.640625
8595		60.546875
8596		56.640625
8597		60.546875
8598		58.593750
8599		62.500000
8600		58.593750
8601		62.500000
8602		60.546875
8603		64.453125
8604		60.546875
8605		62.500000
8606		60.546875
8607		64.453125
8608		60.546875
8609		64.453125
8610		60.546875
8611		64.453125
8612		60.546875
8613		64.453125
8614		60.546875
8615		64.453125
8616		60.546875
8617		62.500000
8618		60.546875
8619		64.453125
8620		60.546875
8621		62.500000
8622		58.593750
8623		62.500000
8624		58.593750
8625		62.500000
8626		58.593750
8627		60.546875
8628		56.640625
8629		60.546875
8630		54.687500
8631		58.593750
8632		54.687500
8633		56.640625
8634		52.734375
8635		56.640625
8636		50.781250
8637		56.640625
8638		50.781250
8639		54.687500
8640		48.828125
8641		52.734375
8642		46.875000
8643		50.781250
8644		44.921875
8645		48.828125
8646		42.968750
8647		46.875000
8648		41.015625
8649		44.921875
8650		39.062500
8651		42.968750
8652		37.109375
8653		41.015625
8654		35.156250
8655		39.062500
8656		33.203125
8657		37.109375
8658		31.250000
8659		35.156250
8660		27.343750
8661		31.250000
8662		25.390625
8663		29.296875
8664		23.437500
8665		27.343750
8666		19.531250
8667		25.390625
8668		17.578125
8669		21.484375
8670		15.625000
8671		19.531250
8672		13.671875
8673		17.578125
8674		9.765625
8675		15.625000
8676		7.812500
8677		11.718750
8678		3.906250
8679		9.765625
8680		1.953125
8681		5.859375
8682		0.000000
8683		3.906250
8684		-3.906250
8685		1.953125
8686		-5.859375
8687		0.000000
8688		-7.812500
8689		-3.906250
8690		-11.718750
8691		-5.859375
8692		-13.671875
8693		-9.765625
8694		-15.625000
8695		-11.718750
8696		-19.531250
8697		-13.671875
8698		-21.484375
8699		-15.625000
8700		-23.437500
8701		-17.578125
8702		-25.390625
8703		-21.484375
8704		-27.343750
8705		-21.484375
8706		-29.296875
8707		-25.390625
8708		-31.250000
8709		-27.343750
8710		-33.203125
8711		-29.296875
8712		-35.156250
8713		-31.250000
8714		-37.109375
8715		-33.203125
8716		-37.109375
8717		-33.203125
8718		-39.062500
8719		-35.156250
8720		-41.015625
8721		-37.109375
8722		-41.015625
8723		-37.109375
8724		-41.015625
8725		-39.062500
8726		-42.968750
8727		-39.062500
8728		-44.921875
8729		-41.015625
8730		-44.921875
8731		-41.015625
8732		-44.921875
8733		-41.015625
8734		-44.921875
8735		-42.968750
8736		-44.921875
8737		-41.015625
8738		-44.921875
8739		-42.968750
8740		-44.921875
8741		-42.968750
8742		-44.921875
8743		-42.968750
8744		-44.921875
8745		-41.015625
8746		-44.921875
8747		-41.015625
8748		-42.968750
8749		-41.015625
8750		-42.968750
8751		-39.062500
8752		-41.015625
8753		-39.062500
8754		-41.015625
8755		-37.109375
8756		-39.062500
8757		-37.109375
8758		-39.062500
8759		-35.156250
8760		-37.109375
8761		-33.203125
8762		-35.156250
8763		-31.250000
8764		-33.203125
8765		-29.296875
8766		-33.203125
8767		-29.296875
8768		-29.296875
8769		-27.343750
8770		-29.296875
8771		-23.437500
8772		-27.343750
8773		-23.437500
8774		-25.390625
8775		-19.531250
8776		-21.484375
8777		-17.578125
8778		-19.531250
8779		-15.625000
8780		-17.578125
8781		-13.671875
8782		-15.625000
8783		-11.718750
8784		-13.671875
8785		-7.812500
8786		-9.765625
8787		-5.859375
8788		-7.812500
8789		-3.906250
8790		-5.859375
8791		0.000000
8792		-3.906250
8793		1.953125
8794		0.000000
8795		3.906250
8796		1.953125
8797		7.812500
8798		3.906250
8799		9.765625
8800		5.859375
8801		11.718750
8802		9.765625
8803		15.625000
8804		13.671875
8805		17.578125
8806		15.625000
8807		19.531250
8808		17.578125
8809		21.484375
8810		19.531250
8811		25.390625
8812		23.437500
8813		27.343750
8814		25.390625
8815		31.250000
8816		29.296875
8817		33.203125
8818		31.250000
8819		35.156250
8820		33.203125
8821		37.109375
8822		35.156250
8823		39.062500
8824		37.109375
8825		41.015625
8826		39.062500
8827		42.968750
8828		41.015625
8829		44.921875
8830		42.968750
8831		46.875000
8832		44.921875
8833		48.828125
8834		46.875000
8835		50.781250
8836		48.828125
8837		52.734375
8838		50.781250
8839		54.687500
8840		52.734375
8841		56.640625
8842		52.734375
8843		56.640625
8844		54.687500
8845		58.593750
8846		54.687500
8847		58.593750
8848		56.640625
8849		60.546875
8850		56.640625
8851		60.546875
8852		58.593750
8853		60.546875
8854		58.593750
8855		62.500000
8856		60.546875
8857		62.500000
8858		60.546875
8859		64.453125
8860		60.546875
8861		62.500000
8862		60.546875
8863		64.453125
8864		60.546875
8865		64.453125
8866		60.546875
8867		64.453125
8868		60.546875
8869		62.500000
8870		60.546875
8871		62.500000
8872		58.593750
8873		64.453125
8874		58.593750
8875		62.500000
8876		58.593750
8877		62.500000
8878		58.593750
8879		60.546875
8880		56.640625
8881		60.546875
8882		56.640625
8883		60.546875
8884		54.687500
8885		58.593750
8886		54.687500
8887		56.640625
8888		52.734375
8889		56.640625
8890		50.781250
8891		54.687500
8892		48.828125
8893		54.687500
8894		46.875000
8895		50.781250
8896		46.875000
8897		50.781250
8898		44.921875
8899		48.828125
8900		42.968750
8901		46.875000
8902		41.015625
8903		44.921875
8904		39.062500
8905		42.968750
8906		35.156250
8907		41.015625
8908		35.156250
8909		37.109375
8910		31.250000
8911		37.109375
8912		29.296875
8913		33.203125
8914		27.343750
8915		31.250000
8916		23.437500
8917		29.296875
8918		21.484375
8919		25.390625
8920		19.531250
8921		23.437500
8922		17.578125
8923		21.484375
8924		13.671875
8925		19.531250
8926		11.718750
8927		15.625000
8928		7.812500
8929		13.671875
8930		5.859375
8931		11.718750
8932		3.906250
8933		7.812500
8934		1.953125
8935		5.859375
8936		-1.953125
8937		3.906250
8938		-3.906250
8939		0.000000
8940		-7.812500
8941		-1.953125
8942		-9.765625
8943		-3.906250
8944		-11.718750
8945		-7.812500
8946		-13.671875
8947		-9.765625
8948		-15.625000
8949		-11.718750
8950		-19.531250
8951		-13.671875
8952		-21.484375
8953		-17.578125
8954		-23.437500
8955		-19.531250
8956		-25.390625
8957		-21.484375
8958		-27.343750
8959		-23.437500
8960		-29.296875
8961		-25.390625
8962		-31.250000
8963		-27.343750
8964		-33.203125
8965		-29.296875
8966		-35.156250
8967		-31.250000
8968		-37.109375
8969		-31.250000
8970		-37.109375
8971		-35.156250
8972		-39.062500
8973		-35.156250
8974		-41.015625
8975		-37.109375
8976		-41.015625
8977		-39.062500
8978		-42.968750
8979		-39.062500
8980		-42.968750
8981		-41.015625
8982		-42.968750
8983		-41.015625
8984		-44.921875
8985		-41.015625
8986		-44.921875
8987		-42.968750
8988		-44.921875
8989		-41.015625
8990		-46.875000
8991		-42.968750
8992		-44.921875
8993		-42.968750
8994		-44.921875
8995		-42.968750
8996		-44.921875
8997		-41.015625
8998		-44.921875
8999		-41.015625
9000		-44.921875
9001		-39.062500
9002		-42.968750
9003		-41.015625
9004		-42.968750
9005		-39.062500
9006		-42.968750
9007		-39.062500
9008		-41.015625
9009		-37.109375
9010		-39.062500
9011		-35.156250
9012		-39.062500
9013		-35.156250
9014		-37.109375
9015		-33.203125
9016		-35.156250
9017		-31.250000
9018		-33.203125
9019		-29.296875
9020		-33.203125
9021		-27.343750
9022		-29.296875
9023		-25.390625
9024		-27.343750
9025		-23.437500
9026		-27.343750
9027		-21.484375
9028		-23.437500
9029		-19.531250
9030		-21.484375
9031		-17.578125
9032		-19.531250
9033		-15.625000
9034		-17.578125
9035		-13.671875
9036		-15.625000
9037		-11.718750
9038		-11.718750
9039		-7.812500
9040		-9.765625
9041		-5.859375
9042		-7.812500
9043		-1.953125
9044		-3.906250
9045		0.000000
9046		-1.953125
9047		1.953125
9048		0.000000
9049		3.906250
9050		3.906250
9051		7.812500
9052		3.906250
9053		9.765625
9054		7.812500
9055		13.671875
9056		11.718750
9057		15.625000
9058		13.671875
9059		17.578125
9060		15.625000
9061		21.484375
9062		17.578125
9063		23.437500
9064		21.484375
9065		25.390625
9066		23.437500
9067		29.296875
9068		25.390625
9069		31.250000
9070		29.296875
9071		33.203125
9072		31.250000
9073		37.109375
9074		33.203125
9075		39.062500
9076		35.156250
9077		39.062500
9078		37.109375
9079		41.015625
9080		41.015625
9081		44.921875
9082		41.015625
9083		46.875000
9084		42.968750
9085		48.828125
9086		44.921875
9087		48.828125
9088		48.828125
9089		50.781250
9090		48.828125
9091		52.734375
9092		50.781250
9093		54.687500
9094		52.734375
9095		56.640625
9096		54.687500
9097		56.640625
9098		54.687500
9099		58.593750
9100		56.640625
9101		60.546875
9102		56.640625
9103		60.546875
9104		58.593750
9105		60.546875
9106		58.593750
9107		62.500000
9108		58.593750
9109		62.500000
9110		60.546875
9111		62.500000
9112		60.546875
9113		64.453125
9114		60.546875
9115		64.453125
9116		60.546875
9117		64.453125
9118		60.546875
9119		64.453125
9120		60.546875
9121		62.500000
9122		60.546875
9123		64.453125
9124		60.546875
9125		64.453125
9126		60.546875
9127		62.500000
9128		58.593750
9129		62.500000
9130		58.593750
9131		62.500000
9132		58.593750
9133		60.546875
9134		56.640625
9135		60.546875
9136		56.640625
9137		60.546875
9138		54.687500
9139		58.593750
9140		52.734375
9141		56.640625
9142		52.734375
9143		54.687500
9144		50.781250
9145		54.687500
9146		48.828125
9147		52.734375
9148		46.875000
9149		50.781250
9150		44.921875
9151		48.828125
9152		44.921875
9153		46.875000
9154		42.968750
9155		46.875000
9156		39.062500
9157		42.968750
9158		37.109375
9159		42.968750
9160		35.156250
9161		41.015625
9162		33.203125
9163		37.109375
9164		31.250000
9165		35.156250
9166		29.296875
9167		33.203125
9168		25.390625
9169		31.250000
9170		23.437500
9171		27.343750
9172		21.484375
9173		25.390625
9174		19.531250
9175		23.437500
9176		15.625000
9177		21.484375
9178		13.671875
9179		17.578125
9180		11.718750
9181		15.625000
9182		7.812500
9183		13.671875
9184		5.859375
9185		9.765625
9186		3.906250
9187		7.812500
9188		0.000000
9189		3.906250
9190		-1.953125
9191		1.953125
9192		-3.906250
9193		0.000000
9194		-7.812500
9195		-3.906250
9196		-9.765625
9197		-5.859375
9198		-11.718750
9199		-7.812500
9200		-15.625000
9201		-11.718750
9202		-19.531250
9203		-13.671875
9204		-19.531250
9205		-15.625000
9206		-21.484375
9207		-17.578125
9208		-23.437500
9209		-19.531250
9210		-25.390625
9211		-21.484375
9212		-29.296875
9213		-25.390625
9214		-31.250000
9215		-27.343750
9216		-31.250000
9217		-29.296875
9218		-33.203125
9219		-29.296875
9220		-35.156250
9221		-31.250000
9222		-37.109375
9223		-33.203125
9224		-39.062500
9225		-35.156250
9226		-39.062500
9227		-35.156250
9228		-41.015625
9229		-37.109375
9230		-41.015625
9231		-39.062500
9232		-42.968750
9233		-39.062500
9234		-44.921875
9235		-41.015625
9236		-44.921875
9237		-41.015625
9238		-44.921875
9239		-42.968750
9240		-46.875000
9241		-41.015625
9242		-46.875000
9243		-42.968750
9244		-44.921875
9245		-42.968750
9246		-44.921875
9247		-42.968750
9248		-46.875000
9249		-42.968750
9250		-44.921875
9251		-41.015625
9252		-44.921875
9253		-41.015625
9254		-42.968750
9255		-41.015625
9256		-42.968750
9257		-41.015625
9258		-42.968750
9259		-39.062500
9260		-42.968750
9261		-39.062500
9262		-41.015625
9263		-37.109375
9264		-39.062500
9265		-35.156250
9266		-39.062500
9267		-35.156250
9268		-37.109375
9269		-33.203125
9270		-35.156250
9271		-31.250000
9272		-33.203125
9273		-29.296875
9274		-31.250000
9275		-27.343750
9276		-29.296875
9277		-25.390625
9278		-27.343750
9279		-23.437500
9280		-25.390625
9281		-21.484375
9282		-23.437500
9283		-19.531250
9284		-21.484375
9285		-17.578125
9286		-19.531250
9287		-15.625000
9288		-17.578125
9289		-13.671875
9290		-13.671875
9291		-9.765625
9292		-11.718750
9293		-7.812500
9294		-9.765625
9295		-5.859375
9296		-7.812500
9297		-1.953125
9298		-3.906250
9299		0.000000
9300		-1.953125
9301		1.953125
9302		0.000000
9303		5.859375
9304		1.953125
9305		7.812500
9306		5.859375
9307		9.765625
9308		7.812500
9309		13.671875
9310		11.718750
9311		15.625000
9312		13.671875
9313		17.578125
9314		15.625000
9315		21.484375
9316		19.531250
9317		23.437500
9318		21.484375
9319		25.390625
9320		23.437500
9321		29.296875
9322		27.343750
9323		31.250000
9324		29.296875
9325		33.203125
9326		31.250000
9327		35.156250
9328		33.203125
9329		39.062500
9330		35.156250
9331		39.062500
9332		37.109375
9333		41.015625
9334		41.015625
9335		44.921875
9336		42.968750
9337		46.875000
9338		44.921875
9339		46.875000
9340		46.875000
9341		48.828125
9342		46.875000
9343		50.781250
9344		48.828125
9345		52.734375
9346		50.781250
9347		54.687500
9348		50.781250
9349		56.640625
9350		52.734375
9351		56.640625
9352		54.687500
9353		58.593750
9354		56.640625
9355		60.546875
9356		56.640625
9357		60.546875
9358		56.640625
9359		60.546875
9360		58.593750
9361		62.500000
9362		58.593750
9363		62.500000
9364		60.546875
9365		62.500000
9366		60.546875
9367		62.500000
9368		60.546875
9369		64.453125
9370		60.546875
9371		64.453125
9372		60.546875
9373		62.500000
9374		60.546875
9375		62.500000
9376		60.546875
9377		64.453125
9378		60.546875
9379		62.500000
9380		58.593750
9381		62.500000
9382		58.593750
9383		62.500000
9384		58.593750
9385		62.500000
9386		56.640625
9387		60.546875
9388		56.640625
9389		60.546875
9390		54.687500
9391		58.593750
9392		54.687500
9393		58.593750
9394		52.734375
9395		56.640625
9396		50.781250
9397		54.687500
9398		50.781250
9399		54.687500
9400		48.828125
9401		52.734375
9402		46.875000
9403		50.781250
9404		44.921875
9405		48.828125
9406		42.968750
9407		46.875000
9408		41.015625
9409		44.921875
9410		39.062500
9411		42.968750
9412		37.109375
9413		41.015625
9414		35.156250
9415		39.062500
9416		33.203125
9417		37.109375
9418		29.296875
9419		33.203125
9420		27.343750
9421		31.250000
9422		25.390625
9423		31.250000
9424		23.437500
9425		27.343750
9426		19.531250
9427		25.390625
9428		17.578125
9429		21.484375
9430		15.625000
9431		19.531250
9432		11.718750
9433		17.578125
9434		9.765625
9435		15.625000
9436		7.812500
9437		11.718750
9438		3.906250
9439		9.765625
9440		1.953125
9441		5.859375
9442		0.000000
9443		3.906250
9444		-3.906250
9445		1.953125
9446		-5.859375
9447		-1.953125
9448		-7.812500
9449		-3.906250
9450		-9.765625
9451		-5.859375
9452		-13.671875
9453		-9.765625
9454		-15.625000
9455		-11.718750
9456		-17.578125
9457		-13.671875
9458		-19.531250
9459		-17.578125
9460		-23.437500
9461		-17.578125
9462		-25.390625
9463		-21.484375
9464		-27.343750
9465		-23.437500
9466		-29.296875
9467		-25.390625
9468		-31.250000
9469		-27.343750
9470		-33.203125
9471		-29.296875
9472		-35.156250
9473		-29.296875
9474		-37.109375
9475		-33.203125
9476		-37.109375
9477		-33.203125
9478		-39.062500
9479		-35.156250
9480		-41.015625
9481		-37.109375
9482		-41.015625
9483		-39.062500
9484		-42.968750
9485		-39.062500
9486		-42.968750
9487		-41.015625
9488		-44.921875
9489		-41.015625
9490		-44.921875
9491		-41.015625
9492		-44.921875
9493		-42.968750
9494		-46.875000
9495		-42.968750
9496		-44.921875
9497		-42.968750
9498		-46.875000
9499		-42.968750
9500		-44.921875
9501		-42.968750
9502		-44.921875
9503		-42.968750
9504		-44.921875
9505		-42.968750
9506		-44.921875
9507		-41.015625
9508		-42.968750
9509		-41.015625
9510		-44.921875
9511		-39.062500
9512		-42.968750
9513		-39.062500
9514		-41.015625
9515		-39.062500
9516		-41.015625
9517		-37.109375
9518		-39.062500
9519		-35.156250
9520		-39.062500
9521		-33.203125
9522		-37.109375
9523		-33.203125
9524		-35.156250
9525		-31.250000
9526		-33.203125
9527		-29.296875
9528		-31.250000
9529		-27.343750
9530		-29.296875
9531		-25.390625
9532		-27.343750
9533		-23.437500
9534		-25.390625
9535		-21.484375
9536		-23.437500
9537		-19.531250
9538		-21.484375
9539		-15.625000
9540		-17.578125
9541		-13.671875
9542		-15.625000
9543		-11.718750
9544		-13.671875
9545		-9.765625
9546		-11.718750
9547		-7.812500
9548		-9.765625
9549		-3.906250
9550		-5.859375
9551		-1.953125
9552		-3.906250
9553		1.953125
9554		-1.953125
9555		3.906250
9556		1.953125
9557		5.859375
9558		3.906250
9559		7.812500
9560		7.812500
9561		11.718750
9562		9.765625
9563		13.671875
9564		11.718750
9565		17.578125
9566		15.625000
9567		19.531250
9568		15.625000
9569		21.484375
9570		19.531250
9571		23.437500
9572		21.484375
9573		27.343750
9574		25.390625
9575		29.296875
9576		27.343750
9577		31.250000
9578		29.296875
9579		33.203125
9580		31.250000
9581		37.109375
9582		35.156250
9583		39.062500
9584		37.109375
9585		41.015625
9586		39.062500
9587		42.968750
9588		41.015625
9589		44.921875
9590		41.015625
9591		46.875000
9592		44.921875
9593		48.828125
9594		46.875000
9595		50.781250
9596		46.875000
9597		52.734375
9598		48.828125
9599		52.734375
9600		50.781250
9601		54.687500
9602		52.734375
9603		56.640625
9604		52.734375
9605		56.640625
9606		54.687500
9607		58.593750
9608		56.640625
9609		58.593750
9610		56.640625
9611		60.546875
9612		58.593750
9613		60.546875
9614		58.593750
9615		60.546875
9616		60.546875
9617		62.500000
9618		60.546875
9619		62.500000
9620		60.546875
9621		62.500000
9622		60.546875
9623		62.500000
9624		60.546875
9625		62.500000
9626		60.546875
9627		62.500000
9628		58.593750
9629		64.453125
9630		60.546875
9631		64.453125
9632		60.546875
9633		64.453125
9634		58.593750
9635		62.500000
9636		58.593750
9637		62.500000
9638		58.593750
9639		62.500000
9640		56.640625
9641		60.546875
9642		56.640625
9643		58.593750
9644		54.687500
9645		58.593750
9646		54.687500
9647		56.640625
9648		52.734375
9649		56.640625
9650		50.781250
9651		54.687500
9652		48.828125
9653		52.734375
9654		48.828125
9655		50.781250
9656		46.875000
9657		50.781250
9658		44.921875
9659		48.828125
9660		42.968750
9661		46.875000
9662		41.015625
9663		44.921875
9664		37.109375
9665		42.968750
9666		37.109375
9667		41.015625
9668		35.156250
9669		39.062500
9670		31.250000
9671		37.109375
9672		29.296875
9673		33.203125
9674		27.343750
9675		31.250000
9676		25.390625
9677		29.296875
9678		21.484375
9679		27.343750
9680		19.531250
9681		23.437500
9682		17.578125
9683		21.484375
9684		13.671875
9685		19.531250
9686		11.718750
9687		15.625000
9688		9.765625
9689		13.671875
9690		5.859375
9691		11.718750
9692		3.906250
9693		7.812500
9694		0.000000
9695		5.859375
9696		-1.953125
9697		1.953125
9698		-3.906250
9699		0.000000
9700		-5.859375
9701		-1.953125
9702		-9.765625
9703		-5.859375
9704		-11.718750
9705		-7.812500
9706		-13.671875
9707		-9.765625
9708		-15.625000
9709		-11.718750
9710		-19.531250
9711		-15.625000
9712		-21.484375
9713		-17.578125
9714		-23.437500
9715		-19.531250
9716		-25.390625
9717		-21.484375
9718		-27.343750
9719		-23.437500
9720		-29.296875
9721		-25.390625
9722		-31.250000
9723		-27.343750
9724		-33.203125
9725		-29.296875
9726		-35.156250
9727		-31.250000
9728		-37.109375
9729		-31.250000
9730		-37.109375
9731		-35.156250
9732		-39.062500
9733		-37.109375
9734		-41.015625
9735		-37.109375
9736		-42.968750
9737		-39.062500
9738		-42.968750
9739		-39.062500
9740		-44.921875
9741		-39.062500
9742		-42.968750
9743		-41.015625
9744		-44.921875
9745		-42.968750
9746		-44.921875
9747		-41.015625
9748		-44.921875
9749		-42.968750
9750		-46.875000
9751		-42.968750
9752		-46.875000
9753		-42.968750
9754		-44.921875
9755		-42.968750
9756		-44.921875
9757		-42.968750
9758		-44.921875
9759		-41.015625
9760		-44.921875
9761		-41.015625
9762		-44.921875
9763		-41.015625
9764		-42.968750
9765		-39.062500
9766		-42.968750
9767		-39.062500
9768		-41.015625
9769		-37.109375
9770		-41.015625
9771		-37.109375
9772		-39.062500
9773		-35.156250
9774		-37.109375
9775		-33.203125
9776		-35.156250
9777		-33.203125
9778		-35.156250
9779		-31.250000
9780		-33.203125
9781		-29.296875
9782		-31.250000
9783		-27.343750
9784		-29.296875
9785		-23.437500
9786		-27.343750
9787		-23.437500
9788		-25.390625
9789		-19.531250
9790		-23.437500
9791		-17.578125
9792		-21.484375
9793		-15.625000
9794		-17.578125
9795		-13.671875
9796		-15.625000
9797		-11.718750
9798		-13.671875
9799		-9.765625
9800		-11.718750
9801		-5.859375
9802		-7.812500
9803		-3.906250
9804		-5.859375
9805		-1.953125
9806		-3.906250
9807		1.953125
9808		-1.953125
9809		3.906250
9810		1.953125
9811		5.859375
9812		3.906250
9813		9.765625
9814		7.812500
9815		11.718750
9816		9.765625
9817		15.625000
9818		11.718750
9819		17.578125
9820		15.625000
9821		19.531250
9822		17.578125
9823		21.484375
9824		19.531250
9825		25.390625
9826		23.437500
9827		27.343750
9828		25.390625
9829		29.296875
9830		27.343750
9831		33.203125
9832		29.296875
9833		35.156250
9834		33.203125
9835		37.109375
9836		35.156250
9837		39.062500
9838		37.109375
9839		41.015625
9840		39.062500
9841		42.968750
9842		41.015625
9843		44.921875
9844		42.968750
9845		46.875000
9846		44.921875
9847		48.828125
9848		46.875000
9849		50.781250
9850		48.828125
9851		52.734375
9852		50.781250
9853		54.687500
9854		50.781250
9855		54.687500
9856		52.734375
9857		56.640625
9858		54.687500
9859		58.593750
9860		54.687500
9861		58.593750
9862		54.687500
9863		58.593750
9864		56.640625
9865		60.546875
9866		58.593750
9867		60.546875
9868		58.593750
9869		62.500000
9870		60.546875
9871		62.500000
9872		60.546875
9873		62.500000
9874		60.546875
9875		64.453125
9876		60.546875
9877		62.500000
9878		60.546875
9879		62.500000
9880		60.546875
9881		64.453125
9882		60.546875
9883		64.453125
9884		60.546875
9885		62.500000
9886		58.593750
9887		62.500000
9888		58.593750
9889		62.500000
9890		58.593750
9891		62.500000
9892		56.640625
9893		60.546875
9894		56.640625
9895		60.546875
9896		54.687500
9897		58.593750
9898		54.687500
9899		58.593750
9900		52.734375
9901		56.640625
9902		52.734375
9903		56.640625
9904		50.781250
9905		54.687500
9906		48.828125
9907		52.734375
9908		46.875000
9909		50.781250
9910		44.921875
9911		48.828125
9912		44.921875
9913		46.875000
9914		41.015625
9915		46.875000
9916		39.062500
9917		42.968750
9918		37.109375
9919		42.968750
9920		35.156250
9921		39.062500
9922		33.203125
9923		37.109375
9924		31.250000
9925		37.109375
9926		29.296875
9927		33.203125
9928		25.390625
9929		31.250000
9930		23.437500
9931		27.343750
9932		21.484375
9933		25.390625
9934		19.531250
9935		23.437500
9936		15.625000
9937		21.484375
9938		13.671875
9939		17.578125
9940		11.718750
9941		15.625000
9942		7.812500
9943		13.671875
9944		5.859375
9945		9.765625
9946		3.906250
9947		7.812500
9948		0.000000
9949		5.859375
9950		-1.953125
9951		1.953125
9952		-5.859375
9953		0.000000
9954		-7.812500
9955		-1.953125
9956		-9.765625
9957		-5.859375
9958		-13.671875
9959		-7.812500
9960		-15.625000
9961		-9.765625
9962		-17.578125
9963		-13.671875
9964		-19.531250
9965		-15.625000
9966		-21.484375
9967		-17.578125
9968		-23.437500
9969		-19.531250
9970		-27.343750
9971		-21.484375
9972		-29.296875
9973		-25.390625
9974		-29.296875
9975		-25.390625
9976		-31.250000
9977		-29.296875
9978		-33.203125
9979		-31.250000
9980		-37.109375
9981		-33.203125
9982		-37.109375
9983		-33.203125
9984		-39.062500
9985		-35.156250
9986		-39.062500
9987		-37.109375
9988		-41.015625
9989		-37.109375
9990		-41.015625
9991		-37.109375
9992		-42.968750
9993		-39.062500
9994		-42.968750
9995		-41.015625
9996		-44.921875
9997		-41.015625
9998		-44.921875
9999		-41.015625
10000		-44.921875
