Channel              :		CH1
Frequency            :		1.062kHz
Period               :		0.941ms
PK-PK                :		115.2mV
Probe attenuation    :		1X
Voltage per ADC value:		0.122070mV
Time interval        :		2.00000us

index		CH1_Voltage(mV)
1		41.015625
2		41.015625
3		46.875000
4		41.015625
5		44.921875
6		39.062500
7		42.968750
8		37.109375
9		42.968750
10		35.156250
11		42.968750
12		33.203125
13		41.015625
14		33.203125
15		41.015625
16		31.250000
17		39.062500
18		31.250000
19		37.109375
20		31.250000
21		35.156250
22		29.296875
23		33.203125
24		27.343750
25		33.203125
26		25.390625
27		31.250000
28		23.437500
29		31.250000
30		23.437500
31		29.296875
32		21.484375
33		27.343750
34		19.531250
35		27.343750
36		19.531250
37		25.390625
38		19.531250
39		23.437500
40		15.625000
41		21.484375
42		13.671875
43		21.484375
44		13.671875
45		19.531250
46		11.718750
47		19.531250
48		9.765625
49		17.578125
50		7.812500
51		15.625000
52		7.812500
53		13.671875
54		7.812500
55		11.718750
56		5.859375
57		9.765625
58		1.953125
59		9.765625
60		1.953125
61		9.765625
62		0.000000
63		7.812500
64		0.000000
65		5.859375
66		-1.953125
67		3.906250
68		-3.906250
69		1.953125
70		-3.906250
71		0.000000
72		-5.859375
73		-1.953125
74		-7.812500
75		-1.953125
76		-9.765625
77		-1.953125
78		-11.718750
79		-3.906250
80		-11.718750
81		-5.859375
82		-13.671875
83		-7.812500
84		-15.625000
85		-7.812500
86		-15.625000
87		-9.765625
88		-15.625000
89		-11.718750
90		-17.578125
91		-13.671875
92		-19.531250
93		-13.671875
94		-21.484375
95		-13.671875
96		-21.484375
97		-15.625000
98		-23.437500
99		-17.578125
100		-25.390625
101		-17.578125
102		-27.343750
103		-19.531250
104		-25.390625
105		-21.484375
106		-25.390625
107		-23.437500
108		-29.296875
109		-21.484375
110		-29.296875
111		-23.437500
112		-31.250000
113		-23.437500
114		-31.250000
115		-25.390625
116		-33.203125
117		-25.390625
118		-35.156250
119		-27.343750
120		-35.156250
121		-29.296875
122		-33.203125
123		-31.250000
124		-35.156250
125		-31.250000
126		-37.109375
127		-31.250000
128		-39.062500
129		-31.250000
130		-39.062500
131		-33.203125
132		-41.015625
133		-33.203125
134		-41.015625
135		-33.203125
136		-41.015625
137		-35.156250
138		-39.062500
139		-37.109375
140		-41.015625
141		-37.109375
142		-42.968750
143		-37.109375
144		-42.968750
145		-37.109375
146		-42.968750
147		-37.109375
148		-42.968750
149		-37.109375
150		-44.921875
151		-37.109375
152		-44.921875
153		-37.109375
154		-44.921875
155		-39.062500
156		-42.968750
157		-41.015625
158		-44.921875
159		-39.062500
160		-44.921875
161		-39.062500
162		-44.921875
163		-39.062500
164		-46.875000
165		-39.062500
166		-44.921875
167		-39.062500
168		-44.921875
169		-39.062500
170		-44.921875
171		-39.062500
172		-42.968750
173		-41.015625
174		-44.921875
175		-39.062500
176		-44.921875
177		-39.062500
178		-44.921875
179		-37.109375
180		-44.921875
181		-37.109375
182		-44.921875
183		-37.109375
184		-42.968750
185		-37.109375
186		-42.968750
187		-37.109375
188		-41.015625
189		-37.109375
190		-41.015625
191		-37.109375
192		-41.015625
193		-35.156250
194		-41.015625
195		-35.156250
196		-41.015625
197		-35.156250
198		-41.015625
199		-33.203125
200		-39.062500
201		-33.203125
202		-39.062500
203		-33.203125
204		-39.062500
205		-31.250000
206		-35.156250
207		-33.203125
208		-37.109375
209		-29.296875
210		-35.156250
211		-29.296875
212		-35.156250
213		-29.296875
214		-33.203125
215		-27.343750
216		-33.203125
217		-27.343750
218		-33.203125
219		-25.390625
220		-31.250000
221		-25.390625
222		-27.343750
223		-25.390625
224		-27.343750
225		-25.390625
226		-29.296875
227		-21.484375
228		-27.343750
229		-19.531250
230		-25.390625
231		-19.531250
232		-25.390625
233		-17.578125
234		-23.437500
235		-17.578125
236		-21.484375
237		-15.625000
238		-21.484375
239		-15.625000
240		-17.578125
241		-15.625000
242		-17.578125
243		-11.718750
244		-17.578125
245		-11.718750
246		-15.625000
247		-9.765625
248		-15.625000
249		-7.812500
250		-13.671875
251		-7.812500
252		-13.671875
253		-5.859375
254		-11.718750
255		-3.906250
256		-7.812500
257		-5.859375
258		-5.859375
259		-3.906250
260		-7.812500
261		0.000000
262		-5.859375
263		0.000000
264		-3.906250
265		1.953125
266		-3.906250
267		3.906250
268		-1.953125
269		5.859375
270		0.000000
271		5.859375
272		1.953125
273		5.859375
274		3.906250
275		7.812500
276		3.906250
277		9.765625
278		3.906250
279		11.718750
280		5.859375
281		13.671875
282		7.812500
283		15.625000
284		9.765625
285		15.625000
286		9.765625
287		17.578125
288		11.718750
289		17.578125
290		15.625000
291		19.531250
292		17.578125
293		21.484375
294		15.625000
295		21.484375
296		17.578125
297		23.437500
298		17.578125
299		25.390625
300		19.531250
301		27.343750
302		21.484375
303		27.343750
304		21.484375
305		29.296875
306		25.390625
307		29.296875
308		27.343750
309		31.250000
310		27.343750
311		33.203125
312		27.343750
313		35.156250
314		29.296875
315		37.109375
316		31.250000
317		37.109375
318		31.250000
319		39.062500
320		33.203125
321		39.062500
322		35.156250
323		39.062500
324		37.109375
325		41.015625
326		37.109375
327		42.968750
328		37.109375
329		44.921875
330		39.062500
331		44.921875
332		39.062500
333		46.875000
334		41.015625
335		46.875000
336		41.015625
337		48.828125
338		42.968750
339		48.828125
340		44.921875
341		48.828125
342		46.875000
343		48.828125
344		44.921875
345		52.734375
346		46.875000
347		52.734375
348		46.875000
349		54.687500
350		46.875000
351		54.687500
352		48.828125
353		56.640625
354		48.828125
355		56.640625
356		52.734375
357		54.687500
358		52.734375
359		56.640625
360		52.734375
361		58.593750
362		52.734375
363		58.593750
364		52.734375
365		60.546875
366		54.687500
367		60.546875
368		54.687500
369		60.546875
370		54.687500
371		62.500000
372		56.640625
373		62.500000
374		58.593750
375		60.546875
376		58.593750
377		64.453125
378		56.640625
379		64.453125
380		58.593750
381		64.453125
382		58.593750
383		64.453125
384		58.593750
385		64.453125
386		58.593750
387		64.453125
388		58.593750
389		66.406250
390		60.546875
391		64.453125
392		60.546875
393		64.453125
394		58.593750
395		66.406250
396		60.546875
397		66.406250
398		60.546875
399		66.406250
400		58.593750
401		66.406250
402		60.546875
403		66.406250
404		58.593750
405		66.406250
406		60.546875
407		66.406250
408		62.500000
409		64.453125
410		60.546875
411		66.406250
412		58.593750
413		66.406250
414		58.593750
415		66.406250
416		58.593750
417		66.406250
418		58.593750
419		64.453125
420		58.593750
421		64.453125
422		58.593750
423		64.453125
424		60.546875
425		62.500000
426		58.593750
427		62.500000
428		56.640625
429		64.453125
430		56.640625
431		62.500000
432		56.640625
433		62.500000
434		54.687500
435		62.500000
436		54.687500
437		62.500000
438		54.687500
439		60.546875
440		54.687500
441		60.546875
442		54.687500
443		58.593750
444		52.734375
445		58.593750
446		52.734375
447		58.593750
448		50.781250
449		58.593750
450		50.781250
451		56.640625
452		48.828125
453		56.640625
454		48.828125
455		54.687500
456		48.828125
457		54.687500
458		48.828125
459		52.734375
460		46.875000
461		50.781250
462		44.921875
463		52.734375
464		44.921875
465		50.781250
466		42.968750
467		50.781250
468		41.015625
469		48.828125
470		41.015625
471		48.828125
472		39.062500
473		46.875000
474		41.015625
475		42.968750
476		39.062500
477		42.968750
478		37.109375
479		42.968750
480		35.156250
481		42.968750
482		35.156250
483		41.015625
484		33.203125
485		39.062500
486		31.250000
487		39.062500
488		31.250000
489		37.109375
490		29.296875
491		35.156250
492		29.296875
493		33.203125
494		27.343750
495		33.203125
496		25.390625
497		33.203125
498		23.437500
499		31.250000
500		23.437500
501		29.296875
502		21.484375
503		27.343750
504		19.531250
505		27.343750
506		19.531250
507		25.390625
508		19.531250
509		23.437500
510		17.578125
511		21.484375
512		15.625000
513		21.484375
514		13.671875
515		19.531250
516		11.718750
517		19.531250
518		9.765625
519		17.578125
520		9.765625
521		15.625000
522		7.812500
523		13.671875
524		7.812500
525		13.671875
526		5.859375
527		9.765625
528		1.953125
529		9.765625
530		1.953125
531		7.812500
532		0.000000
533		7.812500
534		-1.953125
535		5.859375
536		-1.953125
537		3.906250
538		-3.906250
539		3.906250
540		-5.859375
541		1.953125
542		-3.906250
543		-1.953125
544		-5.859375
545		-3.906250
546		-9.765625
547		-1.953125
548		-11.718750
549		-3.906250
550		-11.718750
551		-5.859375
552		-13.671875
553		-7.812500
554		-15.625000
555		-7.812500
556		-15.625000
557		-9.765625
558		-15.625000
559		-11.718750
560		-17.578125
561		-13.671875
562		-19.531250
563		-13.671875
564		-21.484375
565		-15.625000
566		-21.484375
567		-15.625000
568		-23.437500
569		-15.625000
570		-25.390625
571		-17.578125
572		-27.343750
573		-19.531250
574		-25.390625
575		-19.531250
576		-25.390625
577		-23.437500
578		-29.296875
579		-23.437500
580		-31.250000
581		-23.437500
582		-31.250000
583		-25.390625
584		-31.250000
585		-25.390625
586		-33.203125
587		-27.343750
588		-33.203125
589		-27.343750
590		-35.156250
591		-29.296875
592		-33.203125
593		-31.250000
594		-35.156250
595		-31.250000
596		-37.109375
597		-31.250000
598		-39.062500
599		-31.250000
600		-39.062500
601		-33.203125
602		-39.062500
603		-33.203125
604		-41.015625
605		-33.203125
606		-41.015625
607		-35.156250
608		-41.015625
609		-35.156250
610		-41.015625
611		-37.109375
612		-42.968750
613		-37.109375
614		-42.968750
615		-37.109375
616		-42.968750
617		-37.109375
618		-44.921875
619		-37.109375
620		-44.921875
621		-37.109375
622		-44.921875
623		-39.062500
624		-44.921875
625		-39.062500
626		-42.968750
627		-41.015625
628		-42.968750
629		-41.015625
630		-44.921875
631		-39.062500
632		-46.875000
633		-39.062500
634		-46.875000
635		-39.062500
636		-46.875000
637		-39.062500
638		-46.875000
639		-39.062500
640		-44.921875
641		-39.062500
642		-44.921875
643		-39.062500
644		-42.968750
645		-41.015625
646		-44.921875
647		-39.062500
648		-44.921875
649		-39.062500
650		-44.921875
651		-39.062500
652		-44.921875
653		-39.062500
654		-44.921875
655		-39.062500
656		-44.921875
657		-37.109375
658		-42.968750
659		-37.109375
660		-41.015625
661		-39.062500
662		-42.968750
663		-37.109375
664		-42.968750
665		-37.109375
666		-42.968750
667		-35.156250
668		-41.015625
669		-35.156250
670		-41.015625
671		-35.156250
672		-41.015625
673		-33.203125
674		-39.062500
675		-33.203125
676		-37.109375
677		-35.156250
678		-35.156250
679		-33.203125
680		-37.109375
681		-31.250000
682		-37.109375
683		-29.296875
684		-35.156250
685		-29.296875
686		-35.156250
687		-29.296875
688		-33.203125
689		-27.343750
690		-33.203125
691		-27.343750
692		-31.250000
693		-25.390625
694		-29.296875
695		-25.390625
696		-29.296875
697		-23.437500
698		-29.296875
699		-21.484375
700		-27.343750
701		-21.484375
702		-27.343750
703		-19.531250
704		-25.390625
705		-17.578125
706		-25.390625
707		-17.578125
708		-23.437500
709		-17.578125
710		-19.531250
711		-17.578125
712		-19.531250
713		-15.625000
714		-19.531250
715		-13.671875
716		-19.531250
717		-11.718750
718		-17.578125
719		-9.765625
720		-15.625000
721		-9.765625
722		-13.671875
723		-7.812500
724		-13.671875
725		-5.859375
726		-11.718750
727		-5.859375
728		-7.812500
729		-5.859375
730		-7.812500
731		-1.953125
732		-7.812500
733		-1.953125
734		-5.859375
735		0.000000
736		-5.859375
737		1.953125
738		-3.906250
739		3.906250
740		-1.953125
741		3.906250
742		-1.953125
743		5.859375
744		1.953125
745		5.859375
746		3.906250
747		7.812500
748		3.906250
749		9.765625
750		3.906250
751		11.718750
752		5.859375
753		13.671875
754		7.812500
755		13.671875
756		9.765625
757		15.625000
758		9.765625
759		17.578125
760		13.671875
761		17.578125
762		15.625000
763		17.578125
764		15.625000
765		21.484375
766		15.625000
767		23.437500
768		17.578125
769		23.437500
770		19.531250
771		25.390625
772		19.531250
773		27.343750
774		21.484375
775		27.343750
776		23.437500
777		29.296875
778		25.390625
779		29.296875
780		27.343750
781		33.203125
782		25.390625
783		33.203125
784		29.296875
785		35.156250
786		29.296875
787		37.109375
788		31.250000
789		37.109375
790		31.250000
791		39.062500
792		33.203125
793		39.062500
794		35.156250
795		39.062500
796		37.109375
797		41.015625
798		37.109375
799		42.968750
800		37.109375
801		44.921875
802		39.062500
803		44.921875
804		39.062500
805		46.875000
806		39.062500
807		46.875000
808		41.015625
809		48.828125
810		42.968750
811		48.828125
812		44.921875
813		48.828125
814		44.921875
815		50.781250
816		44.921875
817		52.734375
818		46.875000
819		52.734375
820		46.875000
821		54.687500
822		48.828125
823		54.687500
824		48.828125
825		54.687500
826		50.781250
827		56.640625
828		52.734375
829		54.687500
830		52.734375
831		56.640625
832		52.734375
833		58.593750
834		52.734375
835		60.546875
836		52.734375
837		60.546875
838		52.734375
839		60.546875
840		54.687500
841		60.546875
842		54.687500
843		60.546875
844		58.593750
845		60.546875
846		58.593750
847		60.546875
848		56.640625
849		62.500000
850		56.640625
851		62.500000
852		56.640625
853		64.453125
854		58.593750
855		64.453125
856		56.640625
857		64.453125
858		58.593750
859		64.453125
860		58.593750
861		64.453125
862		60.546875
863		62.500000
864		60.546875
865		64.453125
866		58.593750
867		66.406250
868		58.593750
869		66.406250
870		60.546875
871		64.453125
872		58.593750
873		66.406250
874		58.593750
875		66.406250
876		58.593750
877		64.453125
878		62.500000
879		64.453125
880		62.500000
881		64.453125
882		58.593750
883		66.406250
884		58.593750
885		66.406250
886		58.593750
887		66.406250
888		58.593750
889		64.453125
890		58.593750
891		64.453125
892		58.593750
893		64.453125
894		58.593750
895		64.453125
896		58.593750
897		62.500000
898		56.640625
899		62.500000
900		56.640625
901		62.500000
902		56.640625
903		62.500000
904		54.687500
905		62.500000
906		54.687500
907		62.500000
908		54.687500
909		62.500000
910		54.687500
911		60.546875
912		56.640625
913		58.593750
914		54.687500
915		58.593750
916		52.734375
917		58.593750
918		50.781250
919		58.593750
920		50.781250
921		56.640625
922		48.828125
923		56.640625
924		48.828125
925		56.640625
926		48.828125
927		54.687500
928		48.828125
929		52.734375
930		48.828125
931		50.781250
932		44.921875
933		50.781250
934		44.921875
935		50.781250
936		42.968750
937		50.781250
938		42.968750
939		48.828125
940		42.968750
941		48.828125
942		39.062500
943		46.875000
944		39.062500
945		46.875000
946		41.015625
947		42.968750
948		39.062500
949		42.968750
950		35.156250
951		42.968750
952		35.156250
953		41.015625
954		33.203125
955		41.015625
956		33.203125
957		39.062500
958		31.250000
959		37.109375
960		29.296875
961		37.109375
962		31.250000
963		33.203125
964		29.296875
965		33.203125
966		25.390625
967		33.203125
968		25.390625
969		31.250000
970		23.437500
971		29.296875
972		21.484375
973		29.296875
974		21.484375
975		27.343750
976		19.531250
977		25.390625
978		17.578125
979		25.390625
980		17.578125
981		21.484375
982		15.625000
983		21.484375
984		13.671875
985		21.484375
986		11.718750
987		19.531250
988		9.765625
989		17.578125
990		9.765625
991		15.625000
992		7.812500
993		15.625000
994		5.859375
995		13.671875
996		7.812500
997		9.765625
998		3.906250
999		7.812500
1000		1.953125
1001		9.765625
1002		1.953125
1003		7.812500
1004		-1.953125
1005		5.859375
1006		-1.953125
1007		5.859375
1008		-3.906250
1009		3.906250
1010		-5.859375
1011		1.953125
1012		-3.906250
1013		-1.953125
1014		-5.859375
1015		-1.953125
1016		-7.812500
1017		-3.906250
1018		-9.765625
1019		-3.906250
1020		-11.718750
1021		-5.859375
1022		-13.671875
1023		-5.859375
1024		-13.671875
1025		-7.812500
1026		-15.625000
1027		-7.812500
1028		-15.625000
1029		-9.765625
1030		-15.625000
1031		-13.671875
1032		-17.578125
1033		-13.671875
1034		-21.484375
1035		-13.671875
1036		-21.484375
1037		-15.625000
1038		-23.437500
1039		-15.625000
1040		-25.390625
1041		-17.578125
1042		-25.390625
1043		-19.531250
1044		-27.343750
1045		-19.531250
1046		-27.343750
1047		-23.437500
1048		-27.343750
1049		-23.437500
1050		-29.296875
1051		-23.437500
1052		-31.250000
1053		-23.437500
1054		-31.250000
1055		-25.390625
1056		-33.203125
1057		-25.390625
1058		-35.156250
1059		-25.390625
1060		-35.156250
1061		-27.343750
1062		-35.156250
1063		-29.296875
1064		-35.156250
1065		-31.250000
1066		-39.062500
1067		-31.250000
1068		-39.062500
1069		-31.250000
1070		-39.062500
1071		-33.203125
1072		-39.062500
1073		-33.203125
1074		-41.015625
1075		-33.203125
1076		-41.015625
1077		-35.156250
1078		-42.968750
1079		-35.156250
1080		-41.015625
1081		-37.109375
1082		-41.015625
1083		-37.109375
1084		-42.968750
1085		-37.109375
1086		-42.968750
1087		-37.109375
1088		-44.921875
1089		-37.109375
1090		-44.921875
1091		-37.109375
1092		-44.921875
1093		-37.109375
1094		-44.921875
1095		-39.062500
1096		-42.968750
1097		-41.015625
1098		-42.968750
1099		-41.015625
1100		-44.921875
1101		-39.062500
1102		-44.921875
1103		-39.062500
1104		-46.875000
1105		-39.062500
1106		-46.875000
1107		-39.062500
1108		-46.875000
1109		-39.062500
1110		-44.921875
1111		-39.062500
1112		-46.875000
1113		-39.062500
1114		-42.968750
1115		-41.015625
1116		-42.968750
1117		-41.015625
1118		-44.921875
1119		-39.062500
1120		-44.921875
1121		-39.062500
1122		-44.921875
1123		-39.062500
1124		-44.921875
1125		-39.062500
1126		-44.921875
1127		-39.062500
1128		-44.921875
1129		-37.109375
1130		-41.015625
1131		-39.062500
1132		-41.015625
1133		-39.062500
1134		-42.968750
1135		-37.109375
1136		-42.968750
1137		-35.156250
1138		-41.015625
1139		-35.156250
1140		-41.015625
1141		-35.156250
1142		-41.015625
1143		-33.203125
1144		-41.015625
1145		-33.203125
1146		-39.062500
1147		-33.203125
1148		-37.109375
1149		-33.203125
1150		-37.109375
1151		-31.250000
1152		-37.109375
1153		-29.296875
1154		-37.109375
1155		-29.296875
1156		-35.156250
1157		-27.343750
1158		-35.156250
1159		-27.343750
1160		-33.203125
1161		-27.343750
1162		-33.203125
1163		-25.390625
1164		-29.296875
1165		-27.343750
1166		-29.296875
1167		-25.390625
1168		-29.296875
1169		-21.484375
1170		-27.343750
1171		-21.484375
1172		-27.343750
1173		-19.531250
1174		-25.390625
1175		-19.531250
1176		-25.390625
1177		-17.578125
1178		-23.437500
1179		-17.578125
1180		-21.484375
1181		-17.578125
1182		-19.531250
1183		-15.625000
1184		-19.531250
1185		-13.671875
1186		-19.531250
1187		-11.718750
1188		-17.578125
1189		-9.765625
1190		-17.578125
1191		-9.765625
1192		-15.625000
1193		-7.812500
1194		-13.671875
1195		-7.812500
1196		-11.718750
1197		-5.859375
1198		-9.765625
1199		-5.859375
1200		-7.812500
1201		-3.906250
1202		-7.812500
1203		0.000000
1204		-7.812500
1205		0.000000
1206		-5.859375
1207		1.953125
1208		-3.906250
1209		1.953125
1210		-1.953125
1211		3.906250
1212		-1.953125
1213		5.859375
1214		1.953125
1215		3.906250
1216		3.906250
1217		5.859375
1218		1.953125
1219		9.765625
1220		3.906250
1221		11.718750
1222		5.859375
1223		13.671875
1224		7.812500
1225		13.671875
1226		9.765625
1227		15.625000
1228		9.765625
1229		17.578125
1230		11.718750
1231		17.578125
1232		13.671875
1233		17.578125
1234		15.625000
1235		21.484375
1236		15.625000
1237		21.484375
1238		17.578125
1239		23.437500
1240		17.578125
1241		25.390625
1242		19.531250
1243		25.390625
1244		19.531250
1245		27.343750
1246		21.484375
1247		29.296875
1248		25.390625
1249		29.296875
1250		25.390625
1251		31.250000
1252		27.343750
1253		33.203125
1254		27.343750
1255		35.156250
1256		29.296875
1257		35.156250
1258		31.250000
1259		37.109375
1260		31.250000
1261		37.109375
1262		31.250000
1263		39.062500
1264		35.156250
1265		39.062500
1266		37.109375
1267		39.062500
1268		37.109375
1269		42.968750
1270		37.109375
1271		44.921875
1272		37.109375
1273		44.921875
1274		39.062500
1275		44.921875
1276		41.015625
1277		48.828125
1278		41.015625
1279		48.828125
1280		42.968750
1281		48.828125
1282		44.921875
1283		48.828125
1284		44.921875
1285		50.781250
1286		44.921875
1287		52.734375
1288		46.875000
1289		52.734375
1290		46.875000
1291		52.734375
1292		46.875000
1293		54.687500
1294		48.828125
1295		56.640625
1296		48.828125
1297		56.640625
1298		52.734375
1299		54.687500
1300		52.734375
1301		56.640625
1302		52.734375
1303		58.593750
1304		52.734375
1305		58.593750
1306		52.734375
1307		60.546875
1308		54.687500
1309		60.546875
1310		54.687500
1311		60.546875
1312		54.687500
1313		60.546875
1314		54.687500
1315		62.500000
1316		58.593750
1317		60.546875
1318		58.593750
1319		62.500000
1320		56.640625
1321		64.453125
1322		58.593750
1323		64.453125
1324		56.640625
1325		64.453125
1326		58.593750
1327		64.453125
1328		58.593750
1329		64.453125
1330		58.593750
1331		66.406250
1332		60.546875
1333		64.453125
1334		60.546875
1335		64.453125
1336		60.546875
1337		66.406250
1338		60.546875
1339		66.406250
1340		58.593750
1341		66.406250
1342		60.546875
1343		66.406250
1344		60.546875
1345		66.406250
1346		60.546875
1347		66.406250
1348		62.500000
1349		64.453125
1350		62.500000
1351		64.453125
1352		60.546875
1353		66.406250
1354		60.546875
1355		66.406250
1356		60.546875
1357		66.406250
1358		58.593750
1359		66.406250
1360		58.593750
1361		66.406250
1362		58.593750
1363		66.406250
1364		58.593750
1365		64.453125
1366		60.546875
1367		62.500000
1368		58.593750
1369		64.453125
1370		58.593750
1371		64.453125
1372		58.593750
1373		62.500000
1374		56.640625
1375		64.453125
1376		56.640625
1377		62.500000
1378		56.640625
1379		62.500000
1380		54.687500
1381		62.500000
1382		56.640625
1383		60.546875
1384		56.640625
1385		58.593750
1386		52.734375
1387		60.546875
1388		52.734375
1389		58.593750
1390		54.687500
1391		58.593750
1392		50.781250
1393		58.593750
1394		50.781250
1395		56.640625
1396		50.781250
1397		56.640625
1398		50.781250
1399		54.687500
1400		50.781250
1401		52.734375
1402		48.828125
1403		52.734375
1404		46.875000
1405		52.734375
1406		46.875000
1407		50.781250
1408		46.875000
1409		48.828125
1410		42.968750
1411		48.828125
1412		42.968750
1413		48.828125
1414		41.015625
1415		48.828125
1416		42.968750
1417		44.921875
1418		41.015625
1419		44.921875
1420		37.109375
1421		44.921875
1422		39.062500
1423		42.968750
1424		37.109375
1425		41.015625
1426		37.109375
1427		39.062500
1428		33.203125
1429		39.062500
1430		33.203125
1431		39.062500
1432		33.203125
1433		37.109375
1434		31.250000
1435		35.156250
1436		29.296875
1437		33.203125
1438		27.343750
1439		31.250000
1440		27.343750
1441		31.250000
1442		25.390625
1443		29.296875
1444		25.390625
1445		27.343750
1446		23.437500
1447		27.343750
1448		21.484375
1449		25.390625
1450		21.484375
1451		23.437500
1452		17.578125
1453		23.437500
1454		17.578125
1455		21.484375
1456		15.625000
1457		19.531250
1458		15.625000
1459		17.578125
1460		13.671875
1461		17.578125
1462		11.718750
1463		15.625000
1464		9.765625
1465		13.671875
1466		9.765625
1467		11.718750
1468		7.812500
1469		11.718750
1470		5.859375
1471		9.765625
1472		5.859375
1473		7.812500
1474		1.953125
1475		7.812500
1476		1.953125
1477		5.859375
1478		0.000000
1479		3.906250
1480		0.000000
1481		3.906250
1482		-1.953125
1483		1.953125
1484		-3.906250
1485		0.000000
1486		-3.906250
1487		-1.953125
1488		-5.859375
1489		-1.953125
1490		-7.812500
1491		-3.906250
1492		-7.812500
1493		-5.859375
1494		-9.765625
1495		-5.859375
1496		-11.718750
1497		-7.812500
1498		-11.718750
1499		-9.765625
1500		-13.671875
1501		-9.765625
1502		-15.625000
1503		-11.718750
1504		-17.578125
1505		-11.718750
1506		-19.531250
1507		-13.671875
1508		-19.531250
1509		-15.625000
1510		-19.531250
1511		-17.578125
1512		-21.484375
1513		-17.578125
1514		-23.437500
1515		-19.531250
1516		-23.437500
1517		-19.531250
1518		-25.390625
1519		-21.484375
1520		-25.390625
1521		-21.484375
1522		-27.343750
1523		-23.437500
1524		-27.343750
1525		-25.390625
1526		-29.296875
1527		-25.390625
1528		-29.296875
1529		-27.343750
1530		-31.250000
1531		-27.343750
1532		-31.250000
1533		-27.343750
1534		-33.203125
1535		-29.296875
1536		-33.203125
1537		-29.296875
1538		-33.203125
1539		-31.250000
1540		-35.156250
1541		-31.250000
1542		-35.156250
1543		-33.203125
1544		-37.109375
1545		-33.203125
1546		-37.109375
1547		-33.203125
1548		-39.062500
1549		-35.156250
1550		-37.109375
1551		-35.156250
1552		-39.062500
1553		-35.156250
1554		-39.062500
1555		-35.156250
1556		-39.062500
1557		-37.109375
1558		-41.015625
1559		-37.109375
1560		-41.015625
1561		-37.109375
1562		-41.015625
1563		-37.109375
1564		-41.015625
1565		-37.109375
1566		-42.968750
1567		-39.062500
1568		-41.015625
1569		-39.062500
1570		-42.968750
1571		-39.062500
1572		-42.968750
1573		-39.062500
1574		-42.968750
1575		-39.062500
1576		-42.968750
1577		-39.062500
1578		-42.968750
1579		-39.062500
1580		-42.968750
1581		-39.062500
1582		-42.968750
1583		-39.062500
1584		-42.968750
1585		-39.062500
1586		-42.968750
1587		-39.062500
1588		-42.968750
1589		-39.062500
1590		-42.968750
1591		-39.062500
1592		-42.968750
1593		-39.062500
1594		-41.015625
1595		-39.062500
1596		-41.015625
1597		-39.062500
1598		-41.015625
1599		-37.109375
1600		-41.015625
1601		-37.109375
1602		-41.015625
1603		-37.109375
1604		-39.062500
1605		-37.109375
1606		-39.062500
1607		-37.109375
1608		-39.062500
1609		-35.156250
1610		-39.062500
1611		-35.156250
1612		-37.109375
1613		-35.156250
1614		-37.109375
1615		-33.203125
1616		-37.109375
1617		-33.203125
1618		-35.156250
1619		-33.203125
1620		-35.156250
1621		-31.250000
1622		-35.156250
1623		-31.250000
1624		-33.203125
1625		-29.296875
1626		-33.203125
1627		-29.296875
1628		-31.250000
1629		-29.296875
1630		-31.250000
1631		-27.343750
1632		-29.296875
1633		-25.390625
1634		-29.296875
1635		-25.390625
1636		-27.343750
1637		-23.437500
1638		-27.343750
1639		-23.437500
1640		-25.390625
1641		-21.484375
1642		-25.390625
1643		-21.484375
1644		-23.437500
1645		-19.531250
1646		-23.437500
1647		-19.531250
1648		-21.484375
1649		-17.578125
1650		-19.531250
1651		-17.578125
1652		-19.531250
1653		-15.625000
1654		-17.578125
1655		-13.671875
1656		-17.578125
1657		-13.671875
1658		-15.625000
1659		-11.718750
1660		-13.671875
1661		-9.765625
1662		-11.718750
1663		-9.765625
1664		-11.718750
1665		-7.812500
1666		-9.765625
1667		-5.859375
1668		-7.812500
1669		-5.859375
1670		-7.812500
1671		-3.906250
1672		-5.859375
1673		-1.953125
1674		-3.906250
1675		-1.953125
1676		-3.906250
1677		0.000000
1678		-1.953125
1679		1.953125
1680		0.000000
1681		3.906250
1682		0.000000
1683		3.906250
1684		1.953125
1685		5.859375
1686		3.906250
1687		7.812500
1688		3.906250
1689		7.812500
1690		5.859375
1691		9.765625
1692		7.812500
1693		11.718750
1694		7.812500
1695		13.671875
1696		9.765625
1697		13.671875
1698		11.718750
1699		15.625000
1700		13.671875
1701		17.578125
1702		13.671875
1703		17.578125
1704		15.625000
1705		19.531250
1706		15.625000
1707		21.484375
1708		19.531250
1709		23.437500
1710		19.531250
1711		23.437500
1712		21.484375
1713		25.390625
1714		21.484375
1715		27.343750
1716		23.437500
1717		27.343750
1718		25.390625
1719		29.296875
1720		27.343750
1721		29.296875
1722		27.343750
1723		31.250000
1724		29.296875
1725		33.203125
1726		31.250000
1727		33.203125
1728		31.250000
1729		35.156250
1730		33.203125
1731		37.109375
1732		35.156250
1733		37.109375
1734		35.156250
1735		39.062500
1736		37.109375
1737		41.015625
1738		39.062500
1739		42.968750
1740		39.062500
1741		42.968750
1742		41.015625
1743		44.921875
1744		41.015625
1745		44.921875
1746		41.015625
1747		46.875000
1748		42.968750
1749		46.875000
1750		44.921875
1751		48.828125
1752		44.921875
1753		48.828125
1754		46.875000
1755		48.828125
1756		46.875000
1757		50.781250
1758		48.828125
1759		50.781250
1760		48.828125
1761		52.734375
1762		50.781250
1763		52.734375
1764		50.781250
1765		54.687500
1766		52.734375
1767		54.687500
1768		52.734375
1769		56.640625
1770		54.687500
1771		56.640625
1772		52.734375
1773		58.593750
1774		54.687500
1775		58.593750
1776		54.687500
1777		58.593750
1778		56.640625
1779		58.593750
1780		56.640625
1781		60.546875
1782		58.593750
1783		60.546875
1784		58.593750
1785		60.546875
1786		58.593750
1787		62.500000
1788		58.593750
1789		62.500000
1790		58.593750
1791		62.500000
1792		58.593750
1793		62.500000
1794		60.546875
1795		64.453125
1796		60.546875
1797		64.453125
1798		60.546875
1799		64.453125
1800		62.500000
1801		64.453125
1802		60.546875
1803		64.453125
1804		62.500000
1805		64.453125
1806		62.500000
1807		66.406250
1808		62.500000
1809		66.406250
1810		62.500000
1811		66.406250
1812		62.500000
1813		66.406250
1814		62.500000
1815		66.406250
1816		62.500000
1817		66.406250
1818		62.500000
1819		66.406250
1820		62.500000
1821		66.406250
1822		62.500000
1823		66.406250
1824		62.500000
1825		66.406250
1826		62.500000
1827		66.406250
1828		62.500000
1829		64.453125
1830		62.500000
1831		64.453125
1832		62.500000
1833		64.453125
1834		60.546875
1835		64.453125
1836		62.500000
1837		64.453125
1838		60.546875
1839		64.453125
1840		60.546875
1841		64.453125
1842		60.546875
1843		62.500000
1844		60.546875
1845		62.500000
1846		58.593750
1847		62.500000
1848		58.593750
1849		62.500000
1850		58.593750
1851		62.500000
1852		58.593750
1853		60.546875
1854		56.640625
1855		60.546875
1856		56.640625
1857		58.593750
1858		56.640625
1859		58.593750
1860		54.687500
1861		58.593750
1862		54.687500
1863		58.593750
1864		52.734375
1865		56.640625
1866		52.734375
1867		56.640625
1868		50.781250
1869		54.687500
1870		50.781250
1871		54.687500
1872		50.781250
1873		52.734375
1874		48.828125
1875		52.734375
1876		48.828125
1877		50.781250
1878		46.875000
1879		50.781250
1880		46.875000
1881		48.828125
1882		44.921875
1883		48.828125
1884		42.968750
1885		46.875000
1886		42.968750
1887		46.875000
1888		41.015625
1889		44.921875
1890		41.015625
1891		44.921875
1892		39.062500
1893		42.968750
1894		39.062500
1895		41.015625
1896		37.109375
1897		41.015625
1898		37.109375
1899		39.062500
1900		35.156250
1901		39.062500
1902		33.203125
1903		37.109375
1904		33.203125
1905		35.156250
1906		29.296875
1907		35.156250
1908		29.296875
1909		33.203125
1910		29.296875
1911		31.250000
1912		27.343750
1913		31.250000
1914		25.390625
1915		29.296875
1916		25.390625
1917		29.296875
1918		23.437500
1919		27.343750
1920		21.484375
1921		25.390625
1922		19.531250
1923		23.437500
1924		17.578125
1925		23.437500
1926		17.578125
1927		21.484375
1928		15.625000
1929		19.531250
1930		13.671875
1931		17.578125
1932		13.671875
1933		17.578125
1934		11.718750
1935		15.625000
1936		9.765625
1937		13.671875
1938		9.765625
1939		11.718750
1940		7.812500
1941		9.765625
1942		5.859375
1943		9.765625
1944		3.906250
1945		7.812500
1946		3.906250
1947		5.859375
1948		1.953125
1949		5.859375
1950		0.000000
1951		3.906250
1952		-1.953125
1953		1.953125
1954		-1.953125
1955		0.000000
1956		-3.906250
1957		0.000000
1958		-5.859375
1959		-1.953125
1960		-5.859375
1961		-1.953125
1962		-7.812500
1963		-3.906250
1964		-9.765625
1965		-5.859375
1966		-11.718750
1967		-7.812500
1968		-11.718750
1969		-7.812500
1970		-13.671875
1971		-9.765625
1972		-13.671875
1973		-11.718750
1974		-17.578125
1975		-11.718750
1976		-17.578125
1977		-13.671875
1978		-19.531250
1979		-15.625000
1980		-19.531250
1981		-15.625000
1982		-21.484375
1983		-17.578125
1984		-21.484375
1985		-19.531250
1986		-23.437500
1987		-19.531250
1988		-23.437500
1989		-21.484375
1990		-25.390625
1991		-21.484375
1992		-27.343750
1993		-23.437500
1994		-27.343750
1995		-23.437500
1996		-27.343750
1997		-25.390625
1998		-29.296875
1999		-25.390625
2000		-31.250000
2001		-27.343750
2002		-31.250000
2003		-27.343750
2004		-31.250000
2005		-29.296875
2006		-33.203125
2007		-29.296875
2008		-35.156250
2009		-31.250000
2010		-35.156250
2011		-31.250000
2012		-35.156250
2013		-31.250000
2014		-37.109375
2015		-33.203125
2016		-37.109375
2017		-33.203125
2018		-37.109375
2019		-35.156250
2020		-39.062500
2021		-35.156250
2022		-39.062500
2023		-35.156250
2024		-39.062500
2025		-35.156250
2026		-41.015625
2027		-37.109375
2028		-41.015625
2029		-37.109375
2030		-41.015625
2031		-37.109375
2032		-41.015625
2033		-37.109375
2034		-41.015625
2035		-39.062500
2036		-42.968750
2037		-39.062500
2038		-41.015625
2039		-39.062500
2040		-42.968750
2041		-39.062500
2042		-42.968750
2043		-39.062500
2044		-42.968750
2045		-39.062500
2046		-42.968750
2047		-39.062500
2048		-42.968750
2049		-41.015625
2050		-42.968750
2051		-41.015625
2052		-42.968750
2053		-39.062500
2054		-42.968750
2055		-39.062500
2056		-42.968750
2057		-41.015625
2058		-42.968750
2059		-39.062500
2060		-42.968750
2061		-39.062500
2062		-42.968750
2063		-39.062500
2064		-42.968750
2065		-39.062500
2066		-42.968750
2067		-39.062500
2068		-41.015625
2069		-39.062500
2070		-41.015625
2071		-37.109375
2072		-41.015625
2073		-37.109375
2074		-41.015625
2075		-35.156250
2076		-39.062500
2077		-37.109375
2078		-39.062500
2079		-35.156250
2080		-39.062500
2081		-37.109375
2082		-39.062500
2083		-35.156250
2084		-39.062500
2085		-35.156250
2086		-37.109375
2087		-33.203125
2088		-37.109375
2089		-33.203125
2090		-35.156250
2091		-33.203125
2092		-35.156250
2093		-31.250000
2094		-33.203125
2095		-31.250000
2096		-33.203125
2097		-29.296875
2098		-33.203125
2099		-29.296875
2100		-31.250000
2101		-29.296875
2102		-31.250000
2103		-27.343750
2104		-29.296875
2105		-25.390625
2106		-29.296875
2107		-25.390625
2108		-27.343750
2109		-23.437500
2110		-27.343750
2111		-23.437500
2112		-25.390625
2113		-21.484375
2114		-23.437500
2115		-21.484375
2116		-23.437500
2117		-19.531250
2118		-21.484375
2119		-19.531250
2120		-21.484375
2121		-17.578125
2122		-19.531250
2123		-17.578125
2124		-17.578125
2125		-15.625000
2126		-19.531250
2127		-13.671875
2128		-15.625000
2129		-11.718750
2130		-15.625000
2131		-11.718750
2132		-13.671875
2133		-9.765625
2134		-13.671875
2135		-9.765625
2136		-11.718750
2137		-7.812500
2138		-9.765625
2139		-7.812500
2140		-7.812500
2141		-5.859375
2142		-7.812500
2143		-1.953125
2144		-5.859375
2145		-1.953125
2146		-3.906250
2147		-1.953125
2148		-3.906250
2149		0.000000
2150		-1.953125
2151		1.953125
2152		0.000000
2153		3.906250
2154		0.000000
2155		3.906250
2156		1.953125
2157		5.859375
2158		3.906250
2159		7.812500
2160		3.906250
2161		7.812500
2162		5.859375
2163		9.765625
2164		7.812500
2165		11.718750
2166		9.765625
2167		11.718750
2168		11.718750
2169		13.671875
2170		11.718750
2171		15.625000
2172		13.671875
2173		17.578125
2174		15.625000
2175		17.578125
2176		15.625000
2177		19.531250
2178		17.578125
2179		21.484375
2180		19.531250
2181		21.484375
2182		19.531250
2183		23.437500
2184		21.484375
2185		25.390625
2186		23.437500
2187		25.390625
2188		23.437500
2189		27.343750
2190		25.390625
2191		29.296875
2192		25.390625
2193		31.250000
2194		27.343750
2195		31.250000
2196		29.296875
2197		33.203125
2198		31.250000
2199		33.203125
2200		31.250000
2201		35.156250
2202		33.203125
2203		37.109375
2204		33.203125
2205		37.109375
2206		35.156250
2207		39.062500
2208		37.109375
2209		41.015625
2210		37.109375
2211		41.015625
2212		39.062500
2213		42.968750
2214		39.062500
2215		42.968750
2216		41.015625
2217		44.921875
2218		42.968750
2219		46.875000
2220		42.968750
2221		46.875000
2222		42.968750
2223		46.875000
2224		44.921875
2225		48.828125
2226		46.875000
2227		48.828125
2228		46.875000
2229		50.781250
2230		48.828125
2231		50.781250
2232		48.828125
2233		52.734375
2234		48.828125
2235		52.734375
2236		50.781250
2237		54.687500
2238		50.781250
2239		54.687500
2240		52.734375
2241		56.640625
2242		52.734375
2243		56.640625
2244		54.687500
2245		56.640625
2246		54.687500
2247		58.593750
2248		54.687500
2249		58.593750
2250		56.640625
2251		58.593750
2252		56.640625
2253		60.546875
2254		56.640625
2255		60.546875
2256		58.593750
2257		60.546875
2258		58.593750
2259		60.546875
2260		58.593750
2261		62.500000
2262		58.593750
2263		62.500000
2264		60.546875
2265		62.500000
2266		60.546875
2267		64.453125
2268		60.546875
2269		64.453125
2270		60.546875
2271		64.453125
2272		60.546875
2273		64.453125
2274		62.500000
2275		64.453125
2276		60.546875
2277		64.453125
2278		62.500000
2279		64.453125
2280		62.500000
2281		64.453125
2282		62.500000
2283		64.453125
2284		62.500000
2285		64.453125
2286		62.500000
2287		66.406250
2288		60.546875
2289		66.406250
2290		62.500000
2291		64.453125
2292		62.500000
2293		64.453125
2294		62.500000
2295		66.406250
2296		62.500000
2297		66.406250
2298		62.500000
2299		64.453125
2300		62.500000
2301		64.453125
2302		60.546875
2303		64.453125
2304		60.546875
2305		64.453125
2306		60.546875
2307		64.453125
2308		60.546875
2309		64.453125
2310		60.546875
2311		62.500000
2312		60.546875
2313		64.453125
2314		60.546875
2315		62.500000
2316		58.593750
2317		62.500000
2318		58.593750
2319		62.500000
2320		58.593750
2321		62.500000
2322		56.640625
2323		60.546875
2324		56.640625
2325		60.546875
2326		56.640625
2327		58.593750
2328		54.687500
2329		58.593750
2330		54.687500
2331		58.593750
2332		54.687500
2333		58.593750
2334		54.687500
2335		56.640625
2336		52.734375
2337		56.640625
2338		52.734375
2339		54.687500
2340		50.781250
2341		54.687500
2342		50.781250
2343		52.734375
2344		48.828125
2345		52.734375
2346		48.828125
2347		52.734375
2348		46.875000
2349		50.781250
2350		46.875000
2351		50.781250
2352		44.921875
2353		48.828125
2354		44.921875
2355		46.875000
2356		42.968750
2357		46.875000
2358		42.968750
2359		44.921875
2360		41.015625
2361		44.921875
2362		41.015625
2363		42.968750
2364		39.062500
2365		42.968750
2366		37.109375
2367		41.015625
2368		37.109375
2369		39.062500
2370		35.156250
2371		39.062500
2372		33.203125
2373		37.109375
2374		33.203125
2375		37.109375
2376		31.250000
2377		35.156250
2378		29.296875
2379		33.203125
2380		29.296875
2381		33.203125
2382		27.343750
2383		31.250000
2384		25.390625
2385		29.296875
2386		25.390625
2387		29.296875
2388		23.437500
2389		27.343750
2390		21.484375
2391		27.343750
2392		21.484375
2393		23.437500
2394		19.531250
2395		23.437500
2396		17.578125
2397		21.484375
2398		17.578125
2399		21.484375
2400		15.625000
2401		19.531250
2402		13.671875
2403		17.578125
2404		11.718750
2405		15.625000
2406		11.718750
2407		13.671875
2408		9.765625
2409		13.671875
2410		7.812500
2411		11.718750
2412		5.859375
2413		11.718750
2414		5.859375
2415		9.765625
2416		3.906250
2417		7.812500
2418		1.953125
2419		5.859375
2420		0.000000
2421		3.906250
2422		0.000000
2423		3.906250
2424		-1.953125
2425		1.953125
2426		-1.953125
2427		0.000000
2428		-3.906250
2429		0.000000
2430		-5.859375
2431		-1.953125
2432		-7.812500
2433		-3.906250
2434		-9.765625
2435		-5.859375
2436		-9.765625
2437		-5.859375
2438		-11.718750
2439		-7.812500
2440		-13.671875
2441		-7.812500
2442		-13.671875
2443		-11.718750
2444		-15.625000
2445		-11.718750
2446		-17.578125
2447		-13.671875
2448		-17.578125
2449		-13.671875
2450		-19.531250
2451		-15.625000
2452		-19.531250
2453		-17.578125
2454		-21.484375
2455		-17.578125
2456		-23.437500
2457		-19.531250
2458		-23.437500
2459		-19.531250
2460		-25.390625
2461		-21.484375
2462		-25.390625
2463		-21.484375
2464		-27.343750
2465		-23.437500
2466		-29.296875
2467		-25.390625
2468		-29.296875
2469		-25.390625
2470		-29.296875
2471		-27.343750
2472		-31.250000
2473		-27.343750
2474		-31.250000
2475		-27.343750
2476		-33.203125
2477		-29.296875
2478		-35.156250
2479		-31.250000
2480		-33.203125
2481		-31.250000
2482		-35.156250
2483		-31.250000
2484		-35.156250
2485		-33.203125
2486		-37.109375
2487		-33.203125
2488		-37.109375
2489		-33.203125
2490		-39.062500
2491		-35.156250
2492		-39.062500
2493		-35.156250
2494		-39.062500
2495		-37.109375
2496		-39.062500
2497		-35.156250
2498		-41.015625
2499		-37.109375
2500		-41.015625
2501		-37.109375
2502		-41.015625
2503		-39.062500
2504		-41.015625
2505		-39.062500
2506		-41.015625
2507		-39.062500
2508		-42.968750
2509		-39.062500
2510		-42.968750
2511		-39.062500
2512		-42.968750
2513		-39.062500
2514		-42.968750
2515		-39.062500
2516		-42.968750
2517		-39.062500
2518		-42.968750
2519		-41.015625
2520		-42.968750
2521		-41.015625
2522		-42.968750
2523		-39.062500
2524		-44.921875
2525		-41.015625
2526		-42.968750
2527		-41.015625
2528		-42.968750
2529		-39.062500
2530		-42.968750
2531		-39.062500
2532		-42.968750
2533		-39.062500
2534		-42.968750
2535		-39.062500
2536		-42.968750
2537		-39.062500
2538		-42.968750
2539		-39.062500
2540		-41.015625
2541		-37.109375
2542		-41.015625
2543		-39.062500
2544		-41.015625
2545		-37.109375
2546		-41.015625
2547		-37.109375
2548		-39.062500
2549		-37.109375
2550		-39.062500
2551		-37.109375
2552		-39.062500
2553		-35.156250
2554		-39.062500
2555		-35.156250
2556		-37.109375
2557		-33.203125
2558		-37.109375
2559		-33.203125
2560		-35.156250
2561		-33.203125
2562		-37.109375
2563		-31.250000
2564		-35.156250
2565		-31.250000
2566		-35.156250
2567		-31.250000
2568		-33.203125
2569		-29.296875
2570		-33.203125
2571		-29.296875
2572		-31.250000
2573		-27.343750
2574		-31.250000
2575		-27.343750
2576		-29.296875
2577		-27.343750
2578		-27.343750
2579		-25.390625
2580		-27.343750
2581		-23.437500
2582		-27.343750
2583		-23.437500
2584		-25.390625
2585		-21.484375
2586		-23.437500
2587		-19.531250
2588		-23.437500
2589		-19.531250
2590		-21.484375
2591		-17.578125
2592		-21.484375
2593		-17.578125
2594		-19.531250
2595		-17.578125
2596		-19.531250
2597		-15.625000
2598		-17.578125
2599		-13.671875
2600		-15.625000
2601		-13.671875
2602		-15.625000
2603		-11.718750
2604		-13.671875
2605		-9.765625
2606		-11.718750
2607		-9.765625
2608		-11.718750
2609		-7.812500
2610		-9.765625
2611		-5.859375
2612		-7.812500
2613		-3.906250
2614		-7.812500
2615		-3.906250
2616		-5.859375
2617		-1.953125
2618		-3.906250
2619		-1.953125
2620		-3.906250
2621		0.000000
2622		-1.953125
2623		1.953125
2624		0.000000
2625		3.906250
2626		1.953125
2627		3.906250
2628		1.953125
2629		5.859375
2630		3.906250
2631		7.812500
2632		5.859375
2633		7.812500
2634		5.859375
2635		9.765625
2636		7.812500
2637		11.718750
2638		9.765625
2639		13.671875
2640		9.765625
2641		13.671875
2642		11.718750
2643		15.625000
2644		13.671875
2645		17.578125
2646		15.625000
2647		19.531250
2648		15.625000
2649		19.531250
2650		17.578125
2651		21.484375
2652		19.531250
2653		23.437500
2654		19.531250
2655		23.437500
2656		21.484375
2657		25.390625
2658		23.437500
2659		27.343750
2660		25.390625
2661		27.343750
2662		25.390625
2663		29.296875
2664		27.343750
2665		31.250000
2666		29.296875
2667		33.203125
2668		29.296875
2669		33.203125
2670		31.250000
2671		35.156250
2672		33.203125
2673		35.156250
2674		33.203125
2675		37.109375
2676		35.156250
2677		37.109375
2678		37.109375
2679		39.062500
2680		37.109375
2681		41.015625
2682		39.062500
2683		41.015625
2684		39.062500
2685		42.968750
2686		39.062500
2687		42.968750
2688		41.015625
2689		44.921875
2690		42.968750
2691		46.875000
2692		42.968750
2693		46.875000
2694		44.921875
2695		46.875000
2696		44.921875
2697		48.828125
2698		46.875000
2699		50.781250
2700		46.875000
2701		50.781250
2702		48.828125
2703		52.734375
2704		48.828125
2705		52.734375
2706		50.781250
2707		54.687500
2708		50.781250
2709		54.687500
2710		52.734375
2711		54.687500
2712		52.734375
2713		56.640625
2714		52.734375
2715		56.640625
2716		54.687500
2717		58.593750
2718		54.687500
2719		58.593750
2720		56.640625
2721		58.593750
2722		56.640625
2723		60.546875
2724		56.640625
2725		60.546875
2726		56.640625
2727		60.546875
2728		58.593750
2729		60.546875
2730		58.593750
2731		60.546875
2732		58.593750
2733		62.500000
2734		58.593750
2735		62.500000
2736		60.546875
2737		62.500000
2738		60.546875
2739		64.453125
2740		60.546875
2741		64.453125
2742		60.546875
2743		64.453125
2744		62.500000
2745		64.453125
2746		62.500000
2747		64.453125
2748		60.546875
2749		64.453125
2750		62.500000
2751		64.453125
2752		62.500000
2753		64.453125
2754		62.500000
2755		66.406250
2756		62.500000
2757		66.406250
2758		62.500000
2759		66.406250
2760		62.500000
2761		66.406250
2762		62.500000
2763		64.453125
2764		62.500000
2765		66.406250
2766		62.500000
2767		66.406250
2768		62.500000
2769		64.453125
2770		62.500000
2771		64.453125
2772		62.500000
2773		64.453125
2774		60.546875
2775		64.453125
2776		60.546875
2777		64.453125
2778		60.546875
2779		64.453125
2780		60.546875
2781		64.453125
2782		60.546875
2783		64.453125
2784		60.546875
2785		62.500000
2786		58.593750
2787		62.500000
2788		58.593750
2789		62.500000
2790		58.593750
2791		62.500000
2792		56.640625
2793		62.500000
2794		58.593750
2795		60.546875
2796		56.640625
2797		60.546875
2798		56.640625
2799		60.546875
2800		54.687500
2801		58.593750
2802		54.687500
2803		58.593750
2804		54.687500
2805		56.640625
2806		52.734375
2807		56.640625
2808		52.734375
2809		56.640625
2810		52.734375
2811		56.640625
2812		50.781250
2813		54.687500
2814		48.828125
2815		52.734375
2816		48.828125
2817		52.734375
2818		48.828125
2819		52.734375
2820		46.875000
2821		50.781250
2822		46.875000
2823		48.828125
2824		44.921875
2825		48.828125
2826		44.921875
2827		48.828125
2828		42.968750
2829		46.875000
2830		42.968750
2831		44.921875
2832		41.015625
2833		44.921875
2834		39.062500
2835		44.921875
2836		39.062500
2837		42.968750
2838		37.109375
2839		41.015625
2840		35.156250
2841		41.015625
2842		35.156250
2843		39.062500
2844		33.203125
2845		37.109375
2846		33.203125
2847		35.156250
2848		31.250000
2849		35.156250
2850		29.296875
2851		33.203125
2852		29.296875
2853		33.203125
2854		27.343750
2855		31.250000
2856		25.390625
2857		29.296875
2858		25.390625
2859		29.296875
2860		23.437500
2861		27.343750
2862		21.484375
2863		25.390625
2864		21.484375
2865		23.437500
2866		19.531250
2867		23.437500
2868		17.578125
2869		21.484375
2870		15.625000
2871		19.531250
2872		13.671875
2873		19.531250
2874		13.671875
2875		17.578125
2876		11.718750
2877		15.625000
2878		11.718750
2879		13.671875
2880		9.765625
2881		11.718750
2882		7.812500
2883		11.718750
2884		5.859375
2885		9.765625
2886		5.859375
2887		7.812500
2888		3.906250
2889		7.812500
2890		1.953125
2891		5.859375
2892		0.000000
2893		3.906250
2894		0.000000
2895		3.906250
2896		-1.953125
2897		1.953125
2898		-3.906250
2899		0.000000
2900		-5.859375
2901		-1.953125
2902		-5.859375
2903		-1.953125
2904		-7.812500
2905		-3.906250
2906		-9.765625
2907		-5.859375
2908		-9.765625
2909		-7.812500
2910		-13.671875
2911		-7.812500
2912		-13.671875
2913		-9.765625
2914		-13.671875
2915		-11.718750
2916		-15.625000
2917		-11.718750
2918		-17.578125
2919		-13.671875
2920		-17.578125
2921		-13.671875
2922		-19.531250
2923		-15.625000
2924		-21.484375
2925		-17.578125
2926		-21.484375
2927		-17.578125
2928		-23.437500
2929		-17.578125
2930		-23.437500
2931		-21.484375
2932		-25.390625
2933		-21.484375
2934		-27.343750
2935		-23.437500
2936		-27.343750
2937		-23.437500
2938		-29.296875
2939		-25.390625
2940		-29.296875
2941		-25.390625
2942		-29.296875
2943		-27.343750
2944		-31.250000
2945		-27.343750
2946		-31.250000
2947		-29.296875
2948		-33.203125
2949		-29.296875
2950		-33.203125
2951		-31.250000
2952		-35.156250
2953		-31.250000
2954		-35.156250
2955		-33.203125
2956		-37.109375
2957		-33.203125
2958		-37.109375
2959		-33.203125
2960		-37.109375
2961		-33.203125
2962		-37.109375
2963		-35.156250
2964		-39.062500
2965		-35.156250
2966		-41.015625
2967		-35.156250
2968		-39.062500
2969		-37.109375
2970		-39.062500
2971		-37.109375
2972		-41.015625
2973		-37.109375
2974		-41.015625
2975		-39.062500
2976		-41.015625
2977		-39.062500
2978		-42.968750
2979		-39.062500
2980		-41.015625
2981		-39.062500
2982		-42.968750
2983		-39.062500
2984		-42.968750
2985		-39.062500
2986		-42.968750
2987		-39.062500
2988		-42.968750
2989		-39.062500
2990		-42.968750
2991		-41.015625
2992		-42.968750
2993		-39.062500
2994		-44.921875
2995		-39.062500
2996		-42.968750
2997		-41.015625
2998		-42.968750
2999		-39.062500
3000		-42.968750
3001		-39.062500
3002		-42.968750
3003		-39.062500
3004		-42.968750
3005		-39.062500
3006		-42.968750
3007		-39.062500
3008		-42.968750
3009		-39.062500
3010		-41.015625
3011		-39.062500
3012		-42.968750
3013		-37.109375
3014		-41.015625
3015		-39.062500
3016		-41.015625
3017		-37.109375
3018		-41.015625
3019		-37.109375
3020		-39.062500
3021		-37.109375
3022		-39.062500
3023		-35.156250
3024		-39.062500
3025		-35.156250
3026		-37.109375
3027		-35.156250
3028		-37.109375
3029		-33.203125
3030		-37.109375
3031		-33.203125
3032		-35.156250
3033		-33.203125
3034		-35.156250
3035		-31.250000
3036		-35.156250
3037		-31.250000
3038		-33.203125
3039		-31.250000
3040		-33.203125
3041		-29.296875
3042		-33.203125
3043		-27.343750
3044		-31.250000
3045		-27.343750
3046		-29.296875
3047		-27.343750
3048		-29.296875
3049		-25.390625
3050		-29.296875
3051		-25.390625
3052		-27.343750
3053		-23.437500
3054		-25.390625
3055		-23.437500
3056		-25.390625
3057		-21.484375
3058		-23.437500
3059		-19.531250
3060		-23.437500
3061		-19.531250
3062		-21.484375
3063		-17.578125
3064		-19.531250
3065		-17.578125
3066		-19.531250
3067		-15.625000
3068		-17.578125
3069		-13.671875
3070		-17.578125
3071		-13.671875
3072		-15.625000
3073		-11.718750
3074		-13.671875
3075		-11.718750
3076		-13.671875
3077		-9.765625
3078		-11.718750
3079		-7.812500
3080		-9.765625
3081		-7.812500
3082		-9.765625
3083		-5.859375
3084		-7.812500
3085		-3.906250
3086		-5.859375
3087		-1.953125
3088		-3.906250
3089		-1.953125
3090		-3.906250
3091		0.000000
3092		-1.953125
3093		1.953125
3094		-1.953125
3095		3.906250
3096		0.000000
3097		3.906250
3098		1.953125
3099		5.859375
3100		3.906250
3101		7.812500
3102		5.859375
3103		7.812500
3104		5.859375
3105		9.765625
3106		7.812500
3107		11.718750
3108		7.812500
3109		13.671875
3110		9.765625
3111		13.671875
3112		9.765625
3113		15.625000
3114		13.671875
3115		15.625000
3116		13.671875
3117		17.578125
3118		15.625000
3119		19.531250
3120		17.578125
3121		19.531250
3122		17.578125
3123		23.437500
3124		19.531250
3125		23.437500
3126		21.484375
3127		25.390625
3128		21.484375
3129		27.343750
3130		23.437500
3131		27.343750
3132		25.390625
3133		29.296875
3134		27.343750
3135		31.250000
3136		27.343750
3137		31.250000
3138		29.296875
3139		33.203125
3140		29.296875
3141		35.156250
3142		31.250000
3143		35.156250
3144		33.203125
3145		37.109375
3146		33.203125
3147		37.109375
3148		35.156250
3149		39.062500
3150		37.109375
3151		41.015625
3152		37.109375
3153		41.015625
3154		39.062500
3155		42.968750
3156		41.015625
3157		42.968750
3158		41.015625
3159		44.921875
3160		42.968750
3161		46.875000
3162		42.968750
3163		46.875000
3164		44.921875
3165		46.875000
3166		44.921875
3167		48.828125
3168		44.921875
3169		50.781250
3170		46.875000
3171		50.781250
3172		48.828125
3173		50.781250
3174		48.828125
3175		52.734375
3176		48.828125
3177		52.734375
3178		50.781250
3179		54.687500
3180		50.781250
3181		54.687500
3182		52.734375
3183		54.687500
3184		52.734375
3185		56.640625
3186		54.687500
3187		56.640625
3188		54.687500
3189		58.593750
3190		54.687500
3191		58.593750
3192		54.687500
3193		60.546875
3194		56.640625
3195		60.546875
3196		56.640625
3197		60.546875
3198		58.593750
3199		60.546875
3200		58.593750
3201		60.546875
3202		58.593750
3203		62.500000
3204		58.593750
3205		62.500000
3206		60.546875
3207		62.500000
3208		60.546875
3209		62.500000
3210		60.546875
3211		62.500000
3212		60.546875
3213		64.453125
3214		60.546875
3215		64.453125
3216		62.500000
3217		64.453125
3218		60.546875
3219		64.453125
3220		62.500000
3221		64.453125
3222		62.500000
3223		64.453125
3224		62.500000
3225		66.406250
3226		62.500000
3227		64.453125
3228		62.500000
3229		64.453125
3230		62.500000
3231		66.406250
3232		62.500000
3233		64.453125
3234		60.546875
3235		66.406250
3236		62.500000
3237		64.453125
3238		62.500000
3239		64.453125
3240		62.500000
3241		64.453125
3242		62.500000
3243		64.453125
3244		62.500000
3245		64.453125
3246		60.546875
3247		64.453125
3248		60.546875
3249		64.453125
3250		60.546875
3251		64.453125
3252		60.546875
3253		64.453125
3254		60.546875
3255		64.453125
3256		60.546875
3257		62.500000
3258		58.593750
3259		62.500000
3260		58.593750
3261		62.500000
3262		58.593750
3263		60.546875
3264		56.640625
3265		62.500000
3266		58.593750
3267		60.546875
3268		56.640625
3269		60.546875
3270		56.640625
3271		58.593750
3272		54.687500
3273		58.593750
3274		54.687500
3275		58.593750
3276		54.687500
3277		56.640625
3278		52.734375
3279		56.640625
3280		50.781250
3281		54.687500
3282		52.734375
3283		54.687500
3284		50.781250
3285		54.687500
3286		50.781250
3287		52.734375
3288		48.828125
3289		52.734375
3290		46.875000
3291		50.781250
3292		46.875000
3293		50.781250
3294		46.875000
3295		48.828125
3296		44.921875
3297		48.828125
3298		44.921875
3299		48.828125
3300		42.968750
3301		46.875000
3302		41.015625
3303		44.921875
3304		41.015625
3305		44.921875
3306		39.062500
3307		42.968750
3308		39.062500
3309		41.015625
3310		37.109375
3311		41.015625
3312		35.156250
3313		41.015625
3314		35.156250
3315		39.062500
3316		33.203125
3317		37.109375
3318		31.250000
3319		35.156250
3320		31.250000
3321		35.156250
3322		29.296875
3323		33.203125
3324		29.296875
3325		31.250000
3326		27.343750
3327		31.250000
3328		25.390625
3329		29.296875
3330		23.437500
3331		27.343750
3332		23.437500
3333		27.343750
3334		21.484375
3335		25.390625
3336		19.531250
3337		25.390625
3338		19.531250
3339		23.437500
3340		17.578125
3341		21.484375
3342		15.625000
3343		19.531250
3344		13.671875
3345		17.578125
3346		13.671875
3347		17.578125
3348		11.718750
3349		15.625000
3350		9.765625
3351		13.671875
3352		9.765625
3353		11.718750
3354		7.812500
3355		11.718750
3356		5.859375
3357		9.765625
3358		5.859375
3359		7.812500
3360		3.906250
3361		7.812500
3362		0.000000
3363		5.859375
3364		0.000000
3365		3.906250
3366		0.000000
3367		1.953125
3368		-1.953125
3369		0.000000
3370		-3.906250
3371		0.000000
3372		-5.859375
3373		-1.953125
3374		-5.859375
3375		-1.953125
3376		-7.812500
3377		-3.906250
3378		-9.765625
3379		-5.859375
3380		-9.765625
3381		-7.812500
3382		-11.718750
3383		-7.812500
3384		-13.671875
3385		-9.765625
3386		-15.625000
3387		-9.765625
3388		-15.625000
3389		-11.718750
3390		-17.578125
3391		-13.671875
3392		-19.531250
3393		-13.671875
3394		-19.531250
3395		-15.625000
3396		-21.484375
3397		-17.578125
3398		-23.437500
3399		-17.578125
3400		-23.437500
3401		-19.531250
3402		-23.437500
3403		-21.484375
3404		-25.390625
3405		-21.484375
3406		-27.343750
3407		-21.484375
3408		-27.343750
3409		-23.437500
3410		-27.343750
3411		-25.390625
3412		-29.296875
3413		-25.390625
3414		-31.250000
3415		-25.390625
3416		-31.250000
3417		-27.343750
3418		-31.250000
3419		-29.296875
3420		-33.203125
3421		-29.296875
3422		-33.203125
3423		-31.250000
3424		-35.156250
3425		-31.250000
3426		-35.156250
3427		-33.203125
3428		-35.156250
3429		-33.203125
3430		-37.109375
3431		-33.203125
3432		-39.062500
3433		-33.203125
3434		-37.109375
3435		-35.156250
3436		-39.062500
3437		-35.156250
3438		-39.062500
3439		-35.156250
3440		-39.062500
3441		-37.109375
3442		-41.015625
3443		-37.109375
3444		-41.015625
3445		-37.109375
3446		-41.015625
3447		-39.062500
3448		-41.015625
3449		-37.109375
3450		-41.015625
3451		-39.062500
3452		-41.015625
3453		-39.062500
3454		-42.968750
3455		-39.062500
3456		-42.968750
3457		-39.062500
3458		-42.968750
3459		-39.062500
3460		-42.968750
3461		-39.062500
3462		-42.968750
3463		-41.015625
3464		-42.968750
3465		-39.062500
3466		-42.968750
3467		-39.062500
3468		-42.968750
3469		-41.015625
3470		-42.968750
3471		-39.062500
3472		-42.968750
3473		-39.062500
3474		-42.968750
3475		-39.062500
3476		-42.968750
3477		-39.062500
3478		-42.968750
3479		-39.062500
3480		-42.968750
3481		-39.062500
3482		-41.015625
3483		-37.109375
3484		-41.015625
3485		-39.062500
3486		-41.015625
3487		-39.062500
3488		-41.015625
3489		-37.109375
3490		-39.062500
3491		-37.109375
3492		-39.062500
3493		-37.109375
3494		-39.062500
3495		-35.156250
3496		-39.062500
3497		-35.156250
3498		-39.062500
3499		-33.203125
3500		-37.109375
3501		-33.203125
3502		-35.156250
3503		-33.203125
3504		-35.156250
3505		-33.203125
3506		-35.156250
3507		-31.250000
3508		-33.203125
3509		-31.250000
3510		-33.203125
3511		-29.296875
3512		-33.203125
3513		-29.296875
3514		-31.250000
3515		-27.343750
3516		-29.296875
3517		-27.343750
3518		-29.296875
3519		-27.343750
3520		-29.296875
3521		-25.390625
3522		-27.343750
3523		-23.437500
3524		-27.343750
3525		-23.437500
3526		-25.390625
3527		-21.484375
3528		-25.390625
3529		-21.484375
3530		-23.437500
3531		-19.531250
3532		-21.484375
3533		-19.531250
3534		-21.484375
3535		-17.578125
3536		-19.531250
3537		-17.578125
3538		-19.531250
3539		-15.625000
3540		-17.578125
3541		-13.671875
3542		-17.578125
3543		-13.671875
3544		-15.625000
3545		-11.718750
3546		-13.671875
3547		-9.765625
3548		-11.718750
3549		-7.812500
3550		-11.718750
3551		-7.812500
3552		-9.765625
3553		-5.859375
3554		-7.812500
3555		-3.906250
3556		-7.812500
3557		-3.906250
3558		-5.859375
3559		-1.953125
3560		-3.906250
3561		0.000000
3562		-3.906250
3563		0.000000
3564		-1.953125
3565		1.953125
3566		0.000000
3567		3.906250
3568		1.953125
3569		3.906250
3570		1.953125
3571		5.859375
3572		1.953125
3573		7.812500
3574		5.859375
3575		7.812500
3576		5.859375
3577		9.765625
3578		7.812500
3579		11.718750
3580		9.765625
3581		13.671875
3582		9.765625
3583		15.625000
3584		11.718750
3585		15.625000
3586		13.671875
3587		17.578125
3588		13.671875
3589		19.531250
3590		15.625000
3591		19.531250
3592		17.578125
3593		21.484375
3594		19.531250
3595		21.484375
3596		19.531250
3597		23.437500
3598		21.484375
3599		25.390625
3600		23.437500
3601		27.343750
3602		23.437500
3603		27.343750
3604		25.390625
3605		29.296875
3606		27.343750
3607		31.250000
3608		29.296875
3609		33.203125
3610		29.296875
3611		33.203125
3612		31.250000
3613		33.203125
3614		31.250000
3615		35.156250
3616		33.203125
3617		37.109375
3618		35.156250
3619		37.109375
3620		37.109375
3621		39.062500
3622		37.109375
3623		41.015625
3624		37.109375
3625		41.015625
3626		39.062500
3627		42.968750
3628		41.015625
3629		44.921875
3630		41.015625
3631		44.921875
3632		42.968750
3633		46.875000
3634		42.968750
3635		46.875000
3636		44.921875
3637		48.828125
3638		44.921875
3639		48.828125
3640		46.875000
3641		50.781250
3642		46.875000
3643		50.781250
3644		48.828125
3645		50.781250
3646		48.828125
3647		52.734375
3648		50.781250
3649		54.687500
3650		50.781250
3651		54.687500
3652		52.734375
3653		54.687500
3654		52.734375
3655		56.640625
3656		52.734375
3657		56.640625
3658		54.687500
3659		58.593750
3660		54.687500
3661		58.593750
3662		56.640625
3663		58.593750
3664		56.640625
3665		60.546875
3666		56.640625
3667		60.546875
3668		58.593750
3669		60.546875
3670		58.593750
3671		60.546875
3672		58.593750
3673		62.500000
3674		58.593750
3675		62.500000
3676		60.546875
3677		62.500000
3678		60.546875
3679		62.500000
3680		60.546875
3681		64.453125
3682		60.546875
3683		64.453125
3684		60.546875
3685		64.453125
3686		62.500000
3687		64.453125
3688		62.500000
3689		64.453125
3690		60.546875
3691		64.453125
3692		62.500000
3693		64.453125
3694		62.500000
3695		64.453125
3696		62.500000
3697		66.406250
3698		62.500000
3699		66.406250
3700		62.500000
3701		66.406250
3702		62.500000
3703		64.453125
3704		62.500000
3705		66.406250
3706		62.500000
3707		66.406250
3708		62.500000
3709		64.453125
3710		62.500000
3711		64.453125
3712		62.500000
3713		64.453125
3714		62.500000
3715		66.406250
3716		62.500000
3717		64.453125
3718		60.546875
3719		64.453125
3720		62.500000
3721		64.453125
3722		60.546875
3723		64.453125
3724		60.546875
3725		64.453125
3726		60.546875
3727		64.453125
3728		60.546875
3729		62.500000
3730		58.593750
3731		62.500000
3732		58.593750
3733		62.500000
3734		58.593750
3735		62.500000
3736		58.593750
3737		60.546875
3738		58.593750
3739		60.546875
3740		56.640625
3741		60.546875
3742		56.640625
3743		58.593750
3744		54.687500
3745		58.593750
3746		54.687500
3747		58.593750
3748		54.687500
3749		58.593750
3750		52.734375
3751		56.640625
3752		52.734375
3753		56.640625
3754		52.734375
3755		54.687500
3756		50.781250
3757		52.734375
3758		50.781250
3759		52.734375
3760		48.828125
3761		52.734375
3762		48.828125
3763		50.781250
3764		46.875000
3765		50.781250
3766		46.875000
3767		48.828125
3768		44.921875
3769		48.828125
3770		44.921875
3771		46.875000
3772		41.015625
3773		46.875000
3774		41.015625
3775		44.921875
3776		41.015625
3777		42.968750
3778		39.062500
3779		42.968750
3780		37.109375
3781		41.015625
3782		37.109375
3783		41.015625
3784		35.156250
3785		39.062500
3786		35.156250
3787		37.109375
3788		33.203125
3789		37.109375
3790		31.250000
3791		35.156250
3792		31.250000
3793		33.203125
3794		29.296875
3795		33.203125
3796		27.343750
3797		31.250000
3798		27.343750
3799		31.250000
3800		25.390625
3801		29.296875
3802		23.437500
3803		27.343750
3804		23.437500
3805		25.390625
3806		19.531250
3807		25.390625
3808		19.531250
3809		23.437500
3810		17.578125
3811		23.437500
3812		17.578125
3813		21.484375
3814		15.625000
3815		19.531250
3816		13.671875
3817		17.578125
3818		11.718750
3819		15.625000
3820		11.718750
3821		15.625000
3822		9.765625
3823		13.671875
3824		7.812500
3825		11.718750
3826		7.812500
3827		11.718750
3828		5.859375
3829		9.765625
3830		3.906250
3831		7.812500
3832		1.953125
3833		7.812500
3834		1.953125
3835		5.859375
3836		0.000000
3837		3.906250
3838		-1.953125
3839		1.953125
3840		-1.953125
3841		0.000000
3842		-3.906250
3843		0.000000
3844		-5.859375
3845		-1.953125
3846		-7.812500
3847		-1.953125
3848		-7.812500
3849		-3.906250
3850		-9.765625
3851		-5.859375
3852		-11.718750
3853		-7.812500
3854		-11.718750
3855		-9.765625
3856		-13.671875
3857		-9.765625
3858		-15.625000
3859		-11.718750
3860		-15.625000
3861		-13.671875
3862		-17.578125
3863		-13.671875
3864		-17.578125
3865		-15.625000
3866		-19.531250
3867		-15.625000
3868		-21.484375
3869		-17.578125
3870		-21.484375
3871		-19.531250
3872		-23.437500
3873		-19.531250
3874		-23.437500
3875		-19.531250
3876		-25.390625
3877		-21.484375
3878		-27.343750
3879		-23.437500
3880		-27.343750
3881		-23.437500
3882		-29.296875
3883		-25.390625
3884		-29.296875
3885		-25.390625
3886		-29.296875
3887		-27.343750
3888		-31.250000
3889		-29.296875
3890		-33.203125
3891		-27.343750
3892		-33.203125
3893		-29.296875
3894		-33.203125
3895		-31.250000
3896		-35.156250
3897		-31.250000
3898		-35.156250
3899		-31.250000
3900		-35.156250
3901		-33.203125
3902		-37.109375
3903		-33.203125
3904		-37.109375
3905		-35.156250
3906		-37.109375
3907		-35.156250
3908		-39.062500
3909		-35.156250
3910		-39.062500
3911		-35.156250
3912		-39.062500
3913		-35.156250
3914		-41.015625
3915		-37.109375
3916		-41.015625
3917		-37.109375
3918		-41.015625
3919		-37.109375
3920		-41.015625
3921		-37.109375
3922		-41.015625
3923		-39.062500
3924		-42.968750
3925		-37.109375
3926		-42.968750
3927		-39.062500
3928		-42.968750
3929		-39.062500
3930		-42.968750
3931		-39.062500
3932		-42.968750
3933		-39.062500
3934		-42.968750
3935		-39.062500
3936		-42.968750
3937		-39.062500
3938		-42.968750
3939		-39.062500
3940		-42.968750
3941		-39.062500
3942		-42.968750
3943		-39.062500
3944		-42.968750
3945		-39.062500
3946		-42.968750
3947		-39.062500
3948		-42.968750
3949		-39.062500
3950		-42.968750
3951		-37.109375
3952		-42.968750
3953		-37.109375
3954		-41.015625
3955		-39.062500
3956		-41.015625
3957		-37.109375
3958		-41.015625
3959		-37.109375
3960		-41.015625
3961		-35.156250
3962		-41.015625
3963		-35.156250
3964		-39.062500
3965		-35.156250
3966		-39.062500
3967		-35.156250
3968		-37.109375
3969		-35.156250
3970		-39.062500
3971		-33.203125
3972		-37.109375
3973		-33.203125
3974		-35.156250
3975		-33.203125
3976		-35.156250
3977		-31.250000
3978		-35.156250
3979		-29.296875
3980		-35.156250
3981		-29.296875
3982		-33.203125
3983		-27.343750
3984		-31.250000
3985		-27.343750
3986		-31.250000
3987		-27.343750
3988		-29.296875
3989		-27.343750
3990		-29.296875
3991		-25.390625
3992		-29.296875
3993		-23.437500
3994		-27.343750
3995		-23.437500
3996		-27.343750
3997		-21.484375
3998		-25.390625
3999		-19.531250
4000		-25.390625
4001		-19.531250
4002		-23.437500
4003		-17.578125
4004		-21.484375
4005		-17.578125
4006		-19.531250
4007		-17.578125
4008		-19.531250
4009		-13.671875
4010		-17.578125
4011		-13.671875
4012		-17.578125
4013		-11.718750
4014		-15.625000
4015		-11.718750
4016		-13.671875
4017		-9.765625
4018		-13.671875
4019		-7.812500
4020		-11.718750
4021		-7.812500
4022		-9.765625
4023		-7.812500
4024		-9.765625
4025		-5.859375
4026		-7.812500
4027		-3.906250
4028		-5.859375
4029		-1.953125
4030		-5.859375
4031		0.000000
4032		-3.906250
4033		1.953125
4034		-1.953125
4035		1.953125
4036		-1.953125
4037		3.906250
4038		1.953125
4039		3.906250
4040		1.953125
4041		5.859375
4042		3.906250
4043		5.859375
4044		5.859375
4045		9.765625
4046		5.859375
4047		9.765625
4048		7.812500
4049		11.718750
4050		9.765625
4051		11.718750
4052		9.765625
4053		13.671875
4054		11.718750
4055		15.625000
4056		13.671875
4057		17.578125
4058		15.625000
4059		17.578125
4060		15.625000
4061		19.531250
4062		17.578125
4063		21.484375
4064		19.531250
4065		21.484375
4066		19.531250
4067		23.437500
4068		21.484375
4069		25.390625
4070		23.437500
4071		25.390625
4072		23.437500
4073		27.343750
4074		25.390625
4075		29.296875
4076		27.343750
4077		29.296875
4078		27.343750
4079		31.250000
4080		29.296875
4081		33.203125
4082		31.250000
4083		33.203125
4084		33.203125
4085		35.156250
4086		33.203125
4087		37.109375
4088		35.156250
4089		39.062500
4090		35.156250
4091		39.062500
4092		37.109375
4093		41.015625
4094		39.062500
4095		41.015625
4096		39.062500
4097		42.968750
4098		41.015625
4099		42.968750
4100		41.015625
4101		44.921875
4102		42.968750
4103		46.875000
4104		42.968750
4105		46.875000
4106		44.921875
4107		46.875000
4108		44.921875
4109		48.828125
4110		46.875000
4111		50.781250
4112		48.828125
4113		50.781250
4114		48.828125
4115		50.781250
4116		48.828125
4117		52.734375
4118		50.781250
4119		52.734375
4120		50.781250
4121		54.687500
4122		52.734375
4123		54.687500
4124		52.734375
4125		56.640625
4126		54.687500
4127		56.640625
4128		54.687500
4129		56.640625
4130		54.687500
4131		58.593750
4132		56.640625
4133		58.593750
4134		56.640625
4135		58.593750
4136		56.640625
4137		60.546875
4138		58.593750
4139		60.546875
4140		58.593750
4141		60.546875
4142		56.640625
4143		64.453125
4144		56.640625
4145		66.406250
4146		56.640625
4147		64.453125
4148		58.593750
4149		66.406250
4150		60.546875
4151		64.453125
4152		62.500000
4153		64.453125
4154		60.546875
4155		64.453125
4156		62.500000
4157		64.453125
4158		62.500000
4159		64.453125
4160		60.546875
4161		68.359375
4162		60.546875
4163		68.359375
4164		60.546875
4165		68.359375
4166		62.500000
4167		66.406250
4168		64.453125
4169		66.406250
4170		64.453125
4171		66.406250
4172		64.453125
4173		66.406250
4174		64.453125
4175		66.406250
4176		60.546875
4177		68.359375
4178		60.546875
4179		68.359375
4180		60.546875
4181		68.359375
4182		62.500000
4183		68.359375
4184		62.500000
4185		66.406250
4186		62.500000
4187		66.406250
4188		62.500000
4189		64.453125
4190		62.500000
4191		64.453125
4192		62.500000
4193		64.453125
4194		58.593750
4195		68.359375
4196		58.593750
4197		68.359375
4198		58.593750
4199		66.406250
4200		60.546875
4201		62.500000
4202		60.546875
4203		62.500000
4204		60.546875
4205		62.500000
4206		58.593750
4207		62.500000
4208		58.593750
4209		62.500000
4210		54.687500
4211		64.453125
4212		54.687500
4213		64.453125
4214		54.687500
4215		62.500000
4216		56.640625
4217		58.593750
4218		54.687500
4219		58.593750
4220		54.687500
4221		56.640625
4222		54.687500
4223		56.640625
4224		52.734375
4225		56.640625
4226		48.828125
4227		56.640625
4228		48.828125
4229		56.640625
4230		46.875000
4231		56.640625
4232		46.875000
4233		56.640625
4234		48.828125
4235		52.734375
4236		46.875000
4237		50.781250
4238		46.875000
4239		48.828125
4240		44.921875
4241		48.828125
4242		44.921875
4243		46.875000
4244		41.015625
4245		50.781250
4246		39.062500
4247		48.828125
4248		39.062500
4249		48.828125
4250		39.062500
4251		42.968750
4252		39.062500
4253		42.968750
4254		37.109375
4255		41.015625
4256		37.109375
4257		39.062500
4258		35.156250
4259		39.062500
4260		31.250000
4261		41.015625
4262		29.296875
4263		39.062500
4264		29.296875
4265		37.109375
4266		29.296875
4267		37.109375
4268		29.296875
4269		31.250000
4270		27.343750
4271		31.250000
4272		25.390625
4273		29.296875
4274		25.390625
4275		27.343750
4276		23.437500
4277		27.343750
4278		19.531250
4279		29.296875
4280		17.578125
4281		27.343750
4282		17.578125
4283		25.390625
4284		17.578125
4285		21.484375
4286		15.625000
4287		19.531250
4288		15.625000
4289		17.578125
4290		13.671875
4291		15.625000
4292		11.718750
4293		15.625000
4294		7.812500
4295		17.578125
4296		5.859375
4297		13.671875
4298		5.859375
4299		13.671875
4300		5.859375
4301		9.765625
4302		5.859375
4303		7.812500
4304		3.906250
4305		7.812500
4306		1.953125
4307		5.859375
4308		0.000000
4309		3.906250
4310		-1.953125
4311		3.906250
4312		-3.906250
4313		3.906250
4314		-5.859375
4315		1.953125
4316		-5.859375
4317		1.953125
4318		-5.859375
4319		-1.953125
4320		-7.812500
4321		-3.906250
4322		-7.812500
4323		-5.859375
4324		-9.765625
4325		-5.859375
4326		-11.718750
4327		-7.812500
4328		-11.718750
4329		-9.765625
4330		-15.625000
4331		-7.812500
4332		-15.625000
4333		-9.765625
4334		-15.625000
4335		-13.671875
4336		-17.578125
4337		-13.671875
4338		-17.578125
4339		-15.625000
4340		-19.531250
4341		-17.578125
4342		-21.484375
4343		-17.578125
4344		-21.484375
4345		-19.531250
4346		-25.390625
4347		-19.531250
4348		-25.390625
4349		-19.531250
4350		-25.390625
4351		-23.437500
4352		-25.390625
4353		-23.437500
4354		-27.343750
4355		-23.437500
4356		-29.296875
4357		-25.390625
4358		-29.296875
4359		-25.390625
4360		-31.250000
4361		-27.343750
4362		-31.250000
4363		-27.343750
4364		-33.203125
4365		-27.343750
4366		-33.203125
4367		-27.343750
4368		-33.203125
4369		-29.296875
4370		-33.203125
4371		-31.250000
4372		-35.156250
4373		-31.250000
4374		-35.156250
4375		-33.203125
4376		-35.156250
4377		-33.203125
4378		-37.109375
4379		-33.203125
4380		-37.109375
4381		-35.156250
4382		-37.109375
4383		-35.156250
4384		-39.062500
4385		-35.156250
4386		-39.062500
4387		-37.109375
4388		-39.062500
4389		-37.109375
4390		-39.062500
4391		-37.109375
4392		-39.062500
4393		-37.109375
4394		-41.015625
4395		-37.109375
4396		-41.015625
4397		-37.109375
4398		-41.015625
4399		-39.062500
4400		-41.015625
4401		-37.109375
4402		-41.015625
4403		-39.062500
4404		-41.015625
4405		-39.062500
4406		-41.015625
4407		-39.062500
4408		-41.015625
4409		-39.062500
4410		-41.015625
4411		-39.062500
4412		-41.015625
4413		-37.109375
4414		-41.015625
4415		-39.062500
4416		-41.015625
4417		-37.109375
4418		-41.015625
4419		-37.109375
4420		-41.015625
4421		-37.109375
4422		-39.062500
4423		-37.109375
4424		-39.062500
4425		-37.109375
4426		-39.062500
4427		-37.109375
4428		-39.062500
4429		-35.156250
4430		-39.062500
4431		-35.156250
4432		-39.062500
4433		-35.156250
4434		-37.109375
4435		-35.156250
4436		-37.109375
4437		-33.203125
4438		-37.109375
4439		-33.203125
4440		-35.156250
4441		-33.203125
4442		-35.156250
4443		-33.203125
4444		-35.156250
4445		-31.250000
4446		-35.156250
4447		-31.250000
4448		-33.203125
4449		-29.296875
4450		-33.203125
4451		-29.296875
4452		-31.250000
4453		-27.343750
4454		-31.250000
4455		-27.343750
4456		-29.296875
4457		-27.343750
4458		-29.296875
4459		-25.390625
4460		-27.343750
4461		-25.390625
4462		-27.343750
4463		-23.437500
4464		-27.343750
4465		-23.437500
4466		-25.390625
4467		-21.484375
4468		-23.437500
4469		-19.531250
4470		-23.437500
4471		-19.531250
4472		-21.484375
4473		-19.531250
4474		-21.484375
4475		-17.578125
4476		-19.531250
4477		-15.625000
4478		-17.578125
4479		-13.671875
4480		-17.578125
4481		-13.671875
4482		-17.578125
4483		-13.671875
4484		-15.625000
4485		-11.718750
4486		-13.671875
4487		-9.765625
4488		-13.671875
4489		-9.765625
4490		-11.718750
4491		-7.812500
4492		-9.765625
4493		-5.859375
4494		-7.812500
4495		-3.906250
4496		-7.812500
4497		-1.953125
4498		-5.859375
4499		-1.953125
4500		-3.906250
4501		-1.953125
4502		-3.906250
4503		0.000000
4504		-1.953125
4505		1.953125
4506		0.000000
4507		3.906250
4508		1.953125
4509		3.906250
4510		1.953125
4511		5.859375
4512		1.953125
4513		9.765625
4514		3.906250
4515		9.765625
4516		5.859375
4517		9.765625
4518		7.812500
4519		11.718750
4520		7.812500
4521		13.671875
4522		11.718750
4523		13.671875
4524		11.718750
4525		15.625000
4526		13.671875
4527		17.578125
4528		15.625000
4529		17.578125
4530		13.671875
4531		19.531250
4532		17.578125
4533		21.484375
4534		19.531250
4535		21.484375
4536		19.531250
4537		23.437500
4538		21.484375
4539		25.390625
4540		23.437500
4541		27.343750
4542		25.390625
4543		27.343750
4544		25.390625
4545		29.296875
4546		27.343750
4547		31.250000
4548		29.296875
4549		31.250000
4550		29.296875
4551		33.203125
4552		31.250000
4553		35.156250
4554		31.250000
4555		37.109375
4556		33.203125
4557		37.109375
4558		35.156250
4559		37.109375
4560		35.156250
4561		39.062500
4562		37.109375
4563		42.968750
4564		37.109375
4565		42.968750
4566		39.062500
4567		42.968750
4568		41.015625
4569		44.921875
4570		41.015625
4571		44.921875
4572		42.968750
4573		46.875000
4574		44.921875
4575		46.875000
4576		44.921875
4577		48.828125
4578		44.921875
4579		48.828125
4580		44.921875
4581		52.734375
4582		46.875000
4583		52.734375
4584		48.828125
4585		52.734375
4586		48.828125
4587		54.687500
4588		50.781250
4589		54.687500
4590		52.734375
4591		54.687500
4592		52.734375
4593		54.687500
4594		52.734375
4595		56.640625
4596		54.687500
4597		58.593750
4598		54.687500
4599		58.593750
4600		54.687500
4601		58.593750
4602		56.640625
4603		58.593750
4604		56.640625
4605		60.546875
4606		58.593750
4607		60.546875
4608		58.593750
4609		62.500000
4610		58.593750
4611		62.500000
4612		60.546875
4613		62.500000
4614		60.546875
4615		62.500000
4616		60.546875
4617		62.500000
4618		62.500000
4619		64.453125
4620		60.546875
4621		64.453125
4622		62.500000
4623		64.453125
4624		62.500000
4625		64.453125
4626		62.500000
4627		64.453125
4628		62.500000
4629		66.406250
4630		62.500000
4631		66.406250
4632		62.500000
4633		66.406250
4634		64.453125
4635		66.406250
4636		64.453125
4637		66.406250
4638		64.453125
4639		66.406250
4640		64.453125
4641		66.406250
4642		64.453125
4643		66.406250
4644		64.453125
4645		66.406250
4646		64.453125
4647		66.406250
4648		64.453125
4649		66.406250
4650		64.453125
4651		66.406250
4652		64.453125
4653		66.406250
4654		64.453125
4655		66.406250
4656		64.453125
4657		66.406250
4658		64.453125
4659		66.406250
4660		64.453125
4661		66.406250
4662		62.500000
4663		66.406250
4664		62.500000
4665		66.406250
4666		62.500000
4667		64.453125
4668		62.500000
4669		64.453125
4670		60.546875
4671		64.453125
4672		60.546875
4673		64.453125
4674		60.546875
4675		64.453125
4676		60.546875
4677		62.500000
4678		60.546875
4679		62.500000
4680		58.593750
4681		62.500000
4682		58.593750
4683		60.546875
4684		58.593750
4685		60.546875
4686		56.640625
4687		60.546875
4688		56.640625
4689		58.593750
4690		54.687500
4691		58.593750
4692		54.687500
4693		58.593750
4694		54.687500
4695		56.640625
4696		52.734375
4697		56.640625
4698		52.734375
4699		54.687500
4700		50.781250
4701		54.687500
4702		50.781250
4703		54.687500
4704		48.828125
4705		52.734375
4706		48.828125
4707		52.734375
4708		46.875000
4709		50.781250
4710		46.875000
4711		48.828125
4712		44.921875
4713		48.828125
4714		44.921875
4715		46.875000
4716		42.968750
4717		46.875000
4718		42.968750
4719		44.921875
4720		41.015625
4721		44.921875
4722		41.015625
4723		42.968750
4724		39.062500
4725		42.968750
4726		37.109375
4727		41.015625
4728		37.109375
4729		39.062500
4730		35.156250
4731		39.062500
4732		33.203125
4733		37.109375
4734		33.203125
4735		35.156250
4736		31.250000
4737		35.156250
4738		29.296875
4739		33.203125
4740		29.296875
4741		31.250000
4742		27.343750
4743		31.250000
4744		25.390625
4745		29.296875
4746		25.390625
4747		27.343750
4748		23.437500
4749		27.343750
4750		21.484375
4751		25.390625
4752		19.531250
4753		23.437500
4754		19.531250
4755		21.484375
4756		17.578125
4757		21.484375
4758		15.625000
4759		19.531250
4760		15.625000
4761		17.578125
4762		13.671875
4763		15.625000
4764		9.765625
4765		15.625000
4766		9.765625
4767		15.625000
4768		9.765625
4769		11.718750
4770		7.812500
4771		11.718750
4772		5.859375
4773		9.765625
4774		5.859375
4775		7.812500
4776		3.906250
4777		5.859375
4778		1.953125
4779		5.859375
4780		0.000000
4781		3.906250
4782		-1.953125
4783		3.906250
4784		-1.953125
4785		1.953125
4786		-3.906250
4787		0.000000
4788		-5.859375
4789		-1.953125
4790		-5.859375
4791		-3.906250
4792		-7.812500
4793		-3.906250
4794		-9.765625
4795		-5.859375
4796		-9.765625
4797		-7.812500
4798		-13.671875
4799		-7.812500
4800		-13.671875
4801		-7.812500
4802		-13.671875
4803		-11.718750
4804		-15.625000
4805		-11.718750
4806		-15.625000
4807		-13.671875
4808		-17.578125
4809		-15.625000
4810		-19.531250
4811		-15.625000
4812		-19.531250
4813		-17.578125
4814		-23.437500
4815		-17.578125
4816		-23.437500
4817		-17.578125
4818		-23.437500
4819		-19.531250
4820		-25.390625
4821		-21.484375
4822		-25.390625
4823		-23.437500
4824		-27.343750
4825		-23.437500
4826		-27.343750
4827		-25.390625
4828		-29.296875
4829		-25.390625
4830		-29.296875
4831		-27.343750
4832		-31.250000
4833		-25.390625
4834		-33.203125
4835		-27.343750
4836		-31.250000
4837		-29.296875
4838		-33.203125
4839		-29.296875
4840		-33.203125
4841		-31.250000
4842		-35.156250
4843		-31.250000
4844		-35.156250
4845		-33.203125
4846		-35.156250
4847		-33.203125
4848		-39.062500
4849		-33.203125
4850		-39.062500
4851		-33.203125
4852		-37.109375
4853		-35.156250
4854		-37.109375
4855		-35.156250
4856		-39.062500
4857		-35.156250
4858		-39.062500
4859		-37.109375
4860		-39.062500
4861		-37.109375
4862		-39.062500
4863		-37.109375
4864		-39.062500
4865		-37.109375
4866		-42.968750
4867		-35.156250
4868		-41.015625
4869		-37.109375
4870		-41.015625
4871		-39.062500
4872		-41.015625
4873		-39.062500
4874		-41.015625
4875		-39.062500
4876		-41.015625
4877		-37.109375
4878		-41.015625
4879		-39.062500
4880		-41.015625
4881		-39.062500
4882		-41.015625
4883		-37.109375
4884		-42.968750
4885		-37.109375
4886		-41.015625
4887		-39.062500
4888		-41.015625
4889		-37.109375
4890		-41.015625
4891		-37.109375
4892		-39.062500
4893		-37.109375
4894		-39.062500
4895		-37.109375
4896		-39.062500
4897		-37.109375
4898		-39.062500
4899		-35.156250
4900		-41.015625
4901		-35.156250
4902		-39.062500
4903		-35.156250
4904		-37.109375
4905		-35.156250
4906		-37.109375
4907		-35.156250
4908		-37.109375
4909		-33.203125
4910		-37.109375
4911		-33.203125
4912		-35.156250
4913		-33.203125
4914		-35.156250
4915		-31.250000
4916		-35.156250
4917		-29.296875
4918		-35.156250
4919		-29.296875
4920		-33.203125
4921		-29.296875
4922		-31.250000
4923		-29.296875
4924		-31.250000
4925		-27.343750
4926		-29.296875
4927		-27.343750
4928		-29.296875
4929		-27.343750
4930		-27.343750
4931		-25.390625
4932		-27.343750
4933		-23.437500
4934		-27.343750
4935		-21.484375
4936		-25.390625
4937		-23.437500
4938		-23.437500
4939		-21.484375
4940		-23.437500
4941		-19.531250
4942		-21.484375
4943		-19.531250
4944		-21.484375
4945		-17.578125
4946		-19.531250
4947		-17.578125
4948		-19.531250
4949		-15.625000
4950		-19.531250
4951		-15.625000
4952		-15.625000
4953		-13.671875
4954		-15.625000
4955		-11.718750
4956		-13.671875
4957		-11.718750
4958		-11.718750
4959		-9.765625
4960		-11.718750
4961		-7.812500
4962		-9.765625
4963		-7.812500
4964		-9.765625
4965		-5.859375
4966		-7.812500
4967		-3.906250
4968		-5.859375
4969		-1.953125
4970		-5.859375
4971		-1.953125
4972		-3.906250
4973		0.000000
4974		-1.953125
4975		0.000000
4976		-1.953125
4977		1.953125
4978		0.000000
4979		3.906250
4980		1.953125
4981		5.859375
4982		3.906250
4983		7.812500
4984		3.906250
4985		7.812500
4986		5.859375
4987		9.765625
4988		7.812500
4989		9.765625
4990		7.812500
4991		11.718750
4992		9.765625
4993		13.671875
4994		11.718750
4995		15.625000
4996		13.671875
4997		15.625000
4998		13.671875
4999		17.578125
5000		15.625000
5001		19.531250
5002		17.578125
5003		19.531250
5004		19.531250
5005		21.484375
5006		19.531250
5007		23.437500
5008		21.484375
5009		25.390625
5010		23.437500
5011		25.390625
5012		23.437500
5013		27.343750
5014		25.390625
5015		29.296875
5016		27.343750
5017		29.296875
5018		27.343750
5019		31.250000
5020		29.296875
5021		33.203125
5022		31.250000
5023		33.203125
5024		31.250000
5025		35.156250
5026		33.203125
5027		37.109375
5028		35.156250
5029		37.109375
5030		35.156250
5031		39.062500
5032		37.109375
5033		39.062500
5034		37.109375
5035		41.015625
5036		39.062500
5037		42.968750
5038		41.015625
5039		42.968750
5040		41.015625
5041		44.921875
5042		42.968750
5043		44.921875
5044		44.921875
5045		46.875000
5046		44.921875
5047		46.875000
5048		46.875000
5049		48.828125
5050		46.875000
5051		48.828125
5052		48.828125
5053		50.781250
5054		48.828125
5055		50.781250
5056		50.781250
5057		52.734375
5058		50.781250
5059		52.734375
5060		50.781250
5061		54.687500
5062		52.734375
5063		54.687500
5064		52.734375
5065		56.640625
5066		54.687500
5067		56.640625
5068		54.687500
5069		58.593750
5070		56.640625
5071		58.593750
5072		56.640625
5073		58.593750
5074		56.640625
5075		60.546875
5076		58.593750
5077		60.546875
5078		58.593750
5079		60.546875
5080		58.593750
5081		62.500000
5082		60.546875
5083		62.500000
5084		60.546875
5085		62.500000
5086		60.546875
5087		64.453125
5088		60.546875
5089		64.453125
5090		62.500000
5091		64.453125
5092		62.500000
5093		64.453125
5094		62.500000
5095		64.453125
5096		62.500000
5097		66.406250
5098		62.500000
5099		66.406250
5100		64.453125
5101		66.406250
5102		64.453125
5103		66.406250
5104		64.453125
5105		66.406250
5106		64.453125
5107		66.406250
5108		64.453125
5109		68.359375
5110		64.453125
5111		66.406250
5112		64.453125
5113		66.406250
5114		64.453125
5115		66.406250
5116		64.453125
5117		66.406250
5118		64.453125
5119		66.406250
5120		64.453125
5121		68.359375
5122		64.453125
5123		66.406250
5124		64.453125
5125		66.406250
5126		64.453125
5127		66.406250
5128		64.453125
5129		66.406250
5130		62.500000
5131		66.406250
5132		64.453125
5133		66.406250
5134		64.453125
5135		66.406250
5136		62.500000
5137		66.406250
5138		62.500000
5139		66.406250
5140		62.500000
5141		64.453125
5142		60.546875
5143		64.453125
5144		60.546875
5145		64.453125
5146		60.546875
5147		64.453125
5148		60.546875
5149		62.500000
5150		60.546875
5151		62.500000
5152		58.593750
5153		62.500000
5154		58.593750
5155		60.546875
5156		58.593750
5157		60.546875
5158		56.640625
5159		60.546875
5160		56.640625
5161		58.593750
5162		56.640625
5163		58.593750
5164		54.687500
5165		58.593750
5166		54.687500
5167		56.640625
5168		52.734375
5169		56.640625
5170		52.734375
5171		54.687500
5172		50.781250
5173		54.687500
5174		50.781250
5175		54.687500
5176		48.828125
5177		52.734375
5178		48.828125
5179		50.781250
5180		48.828125
5181		50.781250
5182		46.875000
5183		48.828125
5184		44.921875
5185		48.828125
5186		44.921875
5187		48.828125
5188		42.968750
5189		46.875000
5190		42.968750
5191		44.921875
5192		41.015625
5193		44.921875
5194		39.062500
5195		42.968750
5196		39.062500
5197		42.968750
5198		37.109375
5199		41.015625
5200		37.109375
5201		41.015625
5202		35.156250
5203		37.109375
5204		33.203125
5205		37.109375
5206		33.203125
5207		35.156250
5208		31.250000
5209		35.156250
5210		29.296875
5211		33.203125
5212		29.296875
5213		31.250000
5214		27.343750
5215		31.250000
5216		25.390625
5217		29.296875
5218		25.390625
5219		27.343750
5220		23.437500
5221		25.390625
5222		21.484375
5223		25.390625
5224		21.484375
5225		23.437500
5226		19.531250
5227		21.484375
5228		17.578125
5229		21.484375
5230		15.625000
5231		19.531250
5232		15.625000
5233		17.578125
5234		13.671875
5235		15.625000
5236		11.718750
5237		15.625000
5238		9.765625
5239		13.671875
5240		9.765625
5241		11.718750
5242		7.812500
5243		11.718750
5244		5.859375
5245		9.765625
5246		5.859375
5247		7.812500
5248		3.906250
5249		5.859375
5250		1.953125
5251		5.859375
5252		0.000000
5253		3.906250
5254		-1.953125
5255		1.953125
5256		-1.953125
5257		1.953125
5258		-3.906250
5259		0.000000
5260		-5.859375
5261		-1.953125
5262		-5.859375
5263		-3.906250
5264		-7.812500
5265		-3.906250
5266		-9.765625
5267		-5.859375
5268		-9.765625
5269		-7.812500
5270		-11.718750
5271		-7.812500
5272		-11.718750
5273		-9.765625
5274		-13.671875
5275		-11.718750
5276		-15.625000
5277		-11.718750
5278		-17.578125
5279		-13.671875
5280		-17.578125
5281		-15.625000
5282		-19.531250
5283		-15.625000
5284		-19.531250
5285		-17.578125
5286		-21.484375
5287		-17.578125
5288		-21.484375
5289		-19.531250
5290		-23.437500
5291		-21.484375
5292		-25.390625
5293		-21.484375
5294		-25.390625
5295		-23.437500
5296		-27.343750
5297		-23.437500
5298		-27.343750
5299		-25.390625
5300		-27.343750
5301		-25.390625
5302		-29.296875
5303		-25.390625
5304		-29.296875
5305		-27.343750
5306		-31.250000
5307		-27.343750
5308		-31.250000
5309		-29.296875
5310		-33.203125
5311		-29.296875
5312		-33.203125
5313		-31.250000
5314		-33.203125
5315		-31.250000
5316		-35.156250
5317		-31.250000
5318		-35.156250
5319		-33.203125
5320		-37.109375
5321		-33.203125
5322		-37.109375
5323		-33.203125
5324		-37.109375
5325		-35.156250
5326		-37.109375
5327		-35.156250
5328		-37.109375
5329		-35.156250
5330		-39.062500
5331		-35.156250
5332		-39.062500
5333		-37.109375
5334		-39.062500
5335		-37.109375
5336		-39.062500
5337		-37.109375
5338		-39.062500
5339		-37.109375
5340		-39.062500
5341		-37.109375
5342		-41.015625
5343		-37.109375
5344		-41.015625
5345		-37.109375
5346		-41.015625
5347		-37.109375
5348		-41.015625
5349		-37.109375
5350		-41.015625
5351		-37.109375
5352		-41.015625
5353		-37.109375
5354		-41.015625
5355		-37.109375
5356		-39.062500
5357		-37.109375
5358		-39.062500
5359		-37.109375
5360		-39.062500
5361		-37.109375
5362		-39.062500
5363		-37.109375
5364		-39.062500
5365		-37.109375
5366		-39.062500
5367		-37.109375
5368		-39.062500
5369		-37.109375
5370		-39.062500
5371		-35.156250
5372		-37.109375
5373		-35.156250
5374		-37.109375
5375		-35.156250
5376		-37.109375
5377		-35.156250
5378		-37.109375
5379		-33.203125
5380		-35.156250
5381		-33.203125
5382		-35.156250
5383		-33.203125
5384		-35.156250
5385		-31.250000
5386		-35.156250
5387		-31.250000
5388		-33.203125
5389		-31.250000
5390		-33.203125
5391		-29.296875
5392		-31.250000
5393		-29.296875
5394		-31.250000
5395		-29.296875
5396		-31.250000
5397		-27.343750
5398		-29.296875
5399		-25.390625
5400		-29.296875
5401		-25.390625
5402		-27.343750
5403		-25.390625
5404		-27.343750
5405		-23.437500
5406		-25.390625
5407		-23.437500
5408		-25.390625
5409		-21.484375
5410		-23.437500
5411		-21.484375
5412		-23.437500
5413		-19.531250
5414		-21.484375
5415		-19.531250
5416		-19.531250
5417		-17.578125
5418		-19.531250
5419		-15.625000
5420		-17.578125
5421		-15.625000
5422		-17.578125
5423		-13.671875
5424		-15.625000
5425		-13.671875
5426		-15.625000
5427		-11.718750
5428		-13.671875
5429		-9.765625
5430		-11.718750
5431		-9.765625
5432		-11.718750
5433		-7.812500
5434		-9.765625
5435		-5.859375
5436		-7.812500
5437		-5.859375
5438		-7.812500
5439		-3.906250
5440		-5.859375
5441		-1.953125
5442		-3.906250
5443		0.000000
5444		-3.906250
5445		0.000000
5446		-1.953125
5447		1.953125
5448		0.000000
5449		1.953125
5450		0.000000
5451		3.906250
5452		1.953125
5453		5.859375
5454		3.906250
5455		7.812500
5456		5.859375
5457		7.812500
5458		5.859375
5459		9.765625
5460		7.812500
5461		11.718750
5462		9.765625
5463		11.718750
5464		11.718750
5465		13.671875
5466		11.718750
5467		15.625000
5468		13.671875
5469		17.578125
5470		15.625000
5471		17.578125
5472		15.625000
5473		19.531250
5474		17.578125
5475		21.484375
5476		19.531250
5477		21.484375
5478		19.531250
5479		23.437500
5480		21.484375
5481		25.390625
5482		23.437500
5483		25.390625
5484		25.390625
5485		27.343750
5486		25.390625
5487		29.296875
5488		27.343750
5489		29.296875
5490		29.296875
5491		31.250000
5492		29.296875
5493		33.203125
5494		31.250000
5495		33.203125
5496		33.203125
5497		35.156250
5498		33.203125
5499		37.109375
5500		35.156250
5501		37.109375
5502		35.156250
5503		39.062500
5504		37.109375
5505		41.015625
5506		39.062500
5507		41.015625
5508		39.062500
5509		42.968750
5510		41.015625
5511		42.968750
5512		41.015625
5513		44.921875
5514		42.968750
5515		46.875000
5516		44.921875
5517		46.875000
5518		44.921875
5519		48.828125
5520		44.921875
5521		48.828125
5522		46.875000
5523		50.781250
5524		48.828125
5525		50.781250
5526		48.828125
5527		52.734375
5528		50.781250
5529		52.734375
5530		50.781250
5531		54.687500
5532		52.734375
5533		54.687500
5534		52.734375
5535		54.687500
5536		52.734375
5537		56.640625
5538		54.687500
5539		56.640625
5540		54.687500
5541		58.593750
5542		56.640625
5543		58.593750
5544		56.640625
5545		58.593750
5546		56.640625
5547		60.546875
5548		56.640625
5549		60.546875
5550		58.593750
5551		60.546875
5552		58.593750
5553		62.500000
5554		60.546875
5555		62.500000
5556		60.546875
5557		62.500000
5558		60.546875
5559		64.453125
5560		60.546875
5561		64.453125
5562		62.500000
5563		64.453125
5564		62.500000
5565		64.453125
5566		62.500000
5567		64.453125
5568		62.500000
5569		64.453125
5570		62.500000
5571		66.406250
5572		62.500000
5573		66.406250
5574		64.453125
5575		66.406250
5576		64.453125
5577		66.406250
5578		64.453125
5579		66.406250
5580		64.453125
5581		66.406250
5582		64.453125
5583		66.406250
5584		64.453125
5585		66.406250
5586		64.453125
5587		66.406250
5588		64.453125
5589		66.406250
5590		64.453125
5591		66.406250
5592		64.453125
5593		66.406250
5594		64.453125
5595		66.406250
5596		64.453125
5597		66.406250
5598		64.453125
5599		66.406250
5600		64.453125
5601		66.406250
5602		64.453125
5603		66.406250
5604		64.453125
5605		66.406250
5606		62.500000
5607		66.406250
5608		62.500000
5609		64.453125
5610		62.500000
5611		64.453125
5612		62.500000
5613		64.453125
5614		62.500000
5615		64.453125
5616		60.546875
5617		64.453125
5618		60.546875
5619		62.500000
5620		60.546875
5621		62.500000
5622		60.546875
5623		62.500000
5624		58.593750
5625		62.500000
5626		58.593750
5627		60.546875
5628		56.640625
5629		60.546875
5630		56.640625
5631		60.546875
5632		56.640625
5633		58.593750
5634		54.687500
5635		58.593750
5636		54.687500
5637		56.640625
5638		54.687500
5639		56.640625
5640		52.734375
5641		54.687500
5642		52.734375
5643		54.687500
5644		50.781250
5645		54.687500
5646		50.781250
5647		52.734375
5648		48.828125
5649		52.734375
5650		48.828125
5651		50.781250
5652		46.875000
5653		50.781250
5654		46.875000
5655		48.828125
5656		44.921875
5657		48.828125
5658		44.921875
5659		46.875000
5660		42.968750
5661		44.921875
5662		41.015625
5663		44.921875
5664		41.015625
5665		42.968750
5666		39.062500
5667		42.968750
5668		39.062500
5669		41.015625
5670		37.109375
5671		39.062500
5672		35.156250
5673		39.062500
5674		35.156250
5675		37.109375
5676		33.203125
5677		37.109375
5678		31.250000
5679		35.156250
5680		31.250000
5681		33.203125
5682		29.296875
5683		33.203125
5684		27.343750
5685		31.250000
5686		27.343750
5687		29.296875
5688		25.390625
5689		27.343750
5690		23.437500
5691		27.343750
5692		21.484375
5693		25.390625
5694		21.484375
5695		25.390625
5696		19.531250
5697		23.437500
5698		17.578125
5699		21.484375
5700		17.578125
5701		19.531250
5702		15.625000
5703		19.531250
5704		13.671875
5705		17.578125
5706		11.718750
5707		15.625000
5708		11.718750
5709		13.671875
5710		9.765625
5711		13.671875
5712		7.812500
5713		11.718750
5714		7.812500
5715		9.765625
5716		5.859375
5717		7.812500
5718		3.906250
5719		7.812500
5720		1.953125
5721		5.859375
5722		1.953125
5723		3.906250
5724		0.000000
5725		3.906250
5726		-1.953125
5727		1.953125
5728		-3.906250
5729		0.000000
5730		-3.906250
5731		-1.953125
5732		-5.859375
5733		-1.953125
5734		-7.812500
5735		-3.906250
5736		-7.812500
5737		-5.859375
5738		-9.765625
5739		-5.859375
5740		-11.718750
5741		-7.812500
5742		-11.718750
5743		-9.765625
5744		-13.671875
5745		-9.765625
5746		-15.625000
5747		-11.718750
5748		-15.625000
5749		-13.671875
5750		-17.578125
5751		-13.671875
5752		-17.578125
5753		-15.625000
5754		-19.531250
5755		-17.578125
5756		-21.484375
5757		-17.578125
5758		-23.437500
5759		-19.531250
5760		-23.437500
5761		-19.531250
5762		-23.437500
5763		-21.484375
5764		-25.390625
5765		-21.484375
5766		-25.390625
5767		-23.437500
5768		-27.343750
5769		-23.437500
5770		-27.343750
5771		-25.390625
5772		-29.296875
5773		-25.390625
5774		-29.296875
5775		-27.343750
5776		-31.250000
5777		-27.343750
5778		-31.250000
5779		-29.296875
5780		-33.203125
5781		-29.296875
5782		-33.203125
5783		-31.250000
5784		-33.203125
5785		-31.250000
5786		-35.156250
5787		-33.203125
5788		-35.156250
5789		-33.203125
5790		-37.109375
5791		-33.203125
5792		-37.109375
5793		-33.203125
5794		-39.062500
5795		-33.203125
5796		-37.109375
5797		-35.156250
5798		-39.062500
5799		-35.156250
5800		-39.062500
5801		-35.156250
5802		-39.062500
5803		-37.109375
5804		-39.062500
5805		-37.109375
5806		-39.062500
5807		-37.109375
5808		-39.062500
5809		-37.109375
5810		-41.015625
5811		-37.109375
5812		-41.015625
5813		-37.109375
5814		-41.015625
5815		-37.109375
5816		-42.968750
5817		-37.109375
5818		-42.968750
5819		-37.109375
5820		-41.015625
5821		-37.109375
5822		-41.015625
5823		-39.062500
5824		-41.015625
5825		-37.109375
5826		-41.015625
5827		-39.062500
5828		-42.968750
5829		-37.109375
5830		-41.015625
5831		-37.109375
5832		-42.968750
5833		-35.156250
5834		-39.062500
5835		-37.109375
5836		-42.968750
5837		-35.156250
5838		-39.062500
5839		-37.109375
5840		-39.062500
5841		-35.156250
5842		-41.015625
5843		-35.156250
5844		-41.015625
5845		-35.156250
5846		-39.062500
5847		-35.156250
5848		-39.062500
5849		-33.203125
5850		-37.109375
5851		-35.156250
5852		-39.062500
5853		-31.250000
5854		-35.156250
5855		-33.203125
5856		-35.156250
5857		-33.203125
5858		-35.156250
5859		-31.250000
5860		-37.109375
5861		-29.296875
5862		-33.203125
5863		-29.296875
5864		-31.250000
5865		-29.296875
5866		-33.203125
5867		-27.343750
5868		-31.250000
5869		-25.390625
5870		-31.250000
5871		-27.343750
5872		-29.296875
5873		-25.390625
5874		-29.296875
5875		-23.437500
5876		-29.296875
5877		-21.484375
5878		-27.343750
5879		-21.484375
5880		-25.390625
5881		-21.484375
5882		-25.390625
5883		-17.578125
5884		-25.390625
5885		-17.578125
5886		-25.390625
5887		-15.625000
5888		-21.484375
5889		-17.578125
5890		-19.531250
5891		-15.625000
5892		-19.531250
5893		-15.625000
5894		-19.531250
5895		-11.718750
5896		-17.578125
5897		-11.718750
5898		-13.671875
5899		-9.765625
5900		-15.625000
5901		-7.812500
5902		-15.625000
5903		-5.859375
5904		-11.718750
5905		-7.812500
5906		-9.765625
5907		-5.859375
5908		-7.812500
5909		-3.906250
5910		-9.765625
5911		-1.953125
5912		-7.812500
5913		-1.953125
5914		-3.906250
5915		-1.953125
5916		-5.859375
5917		3.906250
5918		-3.906250
5919		1.953125
5920		-3.906250
5921		5.859375
5922		1.953125
5923		3.906250
5924		1.953125
5925		5.859375
5926		1.953125
5927		9.765625
5928		1.953125
5929		9.765625
5930		7.812500
5931		9.765625
5932		7.812500
5933		13.671875
5934		5.859375
5935		15.625000
5936		9.765625
5937		17.578125
5938		11.718750
5939		15.625000
5940		13.671875
5941		17.578125
5942		13.671875
5943		21.484375
5944		13.671875
5945		21.484375
5946		15.625000
5947		21.484375
5948		19.531250
5949		23.437500
5950		17.578125
5951		27.343750
5952		21.484375
5953		25.390625
5954		19.531250
5955		27.343750
5956		25.390625
5957		27.343750
5958		25.390625
5959		31.250000
5960		25.390625
5961		33.203125
5962		27.343750
5963		33.203125
5964		29.296875
5965		33.203125
5966		29.296875
5967		37.109375
5968		29.296875
5969		37.109375
5970		31.250000
5971		39.062500
5972		35.156250
5973		37.109375
5974		37.109375
5975		39.062500
5976		37.109375
5977		41.015625
5978		35.156250
5979		44.921875
5980		39.062500
5981		42.968750
5982		41.015625
5983		44.921875
5984		39.062500
5985		48.828125
5986		41.015625
5987		48.828125
5988		44.921875
5989		46.875000
5990		44.921875
5991		48.828125
5992		44.921875
5993		50.781250
5994		44.921875
5995		52.734375
5996		46.875000
5997		50.781250
5998		48.828125
5999		52.734375
6000		48.828125
6001		56.640625
6002		48.828125
6003		56.640625
6004		50.781250
6005		56.640625
6006		52.734375
6007		56.640625
6008		52.734375
6009		56.640625
6010		52.734375
6011		60.546875
6012		52.734375
6013		60.546875
6014		56.640625
6015		58.593750
6016		56.640625
6017		60.546875
6018		54.687500
6019		62.500000
6020		56.640625
6021		62.500000
6022		58.593750
6023		60.546875
6024		58.593750
6025		60.546875
6026		58.593750
6027		64.453125
6028		58.593750
6029		64.453125
6030		58.593750
6031		64.453125
6032		60.546875
6033		64.453125
6034		58.593750
6035		68.359375
6036		60.546875
6037		64.453125
6038		60.546875
6039		66.406250
6040		62.500000
6041		64.453125
6042		62.500000
6043		66.406250
6044		62.500000
6045		68.359375
6046		62.500000
6047		68.359375
6048		64.453125
6049		66.406250
6050		60.546875
6051		70.312500
6052		60.546875
6053		68.359375
6054		60.546875
6055		68.359375
6056		64.453125
6057		66.406250
6058		64.453125
6059		66.406250
6060		62.500000
6061		68.359375
6062		62.500000
6063		70.312500
6064		62.500000
6065		66.406250
6066		62.500000
6067		66.406250
6068		62.500000
6069		68.359375
6070		62.500000
6071		68.359375
6072		64.453125
6073		66.406250
6074		62.500000
6075		66.406250
6076		62.500000
6077		64.453125
6078		60.546875
6079		66.406250
6080		60.546875
6081		66.406250
6082		62.500000
6083		64.453125
6084		60.546875
6085		66.406250
6086		60.546875
6087		62.500000
6088		60.546875
6089		62.500000
6090		60.546875
6091		62.500000
6092		58.593750
6093		62.500000
6094		58.593750
6095		60.546875
6096		56.640625
6097		62.500000
6098		58.593750
6099		60.546875
6100		56.640625
6101		60.546875
6102		54.687500
6103		60.546875
6104		54.687500
6105		58.593750
6106		54.687500
6107		56.640625
6108		54.687500
6109		56.640625
6110		52.734375
6111		56.640625
6112		50.781250
6113		54.687500
6114		50.781250
6115		54.687500
6116		50.781250
6117		52.734375
6118		48.828125
6119		52.734375
6120		48.828125
6121		50.781250
6122		46.875000
6123		50.781250
6124		44.921875
6125		48.828125
6126		44.921875
6127		48.828125
6128		44.921875
6129		46.875000
6130		42.968750
6131		46.875000
6132		41.015625
6133		44.921875
6134		41.015625
6135		42.968750
6136		39.062500
6137		42.968750
6138		37.109375
6139		41.015625
6140		37.109375
6141		41.015625
6142		37.109375
6143		39.062500
6144		33.203125
6145		39.062500
6146		33.203125
6147		37.109375
6148		31.250000
6149		37.109375
6150		29.296875
6151		35.156250
6152		29.296875
6153		33.203125
6154		27.343750
6155		33.203125
6156		27.343750
6157		31.250000
6158		25.390625
6159		29.296875
6160		23.437500
6161		27.343750
6162		21.484375
6163		27.343750
6164		19.531250
6165		25.390625
6166		19.531250
6167		23.437500
6168		17.578125
6169		23.437500
6170		15.625000
6171		21.484375
6172		13.671875
6173		19.531250
6174		13.671875
6175		17.578125
6176		11.718750
6177		15.625000
6178		9.765625
6179		15.625000
6180		7.812500
6181		13.671875
6182		5.859375
6183		13.671875
6184		5.859375
6185		11.718750
6186		3.906250
6187		9.765625
6188		1.953125
6189		7.812500
6190		1.953125
6191		5.859375
6192		1.953125
6193		3.906250
6194		-1.953125
6195		3.906250
6196		-1.953125
6197		3.906250
6198		-3.906250
6199		1.953125
6200		-5.859375
6201		0.000000
6202		-7.812500
6203		-1.953125
6204		-7.812500
6205		-1.953125
6206		-9.765625
6207		-3.906250
6208		-9.765625
6209		-5.859375
6210		-11.718750
6211		-7.812500
6212		-13.671875
6213		-7.812500
6214		-13.671875
6215		-9.765625
6216		-17.578125
6217		-9.765625
6218		-17.578125
6219		-11.718750
6220		-17.578125
6221		-13.671875
6222		-17.578125
6223		-13.671875
6224		-19.531250
6225		-17.578125
6226		-21.484375
6227		-17.578125
6228		-21.484375
6229		-17.578125
6230		-23.437500
6231		-19.531250
6232		-25.390625
6233		-21.484375
6234		-25.390625
6235		-19.531250
6236		-27.343750
6237		-21.484375
6238		-27.343750
6239		-23.437500
6240		-27.343750
6241		-25.390625
6242		-29.296875
6243		-25.390625
6244		-31.250000
6245		-27.343750
6246		-31.250000
6247		-27.343750
6248		-33.203125
6249		-27.343750
6250		-33.203125
6251		-29.296875
6252		-33.203125
6253		-29.296875
6254		-35.156250
6255		-31.250000
6256		-35.156250
6257		-31.250000
6258		-35.156250
6259		-33.203125
6260		-35.156250
6261		-33.203125
6262		-37.109375
6263		-33.203125
6264		-37.109375
6265		-35.156250
6266		-41.015625
6267		-33.203125
6268		-39.062500
6269		-35.156250
6270		-39.062500
6271		-35.156250
6272		-41.015625
6273		-37.109375
6274		-39.062500
6275		-37.109375
6276		-41.015625
6277		-37.109375
6278		-41.015625
6279		-37.109375
6280		-41.015625
6281		-37.109375
6282		-41.015625
6283		-37.109375
6284		-42.968750
6285		-37.109375
6286		-41.015625
6287		-39.062500
6288		-41.015625
6289		-39.062500
6290		-41.015625
6291		-37.109375
6292		-41.015625
6293		-39.062500
6294		-42.968750
6295		-39.062500
6296		-41.015625
6297		-39.062500
6298		-41.015625
6299		-39.062500
6300		-42.968750
6301		-37.109375
6302		-41.015625
6303		-39.062500
6304		-41.015625
6305		-39.062500
6306		-41.015625
6307		-37.109375
6308		-41.015625
6309		-37.109375
6310		-41.015625
6311		-37.109375
6312		-39.062500
6313		-37.109375
6314		-39.062500
6315		-37.109375
6316		-39.062500
6317		-35.156250
6318		-39.062500
6319		-35.156250
6320		-37.109375
6321		-35.156250
6322		-37.109375
6323		-35.156250
6324		-37.109375
6325		-33.203125
6326		-37.109375
6327		-33.203125
6328		-35.156250
6329		-31.250000
6330		-35.156250
6331		-31.250000
6332		-35.156250
6333		-31.250000
6334		-33.203125
6335		-31.250000
6336		-33.203125
6337		-29.296875
6338		-31.250000
6339		-29.296875
6340		-31.250000
6341		-27.343750
6342		-29.296875
6343		-27.343750
6344		-29.296875
6345		-25.390625
6346		-29.296875
6347		-25.390625
6348		-27.343750
6349		-23.437500
6350		-27.343750
6351		-21.484375
6352		-25.390625
6353		-21.484375
6354		-23.437500
6355		-19.531250
6356		-23.437500
6357		-19.531250
6358		-21.484375
6359		-19.531250
6360		-21.484375
6361		-17.578125
6362		-19.531250
6363		-15.625000
6364		-19.531250
6365		-13.671875
6366		-17.578125
6367		-13.671875
6368		-15.625000
6369		-11.718750
6370		-15.625000
6371		-11.718750
6372		-13.671875
6373		-9.765625
6374		-11.718750
6375		-9.765625
6376		-11.718750
6377		-7.812500
6378		-9.765625
6379		-5.859375
6380		-7.812500
6381		-3.906250
6382		-7.812500
6383		-3.906250
6384		-5.859375
6385		-1.953125
6386		-3.906250
6387		-1.953125
6388		-3.906250
6389		0.000000
6390		-1.953125
6391		1.953125
6392		0.000000
6393		1.953125
6394		1.953125
6395		3.906250
6396		1.953125
6397		5.859375
6398		3.906250
6399		7.812500
6400		3.906250
6401		7.812500
6402		5.859375
6403		9.765625
6404		7.812500
6405		11.718750
6406		9.765625
6407		13.671875
6408		9.765625
6409		13.671875
6410		11.718750
6411		15.625000
6412		13.671875
6413		17.578125
6414		15.625000
6415		19.531250
6416		15.625000
6417		19.531250
6418		17.578125
6419		21.484375
6420		19.531250
6421		21.484375
6422		19.531250
6423		23.437500
6424		21.484375
6425		25.390625
6426		23.437500
6427		25.390625
6428		23.437500
6429		29.296875
6430		25.390625
6431		29.296875
6432		27.343750
6433		31.250000
6434		29.296875
6435		31.250000
6436		29.296875
6437		33.203125
6438		31.250000
6439		35.156250
6440		31.250000
6441		35.156250
6442		33.203125
6443		37.109375
6444		35.156250
6445		37.109375
6446		35.156250
6447		39.062500
6448		37.109375
6449		41.015625
6450		37.109375
6451		42.968750
6452		39.062500
6453		42.968750
6454		41.015625
6455		44.921875
6456		41.015625
6457		44.921875
6458		41.015625
6459		44.921875
6460		44.921875
6461		46.875000
6462		44.921875
6463		48.828125
6464		44.921875
6465		48.828125
6466		46.875000
6467		50.781250
6468		46.875000
6469		50.781250
6470		48.828125
6471		52.734375
6472		48.828125
6473		52.734375
6474		50.781250
6475		54.687500
6476		50.781250
6477		54.687500
6478		52.734375
6479		54.687500
6480		52.734375
6481		56.640625
6482		52.734375
6483		56.640625
6484		54.687500
6485		58.593750
6486		54.687500
6487		58.593750
6488		56.640625
6489		58.593750
6490		56.640625
6491		60.546875
6492		56.640625
6493		60.546875
6494		58.593750
6495		60.546875
6496		56.640625
6497		62.500000
6498		58.593750
6499		62.500000
6500		58.593750
6501		62.500000
6502		60.546875
6503		62.500000
6504		60.546875
6505		62.500000
6506		60.546875
6507		64.453125
6508		60.546875
6509		64.453125
6510		62.500000
6511		64.453125
6512		62.500000
6513		64.453125
6514		60.546875
6515		66.406250
6516		62.500000
6517		66.406250
6518		62.500000
6519		66.406250
6520		62.500000
6521		66.406250
6522		62.500000
6523		66.406250
6524		62.500000
6525		66.406250
6526		64.453125
6527		66.406250
6528		64.453125
6529		66.406250
6530		62.500000
6531		66.406250
6532		64.453125
6533		66.406250
6534		64.453125
6535		66.406250
6536		62.500000
6537		66.406250
6538		62.500000
6539		66.406250
6540		62.500000
6541		66.406250
6542		62.500000
6543		66.406250
6544		62.500000
6545		66.406250
6546		62.500000
6547		66.406250
6548		62.500000
6549		64.453125
6550		62.500000
6551		64.453125
6552		60.546875
6553		64.453125
6554		60.546875
6555		64.453125
6556		60.546875
6557		64.453125
6558		60.546875
6559		64.453125
6560		60.546875
6561		62.500000
6562		60.546875
6563		62.500000
6564		58.593750
6565		62.500000
6566		58.593750
6567		62.500000
6568		56.640625
6569		60.546875
6570		56.640625
6571		60.546875
6572		56.640625
6573		58.593750
6574		54.687500
6575		58.593750
6576		54.687500
6577		58.593750
6578		54.687500
6579		56.640625
6580		52.734375
6581		56.640625
6582		52.734375
6583		56.640625
6584		50.781250
6585		54.687500
6586		50.781250
6587		54.687500
6588		48.828125
6589		52.734375
6590		48.828125
6591		52.734375
6592		46.875000
6593		50.781250
6594		46.875000
6595		50.781250
6596		46.875000
6597		48.828125
6598		44.921875
6599		48.828125
6600		42.968750
6601		46.875000
6602		42.968750
6603		44.921875
6604		41.015625
6605		44.921875
6606		41.015625
6607		44.921875
6608		39.062500
6609		42.968750
6610		39.062500
6611		41.015625
6612		37.109375
6613		39.062500
6614		35.156250
6615		39.062500
6616		33.203125
6617		37.109375
6618		33.203125
6619		37.109375
6620		31.250000
6621		35.156250
6622		29.296875
6623		33.203125
6624		29.296875
6625		33.203125
6626		27.343750
6627		31.250000
6628		27.343750
6629		29.296875
6630		23.437500
6631		29.296875
6632		23.437500
6633		27.343750
6634		21.484375
6635		25.390625
6636		21.484375
6637		25.390625
6638		19.531250
6639		23.437500
6640		17.578125
6641		21.484375
6642		17.578125
6643		19.531250
6644		15.625000
6645		19.531250
6646		13.671875
6647		17.578125
6648		11.718750
6649		17.578125
6650		11.718750
6651		13.671875
6652		9.765625
6653		13.671875
6654		7.812500
6655		11.718750
6656		5.859375
6657		11.718750
6658		5.859375
6659		9.765625
6660		3.906250
6661		7.812500
6662		1.953125
6663		5.859375
6664		1.953125
6665		5.859375
6666		0.000000
6667		3.906250
6668		-1.953125
6669		1.953125
6670		-1.953125
6671		0.000000
6672		-3.906250
6673		0.000000
6674		-5.859375
6675		-1.953125
6676		-7.812500
6677		-3.906250
6678		-7.812500
6679		-5.859375
6680		-9.765625
6681		-5.859375
6682		-9.765625
6683		-7.812500
6684		-11.718750
6685		-7.812500
6686		-13.671875
6687		-9.765625
6688		-15.625000
6689		-11.718750
6690		-15.625000
6691		-13.671875
6692		-17.578125
6693		-13.671875
6694		-17.578125
6695		-15.625000
6696		-19.531250
6697		-15.625000
6698		-21.484375
6699		-17.578125
6700		-21.484375
6701		-17.578125
6702		-23.437500
6703		-19.531250
6704		-23.437500
6705		-19.531250
6706		-25.390625
6707		-21.484375
6708		-27.343750
6709		-21.484375
6710		-27.343750
6711		-23.437500
6712		-27.343750
6713		-25.390625
6714		-29.296875
6715		-25.390625
6716		-29.296875
6717		-25.390625
6718		-31.250000
6719		-27.343750
6720		-31.250000
6721		-27.343750
6722		-31.250000
6723		-29.296875
6724		-33.203125
6725		-29.296875
6726		-35.156250
6727		-31.250000
6728		-35.156250
6729		-31.250000
6730		-35.156250
6731		-33.203125
6732		-37.109375
6733		-33.203125
6734		-37.109375
6735		-33.203125
6736		-37.109375
6737		-33.203125
6738		-37.109375
6739		-35.156250
6740		-39.062500
6741		-35.156250
6742		-39.062500
6743		-35.156250
6744		-39.062500
6745		-35.156250
6746		-39.062500
6747		-37.109375
6748		-39.062500
6749		-37.109375
6750		-41.015625
6751		-37.109375
6752		-41.015625
6753		-37.109375
6754		-41.015625
6755		-37.109375
6756		-41.015625
6757		-37.109375
6758		-41.015625
6759		-37.109375
6760		-42.968750
6761		-37.109375
6762		-41.015625
6763		-39.062500
6764		-41.015625
6765		-37.109375
6766		-41.015625
6767		-37.109375
6768		-41.015625
6769		-37.109375
6770		-41.015625
6771		-37.109375
6772		-41.015625
6773		-37.109375
6774		-41.015625
6775		-37.109375
6776		-41.015625
6777		-37.109375
6778		-39.062500
6779		-37.109375
6780		-39.062500
6781		-37.109375
6782		-41.015625
6783		-35.156250
6784		-39.062500
6785		-35.156250
6786		-39.062500
6787		-35.156250
6788		-39.062500
6789		-35.156250
6790		-39.062500
6791		-33.203125
6792		-37.109375
6793		-33.203125
6794		-37.109375
6795		-33.203125
6796		-35.156250
6797		-33.203125
6798		-35.156250
6799		-31.250000
6800		-35.156250
6801		-31.250000
6802		-33.203125
6803		-31.250000
6804		-33.203125
6805		-29.296875
6806		-33.203125
6807		-29.296875
6808		-31.250000
6809		-29.296875
6810		-31.250000
6811		-27.343750
6812		-29.296875
6813		-27.343750
6814		-29.296875
6815		-25.390625
6816		-27.343750
6817		-23.437500
6818		-27.343750
6819		-23.437500
6820		-27.343750
6821		-21.484375
6822		-25.390625
6823		-21.484375
6824		-23.437500
6825		-21.484375
6826		-23.437500
6827		-19.531250
6828		-23.437500
6829		-19.531250
6830		-19.531250
6831		-17.578125
6832		-19.531250
6833		-15.625000
6834		-17.578125
6835		-13.671875
6836		-17.578125
6837		-13.671875
6838		-15.625000
6839		-13.671875
6840		-13.671875
6841		-11.718750
6842		-13.671875
6843		-9.765625
6844		-11.718750
6845		-7.812500
6846		-9.765625
6847		-7.812500
6848		-9.765625
6849		-5.859375
6850		-9.765625
6851		-5.859375
6852		-7.812500
6853		-3.906250
6854		-5.859375
6855		-1.953125
6856		-3.906250
6857		0.000000
6858		-3.906250
6859		0.000000
6860		-1.953125
6861		1.953125
6862		-1.953125
6863		3.906250
6864		1.953125
6865		3.906250
6866		1.953125
6867		5.859375
6868		3.906250
6869		7.812500
6870		5.859375
6871		9.765625
6872		5.859375
6873		9.765625
6874		7.812500
6875		11.718750
6876		7.812500
6877		13.671875
6878		11.718750
6879		15.625000
6880		11.718750
6881		15.625000
6882		13.671875
6883		17.578125
6884		15.625000
6885		19.531250
6886		15.625000
6887		19.531250
6888		17.578125
6889		21.484375
6890		19.531250
6891		23.437500
6892		19.531250
6893		23.437500
6894		21.484375
6895		25.390625
6896		23.437500
6897		27.343750
6898		25.390625
6899		27.343750
6900		25.390625
6901		29.296875
6902		27.343750
6903		31.250000
6904		29.296875
6905		33.203125
6906		29.296875
6907		33.203125
6908		31.250000
6909		35.156250
6910		33.203125
6911		35.156250
6912		33.203125
6913		37.109375
6914		35.156250
6915		39.062500
6916		35.156250
6917		39.062500
6918		37.109375
6919		41.015625
6920		39.062500
6921		42.968750
6922		39.062500
6923		42.968750
6924		41.015625
6925		44.921875
6926		41.015625
6927		44.921875
6928		42.968750
6929		46.875000
6930		44.921875
6931		46.875000
6932		44.921875
6933		48.828125
6934		44.921875
6935		50.781250
6936		46.875000
6937		50.781250
6938		48.828125
6939		50.781250
6940		48.828125
6941		52.734375
6942		50.781250
6943		54.687500
6944		50.781250
6945		54.687500
6946		50.781250
6947		54.687500
6948		52.734375
6949		56.640625
6950		54.687500
6951		58.593750
6952		54.687500
6953		58.593750
6954		54.687500
6955		58.593750
6956		56.640625
6957		60.546875
6958		56.640625
6959		60.546875
6960		56.640625
6961		60.546875
6962		56.640625
6963		62.500000
6964		58.593750
6965		62.500000
6966		58.593750
6967		62.500000
6968		60.546875
6969		62.500000
6970		60.546875
6971		62.500000
6972		60.546875
6973		64.453125
6974		60.546875
6975		64.453125
6976		62.500000
6977		64.453125
6978		62.500000
6979		66.406250
6980		62.500000
6981		66.406250
6982		64.453125
6983		66.406250
6984		64.453125
6985		66.406250
6986		64.453125
6987		66.406250
6988		64.453125
6989		66.406250
6990		64.453125
6991		66.406250
6992		64.453125
6993		66.406250
6994		64.453125
6995		66.406250
6996		64.453125
6997		68.359375
6998		64.453125
6999		68.359375
7000		64.453125
7001		68.359375
7002		64.453125
7003		68.359375
7004		64.453125
7005		68.359375
7006		64.453125
7007		68.359375
7008		64.453125
7009		68.359375
7010		64.453125
7011		68.359375
7012		62.500000
7013		68.359375
7014		64.453125
7015		66.406250
7016		64.453125
7017		66.406250
7018		64.453125
7019		68.359375
7020		62.500000
7021		66.406250
7022		62.500000
7023		66.406250
7024		62.500000
7025		66.406250
7026		62.500000
7027		64.453125
7028		60.546875
7029		64.453125
7030		60.546875
7031		64.453125
7032		60.546875
7033		64.453125
7034		60.546875
7035		64.453125
7036		60.546875
7037		62.500000
7038		58.593750
7039		62.500000
7040		58.593750
7041		62.500000
7042		58.593750
7043		60.546875
7044		56.640625
7045		60.546875
7046		56.640625
7047		60.546875
7048		56.640625
7049		58.593750
7050		54.687500
7051		58.593750
7052		54.687500
7053		56.640625
7054		52.734375
7055		56.640625
7056		52.734375
7057		54.687500
7058		50.781250
7059		54.687500
7060		50.781250
7061		54.687500
7062		48.828125
7063		52.734375
7064		48.828125
7065		50.781250
7066		48.828125
7067		50.781250
7068		46.875000
7069		50.781250
7070		44.921875
7071		48.828125
7072		44.921875
7073		46.875000
7074		42.968750
7075		46.875000
7076		42.968750
7077		46.875000
7078		41.015625
7079		44.921875
7080		39.062500
7081		42.968750
7082		39.062500
7083		41.015625
7084		37.109375
7085		41.015625
7086		37.109375
7087		39.062500
7088		33.203125
7089		39.062500
7090		33.203125
7091		37.109375
7092		31.250000
7093		35.156250
7094		31.250000
7095		35.156250
7096		29.296875
7097		33.203125
7098		29.296875
7099		31.250000
7100		27.343750
7101		31.250000
7102		25.390625
7103		29.296875
7104		23.437500
7105		27.343750
7106		23.437500
7107		27.343750
7108		21.484375
7109		25.390625
7110		19.531250
7111		23.437500
7112		19.531250
7113		23.437500
7114		17.578125
7115		23.437500
7116		15.625000
7117		19.531250
7118		13.671875
7119		17.578125
7120		13.671875
7121		17.578125
7122		11.718750
7123		15.625000
7124		9.765625
7125		13.671875
7126		9.765625
7127		11.718750
7128		5.859375
7129		11.718750
7130		5.859375
7131		9.765625
7132		3.906250
7133		7.812500
7134		3.906250
7135		5.859375
7136		1.953125
7137		5.859375
7138		0.000000
7139		3.906250
7140		-1.953125
7141		1.953125
7142		-1.953125
7143		0.000000
7144		-3.906250
7145		0.000000
7146		-5.859375
7147		-1.953125
7148		-5.859375
7149		-3.906250
7150		-7.812500
7151		-3.906250
7152		-9.765625
7153		-5.859375
7154		-9.765625
7155		-5.859375
7156		-11.718750
7157		-7.812500
7158		-13.671875
7159		-9.765625
7160		-15.625000
7161		-11.718750
7162		-15.625000
7163		-11.718750
7164		-17.578125
7165		-13.671875
7166		-17.578125
7167		-15.625000
7168		-19.531250
7169		-15.625000
7170		-21.484375
7171		-17.578125
7172		-21.484375
7173		-17.578125
7174		-23.437500
7175		-19.531250
7176		-23.437500
7177		-19.531250
7178		-25.390625
7179		-21.484375
7180		-25.390625
7181		-21.484375
7182		-27.343750
7183		-23.437500
7184		-27.343750
7185		-23.437500
7186		-29.296875
7187		-25.390625
7188		-29.296875
7189		-25.390625
7190		-31.250000
7191		-27.343750
7192		-31.250000
7193		-27.343750
7194		-31.250000
7195		-29.296875
7196		-33.203125
7197		-29.296875
7198		-33.203125
7199		-29.296875
7200		-33.203125
7201		-31.250000
7202		-35.156250
7203		-31.250000
7204		-35.156250
7205		-31.250000
7206		-35.156250
7207		-33.203125
7208		-37.109375
7209		-33.203125
7210		-37.109375
7211		-33.203125
7212		-37.109375
7213		-35.156250
7214		-39.062500
7215		-35.156250
7216		-39.062500
7217		-35.156250
7218		-39.062500
7219		-35.156250
7220		-39.062500
7221		-35.156250
7222		-39.062500
7223		-37.109375
7224		-39.062500
7225		-35.156250
7226		-39.062500
7227		-37.109375
7228		-39.062500
7229		-37.109375
7230		-41.015625
7231		-37.109375
7232		-41.015625
7233		-37.109375
7234		-41.015625
7235		-37.109375
7236		-41.015625
7237		-37.109375
7238		-41.015625
7239		-37.109375
7240		-41.015625
7241		-37.109375
7242		-41.015625
7243		-37.109375
7244		-39.062500
7245		-37.109375
7246		-39.062500
7247		-37.109375
7248		-39.062500
7249		-37.109375
7250		-39.062500
7251		-37.109375
7252		-41.015625
7253		-35.156250
7254		-39.062500
7255		-35.156250
7256		-39.062500
7257		-35.156250
7258		-37.109375
7259		-35.156250
7260		-37.109375
7261		-35.156250
7262		-37.109375
7263		-33.203125
7264		-37.109375
7265		-33.203125
7266		-35.156250
7267		-33.203125
7268		-35.156250
7269		-33.203125
7270		-35.156250
7271		-31.250000
7272		-33.203125
7273		-31.250000
7274		-33.203125
7275		-29.296875
7276		-31.250000
7277		-29.296875
7278		-31.250000
7279		-27.343750
7280		-31.250000
7281		-27.343750
7282		-31.250000
7283		-25.390625
7284		-29.296875
7285		-25.390625
7286		-29.296875
7287		-23.437500
7288		-27.343750
7289		-23.437500
7290		-25.390625
7291		-21.484375
7292		-25.390625
7293		-21.484375
7294		-25.390625
7295		-21.484375
7296		-23.437500
7297		-19.531250
7298		-23.437500
7299		-19.531250
7300		-21.484375
7301		-17.578125
7302		-19.531250
7303		-17.578125
7304		-19.531250
7305		-15.625000
7306		-17.578125
7307		-13.671875
7308		-15.625000
7309		-13.671875
7310		-15.625000
7311		-11.718750
7312		-13.671875
7313		-11.718750
7314		-13.671875
7315		-9.765625
7316		-11.718750
7317		-7.812500
7318		-9.765625
7319		-7.812500
7320		-9.765625
7321		-5.859375
7322		-7.812500
7323		-3.906250
7324		-5.859375
7325		-3.906250
7326		-5.859375
7327		-1.953125
7328		-3.906250
7329		0.000000
7330		-1.953125
7331		1.953125
7332		-1.953125
7333		1.953125
7334		0.000000
7335		3.906250
7336		1.953125
7337		5.859375
7338		1.953125
7339		5.859375
7340		3.906250
7341		7.812500
7342		5.859375
7343		9.765625
7344		7.812500
7345		9.765625
7346		7.812500
7347		11.718750
7348		9.765625
7349		13.671875
7350		11.718750
7351		13.671875
7352		13.671875
7353		15.625000
7354		13.671875
7355		17.578125
7356		15.625000
7357		19.531250
7358		15.625000
7359		19.531250
7360		17.578125
7361		21.484375
7362		19.531250
7363		23.437500
7364		21.484375
7365		25.390625
7366		21.484375
7367		25.390625
7368		23.437500
7369		27.343750
7370		25.390625
7371		29.296875
7372		25.390625
7373		29.296875
7374		27.343750
7375		31.250000
7376		29.296875
7377		31.250000
7378		29.296875
7379		33.203125
7380		31.250000
7381		35.156250
7382		33.203125
7383		37.109375
7384		35.156250
7385		37.109375
7386		35.156250
7387		39.062500
7388		37.109375
7389		41.015625
7390		37.109375
7391		41.015625
7392		39.062500
7393		42.968750
7394		41.015625
7395		42.968750
7396		41.015625
7397		44.921875
7398		42.968750
7399		44.921875
7400		42.968750
7401		46.875000
7402		44.921875
7403		46.875000
7404		44.921875
7405		48.828125
7406		46.875000
7407		50.781250
7408		46.875000
7409		50.781250
7410		48.828125
7411		50.781250
7412		48.828125
7413		52.734375
7414		48.828125
7415		52.734375
7416		50.781250
7417		54.687500
7418		52.734375
7419		54.687500
7420		52.734375
7421		56.640625
7422		54.687500
7423		56.640625
7424		54.687500
7425		58.593750
7426		54.687500
7427		58.593750
7428		56.640625
7429		58.593750
7430		56.640625
7431		60.546875
7432		56.640625
7433		60.546875
7434		58.593750
7435		60.546875
7436		58.593750
7437		62.500000
7438		58.593750
7439		62.500000
7440		60.546875
7441		62.500000
7442		60.546875
7443		64.453125
7444		60.546875
7445		64.453125
7446		60.546875
7447		64.453125
7448		60.546875
7449		64.453125
7450		62.500000
7451		66.406250
7452		62.500000
7453		66.406250
7454		62.500000
7455		66.406250
7456		62.500000
7457		66.406250
7458		62.500000
7459		66.406250
7460		62.500000
7461		66.406250
7462		64.453125
7463		66.406250
7464		64.453125
7465		66.406250
7466		64.453125
7467		68.359375
7468		64.453125
7469		68.359375
7470		64.453125
7471		66.406250
7472		64.453125
7473		68.359375
7474		64.453125
7475		68.359375
7476		64.453125
7477		68.359375
7478		64.453125
7479		66.406250
7480		64.453125
7481		68.359375
7482		64.453125
7483		66.406250
7484		64.453125
7485		68.359375
7486		64.453125
7487		66.406250
7488		62.500000
7489		68.359375
7490		62.500000
7491		66.406250
7492		62.500000
7493		66.406250
7494		62.500000
7495		66.406250
7496		62.500000
7497		66.406250
7498		62.500000
7499		64.453125
7500		60.546875
7501		64.453125
7502		62.500000
7503		64.453125
7504		60.546875
7505		64.453125
7506		60.546875
7507		64.453125
7508		58.593750
7509		62.500000
7510		58.593750
7511		62.500000
7512		58.593750
7513		60.546875
7514		56.640625
7515		60.546875
7516		56.640625
7517		60.546875
7518		56.640625
7519		58.593750
7520		54.687500
7521		58.593750
7522		54.687500
7523		58.593750
7524		52.734375
7525		56.640625
7526		52.734375
7527		56.640625
7528		52.734375
7529		54.687500
7530		50.781250
7531		54.687500
7532		50.781250
7533		54.687500
7534		48.828125
7535		52.734375
7536		48.828125
7537		50.781250
7538		46.875000
7539		50.781250
7540		46.875000
7541		48.828125
7542		44.921875
7543		48.828125
7544		44.921875
7545		46.875000
7546		42.968750
7547		46.875000
7548		41.015625
7549		44.921875
7550		41.015625
7551		44.921875
7552		39.062500
7553		42.968750
7554		39.062500
7555		41.015625
7556		37.109375
7557		41.015625
7558		35.156250
7559		39.062500
7560		35.156250
7561		37.109375
7562		33.203125
7563		37.109375
7564		31.250000
7565		35.156250
7566		31.250000
7567		35.156250
7568		29.296875
7569		33.203125
7570		29.296875
7571		31.250000
7572		27.343750
7573		31.250000
7574		25.390625
7575		29.296875
7576		23.437500
7577		27.343750
7578		21.484375
7579		25.390625
7580		21.484375
7581		25.390625
7582		19.531250
7583		23.437500
7584		17.578125
7585		21.484375
7586		17.578125
7587		19.531250
7588		13.671875
7589		19.531250
7590		13.671875
7591		17.578125
7592		13.671875
7593		15.625000
7594		11.718750
7595		15.625000
7596		9.765625
7597		13.671875
7598		7.812500
7599		11.718750
7600		7.812500
7601		9.765625
7602		5.859375
7603		9.765625
7604		3.906250
7605		7.812500
7606		1.953125
7607		7.812500
7608		0.000000
7609		3.906250
7610		0.000000
7611		3.906250
7612		-1.953125
7613		1.953125
7614		-3.906250
7615		0.000000
7616		-3.906250
7617		0.000000
7618		-5.859375
7619		-1.953125
7620		-7.812500
7621		-3.906250
7622		-9.765625
7623		-5.859375
7624		-9.765625
7625		-5.859375
7626		-11.718750
7627		-7.812500
7628		-11.718750
7629		-9.765625
7630		-13.671875
7631		-9.765625
7632		-15.625000
7633		-11.718750
7634		-17.578125
7635		-11.718750
7636		-17.578125
7637		-13.671875
7638		-17.578125
7639		-15.625000
7640		-19.531250
7641		-15.625000
7642		-21.484375
7643		-17.578125
7644		-21.484375
7645		-19.531250
7646		-23.437500
7647		-19.531250
7648		-23.437500
7649		-21.484375
7650		-25.390625
7651		-21.484375
7652		-27.343750
7653		-21.484375
7654		-27.343750
7655		-23.437500
7656		-29.296875
7657		-25.390625
7658		-29.296875
7659		-25.390625
7660		-29.296875
7661		-25.390625
7662		-31.250000
7663		-27.343750
7664		-31.250000
7665		-29.296875
7666		-33.203125
7667		-29.296875
7668		-33.203125
7669		-29.296875
7670		-33.203125
7671		-31.250000
7672		-35.156250
7673		-31.250000
7674		-35.156250
7675		-33.203125
7676		-37.109375
7677		-33.203125
7678		-37.109375
7679		-33.203125
7680		-37.109375
7681		-33.203125
7682		-37.109375
7683		-35.156250
7684		-37.109375
7685		-35.156250
7686		-39.062500
7687		-35.156250
7688		-39.062500
7689		-37.109375
7690		-39.062500
7691		-35.156250
7692		-39.062500
7693		-37.109375
7694		-41.015625
7695		-37.109375
7696		-39.062500
7697		-37.109375
7698		-41.015625
7699		-37.109375
7700		-41.015625
7701		-37.109375
7702		-41.015625
7703		-37.109375
7704		-41.015625
7705		-37.109375
7706		-41.015625
7707		-37.109375
7708		-41.015625
7709		-37.109375
7710		-41.015625
7711		-39.062500
7712		-41.015625
7713		-37.109375
7714		-41.015625
7715		-37.109375
7716		-41.015625
7717		-37.109375
7718		-41.015625
7719		-37.109375
7720		-39.062500
7721		-37.109375
7722		-39.062500
7723		-37.109375
7724		-39.062500
7725		-37.109375
7726		-39.062500
7727		-37.109375
7728		-39.062500
7729		-35.156250
7730		-37.109375
7731		-35.156250
7732		-37.109375
7733		-35.156250
7734		-37.109375
7735		-33.203125
7736		-37.109375
7737		-33.203125
7738		-35.156250
7739		-33.203125
7740		-35.156250
7741		-31.250000
7742		-35.156250
7743		-31.250000
7744		-35.156250
7745		-31.250000
7746		-33.203125
7747		-29.296875
7748		-33.203125
7749		-29.296875
7750		-31.250000
7751		-29.296875
7752		-31.250000
7753		-27.343750
7754		-29.296875
7755		-27.343750
7756		-29.296875
7757		-25.390625
7758		-29.296875
7759		-25.390625
7760		-27.343750
7761		-23.437500
7762		-25.390625
7763		-23.437500
7764		-25.390625
7765		-21.484375
7766		-25.390625
7767		-21.484375
7768		-23.437500
7769		-19.531250
7770		-21.484375
7771		-19.531250
7772		-21.484375
7773		-17.578125
7774		-19.531250
7775		-15.625000
7776		-19.531250
7777		-15.625000
7778		-17.578125
7779		-13.671875
7780		-15.625000
7781		-13.671875
7782		-15.625000
7783		-11.718750
7784		-13.671875
7785		-9.765625
7786		-13.671875
7787		-9.765625
7788		-11.718750
7789		-7.812500
7790		-9.765625
7791		-5.859375
7792		-9.765625
7793		-3.906250
7794		-7.812500
7795		-3.906250
7796		-5.859375
7797		-3.906250
7798		-5.859375
7799		-1.953125
7800		-3.906250
7801		0.000000
7802		-1.953125
7803		1.953125
7804		-1.953125
7805		1.953125
7806		0.000000
7807		3.906250
7808		1.953125
7809		5.859375
7810		3.906250
7811		5.859375
7812		3.906250
7813		7.812500
7814		5.859375
7815		9.765625
7816		7.812500
7817		11.718750
7818		7.812500
7819		11.718750
7820		9.765625
7821		13.671875
7822		11.718750
7823		15.625000
7824		13.671875
7825		15.625000
7826		13.671875
7827		17.578125
7828		15.625000
7829		19.531250
7830		17.578125
7831		19.531250
7832		17.578125
7833		21.484375
7834		19.531250
7835		23.437500
7836		21.484375
7837		25.390625
7838		23.437500
7839		25.390625
7840		23.437500
7841		27.343750
7842		25.390625
7843		29.296875
7844		25.390625
7845		29.296875
7846		27.343750
7847		31.250000
7848		29.296875
7849		33.203125
7850		29.296875
7851		35.156250
7852		31.250000
7853		35.156250
7854		31.250000
7855		37.109375
7856		33.203125
7857		37.109375
7858		35.156250
7859		39.062500
7860		37.109375
7861		41.015625
7862		37.109375
7863		41.015625
7864		39.062500
7865		42.968750
7866		39.062500
7867		44.921875
7868		41.015625
7869		44.921875
7870		41.015625
7871		44.921875
7872		42.968750
7873		46.875000
7874		44.921875
7875		46.875000
7876		44.921875
7877		48.828125
7878		46.875000
7879		48.828125
7880		46.875000
7881		50.781250
7882		48.828125
7883		50.781250
7884		48.828125
7885		52.734375
7886		50.781250
7887		54.687500
7888		50.781250
7889		54.687500
7890		52.734375
7891		54.687500
7892		52.734375
7893		56.640625
7894		54.687500
7895		56.640625
7896		54.687500
7897		58.593750
7898		54.687500
7899		58.593750
7900		56.640625
7901		58.593750
7902		56.640625
7903		60.546875
7904		56.640625
7905		60.546875
7906		58.593750
7907		60.546875
7908		58.593750
7909		62.500000
7910		58.593750
7911		62.500000
7912		60.546875
7913		62.500000
7914		60.546875
7915		62.500000
7916		60.546875
7917		64.453125
7918		60.546875
7919		64.453125
7920		60.546875
7921		64.453125
7922		62.500000
7923		64.453125
7924		62.500000
7925		64.453125
7926		62.500000
7927		66.406250
7928		62.500000
7929		66.406250
7930		64.453125
7931		66.406250
7932		62.500000
7933		66.406250
7934		62.500000
7935		66.406250
7936		64.453125
7937		66.406250
7938		62.500000
7939		68.359375
7940		64.453125
7941		66.406250
7942		64.453125
7943		68.359375
7944		64.453125
7945		68.359375
7946		64.453125
7947		68.359375
7948		64.453125
7949		66.406250
7950		64.453125
7951		66.406250
7952		64.453125
7953		66.406250
7954		64.453125
7955		66.406250
7956		64.453125
7957		66.406250
7958		62.500000
7959		66.406250
7960		62.500000
7961		66.406250
7962		62.500000
7963		66.406250
7964		62.500000
7965		66.406250
7966		62.500000
7967		66.406250
7968		62.500000
7969		66.406250
7970		60.546875
7971		64.453125
7972		60.546875
7973		64.453125
7974		60.546875
7975		62.500000
7976		58.593750
7977		64.453125
7978		60.546875
7979		62.500000
7980		58.593750
7981		62.500000
7982		58.593750
7983		60.546875
7984		56.640625
7985		60.546875
7986		56.640625
7987		60.546875
7988		56.640625
7989		60.546875
7990		54.687500
7991		58.593750
7992		54.687500
7993		58.593750
7994		54.687500
7995		56.640625
7996		52.734375
7997		56.640625
7998		52.734375
7999		56.640625
8000		50.781250
8001		54.687500
8002		50.781250
8003		52.734375
8004		48.828125
8005		52.734375
8006		48.828125
8007		50.781250
8008		46.875000
8009		50.781250
8010		46.875000
8011		50.781250
8012		44.921875
8013		48.828125
8014		44.921875
8015		46.875000
8016		42.968750
8017		46.875000
8018		42.968750
8019		44.921875
8020		41.015625
8021		44.921875
8022		39.062500
8023		42.968750
8024		39.062500
8025		41.015625
8026		37.109375
8027		41.015625
8028		35.156250
8029		39.062500
8030		35.156250
8031		39.062500
8032		33.203125
8033		37.109375
8034		31.250000
8035		35.156250
8036		31.250000
8037		35.156250
8038		29.296875
8039		33.203125
8040		27.343750
8041		31.250000
8042		25.390625
8043		31.250000
8044		25.390625
8045		29.296875
8046		23.437500
8047		27.343750
8048		23.437500
8049		25.390625
8050		21.484375
8051		25.390625
8052		19.531250
8053		23.437500
8054		17.578125
8055		21.484375
8056		17.578125
8057		21.484375
8058		15.625000
8059		19.531250
8060		13.671875
8061		19.531250
8062		13.671875
8063		15.625000
8064		11.718750
8065		15.625000
8066		9.765625
8067		13.671875
8068		7.812500
8069		11.718750
8070		7.812500
8071		9.765625
8072		5.859375
8073		9.765625
8074		3.906250
8075		7.812500
8076		1.953125
8077		5.859375
8078		1.953125
8079		3.906250
8080		0.000000
8081		3.906250
8082		-1.953125
8083		1.953125
8084		-3.906250
8085		0.000000
8086		-3.906250
8087		0.000000
8088		-5.859375
8089		-1.953125
8090		-5.859375
8091		-3.906250
8092		-7.812500
8093		-5.859375
8094		-9.765625
8095		-5.859375
8096		-11.718750
8097		-7.812500
8098		-11.718750
8099		-9.765625
8100		-13.671875
8101		-9.765625
8102		-13.671875
8103		-11.718750
8104		-15.625000
8105		-11.718750
8106		-17.578125
8107		-13.671875
8108		-17.578125
8109		-15.625000
8110		-19.531250
8111		-15.625000
8112		-21.484375
8113		-17.578125
8114		-23.437500
8115		-17.578125
8116		-23.437500
8117		-19.531250
8118		-23.437500
8119		-21.484375
8120		-25.390625
8121		-21.484375
8122		-27.343750
8123		-23.437500
8124		-27.343750
8125		-23.437500
8126		-27.343750
8127		-25.390625
8128		-29.296875
8129		-25.390625
8130		-29.296875
8131		-27.343750
8132		-31.250000
8133		-27.343750
8134		-31.250000
8135		-29.296875
8136		-33.203125
8137		-29.296875
8138		-33.203125
8139		-29.296875
8140		-33.203125
8141		-31.250000
8142		-35.156250
8143		-31.250000
8144		-35.156250
8145		-33.203125
8146		-35.156250
8147		-33.203125
8148		-37.109375
8149		-33.203125
8150		-37.109375
8151		-35.156250
8152		-37.109375
8153		-35.156250
8154		-39.062500
8155		-35.156250
8156		-39.062500
8157		-35.156250
8158		-39.062500
8159		-37.109375
8160		-41.015625
8161		-37.109375
8162		-41.015625
8163		-37.109375
8164		-41.015625
8165		-37.109375
8166		-41.015625
8167		-37.109375
8168		-41.015625
8169		-37.109375
8170		-41.015625
8171		-37.109375
8172		-41.015625
8173		-37.109375
8174		-41.015625
8175		-39.062500
8176		-41.015625
8177		-39.062500
8178		-42.968750
8179		-37.109375
8180		-41.015625
8181		-37.109375
8182		-41.015625
8183		-39.062500
8184		-41.015625
8185		-37.109375
8186		-41.015625
8187		-37.109375
8188		-41.015625
8189		-37.109375
8190		-41.015625
8191		-37.109375
8192		-41.015625
8193		-37.109375
8194		-41.015625
8195		-37.109375
8196		-41.015625
8197		-37.109375
8198		-39.062500
8199		-37.109375
8200		-39.062500
8201		-37.109375
8202		-39.062500
8203		-35.156250
8204		-39.062500
8205		-35.156250
8206		-39.062500
8207		-35.156250
8208		-37.109375
8209		-33.203125
8210		-37.109375
8211		-33.203125
8212		-35.156250
8213		-33.203125
8214		-35.156250
8215		-31.250000
8216		-35.156250
8217		-31.250000
8218		-33.203125
8219		-29.296875
8220		-33.203125
8221		-29.296875
8222		-31.250000
8223		-27.343750
8224		-31.250000
8225		-29.296875
8226		-31.250000
8227		-27.343750
8228		-29.296875
8229		-25.390625
8230		-29.296875
8231		-25.390625
8232		-27.343750
8233		-23.437500
8234		-27.343750
8235		-23.437500
8236		-25.390625
8237		-21.484375
8238		-25.390625
8239		-21.484375
8240		-23.437500
8241		-19.531250
8242		-21.484375
8243		-19.531250
8244		-21.484375
8245		-17.578125
8246		-21.484375
8247		-17.578125
8248		-19.531250
8249		-15.625000
8250		-17.578125
8251		-13.671875
8252		-17.578125
8253		-13.671875
8254		-15.625000
8255		-11.718750
8256		-13.671875
8257		-11.718750
8258		-11.718750
8259		-9.765625
8260		-11.718750
8261		-7.812500
8262		-11.718750
8263		-7.812500
8264		-9.765625
8265		-5.859375
8266		-7.812500
8267		-3.906250
8268		-5.859375
8269		-1.953125
8270		-5.859375
8271		-1.953125
8272		-3.906250
8273		0.000000
8274		-1.953125
8275		0.000000
8276		0.000000
8277		1.953125
8278		0.000000
8279		3.906250
8280		1.953125
8281		5.859375
8282		3.906250
8283		7.812500
8284		3.906250
8285		7.812500
8286		5.859375
8287		9.765625
8288		7.812500
8289		11.718750
8290		9.765625
8291		11.718750
8292		9.765625
8293		13.671875
8294		11.718750
8295		15.625000
8296		11.718750
8297		15.625000
8298		13.671875
8299		17.578125
8300		15.625000
8301		19.531250
8302		17.578125
8303		19.531250
8304		17.578125
8305		21.484375
8306		19.531250
8307		23.437500
8308		21.484375
8309		25.390625
8310		21.484375
8311		25.390625
8312		23.437500
8313		27.343750
8314		23.437500
8315		31.250000
8316		25.390625
8317		31.250000
8318		27.343750
8319		31.250000
8320		29.296875
8321		33.203125
8322		31.250000
8323		35.156250
8324		31.250000
8325		35.156250
8326		33.203125
8327		37.109375
8328		35.156250
8329		39.062500
8330		35.156250
8331		39.062500
8332		37.109375
8333		41.015625
8334		37.109375
8335		42.968750
8336		39.062500
8337		42.968750
8338		41.015625
8339		42.968750
8340		41.015625
8341		44.921875
8342		42.968750
8343		44.921875
8344		42.968750
8345		46.875000
8346		42.968750
8347		48.828125
8348		44.921875
8349		50.781250
8350		44.921875
8351		50.781250
8352		46.875000
8353		50.781250
8354		48.828125
8355		52.734375
8356		46.875000
8357		54.687500
8358		50.781250
8359		52.734375
8360		50.781250
8361		54.687500
8362		52.734375
8363		54.687500
8364		50.781250
8365		56.640625
8366		50.781250
8367		58.593750
8368		52.734375
8369		58.593750
8370		52.734375
8371		58.593750
8372		54.687500
8373		60.546875
8374		56.640625
8375		60.546875
8376		56.640625
8377		60.546875
8378		58.593750
8379		60.546875
8380		56.640625
8381		64.453125
8382		56.640625
8383		62.500000
8384		56.640625
8385		64.453125
8386		56.640625
8387		64.453125
8388		58.593750
8389		64.453125
8390		60.546875
8391		66.406250
8392		60.546875
8393		64.453125
8394		62.500000
8395		64.453125
8396		60.546875
8397		66.406250
8398		60.546875
8399		66.406250
8400		60.546875
8401		66.406250
8402		60.546875
8403		66.406250
8404		60.546875
8405		68.359375
8406		62.500000
8407		68.359375
8408		62.500000
8409		66.406250
8410		64.453125
8411		66.406250
8412		62.500000
8413		66.406250
8414		62.500000
8415		68.359375
8416		60.546875
8417		68.359375
8418		62.500000
8419		68.359375
8420		62.500000
8421		68.359375
8422		62.500000
8423		68.359375
8424		62.500000
8425		68.359375
8426		64.453125
8427		66.406250
8428		62.500000
8429		66.406250
8430		60.546875
8431		66.406250
8432		60.546875
8433		66.406250
8434		60.546875
8435		66.406250
8436		60.546875
8437		66.406250
8438		58.593750
8439		66.406250
8440		58.593750
8441		66.406250
8442		60.546875
8443		64.453125
8444		60.546875
8445		62.500000
8446		58.593750
8447		64.453125
8448		56.640625
8449		64.453125
8450		56.640625
8451		62.500000
8452		56.640625
8453		62.500000
8454		56.640625
8455		62.500000
8456		54.687500
8457		60.546875
8458		54.687500
8459		58.593750
8460		54.687500
8461		58.593750
8462		54.687500
8463		56.640625
8464		50.781250
8465		58.593750
8466		50.781250
8467		58.593750
8468		50.781250
8469		56.640625
8470		48.828125
8471		54.687500
8472		48.828125
8473		54.687500
8474		46.875000
8475		52.734375
8476		48.828125
8477		50.781250
8478		46.875000
8479		50.781250
8480		44.921875
8481		50.781250
8482		42.968750
8483		50.781250
8484		41.015625
8485		48.828125
8486		41.015625
8487		48.828125
8488		39.062500
8489		46.875000
8490		39.062500
8491		44.921875
8492		39.062500
8493		44.921875
8494		39.062500
8495		41.015625
8496		35.156250
8497		41.015625
8498		35.156250
8499		41.015625
8500		33.203125
8501		41.015625
8502		31.250000
8503		37.109375
8504		31.250000
8505		37.109375
8506		29.296875
8507		35.156250
8508		27.343750
8509		35.156250
8510		27.343750
8511		31.250000
8512		27.343750
8513		29.296875
8514		23.437500
8515		31.250000
8516		23.437500
8517		29.296875
8518		21.484375
8519		27.343750
8520		19.531250
8521		27.343750
8522		17.578125
8523		25.390625
8524		17.578125
8525		23.437500
8526		17.578125
8527		21.484375
8528		15.625000
8529		19.531250
8530		11.718750
8531		19.531250
8532		11.718750
8533		17.578125
8534		9.765625
8535		17.578125
8536		7.812500
8537		15.625000
8538		5.859375
8539		13.671875
8540		5.859375
8541		11.718750
8542		3.906250
8543		9.765625
8544		3.906250
8545		7.812500
8546		3.906250
8547		5.859375
8548		0.000000
8549		5.859375
8550		-1.953125
8551		5.859375
8552		-1.953125
8553		3.906250
8554		-3.906250
8555		1.953125
8556		-5.859375
8557		0.000000
8558		-7.812500
8559		0.000000
8560		-5.859375
8561		-1.953125
8562		-7.812500
8563		-5.859375
8564		-11.718750
8565		-5.859375
8566		-13.671875
8567		-5.859375
8568		-13.671875
8569		-5.859375
8570		-15.625000
8571		-7.812500
8572		-17.578125
8573		-9.765625
8574		-17.578125
8575		-11.718750
8576		-17.578125
8577		-11.718750
8578		-17.578125
8579		-15.625000
8580		-21.484375
8581		-15.625000
8582		-23.437500
8583		-15.625000
8584		-23.437500
8585		-15.625000
8586		-25.390625
8587		-19.531250
8588		-25.390625
8589		-19.531250
8590		-27.343750
8591		-19.531250
8592		-27.343750
8593		-21.484375
8594		-27.343750
8595		-23.437500
8596		-29.296875
8597		-25.390625
8598		-31.250000
8599		-23.437500
8600		-33.203125
8601		-25.390625
8602		-33.203125
8603		-27.343750
8604		-33.203125
8605		-27.343750
8606		-35.156250
8607		-27.343750
8608		-35.156250
8609		-29.296875
8610		-35.156250
8611		-31.250000
8612		-35.156250
8613		-33.203125
8614		-37.109375
8615		-31.250000
8616		-39.062500
8617		-31.250000
8618		-39.062500
8619		-31.250000
8620		-41.015625
8621		-33.203125
8622		-41.015625
8623		-33.203125
8624		-41.015625
8625		-35.156250
8626		-41.015625
8627		-35.156250
8628		-39.062500
8629		-37.109375
8630		-39.062500
8631		-37.109375
8632		-42.968750
8633		-35.156250
8634		-42.968750
8635		-35.156250
8636		-42.968750
8637		-37.109375
8638		-42.968750
8639		-37.109375
8640		-42.968750
8641		-37.109375
8642		-44.921875
8643		-37.109375
8644		-41.015625
8645		-39.062500
8646		-41.015625
8647		-39.062500
8648		-44.921875
8649		-37.109375
8650		-42.968750
8651		-37.109375
8652		-44.921875
8653		-37.109375
8654		-44.921875
8655		-37.109375
8656		-44.921875
8657		-37.109375
8658		-44.921875
8659		-37.109375
8660		-42.968750
8661		-37.109375
8662		-41.015625
8663		-39.062500
8664		-41.015625
8665		-39.062500
8666		-42.968750
8667		-37.109375
8668		-41.015625
8669		-37.109375
8670		-41.015625
8671		-37.109375
8672		-41.015625
8673		-35.156250
8674		-41.015625
8675		-35.156250
8676		-41.015625
8677		-35.156250
8678		-39.062500
8679		-35.156250
8680		-37.109375
8681		-35.156250
8682		-39.062500
8683		-33.203125
8684		-39.062500
8685		-31.250000
8686		-39.062500
8687		-31.250000
8688		-37.109375
8689		-31.250000
8690		-37.109375
8691		-29.296875
8692		-35.156250
8693		-29.296875
8694		-35.156250
8695		-29.296875
8696		-31.250000
8697		-29.296875
8698		-31.250000
8699		-25.390625
8700		-31.250000
8701		-25.390625
8702		-31.250000
8703		-23.437500
8704		-31.250000
8705		-23.437500
8706		-29.296875
8707		-21.484375
8708		-29.296875
8709		-21.484375
8710		-27.343750
8711		-21.484375
8712		-25.390625
8713		-21.484375
8714		-23.437500
8715		-19.531250
8716		-23.437500
8717		-17.578125
8718		-23.437500
8719		-15.625000
8720		-21.484375
8721		-15.625000
8722		-19.531250
8723		-13.671875
8724		-19.531250
8725		-11.718750
8726		-17.578125
8727		-11.718750
8728		-15.625000
8729		-11.718750
8730		-13.671875
8731		-9.765625
8732		-13.671875
8733		-7.812500
8734		-13.671875
8735		-5.859375
8736		-11.718750
8737		-3.906250
8738		-9.765625
8739		-3.906250
8740		-9.765625
8741		-1.953125
8742		-7.812500
8743		0.000000
8744		-5.859375
8745		0.000000
8746		-3.906250
8747		0.000000
8748		-1.953125
8749		3.906250
8750		-1.953125
8751		3.906250
8752		-1.953125
8753		5.859375
8754		0.000000
8755		7.812500
8756		1.953125
8757		7.812500
8758		1.953125
8759		9.765625
8760		3.906250
8761		11.718750
8762		7.812500
8763		11.718750
8764		9.765625
8765		11.718750
8766		9.765625
8767		15.625000
8768		9.765625
8769		17.578125
8770		11.718750
8771		17.578125
8772		13.671875
8773		19.531250
8774		13.671875
8775		21.484375
8776		15.625000
8777		21.484375
8778		17.578125
8779		23.437500
8780		21.484375
8781		23.437500
8782		21.484375
8783		27.343750
8784		21.484375
8785		29.296875
8786		21.484375
8787		29.296875
8788		23.437500
8789		31.250000
8790		25.390625
8791		33.203125
8792		27.343750
8793		33.203125
8794		27.343750
8795		33.203125
8796		31.250000
8797		33.203125
8798		31.250000
8799		35.156250
8800		31.250000
8801		37.109375
8802		33.203125
8803		39.062500
8804		33.203125
8805		41.015625
8806		35.156250
8807		41.015625
8808		37.109375
8809		42.968750
8810		37.109375
8811		42.968750
8812		39.062500
8813		42.968750
8814		41.015625
8815		44.921875
8816		41.015625
8817		46.875000
8818		41.015625
8819		48.828125
8820		42.968750
8821		48.828125
8822		44.921875
8823		50.781250
8824		44.921875
8825		50.781250
8826		44.921875
8827		52.734375
8828		46.875000
8829		52.734375
8830		48.828125
8831		52.734375
8832		50.781250
8833		52.734375
8834		48.828125
8835		56.640625
8836		50.781250
8837		56.640625
8838		50.781250
8839		58.593750
8840		50.781250
8841		58.593750
8842		52.734375
8843		58.593750
8844		52.734375
8845		58.593750
8846		56.640625
8847		58.593750
8848		56.640625
8849		58.593750
8850		54.687500
8851		62.500000
8852		54.687500
8853		62.500000
8854		56.640625
8855		62.500000
8856		56.640625
8857		62.500000
8858		56.640625
8859		64.453125
8860		56.640625
8861		64.453125
8862		58.593750
8863		64.453125
8864		60.546875
8865		64.453125
8866		58.593750
8867		66.406250
8868		58.593750
8869		66.406250
8870		58.593750
8871		66.406250
8872		60.546875
8873		66.406250
8874		60.546875
8875		66.406250
8876		60.546875
8877		66.406250
8878		60.546875
8879		66.406250
8880		62.500000
8881		64.453125
8882		62.500000
8883		64.453125
8884		60.546875
8885		66.406250
8886		60.546875
8887		68.359375
8888		60.546875
8889		68.359375
8890		60.546875
8891		66.406250
8892		60.546875
8893		68.359375
8894		60.546875
8895		66.406250
8896		60.546875
8897		66.406250
8898		62.500000
8899		64.453125
8900		58.593750
8901		66.406250
8902		60.546875
8903		66.406250
8904		58.593750
8905		66.406250
8906		58.593750
8907		66.406250
8908		58.593750
8909		64.453125
8910		58.593750
8911		64.453125
8912		58.593750
8913		64.453125
8914		58.593750
8915		62.500000
8916		58.593750
8917		62.500000
8918		56.640625
8919		62.500000
8920		56.640625
8921		62.500000
8922		54.687500
8923		62.500000
8924		54.687500
8925		60.546875
8926		54.687500
8927		60.546875
8928		52.734375
8929		60.546875
8930		54.687500
8931		56.640625
8932		54.687500
8933		56.640625
8934		50.781250
8935		58.593750
8936		50.781250
8937		56.640625
8938		48.828125
8939		56.640625
8940		48.828125
8941		56.640625
8942		46.875000
8943		54.687500
8944		46.875000
8945		54.687500
8946		46.875000
8947		52.734375
8948		46.875000
8949		48.828125
8950		42.968750
8951		50.781250
8952		42.968750
8953		50.781250
8954		41.015625
8955		48.828125
8956		41.015625
8957		46.875000
8958		39.062500
8959		46.875000
8960		39.062500
8961		44.921875
8962		37.109375
8963		44.921875
8964		37.109375
8965		41.015625
8966		37.109375
8967		39.062500
8968		33.203125
8969		41.015625
8970		33.203125
8971		39.062500
8972		31.250000
8973		37.109375
8974		29.296875
8975		37.109375
8976		29.296875
8977		35.156250
8978		27.343750
8979		33.203125
8980		27.343750
8981		31.250000
8982		27.343750
8983		29.296875
8984		23.437500
8985		29.296875
8986		21.484375
8987		29.296875
8988		21.484375
8989		27.343750
8990		19.531250
8991		27.343750
8992		17.578125
8993		25.390625
8994		15.625000
8995		23.437500
8996		15.625000
8997		21.484375
8998		15.625000
8999		19.531250
9000		11.718750
9001		17.578125
9002		9.765625
9003		17.578125
9004		9.765625
9005		17.578125
9006		7.812500
9007		15.625000
9008		5.859375
9009		13.671875
9010		5.859375
9011		11.718750
9012		3.906250
9013		11.718750
9014		3.906250
9015		7.812500
9016		3.906250
9017		5.859375
9018		0.000000
9019		5.859375
9020		-1.953125
9021		5.859375
9022		-3.906250
9023		3.906250
9024		-3.906250
9025		1.953125
9026		-5.859375
9027		0.000000
9028		-7.812500
9029		0.000000
9030		-7.812500
9031		-1.953125
9032		-7.812500
9033		-5.859375
9034		-11.718750
9035		-5.859375
9036		-13.671875
9037		-5.859375
9038		-15.625000
9039		-7.812500
9040		-15.625000
9041		-7.812500
9042		-17.578125
9043		-9.765625
9044		-17.578125
9045		-11.718750
9046		-19.531250
9047		-11.718750
9048		-19.531250
9049		-15.625000
9050		-19.531250
9051		-17.578125
9052		-23.437500
9053		-15.625000
9054		-25.390625
9055		-17.578125
9056		-25.390625
9057		-17.578125
9058		-25.390625
9059		-19.531250
9060		-27.343750
9061		-19.531250
9062		-29.296875
9063		-21.484375
9064		-27.343750
9065		-23.437500
9066		-29.296875
9067		-25.390625
9068		-31.250000
9069		-25.390625
9070		-33.203125
9071		-25.390625
9072		-33.203125
9073		-25.390625
9074		-35.156250
9075		-27.343750
9076		-35.156250
9077		-29.296875
9078		-35.156250
9079		-29.296875
9080		-37.109375
9081		-31.250000
9082		-35.156250
9083		-33.203125
9084		-37.109375
9085		-33.203125
9086		-39.062500
9087		-33.203125
9088		-39.062500
9089		-33.203125
9090		-39.062500
9091		-33.203125
9092		-41.015625
9093		-33.203125
9094		-41.015625
9095		-35.156250
9096		-42.968750
9097		-35.156250
9098		-41.015625
9099		-37.109375
9100		-41.015625
9101		-39.062500
9102		-42.968750
9103		-37.109375
9104		-42.968750
9105		-37.109375
9106		-44.921875
9107		-37.109375
9108		-44.921875
9109		-37.109375
9110		-44.921875
9111		-37.109375
9112		-44.921875
9113		-39.062500
9114		-44.921875
9115		-39.062500
9116		-42.968750
9117		-41.015625
9118		-44.921875
9119		-39.062500
9120		-44.921875
9121		-39.062500
9122		-44.921875
9123		-39.062500
9124		-44.921875
9125		-39.062500
9126		-44.921875
9127		-39.062500
9128		-44.921875
9129		-39.062500
9130		-44.921875
9131		-37.109375
9132		-42.968750
9133		-39.062500
9134		-41.015625
9135		-39.062500
9136		-42.968750
9137		-37.109375
9138		-42.968750
9139		-37.109375
9140		-42.968750
9141		-37.109375
9142		-42.968750
9143		-35.156250
9144		-42.968750
9145		-35.156250
9146		-42.968750
9147		-35.156250
9148		-41.015625
9149		-35.156250
9150		-39.062500
9151		-35.156250
9152		-39.062500
9153		-33.203125
9154		-39.062500
9155		-33.203125
9156		-39.062500
9157		-31.250000
9158		-39.062500
9159		-31.250000
9160		-37.109375
9161		-31.250000
9162		-37.109375
9163		-29.296875
9164		-35.156250
9165		-29.296875
9166		-33.203125
9167		-31.250000
9168		-31.250000
9169		-29.296875
9170		-33.203125
9171		-27.343750
9172		-31.250000
9173		-25.390625
9174		-31.250000
9175		-25.390625
9176		-31.250000
9177		-23.437500
9178		-29.296875
9179		-23.437500
9180		-29.296875
9181		-21.484375
9182		-27.343750
9183		-21.484375
9184		-25.390625
9185		-21.484375
9186		-25.390625
9187		-17.578125
9188		-23.437500
9189		-17.578125
9190		-23.437500
9191		-15.625000
9192		-21.484375
9193		-15.625000
9194		-21.484375
9195		-13.671875
9196		-19.531250
9197		-13.671875
9198		-17.578125
9199		-11.718750
9200		-15.625000
9201		-11.718750
9202		-13.671875
9203		-9.765625
9204		-15.625000
9205		-7.812500
9206		-11.718750
9207		-5.859375
9208		-11.718750
9209		-3.906250
9210		-9.765625
9211		-3.906250
9212		-9.765625
9213		-1.953125
9214		-7.812500
9215		0.000000
9216		-3.906250
9217		-1.953125
9218		-1.953125
9219		0.000000
9220		-1.953125
9221		3.906250
9222		-1.953125
9223		5.859375
9224		0.000000
9225		5.859375
9226		0.000000
9227		7.812500
9228		1.953125
9229		9.765625
9230		3.906250
9231		11.718750
9232		5.859375
9233		9.765625
9234		7.812500
9235		11.718750
9236		7.812500
9237		13.671875
9238		9.765625
9239		15.625000
9240		9.765625
9241		17.578125
9242		11.718750
9243		19.531250
9244		13.671875
9245		19.531250
9246		13.671875
9247		21.484375
9248		15.625000
9249		21.484375
9250		19.531250
9251		23.437500
9252		21.484375
9253		23.437500
9254		21.484375
9255		27.343750
9256		21.484375
9257		29.296875
9258		23.437500
9259		29.296875
9260		23.437500
9261		31.250000
9262		25.390625
9263		33.203125
9264		25.390625
9265		33.203125
9266		27.343750
9267		33.203125
9268		31.250000
9269		35.156250
9270		31.250000
9271		37.109375
9272		31.250000
9273		39.062500
9274		33.203125
9275		39.062500
9276		33.203125
9277		41.015625
9278		35.156250
9279		42.968750
9280		37.109375
9281		42.968750
9282		37.109375
9283		42.968750
9284		41.015625
9285		44.921875
9286		41.015625
9287		46.875000
9288		41.015625
9289		46.875000
9290		41.015625
9291		48.828125
9292		42.968750
9293		48.828125
9294		42.968750
9295		50.781250
9296		44.921875
9297		50.781250
9298		44.921875
9299		52.734375
9300		48.828125
9301		50.781250
9302		48.828125
9303		52.734375
9304		48.828125
9305		54.687500
9306		48.828125
9307		56.640625
9308		48.828125
9309		56.640625
9310		50.781250
9311		58.593750
9312		50.781250
9313		58.593750
9314		52.734375
9315		58.593750
9316		52.734375
9317		58.593750
9318		56.640625
9319		58.593750
9320		54.687500
9321		62.500000
9322		54.687500
9323		60.546875
9324		56.640625
9325		62.500000
9326		56.640625
9327		62.500000
9328		56.640625
9329		64.453125
9330		56.640625
9331		64.453125
9332		58.593750
9333		64.453125
9334		60.546875
9335		62.500000
9336		60.546875
9337		62.500000
9338		58.593750
9339		64.453125
9340		58.593750
9341		66.406250
9342		60.546875
9343		66.406250
9344		60.546875
9345		66.406250
9346		60.546875
9347		66.406250
9348		58.593750
9349		66.406250
9350		60.546875
9351		66.406250
9352		62.500000
9353		64.453125
9354		60.546875
9355		66.406250
9356		60.546875
9357		66.406250
9358		60.546875
9359		66.406250
9360		60.546875
9361		66.406250
9362		60.546875
9363		66.406250
9364		60.546875
9365		66.406250
9366		60.546875
9367		66.406250
9368		62.500000
9369		64.453125
9370		60.546875
9371		66.406250
9372		58.593750
9373		66.406250
9374		60.546875
9375		66.406250
9376		58.593750
9377		66.406250
9378		58.593750
9379		66.406250
9380		58.593750
9381		64.453125
9382		58.593750
9383		64.453125
9384		60.546875
9385		62.500000
9386		58.593750
9387		62.500000
9388		56.640625
9389		62.500000
9390		56.640625
9391		62.500000
9392		54.687500
9393		62.500000
9394		54.687500
9395		62.500000
9396		54.687500
9397		60.546875
9398		54.687500
9399		60.546875
9400		54.687500
9401		60.546875
9402		54.687500
9403		56.640625
9404		52.734375
9405		58.593750
9406		50.781250
9407		56.640625
9408		50.781250
9409		56.640625
9410		48.828125
9411		56.640625
9412		46.875000
9413		54.687500
9414		46.875000
9415		54.687500
9416		46.875000
9417		52.734375
9418		46.875000
9419		50.781250
9420		46.875000
9421		50.781250
9422		44.921875
9423		50.781250
9424		42.968750
9425		48.828125
9426		41.015625
9427		48.828125
9428		41.015625
9429		46.875000
9430		39.062500
9431		46.875000
9432		37.109375
9433		44.921875
9434		37.109375
9435		42.968750
9436		37.109375
9437		41.015625
9438		35.156250
9439		41.015625
9440		33.203125
9441		41.015625
9442		33.203125
9443		39.062500
9444		31.250000
9445		39.062500
9446		29.296875
9447		37.109375
9448		27.343750
9449		35.156250
9450		27.343750
9451		35.156250
9452		27.343750
9453		31.250000
9454		25.390625
9455		31.250000
9456		23.437500
9457		31.250000
9458		21.484375
9459		29.296875
9460		21.484375
9461		27.343750
9462		19.531250
9463		25.390625
9464		17.578125
9465		25.390625
9466		15.625000
9467		23.437500
9468		17.578125
9469		19.531250
9470		15.625000
9471		19.531250
9472		11.718750
9473		17.578125
9474		9.765625
9475		17.578125
9476		7.812500
9477		15.625000
9478		7.812500
9479		15.625000
9480		5.859375
9481		13.671875
9482		5.859375
9483		11.718750
9484		3.906250
9485		9.765625
9486		3.906250
9487		7.812500
9488		0.000000
9489		5.859375
9490		0.000000
9491		5.859375
9492		-1.953125
9493		5.859375
9494		-3.906250
9495		3.906250
9496		-5.859375
9497		1.953125
9498		-5.859375
9499		1.953125
9500		-7.812500
9501		0.000000
9502		-5.859375
9503		-3.906250
9504		-7.812500
9505		-5.859375
9506		-11.718750
9507		-5.859375
9508		-13.671875
9509		-5.859375
9510		-15.625000
9511		-7.812500
9512		-15.625000
9513		-7.812500
9514		-17.578125
9515		-9.765625
9516		-17.578125
9517		-11.718750
9518		-17.578125
9519		-11.718750
9520		-17.578125
9521		-15.625000
9522		-21.484375
9523		-15.625000
9524		-21.484375
9525		-15.625000
9526		-25.390625
9527		-17.578125
9528		-25.390625
9529		-17.578125
9530		-25.390625
9531		-19.531250
9532		-27.343750
9533		-19.531250
9534		-27.343750
9535		-21.484375
9536		-27.343750
9537		-25.390625
9538		-29.296875
9539		-25.390625
9540		-31.250000
9541		-25.390625
9542		-33.203125
9543		-25.390625
9544		-33.203125
9545		-27.343750
9546		-33.203125
9547		-27.343750
9548		-35.156250
9549		-27.343750
9550		-37.109375
9551		-29.296875
9552		-35.156250
9553		-31.250000
9554		-35.156250
9555		-33.203125
9556		-37.109375
9557		-31.250000
9558		-39.062500
9559		-31.250000
9560		-39.062500
9561		-33.203125
9562		-39.062500
9563		-33.203125
9564		-39.062500
9565		-33.203125
9566		-41.015625
9567		-35.156250
9568		-41.015625
9569		-35.156250
9570		-39.062500
9571		-37.109375
9572		-41.015625
9573		-37.109375
9574		-42.968750
9575		-35.156250
9576		-42.968750
9577		-37.109375
9578		-42.968750
9579		-37.109375
9580		-42.968750
9581		-37.109375
9582		-42.968750
9583		-37.109375
9584		-42.968750
9585		-37.109375
9586		-41.015625
9587		-39.062500
9588		-42.968750
9589		-39.062500
9590		-44.921875
9591		-37.109375
9592		-44.921875
9593		-37.109375
9594		-44.921875
9595		-37.109375
9596		-44.921875
9597		-37.109375
9598		-42.968750
9599		-37.109375
9600		-44.921875
9601		-37.109375
9602		-42.968750
9603		-37.109375
9604		-41.015625
9605		-39.062500
9606		-42.968750
9607		-37.109375
9608		-42.968750
9609		-37.109375
9610		-42.968750
9611		-35.156250
9612		-42.968750
9613		-35.156250
9614		-42.968750
9615		-35.156250
9616		-41.015625
9617		-35.156250
9618		-41.015625
9619		-35.156250
9620		-37.109375
9621		-35.156250
9622		-39.062500
9623		-35.156250
9624		-39.062500
9625		-33.203125
9626		-37.109375
9627		-31.250000
9628		-37.109375
9629		-31.250000
9630		-37.109375
9631		-31.250000
9632		-35.156250
9633		-29.296875
9634		-35.156250
9635		-27.343750
9636		-33.203125
9637		-29.296875
9638		-31.250000
9639		-29.296875
9640		-31.250000
9641		-25.390625
9642		-33.203125
9643		-25.390625
9644		-31.250000
9645		-23.437500
9646		-31.250000
9647		-23.437500
9648		-29.296875
9649		-21.484375
9650		-27.343750
9651		-21.484375
9652		-25.390625
9653		-19.531250
9654		-23.437500
9655		-21.484375
9656		-23.437500
9657		-19.531250
9658		-23.437500
9659		-15.625000
9660		-21.484375
9661		-15.625000
9662		-21.484375
9663		-13.671875
9664		-19.531250
9665		-13.671875
9666		-19.531250
9667		-11.718750
9668		-17.578125
9669		-11.718750
9670		-13.671875
9671		-11.718750
9672		-13.671875
9673		-9.765625
9674		-13.671875
9675		-7.812500
9676		-11.718750
9677		-5.859375
9678		-11.718750
9679		-5.859375
9680		-9.765625
9681		-3.906250
9682		-7.812500
9683		-1.953125
9684		-7.812500
9685		0.000000
9686		-5.859375
9687		0.000000
9688		-1.953125
9689		0.000000
9690		-1.953125
9691		1.953125
9692		-1.953125
9693		5.859375
9694		-1.953125
9695		5.859375
9696		1.953125
9697		7.812500
9698		1.953125
9699		9.765625
9700		3.906250
9701		9.765625
9702		3.906250
9703		11.718750
9704		7.812500
9705		11.718750
9706		9.765625
9707		13.671875
9708		9.765625
9709		15.625000
9710		9.765625
9711		17.578125
9712		11.718750
9713		17.578125
9714		13.671875
9715		19.531250
9716		13.671875
9717		21.484375
9718		15.625000
9719		23.437500
9720		17.578125
9721		23.437500
9722		21.484375
9723		23.437500
9724		21.484375
9725		27.343750
9726		21.484375
9727		29.296875
9728		23.437500
9729		29.296875
9730		23.437500
9731		31.250000
9732		25.390625
9733		33.203125
9734		27.343750
9735		35.156250
9736		27.343750
9737		33.203125
9738		31.250000
9739		35.156250
9740		33.203125
9741		37.109375
9742		31.250000
9743		39.062500
9744		33.203125
9745		39.062500
9746		35.156250
9747		41.015625
9748		35.156250
9749		42.968750
9750		37.109375
9751		42.968750
9752		37.109375
9753		44.921875
9754		41.015625
9755		44.921875
9756		42.968750
9757		44.921875
9758		41.015625
9759		48.828125
9760		42.968750
9761		48.828125
9762		42.968750
9763		50.781250
9764		44.921875
9765		50.781250
9766		44.921875
9767		52.734375
9768		46.875000
9769		52.734375
9770		46.875000
9771		52.734375
9772		50.781250
9773		52.734375
9774		48.828125
9775		54.687500
9776		50.781250
9777		56.640625
9778		50.781250
9779		56.640625
9780		50.781250
9781		58.593750
9782		52.734375
9783		58.593750
9784		52.734375
9785		58.593750
9786		52.734375
9787		60.546875
9788		56.640625
9789		58.593750
9790		56.640625
9791		60.546875
9792		56.640625
9793		62.500000
9794		56.640625
9795		62.500000
9796		56.640625
9797		62.500000
9798		56.640625
9799		64.453125
9800		56.640625
9801		64.453125
9802		58.593750
9803		64.453125
9804		60.546875
9805		64.453125
9806		60.546875
9807		64.453125
9808		58.593750
9809		66.406250
9810		60.546875
9811		66.406250
9812		60.546875
9813		66.406250
9814		60.546875
9815		66.406250
9816		60.546875
9817		68.359375
9818		60.546875
9819		68.359375
9820		60.546875
9821		68.359375
9822		64.453125
9823		66.406250
9824		62.500000
9825		66.406250
9826		60.546875
9827		68.359375
9828		60.546875
9829		68.359375
9830		60.546875
9831		68.359375
9832		62.500000
9833		68.359375
9834		62.500000
9835		68.359375
9836		60.546875
9837		68.359375
9838		62.500000
9839		66.406250
9840		62.500000
9841		66.406250
9842		60.546875
9843		68.359375
9844		60.546875
9845		68.359375
9846		60.546875
9847		66.406250
9848		60.546875
9849		66.406250
9850		58.593750
9851		66.406250
9852		58.593750
9853		66.406250
9854		58.593750
9855		64.453125
9856		60.546875
9857		62.500000
9858		60.546875
9859		64.453125
9860		58.593750
9861		64.453125
9862		56.640625
9863		64.453125
9864		56.640625
9865		62.500000
9866		56.640625
9867		62.500000
9868		54.687500
9869		62.500000
9870		54.687500
9871		60.546875
9872		54.687500
9873		58.593750
9874		54.687500
9875		58.593750
9876		52.734375
9877		58.593750
9878		50.781250
9879		58.593750
9880		50.781250
9881		56.640625
9882		50.781250
9883		56.640625
9884		48.828125
9885		56.640625
9886		48.828125
9887		54.687500
9888		48.828125
9889		52.734375
9890		48.828125
9891		50.781250
9892		44.921875
9893		50.781250
9894		44.921875
9895		50.781250
9896		42.968750
9897		50.781250
9898		42.968750
9899		48.828125
9900		41.015625
9901		48.828125
9902		39.062500
9903		46.875000
9904		39.062500
9905		44.921875
9906		39.062500
9907		42.968750
9908		37.109375
9909		41.015625
9910		35.156250
9911		42.968750
9912		33.203125
9913		41.015625
9914		33.203125
9915		39.062500
9916		31.250000
9917		39.062500
9918		29.296875
9919		37.109375
9920		29.296875
9921		35.156250
9922		29.296875
9923		33.203125
9924		29.296875
9925		31.250000
9926		25.390625
9927		31.250000
9928		23.437500
9929		31.250000
9930		21.484375
9931		29.296875
9932		21.484375
9933		27.343750
9934		19.531250
9935		27.343750
9936		17.578125
9937		25.390625
9938		17.578125
9939		23.437500
9940		17.578125
9941		19.531250
9942		13.671875
9943		19.531250
9944		13.671875
9945		19.531250
9946		9.765625
9947		17.578125
9948		9.765625
9949		17.578125
9950		7.812500
9951		15.625000
9952		7.812500
9953		13.671875
9954		5.859375
9955		11.718750
9956		5.859375
9957		9.765625
9958		3.906250
9959		7.812500
9960		1.953125
9961		7.812500
9962		0.000000
9963		7.812500
9964		-1.953125
9965		5.859375
9966		-3.906250
9967		3.906250
9968		-5.859375
9969		1.953125
9970		-5.859375
9971		0.000000
9972		-5.859375
9973		0.000000
9974		-5.859375
9975		-3.906250
9976		-9.765625
9977		-3.906250
9978		-11.718750
9979		-3.906250
9980		-11.718750
9981		-5.859375
9982		-13.671875
9983		-5.859375
9984		-15.625000
9985		-7.812500
9986		-17.578125
9987		-9.765625
9988		-17.578125
9989		-11.718750
9990		-17.578125
9991		-13.671875
9992		-19.531250
9993		-15.625000
9994		-21.484375
9995		-15.625000
9996		-21.484375
9997		-15.625000
9998		-23.437500
9999		-17.578125
10000		-25.390625
