Channel              :		CH1
Frequency            :		1.061kHz
Period               :		0.942ms
PK-PK                :		228.5mV
Probe attenuation    :		1X
Voltage per ADC value:		0.122070mV
Time interval        :		2.00000us

index		CH1_Voltage(mV)
1		80.078125
2		80.078125
3		74.218750
4		78.125000
5		72.265625
6		76.171875
7		68.359375
8		74.218750
9		66.406250
10		70.312500
11		64.453125
12		68.359375
13		62.500000
14		66.406250
15		60.546875
16		64.453125
17		58.593750
18		62.500000
19		54.687500
20		58.593750
21		52.734375
22		56.640625
23		48.828125
24		54.687500
25		46.875000
26		50.781250
27		44.921875
28		48.828125
29		42.968750
30		46.875000
31		39.062500
32		42.968750
33		37.109375
34		41.015625
35		33.203125
36		37.109375
37		31.250000
38		35.156250
39		27.343750
40		33.203125
41		25.390625
42		29.296875
43		21.484375
44		27.343750
45		19.531250
46		23.437500
47		15.625000
48		21.484375
49		13.671875
50		17.578125
51		9.765625
52		15.625000
53		7.812500
54		11.718750
55		3.906250
56		9.765625
57		1.953125
58		5.859375
59		-1.953125
60		3.906250
61		-3.906250
62		0.000000
63		-7.812500
64		-3.906250
65		-9.765625
66		-5.859375
67		-13.671875
68		-9.765625
69		-15.625000
70		-11.718750
71		-19.531250
72		-15.625000
73		-21.484375
74		-17.578125
75		-25.390625
76		-19.531250
77		-27.343750
78		-23.437500
79		-31.250000
80		-25.390625
81		-33.203125
82		-29.296875
83		-37.109375
84		-31.250000
85		-41.015625
86		-35.156250
87		-42.968750
88		-37.109375
89		-44.921875
90		-41.015625
91		-46.875000
92		-42.968750
93		-50.781250
94		-44.921875
95		-52.734375
96		-48.828125
97		-56.640625
98		-50.781250
99		-58.593750
100		-54.687500
101		-60.546875
102		-54.687500
103		-62.500000
104		-58.593750
105		-64.453125
106		-60.546875
107		-68.359375
108		-64.453125
109		-70.312500
110		-64.453125
111		-72.265625
112		-68.359375
113		-74.218750
114		-70.312500
115		-76.171875
116		-72.265625
117		-78.125000
118		-74.218750
119		-82.031250
120		-76.171875
121		-82.031250
122		-78.125000
123		-83.984375
124		-80.078125
125		-85.937500
126		-82.031250
127		-87.890625
128		-83.984375
129		-89.843750
130		-85.937500
131		-91.796875
132		-87.890625
133		-93.750000
134		-89.843750
135		-93.750000
136		-91.796875
137		-95.703125
138		-91.796875
139		-97.656250
140		-93.750000
141		-97.656250
142		-93.750000
143		-99.609375
144		-95.703125
145		-99.609375
146		-95.703125
147		-101.562500
148		-97.656250
149		-101.562500
150		-99.609375
151		-101.562500
152		-99.609375
153		-103.515625
154		-99.609375
155		-103.515625
156		-101.562500
157		-105.468750
158		-101.562500
159		-105.468750
160		-101.562500
161		-105.468750
162		-103.515625
163		-105.468750
164		-103.515625
165		-107.421875
166		-103.515625
167		-107.421875
168		-103.515625
169		-105.468750
170		-103.515625
171		-107.421875
172		-103.515625
173		-105.468750
174		-103.515625
175		-105.468750
176		-103.515625
177		-105.468750
178		-103.515625
179		-105.468750
180		-101.562500
181		-105.468750
182		-101.562500
183		-103.515625
184		-101.562500
185		-103.515625
186		-101.562500
187		-103.515625
188		-99.609375
189		-103.515625
190		-99.609375
191		-101.562500
192		-97.656250
193		-99.609375
194		-97.656250
195		-99.609375
196		-95.703125
197		-97.656250
198		-93.750000
199		-97.656250
200		-93.750000
201		-95.703125
202		-91.796875
203		-95.703125
204		-89.843750
205		-93.750000
206		-87.890625
207		-91.796875
208		-87.890625
209		-89.843750
210		-85.937500
211		-87.890625
212		-83.984375
213		-85.937500
214		-82.031250
215		-83.984375
216		-80.078125
217		-82.031250
218		-78.125000
219		-80.078125
220		-76.171875
221		-78.125000
222		-74.218750
223		-76.171875
224		-72.265625
225		-74.218750
226		-70.312500
227		-72.265625
228		-68.359375
229		-70.312500
230		-64.453125
231		-66.406250
232		-62.500000
233		-64.453125
234		-60.546875
235		-62.500000
236		-56.640625
237		-58.593750
238		-54.687500
239		-56.640625
240		-52.734375
241		-54.687500
242		-48.828125
243		-50.781250
244		-46.875000
245		-48.828125
246		-44.921875
247		-46.875000
248		-41.015625
249		-42.968750
250		-39.062500
251		-41.015625
252		-37.109375
253		-37.109375
254		-33.203125
255		-35.156250
256		-29.296875
257		-33.203125
258		-27.343750
259		-29.296875
260		-23.437500
261		-25.390625
262		-21.484375
263		-23.437500
264		-17.578125
265		-21.484375
266		-15.625000
267		-17.578125
268		-13.671875
269		-13.671875
270		-9.765625
271		-11.718750
272		-7.812500
273		-7.812500
274		-3.906250
275		-5.859375
276		-1.953125
277		-3.906250
278		1.953125
279		0.000000
280		3.906250
281		1.953125
282		7.812500
283		5.859375
284		9.765625
285		9.765625
286		13.671875
287		11.718750
288		17.578125
289		15.625000
290		19.531250
291		17.578125
292		21.484375
293		21.484375
294		25.390625
295		23.437500
296		27.343750
297		25.390625
298		31.250000
299		29.296875
300		35.156250
301		33.203125
302		37.109375
303		35.156250
304		39.062500
305		37.109375
306		42.968750
307		41.015625
308		44.921875
309		42.968750
310		46.875000
311		46.875000
312		48.828125
313		46.875000
314		52.734375
315		50.781250
316		54.687500
317		52.734375
318		56.640625
319		56.640625
320		60.546875
321		58.593750
322		62.500000
323		60.546875
324		64.453125
325		62.500000
326		68.359375
327		64.453125
328		70.312500
329		66.406250
330		72.265625
331		70.312500
332		74.218750
333		72.265625
334		76.171875
335		74.218750
336		78.125000
337		76.171875
338		80.078125
339		76.171875
340		82.031250
341		80.078125
342		83.984375
343		82.031250
344		85.937500
345		83.984375
346		87.890625
347		85.937500
348		89.843750
349		87.890625
350		91.796875
351		89.843750
352		91.796875
353		91.796875
354		93.750000
355		91.796875
356		95.703125
357		93.750000
358		97.656250
359		95.703125
360		99.609375
361		95.703125
362		101.562500
363		97.656250
364		101.562500
365		99.609375
366		103.515625
367		99.609375
368		103.515625
369		101.562500
370		105.468750
371		103.515625
372		107.421875
373		103.515625
374		107.421875
375		105.468750
376		107.421875
377		105.468750
378		109.375000
379		107.421875
380		109.375000
381		107.421875
382		111.328125
383		107.421875
384		111.328125
385		109.375000
386		111.328125
387		109.375000
388		113.281250
389		109.375000
390		113.281250
391		111.328125
392		113.281250
393		111.328125
394		113.281250
395		111.328125
396		115.234375
397		111.328125
398		115.234375
399		113.281250
400		115.234375
401		111.328125
402		115.234375
403		113.281250
404		115.234375
405		111.328125
406		115.234375
407		111.328125
408		115.234375
409		113.281250
410		115.234375
411		111.328125
412		115.234375
413		111.328125
414		115.234375
415		111.328125
416		115.234375
417		111.328125
418		115.234375
419		111.328125
420		113.281250
421		111.328125
422		113.281250
423		109.375000
424		113.281250
425		109.375000
426		113.281250
427		109.375000
428		111.328125
429		107.421875
430		111.328125
431		107.421875
432		111.328125
433		105.468750
434		109.375000
435		105.468750
436		109.375000
437		105.468750
438		107.421875
439		103.515625
440		107.421875
441		101.562500
442		105.468750
443		101.562500
444		105.468750
445		99.609375
446		103.515625
447		99.609375
448		101.562500
449		97.656250
450		101.562500
451		95.703125
452		99.609375
453		93.750000
454		97.656250
455		91.796875
456		95.703125
457		89.843750
458		93.750000
459		89.843750
460		93.750000
461		87.890625
462		91.796875
463		85.937500
464		89.843750
465		83.984375
466		87.890625
467		82.031250
468		85.937500
469		80.078125
470		83.984375
471		78.125000
472		82.031250
473		76.171875
474		80.078125
475		74.218750
476		78.125000
477		70.312500
478		76.171875
479		70.312500
480		72.265625
481		68.359375
482		70.312500
483		64.453125
484		68.359375
485		62.500000
486		66.406250
487		60.546875
488		64.453125
489		56.640625
490		62.500000
491		54.687500
492		58.593750
493		52.734375
494		56.640625
495		50.781250
496		54.687500
497		46.875000
498		52.734375
499		44.921875
500		48.828125
501		41.015625
502		46.875000
503		39.062500
504		42.968750
505		37.109375
506		41.015625
507		33.203125
508		39.062500
509		29.296875
510		35.156250
511		27.343750
512		31.250000
513		25.390625
514		29.296875
515		21.484375
516		27.343750
517		19.531250
518		23.437500
519		15.625000
520		21.484375
521		13.671875
522		17.578125
523		9.765625
524		15.625000
525		7.812500
526		11.718750
527		3.906250
528		9.765625
529		1.953125
530		5.859375
531		-1.953125
532		3.906250
533		-3.906250
534		0.000000
535		-7.812500
536		-1.953125
537		-9.765625
538		-5.859375
539		-13.671875
540		-7.812500
541		-17.578125
542		-11.718750
543		-19.531250
544		-13.671875
545		-21.484375
546		-17.578125
547		-25.390625
548		-19.531250
549		-27.343750
550		-23.437500
551		-31.250000
552		-25.390625
553		-33.203125
554		-29.296875
555		-37.109375
556		-31.250000
557		-39.062500
558		-35.156250
559		-42.968750
560		-37.109375
561		-44.921875
562		-39.062500
563		-46.875000
564		-42.968750
565		-50.781250
566		-42.968750
567		-52.734375
568		-48.828125
569		-54.687500
570		-50.781250
571		-58.593750
572		-52.734375
573		-60.546875
574		-56.640625
575		-62.500000
576		-58.593750
577		-64.453125
578		-60.546875
579		-66.406250
580		-62.500000
581		-70.312500
582		-64.453125
583		-72.265625
584		-66.406250
585		-74.218750
586		-68.359375
587		-76.171875
588		-72.265625
589		-78.125000
590		-74.218750
591		-80.078125
592		-74.218750
593		-82.031250
594		-76.171875
595		-83.984375
596		-78.125000
597		-87.890625
598		-80.078125
599		-87.890625
600		-82.031250
601		-89.843750
602		-83.984375
603		-89.843750
604		-85.937500
605		-91.796875
606		-87.890625
607		-95.703125
608		-87.890625
609		-95.703125
610		-87.890625
611		-95.703125
612		-89.843750
613		-97.656250
614		-93.750000
615		-99.609375
616		-91.796875
617		-101.562500
618		-95.703125
619		-101.562500
620		-95.703125
621		-101.562500
622		-97.656250
623		-101.562500
624		-99.609375
625		-103.515625
626		-97.656250
627		-103.515625
628		-97.656250
629		-105.468750
630		-99.609375
631		-105.468750
632		-99.609375
633		-105.468750
634		-99.609375
635		-105.468750
636		-99.609375
637		-103.515625
638		-101.562500
639		-103.515625
640		-101.562500
641		-105.468750
642		-99.609375
643		-107.421875
644		-99.609375
645		-105.468750
646		-99.609375
647		-105.468750
648		-99.609375
649		-105.468750
650		-99.609375
651		-105.468750
652		-99.609375
653		-105.468750
654		-97.656250
655		-101.562500
656		-99.609375
657		-103.515625
658		-97.656250
659		-103.515625
660		-97.656250
661		-101.562500
662		-95.703125
663		-99.609375
664		-93.750000
665		-99.609375
666		-91.796875
667		-99.609375
668		-91.796875
669		-97.656250
670		-91.796875
671		-93.750000
672		-91.796875
673		-93.750000
674		-89.843750
675		-93.750000
676		-85.937500
677		-91.796875
678		-83.984375
679		-89.843750
680		-83.984375
681		-87.890625
682		-80.078125
683		-87.890625
684		-80.078125
685		-83.984375
686		-78.125000
687		-82.031250
688		-78.125000
689		-80.078125
690		-76.171875
691		-78.125000
692		-72.265625
693		-76.171875
694		-70.312500
695		-76.171875
696		-68.359375
697		-72.265625
698		-64.453125
699		-72.265625
700		-62.500000
701		-68.359375
702		-60.546875
703		-66.406250
704		-60.546875
705		-62.500000
706		-58.593750
707		-58.593750
708		-54.687500
709		-58.593750
710		-50.781250
711		-54.687500
712		-48.828125
713		-52.734375
714		-46.875000
715		-50.781250
716		-42.968750
717		-46.875000
718		-41.015625
719		-44.921875
720		-39.062500
721		-41.015625
722		-37.109375
723		-37.109375
724		-33.203125
725		-35.156250
726		-29.296875
727		-33.203125
728		-25.390625
729		-31.250000
730		-23.437500
731		-29.296875
732		-21.484375
733		-25.390625
734		-17.578125
735		-21.484375
736		-15.625000
737		-19.531250
738		-13.671875
739		-15.625000
740		-9.765625
741		-11.718750
742		-5.859375
743		-9.765625
744		-3.906250
745		-7.812500
746		0.000000
747		-5.859375
748		3.906250
749		-1.953125
750		5.859375
751		0.000000
752		9.765625
753		3.906250
754		11.718750
755		9.765625
756		13.671875
757		11.718750
758		15.625000
759		13.671875
760		19.531250
761		15.625000
762		23.437500
763		17.578125
764		27.343750
765		21.484375
766		29.296875
767		23.437500
768		31.250000
769		27.343750
770		35.156250
771		31.250000
772		35.156250
773		35.156250
774		39.062500
775		37.109375
776		42.968750
777		39.062500
778		44.921875
779		41.015625
780		48.828125
781		42.968750
782		50.781250
783		44.921875
784		52.734375
785		48.828125
786		56.640625
787		50.781250
788		56.640625
789		54.687500
790		58.593750
791		58.593750
792		62.500000
793		58.593750
794		66.406250
795		60.546875
796		68.359375
797		62.500000
798		70.312500
799		64.453125
800		74.218750
801		68.359375
802		76.171875
803		70.312500
804		76.171875
805		74.218750
806		78.125000
807		76.171875
808		80.078125
809		76.171875
810		83.984375
811		78.125000
812		83.984375
813		80.078125
814		87.890625
815		82.031250
816		89.843750
817		83.984375
818		91.796875
819		85.937500
820		91.796875
821		87.890625
822		93.750000
823		91.796875
824		93.750000
825		91.796875
826		97.656250
827		91.796875
828		99.609375
829		93.750000
830		101.562500
831		95.703125
832		103.515625
833		97.656250
834		103.515625
835		97.656250
836		105.468750
837		99.609375
838		105.468750
839		103.515625
840		105.468750
841		103.515625
842		105.468750
843		103.515625
844		109.375000
845		103.515625
846		109.375000
847		103.515625
848		111.328125
849		105.468750
850		111.328125
851		105.468750
852		113.281250
853		107.421875
854		113.281250
855		109.375000
856		113.281250
857		111.328125
858		113.281250
859		109.375000
860		115.234375
861		109.375000
862		115.234375
863		109.375000
864		117.187500
865		111.328125
866		117.187500
867		109.375000
868		117.187500
869		111.328125
870		117.187500
871		111.328125
872		117.187500
873		113.281250
874		115.234375
875		113.281250
876		115.234375
877		111.328125
878		117.187500
879		111.328125
880		117.187500
881		111.328125
882		117.187500
883		111.328125
884		117.187500
885		111.328125
886		117.187500
887		111.328125
888		117.187500
889		111.328125
890		115.234375
891		111.328125
892		113.281250
893		109.375000
894		115.234375
895		109.375000
896		113.281250
897		109.375000
898		113.281250
899		107.421875
900		113.281250
901		107.421875
902		113.281250
903		107.421875
904		111.328125
905		105.468750
906		111.328125
907		105.468750
908		109.375000
909		103.515625
910		109.375000
911		101.562500
912		107.421875
913		99.609375
914		107.421875
915		99.609375
916		107.421875
917		97.656250
918		105.468750
919		97.656250
920		103.515625
921		95.703125
922		103.515625
923		95.703125
924		99.609375
925		93.750000
926		97.656250
927		91.796875
928		97.656250
929		89.843750
930		95.703125
931		87.890625
932		95.703125
933		85.937500
934		91.796875
935		83.984375
936		91.796875
937		82.031250
938		87.890625
939		82.031250
940		85.937500
941		80.078125
942		83.984375
943		76.171875
944		82.031250
945		74.218750
946		80.078125
947		70.312500
948		78.125000
949		70.312500
950		78.125000
951		66.406250
952		74.218750
953		64.453125
954		72.265625
955		64.453125
956		70.312500
957		62.500000
958		66.406250
959		58.593750
960		62.500000
961		56.640625
962		62.500000
963		52.734375
964		60.546875
965		50.781250
966		58.593750
967		46.875000
968		54.687500
969		44.921875
970		52.734375
971		42.968750
972		48.828125
973		41.015625
974		46.875000
975		39.062500
976		42.968750
977		33.203125
978		41.015625
979		31.250000
980		39.062500
981		29.296875
982		37.109375
983		25.390625
984		33.203125
985		21.484375
986		31.250000
987		19.531250
988		27.343750
989		19.531250
990		25.390625
991		15.625000
992		19.531250
993		9.765625
994		17.578125
995		7.812500
996		15.625000
997		5.859375
998		13.671875
999		1.953125
1000		9.765625
1001		0.000000
1002		7.812500
1003		-3.906250
1004		3.906250
1005		-5.859375
1006		1.953125
1007		-7.812500
1008		-3.906250
1009		-11.718750
1010		-5.859375
1011		-15.625000
1012		-7.812500
1013		-19.531250
1014		-9.765625
1015		-21.484375
1016		-13.671875
1017		-23.437500
1018		-15.625000
1019		-27.343750
1020		-17.578125
1021		-31.250000
1022		-21.484375
1023		-31.250000
1024		-25.390625
1025		-33.203125
1026		-29.296875
1027		-37.109375
1028		-31.250000
1029		-41.015625
1030		-33.203125
1031		-44.921875
1032		-37.109375
1033		-46.875000
1034		-39.062500
1035		-48.828125
1036		-41.015625
1037		-52.734375
1038		-44.921875
1039		-54.687500
1040		-46.875000
1041		-54.687500
1042		-50.781250
1043		-58.593750
1044		-54.687500
1045		-62.500000
1046		-54.687500
1047		-64.453125
1048		-56.640625
1049		-66.406250
1050		-58.593750
1051		-70.312500
1052		-62.500000
1053		-72.265625
1054		-64.453125
1055		-72.265625
1056		-66.406250
1057		-74.218750
1058		-68.359375
1059		-76.171875
1060		-72.265625
1061		-80.078125
1062		-74.218750
1063		-82.031250
1064		-74.218750
1065		-83.984375
1066		-76.171875
1067		-85.937500
1068		-78.125000
1069		-87.890625
1070		-80.078125
1071		-89.843750
1072		-82.031250
1073		-89.843750
1074		-83.984375
1075		-89.843750
1076		-87.890625
1077		-91.796875
1078		-87.890625
1079		-95.703125
1080		-87.890625
1081		-97.656250
1082		-89.843750
1083		-97.656250
1084		-91.796875
1085		-99.609375
1086		-91.796875
1087		-99.609375
1088		-93.750000
1089		-101.562500
1090		-95.703125
1091		-99.609375
1092		-97.656250
1093		-101.562500
1094		-97.656250
1095		-103.515625
1096		-97.656250
1097		-103.515625
1098		-97.656250
1099		-105.468750
1100		-99.609375
1101		-105.468750
1102		-99.609375
1103		-107.421875
1104		-99.609375
1105		-107.421875
1106		-99.609375
1107		-105.468750
1108		-99.609375
1109		-103.515625
1110		-101.562500
1111		-107.421875
1112		-101.562500
1113		-107.421875
1114		-99.609375
1115		-107.421875
1116		-99.609375
1117		-107.421875
1118		-99.609375
1119		-107.421875
1120		-99.609375
1121		-105.468750
1122		-99.609375
1123		-105.468750
1124		-99.609375
1125		-103.515625
1126		-99.609375
1127		-103.515625
1128		-99.609375
1129		-103.515625
1130		-97.656250
1131		-103.515625
1132		-95.703125
1133		-101.562500
1134		-95.703125
1135		-101.562500
1136		-93.750000
1137		-99.609375
1138		-93.750000
1139		-99.609375
1140		-91.796875
1141		-97.656250
1142		-91.796875
1143		-93.750000
1144		-91.796875
1145		-93.750000
1146		-87.890625
1147		-93.750000
1148		-85.937500
1149		-91.796875
1150		-85.937500
1151		-89.843750
1152		-83.984375
1153		-89.843750
1154		-82.031250
1155		-87.890625
1156		-80.078125
1157		-85.937500
1158		-80.078125
1159		-82.031250
1160		-78.125000
1161		-80.078125
1162		-74.218750
1163		-80.078125
1164		-72.265625
1165		-78.125000
1166		-70.312500
1167		-76.171875
1168		-68.359375
1169		-74.218750
1170		-64.453125
1171		-70.312500
1172		-62.500000
1173		-68.359375
1174		-60.546875
1175		-64.453125
1176		-60.546875
1177		-62.500000
1178		-58.593750
1179		-60.546875
1180		-52.734375
1181		-58.593750
1182		-50.781250
1183		-56.640625
1184		-48.828125
1185		-52.734375
1186		-44.921875
1187		-50.781250
1188		-42.968750
1189		-46.875000
1190		-39.062500
1191		-44.921875
1192		-39.062500
1193		-41.015625
1194		-37.109375
1195		-37.109375
1196		-31.250000
1197		-37.109375
1198		-29.296875
1199		-33.203125
1200		-25.390625
1201		-31.250000
1202		-23.437500
1203		-29.296875
1204		-19.531250
1205		-25.390625
1206		-17.578125
1207		-23.437500
1208		-15.625000
1209		-17.578125
1210		-13.671875
1211		-15.625000
1212		-9.765625
1213		-13.671875
1214		-5.859375
1215		-11.718750
1216		-1.953125
1217		-7.812500
1218		0.000000
1219		-3.906250
1220		3.906250
1221		-1.953125
1222		5.859375
1223		0.000000
1224		9.765625
1225		5.859375
1226		9.765625
1227		7.812500
1228		13.671875
1229		11.718750
1230		17.578125
1231		11.718750
1232		21.484375
1233		15.625000
1234		23.437500
1235		19.531250
1236		25.390625
1237		21.484375
1238		29.296875
1239		23.437500
1240		31.250000
1241		27.343750
1242		33.203125
1243		31.250000
1244		37.109375
1245		35.156250
1246		39.062500
1247		35.156250
1248		42.968750
1249		37.109375
1250		44.921875
1251		41.015625
1252		48.828125
1253		42.968750
1254		50.781250
1255		46.875000
1256		52.734375
1257		48.828125
1258		56.640625
1259		52.734375
1260		56.640625
1261		56.640625
1262		58.593750
1263		56.640625
1264		64.453125
1265		58.593750
1266		66.406250
1267		60.546875
1268		68.359375
1269		62.500000
1270		70.312500
1271		66.406250
1272		72.265625
1273		68.359375
1274		76.171875
1275		70.312500
1276		76.171875
1277		74.218750
1278		78.125000
1279		76.171875
1280		82.031250
1281		76.171875
1282		83.984375
1283		78.125000
1284		85.937500
1285		80.078125
1286		87.890625
1287		82.031250
1288		89.843750
1289		83.984375
1290		89.843750
1291		85.937500
1292		91.796875
1293		89.843750
1294		91.796875
1295		91.796875
1296		93.750000
1297		91.796875
1298		97.656250
1299		91.796875
1300		99.609375
1301		93.750000
1302		101.562500
1303		95.703125
1304		101.562500
1305		95.703125
1306		103.515625
1307		97.656250
1308		105.468750
1309		99.609375
1310		103.515625
1311		101.562500
1312		105.468750
1313		101.562500
1314		107.421875
1315		101.562500
1316		109.375000
1317		103.515625
1318		109.375000
1319		103.515625
1320		111.328125
1321		105.468750
1322		111.328125
1323		105.468750
1324		113.281250
1325		107.421875
1326		113.281250
1327		109.375000
1328		111.328125
1329		111.328125
1330		113.281250
1331		109.375000
1332		115.234375
1333		109.375000
1334		117.187500
1335		109.375000
1336		117.187500
1337		109.375000
1338		117.187500
1339		111.328125
1340		117.187500
1341		111.328125
1342		117.187500
1343		113.281250
1344		115.234375
1345		113.281250
1346		115.234375
1347		111.328125
1348		117.187500
1349		111.328125
1350		117.187500
1351		111.328125
1352		117.187500
1353		111.328125
1354		117.187500
1355		111.328125
1356		117.187500
1357		111.328125
1358		117.187500
1359		111.328125
1360		117.187500
1361		111.328125
1362		115.234375
1363		109.375000
1364		115.234375
1365		109.375000
1366		115.234375
1367		109.375000
1368		115.234375
1369		107.421875
1370		115.234375
1371		107.421875
1372		113.281250
1373		105.468750
1374		113.281250
1375		105.468750
1376		111.328125
1377		107.421875
1378		109.375000
1379		105.468750
1380		109.375000
1381		103.515625
1382		109.375000
1383		101.562500
1384		109.375000
1385		99.609375
1386		107.421875
1387		99.609375
1388		105.468750
1389		97.656250
1390		103.515625
1391		95.703125
1392		103.515625
1393		97.656250
1394		101.562500
1395		95.703125
1396		99.609375
1397		91.796875
1398		97.656250
1399		89.843750
1400		97.656250
1401		89.843750
1402		95.703125
1403		87.890625
1404		93.750000
1405		83.984375
1406		93.750000
1407		82.031250
1408		89.843750
1409		82.031250
1410		87.890625
1411		82.031250
1412		85.937500
1413		80.078125
1414		82.031250
1415		74.218750
1416		82.031250
1417		72.265625
1418		80.078125
1419		72.265625
1420		78.125000
1421		68.359375
1422		76.171875
1423		66.406250
1424		74.218750
1425		64.453125
1426		72.265625
1427		64.453125
1428		68.359375
1429		62.500000
1430		66.406250
1431		56.640625
1432		64.453125
1433		54.687500
1434		62.500000
1435		52.734375
1436		60.546875
1437		48.828125
1438		56.640625
1439		46.875000
1440		54.687500
1441		44.921875
1442		52.734375
1443		42.968750
1444		48.828125
1445		41.015625
1446		44.921875
1447		37.109375
1448		42.968750
1449		33.203125
1450		41.015625
1451		31.250000
1452		39.062500
1453		27.343750
1454		35.156250
1455		23.437500
1456		33.203125
1457		21.484375
1458		29.296875
1459		19.531250
1460		27.343750
1461		17.578125
1462		21.484375
1463		15.625000
1464		19.531250
1465		11.718750
1466		17.578125
1467		7.812500
1468		15.625000
1469		3.906250
1470		11.718750
1471		0.000000
1472		9.765625
1473		0.000000
1474		5.859375
1475		-3.906250
1476		3.906250
1477		-5.859375
1478		-1.953125
1479		-7.812500
1480		-3.906250
1481		-13.671875
1482		-5.859375
1483		-15.625000
1484		-7.812500
1485		-19.531250
1486		-11.718750
1487		-21.484375
1488		-13.671875
1489		-25.390625
1490		-17.578125
1491		-29.296875
1492		-19.531250
1493		-29.296875
1494		-23.437500
1495		-31.250000
1496		-27.343750
1497		-35.156250
1498		-29.296875
1499		-39.062500
1500		-31.250000
1501		-42.968750
1502		-35.156250
1503		-44.921875
1504		-37.109375
1505		-46.875000
1506		-39.062500
1507		-50.781250
1508		-42.968750
1509		-52.734375
1510		-44.921875
1511		-52.734375
1512		-48.828125
1513		-56.640625
1514		-50.781250
1515		-60.546875
1516		-52.734375
1517		-64.453125
1518		-54.687500
1519		-64.453125
1520		-56.640625
1521		-68.359375
1522		-58.593750
1523		-68.359375
1524		-62.500000
1525		-72.265625
1526		-64.453125
1527		-72.265625
1528		-66.406250
1529		-74.218750
1530		-70.312500
1531		-78.125000
1532		-72.265625
1533		-80.078125
1534		-72.265625
1535		-82.031250
1536		-74.218750
1537		-83.984375
1538		-78.125000
1539		-85.937500
1540		-78.125000
1541		-87.890625
1542		-80.078125
1543		-89.843750
1544		-82.031250
1545		-89.843750
1546		-85.937500
1547		-89.843750
1548		-87.890625
1549		-93.750000
1550		-87.890625
1551		-95.703125
1552		-87.890625
1553		-97.656250
1554		-89.843750
1555		-97.656250
1556		-91.796875
1557		-99.609375
1558		-91.796875
1559		-101.562500
1560		-93.750000
1561		-99.609375
1562		-93.750000
1563		-99.609375
1564		-97.656250
1565		-103.515625
1566		-95.703125
1567		-103.515625
1568		-97.656250
1569		-103.515625
1570		-97.656250
1571		-105.468750
1572		-97.656250
1573		-105.468750
1574		-97.656250
1575		-105.468750
1576		-99.609375
1577		-105.468750
1578		-99.609375
1579		-105.468750
1580		-101.562500
1581		-103.515625
1582		-101.562500
1583		-107.421875
1584		-99.609375
1585		-105.468750
1586		-99.609375
1587		-107.421875
1588		-99.609375
1589		-107.421875
1590		-99.609375
1591		-105.468750
1592		-99.609375
1593		-105.468750
1594		-99.609375
1595		-103.515625
1596		-99.609375
1597		-101.562500
1598		-99.609375
1599		-105.468750
1600		-97.656250
1601		-103.515625
1602		-97.656250
1603		-101.562500
1604		-95.703125
1605		-101.562500
1606		-95.703125
1607		-101.562500
1608		-93.750000
1609		-99.609375
1610		-91.796875
1611		-99.609375
1612		-91.796875
1613		-95.703125
1614		-91.796875
1615		-95.703125
1616		-89.843750
1617		-93.750000
1618		-87.890625
1619		-93.750000
1620		-85.937500
1621		-91.796875
1622		-83.984375
1623		-89.843750
1624		-83.984375
1625		-87.890625
1626		-80.078125
1627		-87.890625
1628		-80.078125
1629		-82.031250
1630		-80.078125
1631		-80.078125
1632		-78.125000
1633		-80.078125
1634		-72.265625
1635		-80.078125
1636		-72.265625
1637		-76.171875
1638		-68.359375
1639		-74.218750
1640		-66.406250
1641		-72.265625
1642		-64.453125
1643		-68.359375
1644		-62.500000
1645		-68.359375
1646		-62.500000
1647		-64.453125
1648		-58.593750
1649		-60.546875
1650		-54.687500
1651		-60.546875
1652		-52.734375
1653		-58.593750
1654		-50.781250
1655		-54.687500
1656		-46.875000
1657		-52.734375
1658		-44.921875
1659		-48.828125
1660		-42.968750
1661		-46.875000
1662		-41.015625
1663		-42.968750
1664		-39.062500
1665		-39.062500
1666		-35.156250
1667		-39.062500
1668		-31.250000
1669		-37.109375
1670		-29.296875
1671		-33.203125
1672		-25.390625
1673		-31.250000
1674		-21.484375
1675		-27.343750
1676		-17.578125
1677		-23.437500
1678		-17.578125
1679		-21.484375
1680		-15.625000
1681		-17.578125
1682		-11.718750
1683		-13.671875
1684		-7.812500
1685		-13.671875
1686		-3.906250
1687		-9.765625
1688		-1.953125
1689		-7.812500
1690		1.953125
1691		-3.906250
1692		5.859375
1693		0.000000
1694		7.812500
1695		1.953125
1696		7.812500
1697		7.812500
1698		11.718750
1699		9.765625
1700		17.578125
1701		11.718750
1702		19.531250
1703		13.671875
1704		21.484375
1705		17.578125
1706		23.437500
1707		19.531250
1708		27.343750
1709		21.484375
1710		31.250000
1711		25.390625
1712		33.203125
1713		29.296875
1714		33.203125
1715		33.203125
1716		37.109375
1717		35.156250
1718		41.015625
1719		37.109375
1720		44.921875
1721		39.062500
1722		46.875000
1723		41.015625
1724		48.828125
1725		44.921875
1726		52.734375
1727		46.875000
1728		54.687500
1729		50.781250
1730		56.640625
1731		54.687500
1732		58.593750
1733		56.640625
1734		62.500000
1735		56.640625
1736		64.453125
1737		60.546875
1738		66.406250
1739		62.500000
1740		68.359375
1741		64.453125
1742		70.312500
1743		68.359375
1744		74.218750
1745		68.359375
1746		74.218750
1747		72.265625
1748		76.171875
1749		74.218750
1750		78.125000
1751		76.171875
1752		82.031250
1753		76.171875
1754		83.984375
1755		78.125000
1756		85.937500
1757		80.078125
1758		87.890625
1759		82.031250
1760		89.843750
1761		83.984375
1762		91.796875
1763		87.890625
1764		91.796875
1765		89.843750
1766		93.750000
1767		89.843750
1768		97.656250
1769		89.843750
1770		99.609375
1771		93.750000
1772		99.609375
1773		93.750000
1774		101.562500
1775		95.703125
1776		101.562500
1777		97.656250
1778		103.515625
1779		97.656250
1780		103.515625
1781		101.562500
1782		105.468750
1783		103.515625
1784		105.468750
1785		101.562500
1786		109.375000
1787		101.562500
1788		109.375000
1789		103.515625
1790		111.328125
1791		103.515625
1792		111.328125
1793		105.468750
1794		113.281250
1795		105.468750
1796		113.281250
1797		109.375000
1798		111.328125
1799		109.375000
1800		113.281250
1801		109.375000
1802		115.234375
1803		109.375000
1804		115.234375
1805		109.375000
1806		117.187500
1807		109.375000
1808		117.187500
1809		111.328125
1810		117.187500
1811		111.328125
1812		117.187500
1813		111.328125
1814		117.187500
1815		113.281250
1816		115.234375
1817		111.328125
1818		117.187500
1819		111.328125
1820		117.187500
1821		111.328125
1822		117.187500
1823		111.328125
1824		117.187500
1825		111.328125
1826		117.187500
1827		109.375000
1828		117.187500
1829		111.328125
1830		117.187500
1831		111.328125
1832		115.234375
1833		111.328125
1834		113.281250
1835		109.375000
1836		115.234375
1837		109.375000
1838		115.234375
1839		107.421875
1840		115.234375
1841		107.421875
1842		115.234375
1843		107.421875
1844		113.281250
1845		105.468750
1846		113.281250
1847		105.468750
1848		111.328125
1849		105.468750
1850		109.375000
1851		101.562500
1852		109.375000
1853		101.562500
1854		109.375000
1855		101.562500
1856		107.421875
1857		99.609375
1858		105.468750
1859		99.609375
1860		105.468750
1861		97.656250
1862		105.468750
1863		97.656250
1864		101.562500
1865		95.703125
1866		99.609375
1867		93.750000
1868		97.656250
1869		89.843750
1870		99.609375
1871		89.843750
1872		95.703125
1873		87.890625
1874		95.703125
1875		85.937500
1876		93.750000
1877		83.984375
1878		91.796875
1879		82.031250
1880		89.843750
1881		82.031250
1882		85.937500
1883		80.078125
1884		83.984375
1885		76.171875
1886		83.984375
1887		74.218750
1888		82.031250
1889		72.265625
1890		80.078125
1891		70.312500
1892		78.125000
1893		68.359375
1894		74.218750
1895		66.406250
1896		74.218750
1897		64.453125
1898		72.265625
1899		62.500000
1900		66.406250
1901		58.593750
1902		64.453125
1903		56.640625
1904		64.453125
1905		52.734375
1906		62.500000
1907		50.781250
1908		58.593750
1909		48.828125
1910		56.640625
1911		44.921875
1912		52.734375
1913		44.921875
1914		50.781250
1915		42.968750
1916		46.875000
1917		39.062500
1918		42.968750
1919		35.156250
1920		42.968750
1921		33.203125
1922		39.062500
1923		29.296875
1924		37.109375
1925		25.390625
1926		33.203125
1927		23.437500
1928		31.250000
1929		21.484375
1930		29.296875
1931		19.531250
1932		25.390625
1933		15.625000
1934		21.484375
1935		11.718750
1936		17.578125
1937		9.765625
1938		17.578125
1939		5.859375
1940		13.671875
1941		3.906250
1942		11.718750
1943		0.000000
1944		7.812500
1945		-1.953125
1946		5.859375
1947		-3.906250
1948		1.953125
1949		-5.859375
1950		-1.953125
1951		-9.765625
1952		-5.859375
1953		-15.625000
1954		-5.859375
1955		-17.578125
1956		-9.765625
1957		-19.531250
1958		-11.718750
1959		-23.437500
1960		-15.625000
1961		-27.343750
1962		-17.578125
1963		-29.296875
1964		-21.484375
1965		-29.296875
1966		-25.390625
1967		-33.203125
1968		-29.296875
1969		-39.062500
1970		-31.250000
1971		-41.015625
1972		-33.203125
1973		-42.968750
1974		-35.156250
1975		-44.921875
1976		-39.062500
1977		-48.828125
1978		-41.015625
1979		-50.781250
1980		-42.968750
1981		-52.734375
1982		-46.875000
1983		-54.687500
1984		-50.781250
1985		-58.593750
1986		-52.734375
1987		-62.500000
1988		-52.734375
1989		-64.453125
1990		-56.640625
1991		-66.406250
1992		-58.593750
1993		-68.359375
1994		-60.546875
1995		-70.312500
1996		-64.453125
1997		-72.265625
1998		-66.406250
1999		-74.218750
2000		-70.312500
2001		-76.171875
2002		-72.265625
2003		-78.125000
2004		-72.265625
2005		-82.031250
2006		-74.218750
2007		-83.984375
2008		-76.171875
2009		-85.937500
2010		-78.125000
2011		-85.937500
2012		-80.078125
2013		-87.890625
2014		-82.031250
2015		-89.843750
2016		-83.984375
2017		-89.843750
2018		-85.937500
2019		-91.796875
2020		-87.890625
2021		-95.703125
2022		-87.890625
2023		-95.703125
2024		-89.843750
2025		-97.656250
2026		-89.843750
2027		-99.609375
2028		-91.796875
2029		-99.609375
2030		-93.750000
2031		-101.562500
2032		-95.703125
2033		-99.609375
2034		-97.656250
2035		-101.562500
2036		-97.656250
2037		-103.515625
2038		-97.656250
2039		-103.515625
2040		-97.656250
2041		-105.468750
2042		-97.656250
2043		-105.468750
2044		-99.609375
2045		-105.468750
2046		-99.609375
2047		-105.468750
2048		-99.609375
2049		-105.468750
2050		-101.562500
2051		-105.468750
2052		-101.562500
2053		-107.421875
2054		-101.562500
2055		-107.421875
2056		-99.609375
2057		-107.421875
2058		-99.609375
2059		-107.421875
2060		-99.609375
2061		-105.468750
2062		-99.609375
2063		-107.421875
2064		-99.609375
2065		-105.468750
2066		-99.609375
2067		-103.515625
2068		-101.562500
2069		-103.515625
2070		-97.656250
2071		-103.515625
2072		-97.656250
2073		-103.515625
2074		-95.703125
2075		-103.515625
2076		-95.703125
2077		-101.562500
2078		-95.703125
2079		-101.562500
2080		-93.750000
2081		-99.609375
2082		-93.750000
2083		-95.703125
2084		-93.750000
2085		-95.703125
2086		-91.796875
2087		-95.703125
2088		-87.890625
2089		-93.750000
2090		-85.937500
2091		-93.750000
2092		-85.937500
2093		-91.796875
2094		-83.984375
2095		-89.843750
2096		-82.031250
2097		-87.890625
2098		-80.078125
2099		-85.937500
2100		-80.078125
2101		-82.031250
2102		-78.125000
2103		-80.078125
2104		-76.171875
2105		-80.078125
2106		-72.265625
2107		-78.125000
2108		-70.312500
2109		-76.171875
2110		-68.359375
2111		-74.218750
2112		-66.406250
2113		-72.265625
2114		-64.453125
2115		-70.312500
2116		-62.500000
2117		-64.453125
2118		-60.546875
2119		-62.500000
2120		-58.593750
2121		-62.500000
2122		-54.687500
2123		-60.546875
2124		-52.734375
2125		-58.593750
2126		-50.781250
2127		-54.687500
2128		-46.875000
2129		-50.781250
2130		-44.921875
2131		-48.828125
2132		-41.015625
2133		-46.875000
2134		-41.015625
2135		-41.015625
2136		-37.109375
2137		-41.015625
2138		-33.203125
2139		-37.109375
2140		-31.250000
2141		-35.156250
2142		-27.343750
2143		-33.203125
2144		-23.437500
2145		-29.296875
2146		-21.484375
2147		-27.343750
2148		-17.578125
2149		-23.437500
2150		-17.578125
2151		-19.531250
2152		-13.671875
2153		-17.578125
2154		-9.765625
2155		-15.625000
2156		-7.812500
2157		-11.718750
2158		-3.906250
2159		-9.765625
2160		-1.953125
2161		-5.859375
2162		1.953125
2163		-1.953125
2164		3.906250
2165		0.000000
2166		7.812500
2167		3.906250
2168		9.765625
2169		7.812500
2170		11.718750
2171		9.765625
2172		15.625000
2173		11.718750
2174		19.531250
2175		13.671875
2176		23.437500
2177		17.578125
2178		25.390625
2179		19.531250
2180		27.343750
2181		23.437500
2182		31.250000
2183		25.390625
2184		33.203125
2185		31.250000
2186		35.156250
2187		33.203125
2188		39.062500
2189		35.156250
2190		42.968750
2191		37.109375
2192		44.921875
2193		39.062500
2194		46.875000
2195		41.015625
2196		50.781250
2197		44.921875
2198		52.734375
2199		46.875000
2200		54.687500
2201		52.734375
2202		56.640625
2203		54.687500
2204		58.593750
2205		54.687500
2206		62.500000
2207		56.640625
2208		66.406250
2209		60.546875
2210		68.359375
2211		62.500000
2212		70.312500
2213		64.453125
2214		72.265625
2215		66.406250
2216		74.218750
2217		68.359375
2218		74.218750
2219		72.265625
2220		76.171875
2221		74.218750
2222		80.078125
2223		74.218750
2224		82.031250
2225		78.125000
2226		83.984375
2227		80.078125
2228		85.937500
2229		82.031250
2230		87.890625
2231		83.984375
2232		89.843750
2233		83.984375
2234		91.796875
2235		87.890625
2236		91.796875
2237		89.843750
2238		95.703125
2239		89.843750
2240		97.656250
2241		91.796875
2242		97.656250
2243		93.750000
2244		99.609375
2245		93.750000
2246		101.562500
2247		95.703125
2248		103.515625
2249		97.656250
2250		103.515625
2251		99.609375
2252		103.515625
2253		101.562500
2254		105.468750
2255		101.562500
2256		107.421875
2257		101.562500
2258		109.375000
2259		103.515625
2260		109.375000
2261		103.515625
2262		111.328125
2263		105.468750
2264		111.328125
2265		105.468750
2266		111.328125
2267		107.421875
2268		113.281250
2269		109.375000
2270		111.328125
2271		107.421875
2272		115.234375
2273		107.421875
2274		115.234375
2275		109.375000
2276		115.234375
2277		109.375000
2278		117.187500
2279		109.375000
2280		117.187500
2281		109.375000
2282		117.187500
2283		109.375000
2284		117.187500
2285		113.281250
2286		115.234375
2287		113.281250
2288		115.234375
2289		111.328125
2290		117.187500
2291		111.328125
2292		119.140625
2293		111.328125
2294		117.187500
2295		111.328125
2296		117.187500
2297		111.328125
2298		117.187500
2299		111.328125
2300		117.187500
2301		111.328125
2302		117.187500
2303		111.328125
2304		115.234375
2305		109.375000
2306		115.234375
2307		109.375000
2308		115.234375
2309		107.421875
2310		115.234375
2311		107.421875
2312		115.234375
2313		107.421875
2314		113.281250
2315		107.421875
2316		113.281250
2317		105.468750
2318		113.281250
2319		107.421875
2320		109.375000
2321		105.468750
2322		109.375000
2323		103.515625
2324		109.375000
2325		101.562500
2326		107.421875
2327		99.609375
2328		107.421875
2329		99.609375
2330		105.468750
2331		99.609375
2332		105.468750
2333		97.656250
2334		103.515625
2335		97.656250
2336		101.562500
2337		95.703125
2338		99.609375
2339		91.796875
2340		99.609375
2341		91.796875
2342		97.656250
2343		87.890625
2344		97.656250
2345		87.890625
2346		95.703125
2347		85.937500
2348		93.750000
2349		83.984375
2350		91.796875
2351		83.984375
2352		89.843750
2353		82.031250
2354		85.937500
2355		78.125000
2356		83.984375
2357		76.171875
2358		83.984375
2359		74.218750
2360		82.031250
2361		72.265625
2362		80.078125
2363		70.312500
2364		78.125000
2365		68.359375
2366		76.171875
2367		64.453125
2368		72.265625
2369		64.453125
2370		68.359375
2371		62.500000
2372		66.406250
2373		58.593750
2374		66.406250
2375		56.640625
2376		62.500000
2377		52.734375
2378		60.546875
2379		50.781250
2380		58.593750
2381		46.875000
2382		56.640625
2383		44.921875
2384		52.734375
2385		44.921875
2386		50.781250
2387		42.968750
2388		46.875000
2389		37.109375
2390		42.968750
2391		35.156250
2392		42.968750
2393		31.250000
2394		39.062500
2395		29.296875
2396		37.109375
2397		27.343750
2398		35.156250
2399		23.437500
2400		31.250000
2401		21.484375
2402		27.343750
2403		19.531250
2404		23.437500
2405		15.625000
2406		21.484375
2407		11.718750
2408		19.531250
2409		7.812500
2410		17.578125
2411		5.859375
2412		13.671875
2413		3.906250
2414		9.765625
2415		0.000000
2416		7.812500
2417		-3.906250
2418		5.859375
2419		-3.906250
2420		0.000000
2421		-7.812500
2422		-1.953125
2423		-11.718750
2424		-3.906250
2425		-15.625000
2426		-7.812500
2427		-19.531250
2428		-9.765625
2429		-21.484375
2430		-13.671875
2431		-23.437500
2432		-15.625000
2433		-25.390625
2434		-19.531250
2435		-27.343750
2436		-21.484375
2437		-31.250000
2438		-25.390625
2439		-35.156250
2440		-29.296875
2441		-37.109375
2442		-29.296875
2443		-41.015625
2444		-33.203125
2445		-42.968750
2446		-35.156250
2447		-46.875000
2448		-39.062500
2449		-48.828125
2450		-41.015625
2451		-50.781250
2452		-44.921875
2453		-52.734375
2454		-48.828125
2455		-54.687500
2456		-50.781250
2457		-58.593750
2458		-52.734375
2459		-62.500000
2460		-54.687500
2461		-64.453125
2462		-56.640625
2463		-66.406250
2464		-58.593750
2465		-68.359375
2466		-60.546875
2467		-72.265625
2468		-64.453125
2469		-72.265625
2470		-66.406250
2471		-74.218750
2472		-70.312500
2473		-78.125000
2474		-72.265625
2475		-80.078125
2476		-72.265625
2477		-82.031250
2478		-74.218750
2479		-83.984375
2480		-76.171875
2481		-85.937500
2482		-78.125000
2483		-87.890625
2484		-80.078125
2485		-87.890625
2486		-82.031250
2487		-87.890625
2488		-85.937500
2489		-91.796875
2490		-87.890625
2491		-95.703125
2492		-85.937500
2493		-95.703125
2494		-87.890625
2495		-97.656250
2496		-89.843750
2497		-97.656250
2498		-91.796875
2499		-99.609375
2500		-91.796875
2501		-99.609375
2502		-93.750000
2503		-99.609375
2504		-95.703125
2505		-99.609375
2506		-97.656250
2507		-103.515625
2508		-95.703125
2509		-105.468750
2510		-97.656250
2511		-105.468750
2512		-97.656250
2513		-105.468750
2514		-99.609375
2515		-105.468750
2516		-99.609375
2517		-105.468750
2518		-99.609375
2519		-107.421875
2520		-99.609375
2521		-105.468750
2522		-101.562500
2523		-105.468750
2524		-101.562500
2525		-107.421875
2526		-99.609375
2527		-107.421875
2528		-99.609375
2529		-107.421875
2530		-101.562500
2531		-107.421875
2532		-99.609375
2533		-105.468750
2534		-99.609375
2535		-105.468750
2536		-99.609375
2537		-103.515625
2538		-101.562500
2539		-103.515625
2540		-101.562500
2541		-105.468750
2542		-97.656250
2543		-103.515625
2544		-97.656250
2545		-103.515625
2546		-95.703125
2547		-103.515625
2548		-95.703125
2549		-101.562500
2550		-95.703125
2551		-99.609375
2552		-93.750000
2553		-99.609375
2554		-93.750000
2555		-95.703125
2556		-93.750000
2557		-95.703125
2558		-89.843750
2559		-95.703125
2560		-87.890625
2561		-93.750000
2562		-85.937500
2563		-91.796875
2564		-85.937500
2565		-91.796875
2566		-83.984375
2567		-89.843750
2568		-82.031250
2569		-87.890625
2570		-80.078125
2571		-83.984375
2572		-80.078125
2573		-82.031250
2574		-78.125000
2575		-82.031250
2576		-74.218750
2577		-80.078125
2578		-72.265625
2579		-78.125000
2580		-70.312500
2581		-76.171875
2582		-68.359375
2583		-74.218750
2584		-66.406250
2585		-72.265625
2586		-64.453125
2587		-66.406250
2588		-62.500000
2589		-64.453125
2590		-60.546875
2591		-62.500000
2592		-56.640625
2593		-62.500000
2594		-52.734375
2595		-58.593750
2596		-50.781250
2597		-56.640625
2598		-48.828125
2599		-54.687500
2600		-46.875000
2601		-52.734375
2602		-42.968750
2603		-46.875000
2604		-42.968750
2605		-44.921875
2606		-39.062500
2607		-41.015625
2608		-35.156250
2609		-41.015625
2610		-31.250000
2611		-37.109375
2612		-29.296875
2613		-35.156250
2614		-27.343750
2615		-31.250000
2616		-23.437500
2617		-29.296875
2618		-21.484375
2619		-27.343750
2620		-19.531250
2621		-21.484375
2622		-17.578125
2623		-17.578125
2624		-13.671875
2625		-17.578125
2626		-9.765625
2627		-15.625000
2628		-5.859375
2629		-11.718750
2630		-3.906250
2631		-7.812500
2632		0.000000
2633		-5.859375
2634		1.953125
2635		-1.953125
2636		5.859375
2637		0.000000
2638		5.859375
2639		5.859375
2640		9.765625
2641		7.812500
2642		13.671875
2643		9.765625
2644		17.578125
2645		11.718750
2646		19.531250
2647		15.625000
2648		23.437500
2649		17.578125
2650		25.390625
2651		21.484375
2652		29.296875
2653		23.437500
2654		31.250000
2655		27.343750
2656		33.203125
2657		31.250000
2658		35.156250
2659		31.250000
2660		39.062500
2661		35.156250
2662		42.968750
2663		37.109375
2664		44.921875
2665		39.062500
2666		48.828125
2667		42.968750
2668		50.781250
2669		46.875000
2670		52.734375
2671		48.828125
2672		54.687500
2673		52.734375
2674		56.640625
2675		54.687500
2676		60.546875
2677		54.687500
2678		62.500000
2679		56.640625
2680		66.406250
2681		60.546875
2682		68.359375
2683		62.500000
2684		70.312500
2685		64.453125
2686		72.265625
2687		66.406250
2688		72.265625
2689		70.312500
2690		74.218750
2691		72.265625
2692		78.125000
2693		74.218750
2694		82.031250
2695		76.171875
2696		83.984375
2697		78.125000
2698		83.984375
2699		80.078125
2700		85.937500
2701		82.031250
2702		89.843750
2703		82.031250
2704		89.843750
2705		87.890625
2706		89.843750
2707		87.890625
2708		91.796875
2709		87.890625
2710		95.703125
2711		89.843750
2712		97.656250
2713		91.796875
2714		97.656250
2715		93.750000
2716		99.609375
2717		93.750000
2718		101.562500
2719		95.703125
2720		103.515625
2721		97.656250
2722		103.515625
2723		99.609375
2724		103.515625
2725		101.562500
2726		107.421875
2727		101.562500
2728		107.421875
2729		101.562500
2730		109.375000
2731		103.515625
2732		111.328125
2733		103.515625
2734		111.328125
2735		105.468750
2736		111.328125
2737		105.468750
2738		111.328125
2739		109.375000
2740		111.328125
2741		109.375000
2742		111.328125
2743		107.421875
2744		115.234375
2745		107.421875
2746		115.234375
2747		109.375000
2748		115.234375
2749		109.375000
2750		115.234375
2751		109.375000
2752		117.187500
2753		111.328125
2754		117.187500
2755		111.328125
2756		115.234375
2757		113.281250
2758		115.234375
2759		111.328125
2760		117.187500
2761		111.328125
2762		117.187500
2763		111.328125
2764		117.187500
2765		111.328125
2766		117.187500
2767		111.328125
2768		117.187500
2769		111.328125
2770		117.187500
2771		111.328125
2772		117.187500
2773		113.281250
2774		115.234375
2775		111.328125
2776		115.234375
2777		109.375000
2778		117.187500
2779		109.375000
2780		115.234375
2781		109.375000
2782		115.234375
2783		107.421875
2784		115.234375
2785		107.421875
2786		113.281250
2787		105.468750
2788		113.281250
2789		107.421875
2790		109.375000
2791		107.421875
2792		109.375000
2793		103.515625
2794		109.375000
2795		103.515625
2796		109.375000
2797		101.562500
2798		107.421875
2799		99.609375
2800		107.421875
2801		99.609375
2802		105.468750
2803		97.656250
2804		105.468750
2805		97.656250
2806		103.515625
2807		97.656250
2808		101.562500
2809		93.750000
2810		99.609375
2811		91.796875
2812		99.609375
2813		89.843750
2814		97.656250
2815		89.843750
2816		95.703125
2817		85.937500
2818		93.750000
2819		85.937500
2820		91.796875
2821		83.984375
2822		91.796875
2823		83.984375
2824		87.890625
2825		82.031250
2826		85.937500
2827		78.125000
2828		85.937500
2829		74.218750
2830		83.984375
2831		74.218750
2832		82.031250
2833		72.265625
2834		80.078125
2835		70.312500
2836		78.125000
2837		66.406250
2838		74.218750
2839		66.406250
2840		72.265625
2841		64.453125
2842		68.359375
2843		60.546875
2844		66.406250
2845		56.640625
2846		64.453125
2847		54.687500
2848		62.500000
2849		52.734375
2850		60.546875
2851		48.828125
2852		56.640625
2853		48.828125
2854		54.687500
2855		44.921875
2856		52.734375
2857		44.921875
2858		48.828125
2859		39.062500
2860		44.921875
2861		37.109375
2862		44.921875
2863		33.203125
2864		42.968750
2865		31.250000
2866		39.062500
2867		27.343750
2868		37.109375
2869		25.390625
2870		33.203125
2871		23.437500
2872		31.250000
2873		21.484375
2874		25.390625
2875		19.531250
2876		23.437500
2877		13.671875
2878		21.484375
2879		9.765625
2880		19.531250
2881		7.812500
2882		15.625000
2883		3.906250
2884		13.671875
2885		1.953125
2886		9.765625
2887		-1.953125
2888		7.812500
2889		-1.953125
2890		3.906250
2891		-3.906250
2892		0.000000
2893		-9.765625
2894		-3.906250
2895		-13.671875
2896		-3.906250
2897		-15.625000
2898		-7.812500
2899		-19.531250
2900		-11.718750
2901		-21.484375
2902		-13.671875
2903		-25.390625
2904		-15.625000
2905		-27.343750
2906		-19.531250
2907		-27.343750
2908		-23.437500
2909		-31.250000
2910		-27.343750
2911		-35.156250
2912		-29.296875
2913		-39.062500
2914		-31.250000
2915		-41.015625
2916		-33.203125
2917		-44.921875
2918		-37.109375
2919		-46.875000
2920		-39.062500
2921		-50.781250
2922		-41.015625
2923		-50.781250
2924		-44.921875
2925		-52.734375
2926		-48.828125
2927		-56.640625
2928		-50.781250
2929		-60.546875
2930		-52.734375
2931		-62.500000
2932		-54.687500
2933		-64.453125
2934		-56.640625
2935		-66.406250
2936		-60.546875
2937		-70.312500
2938		-62.500000
2939		-70.312500
2940		-64.453125
2941		-72.265625
2942		-68.359375
2943		-76.171875
2944		-70.312500
2945		-78.125000
2946		-72.265625
2947		-80.078125
2948		-72.265625
2949		-82.031250
2950		-74.218750
2951		-85.937500
2952		-76.171875
2953		-85.937500
2954		-80.078125
2955		-87.890625
2956		-80.078125
2957		-87.890625
2958		-83.984375
2959		-89.843750
2960		-85.937500
2961		-93.750000
2962		-85.937500
2963		-93.750000
2964		-87.890625
2965		-95.703125
2966		-87.890625
2967		-97.656250
2968		-89.843750
2969		-97.656250
2970		-91.796875
2971		-99.609375
2972		-91.796875
2973		-99.609375
2974		-93.750000
2975		-99.609375
2976		-95.703125
2977		-103.515625
2978		-95.703125
2979		-103.515625
2980		-97.656250
2981		-103.515625
2982		-97.656250
2983		-105.468750
2984		-97.656250
2985		-105.468750
2986		-99.609375
2987		-105.468750
2988		-99.609375
2989		-105.468750
2990		-99.609375
2991		-103.515625
2992		-101.562500
2993		-105.468750
2994		-101.562500
2995		-107.421875
2996		-99.609375
2997		-107.421875
2998		-101.562500
2999		-107.421875
3000		-99.609375
3001		-107.421875
3002		-99.609375
3003		-107.421875
3004		-99.609375
3005		-107.421875
3006		-99.609375
3007		-105.468750
3008		-99.609375
3009		-103.515625
3010		-101.562500
3011		-105.468750
3012		-97.656250
3013		-105.468750
3014		-97.656250
3015		-103.515625
3016		-97.656250
3017		-103.515625
3018		-95.703125
3019		-101.562500
3020		-95.703125
3021		-101.562500
3022		-93.750000
3023		-99.609375
3024		-93.750000
3025		-97.656250
3026		-93.750000
3027		-95.703125
3028		-91.796875
3029		-95.703125
3030		-89.843750
3031		-95.703125
3032		-87.890625
3033		-93.750000
3034		-85.937500
3035		-91.796875
3036		-85.937500
3037		-89.843750
3038		-83.984375
3039		-87.890625
3040		-82.031250
3041		-83.984375
3042		-82.031250
3043		-83.984375
3044		-80.078125
3045		-82.031250
3046		-76.171875
3047		-80.078125
3048		-74.218750
3049		-80.078125
3050		-72.265625
3051		-78.125000
3052		-70.312500
3053		-74.218750
3054		-68.359375
3055		-72.265625
3056		-66.406250
3057		-70.312500
3058		-64.453125
3059		-66.406250
3060		-62.500000
3061		-64.453125
3062		-58.593750
3063		-62.500000
3064		-56.640625
3065		-60.546875
3066		-52.734375
3067		-58.593750
3068		-50.781250
3069		-56.640625
3070		-48.828125
3071		-52.734375
3072		-44.921875
3073		-48.828125
3074		-42.968750
3075		-46.875000
3076		-41.015625
3077		-42.968750
3078		-39.062500
3079		-41.015625
3080		-35.156250
3081		-39.062500
3082		-31.250000
3083		-37.109375
3084		-29.296875
3085		-33.203125
3086		-25.390625
3087		-31.250000
3088		-23.437500
3089		-27.343750
3090		-19.531250
3091		-25.390625
3092		-19.531250
3093		-21.484375
3094		-15.625000
3095		-17.578125
3096		-11.718750
3097		-15.625000
3098		-7.812500
3099		-13.671875
3100		-5.859375
3101		-9.765625
3102		-1.953125
3103		-7.812500
3104		0.000000
3105		-5.859375
3106		3.906250
3107		-1.953125
3108		5.859375
3109		3.906250
3110		7.812500
3111		5.859375
3112		11.718750
3113		7.812500
3114		15.625000
3115		9.765625
3116		17.578125
3117		13.671875
3118		21.484375
3119		15.625000
3120		25.390625
3121		19.531250
3122		25.390625
3123		21.484375
3124		29.296875
3125		27.343750
3126		31.250000
3127		29.296875
3128		33.203125
3129		31.250000
3130		37.109375
3131		31.250000
3132		41.015625
3133		35.156250
3134		42.968750
3135		39.062500
3136		46.875000
3137		41.015625
3138		48.828125
3139		42.968750
3140		50.781250
3141		46.875000
3142		52.734375
3143		50.781250
3144		54.687500
3145		52.734375
3146		58.593750
3147		52.734375
3148		62.500000
3149		56.640625
3150		64.453125
3151		58.593750
3152		66.406250
3153		60.546875
3154		68.359375
3155		64.453125
3156		70.312500
3157		66.406250
3158		72.265625
3159		70.312500
3160		72.265625
3161		72.265625
3162		76.171875
3163		72.265625
3164		80.078125
3165		74.218750
3166		82.031250
3167		76.171875
3168		83.984375
3169		78.125000
3170		85.937500
3171		80.078125
3172		87.890625
3173		82.031250
3174		89.843750
3175		83.984375
3176		89.843750
3177		87.890625
3178		91.796875
3179		87.890625
3180		93.750000
3181		87.890625
3182		95.703125
3183		89.843750
3184		97.656250
3185		91.796875
3186		99.609375
3187		93.750000
3188		99.609375
3189		93.750000
3190		101.562500
3191		95.703125
3192		103.515625
3193		99.609375
3194		103.515625
3195		101.562500
3196		105.468750
3197		99.609375
3198		107.421875
3199		101.562500
3200		107.421875
3201		101.562500
3202		109.375000
3203		103.515625
3204		111.328125
3205		103.515625
3206		111.328125
3207		105.468750
3208		113.281250
3209		107.421875
3210		111.328125
3211		109.375000
3212		111.328125
3213		107.421875
3214		113.281250
3215		107.421875
3216		115.234375
3217		109.375000
3218		115.234375
3219		109.375000
3220		115.234375
3221		109.375000
3222		115.234375
3223		109.375000
3224		117.187500
3225		109.375000
3226		117.187500
3227		113.281250
3228		115.234375
3229		111.328125
3230		117.187500
3231		111.328125
3232		117.187500
3233		111.328125
3234		117.187500
3235		111.328125
3236		117.187500
3237		111.328125
3238		117.187500
3239		111.328125
3240		117.187500
3241		111.328125
3242		117.187500
3243		113.281250
3244		115.234375
3245		111.328125
3246		115.234375
3247		109.375000
3248		115.234375
3249		109.375000
3250		115.234375
3251		109.375000
3252		115.234375
3253		107.421875
3254		115.234375
3255		107.421875
3256		113.281250
3257		107.421875
3258		113.281250
3259		107.421875
3260		113.281250
3261		107.421875
3262		109.375000
3263		105.468750
3264		109.375000
3265		103.515625
3266		111.328125
3267		101.562500
3268		109.375000
3269		101.562500
3270		107.421875
3271		99.609375
3272		107.421875
3273		97.656250
3274		105.468750
3275		97.656250
3276		105.468750
3277		97.656250
3278		101.562500
3279		97.656250
3280		99.609375
3281		93.750000
3282		101.562500
3283		91.796875
3284		99.609375
3285		89.843750
3286		97.656250
3287		87.890625
3288		95.703125
3289		85.937500
3290		93.750000
3291		83.984375
3292		91.796875
3293		85.937500
3294		89.843750
3295		82.031250
3296		85.937500
3297		80.078125
3298		85.937500
3299		76.171875
3300		83.984375
3301		74.218750
3302		82.031250
3303		72.265625
3304		80.078125
3305		70.312500
3306		80.078125
3307		68.359375
3308		76.171875
3309		66.406250
3310		74.218750
3311		66.406250
3312		70.312500
3313		64.453125
3314		68.359375
3315		58.593750
3316		66.406250
3317		56.640625
3318		64.453125
3319		54.687500
3320		62.500000
3321		52.734375
3322		60.546875
3323		48.828125
3324		56.640625
3325		46.875000
3326		54.687500
3327		44.921875
3328		50.781250
3329		42.968750
3330		46.875000
3331		39.062500
3332		44.921875
3333		37.109375
3334		44.921875
3335		33.203125
3336		41.015625
3337		29.296875
3338		39.062500
3339		27.343750
3340		35.156250
3341		25.390625
3342		33.203125
3343		23.437500
3344		29.296875
3345		21.484375
3346		25.390625
3347		15.625000
3348		21.484375
3349		13.671875
3350		21.484375
3351		9.765625
3352		19.531250
3353		5.859375
3354		15.625000
3355		3.906250
3356		11.718750
3357		0.000000
3358		9.765625
3359		0.000000
3360		5.859375
3361		-3.906250
3362		1.953125
3363		-5.859375
3364		-1.953125
3365		-9.765625
3366		-1.953125
3367		-13.671875
3368		-3.906250
3369		-15.625000
3370		-7.812500
3371		-19.531250
3372		-11.718750
3373		-23.437500
3374		-13.671875
3375		-25.390625
3376		-17.578125
3377		-25.390625
3378		-19.531250
3379		-29.296875
3380		-25.390625
3381		-35.156250
3382		-27.343750
3383		-37.109375
3384		-29.296875
3385		-39.062500
3386		-31.250000
3387		-42.968750
3388		-35.156250
3389		-44.921875
3390		-37.109375
3391		-46.875000
3392		-41.015625
3393		-48.828125
3394		-42.968750
3395		-50.781250
3396		-46.875000
3397		-54.687500
3398		-48.828125
3399		-58.593750
3400		-50.781250
3401		-62.500000
3402		-52.734375
3403		-64.453125
3404		-54.687500
3405		-66.406250
3406		-58.593750
3407		-66.406250
3408		-60.546875
3409		-70.312500
3410		-62.500000
3411		-70.312500
3412		-66.406250
3413		-72.265625
3414		-68.359375
3415		-76.171875
3416		-70.312500
3417		-78.125000
3418		-72.265625
3419		-80.078125
3420		-74.218750
3421		-82.031250
3422		-76.171875
3423		-83.984375
3424		-78.125000
3425		-85.937500
3426		-80.078125
3427		-85.937500
3428		-82.031250
3429		-87.890625
3430		-83.984375
3431		-91.796875
3432		-85.937500
3433		-93.750000
3434		-85.937500
3435		-93.750000
3436		-87.890625
3437		-95.703125
3438		-89.843750
3439		-97.656250
3440		-89.843750
3441		-99.609375
3442		-91.796875
3443		-99.609375
3444		-91.796875
3445		-97.656250
3446		-95.703125
3447		-99.609375
3448		-97.656250
3449		-103.515625
3450		-95.703125
3451		-103.515625
3452		-97.656250
3453		-103.515625
3454		-97.656250
3455		-105.468750
3456		-97.656250
3457		-105.468750
3458		-99.609375
3459		-105.468750
3460		-99.609375
3461		-105.468750
3462		-101.562500
3463		-105.468750
3464		-101.562500
3465		-107.421875
3466		-101.562500
3467		-107.421875
3468		-101.562500
3469		-107.421875
3470		-101.562500
3471		-107.421875
3472		-101.562500
3473		-107.421875
3474		-101.562500
3475		-107.421875
3476		-99.609375
3477		-105.468750
3478		-99.609375
3479		-103.515625
3480		-101.562500
3481		-103.515625
3482		-99.609375
3483		-105.468750
3484		-97.656250
3485		-105.468750
3486		-97.656250
3487		-103.515625
3488		-97.656250
3489		-103.515625
3490		-95.703125
3491		-101.562500
3492		-95.703125
3493		-101.562500
3494		-93.750000
3495		-97.656250
3496		-95.703125
3497		-97.656250
3498		-93.750000
3499		-95.703125
3500		-89.843750
3501		-95.703125
3502		-89.843750
3503		-95.703125
3504		-87.890625
3505		-93.750000
3506		-85.937500
3507		-91.796875
3508		-83.984375
3509		-89.843750
3510		-83.984375
3511		-89.843750
3512		-82.031250
3513		-85.937500
3514		-82.031250
3515		-83.984375
3516		-78.125000
3517		-83.984375
3518		-76.171875
3519		-82.031250
3520		-74.218750
3521		-80.078125
3522		-72.265625
3523		-76.171875
3524		-68.359375
3525		-76.171875
3526		-66.406250
3527		-72.265625
3528		-64.453125
3529		-68.359375
3530		-64.453125
3531		-66.406250
3532		-62.500000
3533		-64.453125
3534		-56.640625
3535		-62.500000
3536		-54.687500
3537		-60.546875
3538		-52.734375
3539		-58.593750
3540		-50.781250
3541		-56.640625
3542		-46.875000
3543		-52.734375
3544		-44.921875
3545		-50.781250
3546		-42.968750
3547		-44.921875
3548		-41.015625
3549		-42.968750
3550		-37.109375
3551		-41.015625
3552		-33.203125
3553		-39.062500
3554		-31.250000
3555		-37.109375
3556		-29.296875
3557		-33.203125
3558		-25.390625
3559		-29.296875
3560		-21.484375
3561		-27.343750
3562		-21.484375
3563		-23.437500
3564		-17.578125
3565		-19.531250
3566		-13.671875
3567		-17.578125
3568		-9.765625
3569		-15.625000
3570		-7.812500
3571		-11.718750
3572		-5.859375
3573		-9.765625
3574		-1.953125
3575		-5.859375
3576		0.000000
3577		-3.906250
3578		3.906250
3579		0.000000
3580		5.859375
3581		3.906250
3582		7.812500
3583		5.859375
3584		11.718750
3585		7.812500
3586		15.625000
3587		9.765625
3588		19.531250
3589		13.671875
3590		21.484375
3591		15.625000
3592		23.437500
3593		19.531250
3594		27.343750
3595		21.484375
3596		29.296875
3597		27.343750
3598		31.250000
3599		29.296875
3600		35.156250
3601		31.250000
3602		39.062500
3603		33.203125
3604		41.015625
3605		37.109375
3606		44.921875
3607		39.062500
3608		46.875000
3609		41.015625
3610		48.828125
3611		42.968750
3612		50.781250
3613		48.828125
3614		52.734375
3615		50.781250
3616		56.640625
3617		52.734375
3618		58.593750
3619		52.734375
3620		62.500000
3621		56.640625
3622		64.453125
3623		58.593750
3624		66.406250
3625		62.500000
3626		68.359375
3627		64.453125
3628		72.265625
3629		66.406250
3630		72.265625
3631		70.312500
3632		74.218750
3633		72.265625
3634		78.125000
3635		72.265625
3636		80.078125
3637		74.218750
3638		82.031250
3639		76.171875
3640		83.984375
3641		78.125000
3642		85.937500
3643		82.031250
3644		87.890625
3645		82.031250
3646		87.890625
3647		85.937500
3648		89.843750
3649		87.890625
3650		91.796875
3651		87.890625
3652		93.750000
3653		89.843750
3654		95.703125
3655		91.796875
3656		97.656250
3657		91.796875
3658		99.609375
3659		93.750000
3660		101.562500
3661		93.750000
3662		103.515625
3663		97.656250
3664		101.562500
3665		99.609375
3666		103.515625
3667		99.609375
3668		105.468750
3669		99.609375
3670		107.421875
3671		101.562500
3672		107.421875
3673		101.562500
3674		109.375000
3675		103.515625
3676		109.375000
3677		103.515625
3678		111.328125
3679		105.468750
3680		111.328125
3681		107.421875
3682		111.328125
3683		107.421875
3684		113.281250
3685		107.421875
3686		113.281250
3687		107.421875
3688		115.234375
3689		107.421875
3690		115.234375
3691		109.375000
3692		115.234375
3693		109.375000
3694		115.234375
3695		109.375000
3696		117.187500
3697		113.281250
3698		115.234375
3699		113.281250
3700		115.234375
3701		111.328125
3702		117.187500
3703		111.328125
3704		117.187500
3705		111.328125
3706		117.187500
3707		111.328125
3708		117.187500
3709		111.328125
3710		117.187500
3711		109.375000
3712		117.187500
3713		111.328125
3714		117.187500
3715		111.328125
3716		115.234375
3717		111.328125
3718		115.234375
3719		109.375000
3720		115.234375
3721		109.375000
3722		115.234375
3723		107.421875
3724		115.234375
3725		107.421875
3726		115.234375
3727		107.421875
3728		113.281250
3729		105.468750
3730		113.281250
3731		107.421875
3732		109.375000
3733		105.468750
3734		109.375000
3735		103.515625
3736		111.328125
3737		103.515625
3738		109.375000
3739		101.562500
3740		107.421875
3741		99.609375
3742		107.421875
3743		99.609375
3744		105.468750
3745		97.656250
3746		105.468750
3747		99.609375
3748		101.562500
3749		97.656250
3750		99.609375
3751		93.750000
3752		99.609375
3753		91.796875
3754		99.609375
3755		91.796875
3756		97.656250
3757		89.843750
3758		97.656250
3759		87.890625
3760		95.703125
3761		85.937500
3762		93.750000
3763		85.937500
3764		91.796875
3765		83.984375
3766		87.890625
3767		82.031250
3768		85.937500
3769		78.125000
3770		85.937500
3771		76.171875
3772		83.984375
3773		74.218750
3774		82.031250
3775		72.265625
3776		80.078125
3777		70.312500
3778		78.125000
3779		68.359375
3780		76.171875
3781		68.359375
3782		72.265625
3783		64.453125
3784		68.359375
3785		60.546875
3786		68.359375
3787		58.593750
3788		66.406250
3789		56.640625
3790		64.453125
3791		54.687500
3792		60.546875
3793		50.781250
3794		58.593750
3795		48.828125
3796		56.640625
3797		46.875000
3798		54.687500
3799		44.921875
3800		48.828125
3801		39.062500
3802		46.875000
3803		37.109375
3804		44.921875
3805		35.156250
3806		42.968750
3807		31.250000
3808		39.062500
3809		29.296875
3810		37.109375
3811		27.343750
3812		35.156250
3813		25.390625
3814		31.250000
3815		21.484375
3816		27.343750
3817		19.531250
3818		25.390625
3819		15.625000
3820		23.437500
3821		11.718750
3822		19.531250
3823		7.812500
3824		17.578125
3825		5.859375
3826		13.671875
3827		3.906250
3828		11.718750
3829		0.000000
3830		7.812500
3831		-1.953125
3832		3.906250
3833		-3.906250
3834		0.000000
3835		-9.765625
3836		-1.953125
3837		-11.718750
3838		-3.906250
3839		-15.625000
3840		-7.812500
3841		-17.578125
3842		-9.765625
3843		-21.484375
3844		-11.718750
3845		-23.437500
3846		-15.625000
3847		-25.390625
3848		-19.531250
3849		-27.343750
3850		-23.437500
3851		-31.250000
3852		-25.390625
3853		-35.156250
3854		-27.343750
3855		-39.062500
3856		-31.250000
3857		-39.062500
3858		-33.203125
3859		-42.968750
3860		-35.156250
3861		-46.875000
3862		-39.062500
3863		-48.828125
3864		-42.968750
3865		-48.828125
3866		-44.921875
3867		-52.734375
3868		-48.828125
3869		-56.640625
3870		-50.781250
3871		-58.593750
3872		-52.734375
3873		-60.546875
3874		-54.687500
3875		-64.453125
3876		-56.640625
3877		-66.406250
3878		-58.593750
3879		-68.359375
3880		-60.546875
3881		-70.312500
3882		-64.453125
3883		-72.265625
3884		-68.359375
3885		-76.171875
3886		-70.312500
3887		-76.171875
3888		-70.312500
3889		-80.078125
3890		-72.265625
3891		-82.031250
3892		-74.218750
3893		-83.984375
3894		-76.171875
3895		-85.937500
3896		-78.125000
3897		-85.937500
3898		-80.078125
3899		-87.890625
3900		-83.984375
3901		-87.890625
3902		-85.937500
3903		-91.796875
3904		-85.937500
3905		-93.750000
3906		-85.937500
3907		-95.703125
3908		-87.890625
3909		-97.656250
3910		-89.843750
3911		-97.656250
3912		-91.796875
3913		-99.609375
3914		-91.796875
3915		-97.656250
3916		-95.703125
3917		-99.609375
3918		-95.703125
3919		-101.562500
3920		-95.703125
3921		-103.515625
3922		-95.703125
3923		-105.468750
3924		-97.656250
3925		-105.468750
3926		-97.656250
3927		-105.468750
3928		-99.609375
3929		-107.421875
3930		-99.609375
3931		-107.421875
3932		-99.609375
3933		-105.468750
3934		-103.515625
3935		-105.468750
3936		-101.562500
3937		-107.421875
3938		-101.562500
3939		-107.421875
3940		-101.562500
3941		-107.421875
3942		-101.562500
3943		-107.421875
3944		-101.562500
3945		-107.421875
3946		-101.562500
3947		-107.421875
3948		-99.609375
3949		-103.515625
3950		-101.562500
3951		-103.515625
3952		-101.562500
3953		-105.468750
3954		-99.609375
3955		-105.468750
3956		-99.609375
3957		-105.468750
3958		-97.656250
3959		-103.515625
3960		-97.656250
3961		-103.515625
3962		-95.703125
3963		-101.562500
3964		-95.703125
3965		-101.562500
3966		-95.703125
3967		-97.656250
3968		-95.703125
3969		-97.656250
3970		-91.796875
3971		-97.656250
3972		-89.843750
3973		-95.703125
3974		-89.843750
3975		-95.703125
3976		-87.890625
3977		-93.750000
3978		-85.937500
3979		-91.796875
3980		-83.984375
3981		-89.843750
3982		-83.984375
3983		-85.937500
3984		-83.984375
3985		-83.984375
3986		-82.031250
3987		-83.984375
3988		-78.125000
3989		-83.984375
3990		-76.171875
3991		-80.078125
3992		-74.218750
3993		-78.125000
3994		-72.265625
3995		-78.125000
3996		-70.312500
3997		-74.218750
3998		-66.406250
3999		-72.265625
4000		-66.406250
4001		-68.359375
4002		-64.453125
4003		-66.406250
4004		-60.546875
4005		-66.406250
4006		-56.640625
4007		-62.500000
4008		-54.687500
4009		-60.546875
4010		-52.734375
4011		-56.640625
4012		-50.781250
4013		-54.687500
4014		-46.875000
4015		-52.734375
4016		-46.875000
4017		-48.828125
4018		-44.921875
4019		-44.921875
4020		-41.015625
4021		-44.921875
4022		-37.109375
4023		-42.968750
4024		-35.156250
4025		-39.062500
4026		-31.250000
4027		-37.109375
4028		-27.343750
4029		-33.203125
4030		-25.390625
4031		-31.250000
4032		-23.437500
4033		-25.390625
4034		-21.484375
4035		-23.437500
4036		-17.578125
4037		-21.484375
4038		-13.671875
4039		-17.578125
4040		-9.765625
4041		-15.625000
4042		-7.812500
4043		-13.671875
4044		-3.906250
4045		-7.812500
4046		-1.953125
4047		-7.812500
4048		1.953125
4049		-3.906250
4050		1.953125
4051		0.000000
4052		5.859375
4053		3.906250
4054		9.765625
4055		3.906250
4056		11.718750
4057		7.812500
4058		15.625000
4059		9.765625
4060		19.531250
4061		13.671875
4062		21.484375
4063		15.625000
4064		25.390625
4065		19.531250
4066		27.343750
4067		23.437500
4068		29.296875
4069		27.343750
4070		31.250000
4071		29.296875
4072		35.156250
4073		31.250000
4074		39.062500
4075		33.203125
4076		42.968750
4077		37.109375
4078		42.968750
4079		39.062500
4080		46.875000
4081		41.015625
4082		50.781250
4083		44.921875
4084		50.781250
4085		48.828125
4086		52.734375
4087		50.781250
4088		56.640625
4089		52.734375
4090		60.546875
4091		54.687500
4092		62.500000
4093		56.640625
4094		64.453125
4095		58.593750
4096		66.406250
4097		62.500000
4098		68.359375
4099		64.453125
4100		70.312500
4101		68.359375
4102		72.265625
4103		70.312500
4104		74.218750
4105		70.312500
4106		78.125000
4107		72.265625
4108		80.078125
4109		74.218750
4110		82.031250
4111		78.125000
4112		83.984375
4113		78.125000
4114		85.937500
4115		80.078125
4116		87.890625
4117		83.984375
4118		87.890625
4119		85.937500
4120		89.843750
4121		85.937500
4122		91.796875
4123		87.890625
4124		95.703125
4125		89.843750
4126		95.703125
4127		91.796875
4128		97.656250
4129		91.796875
4130		99.609375
4131		93.750000
4132		101.562500
4133		95.703125
4134		101.562500
4135		99.609375
4136		101.562500
4137		99.609375
4138		103.515625
4139		99.609375
4140		107.421875
4141		99.609375
4142		107.421875
4143		101.562500
4144		107.421875
4145		103.515625
4146		109.375000
4147		103.515625
4148		111.328125
4149		103.515625
4150		111.328125
4151		107.421875
4152		109.375000
4153		107.421875
4154		111.328125
4155		107.421875
4156		113.281250
4157		107.421875
4158		113.281250
4159		107.421875
4160		115.234375
4161		109.375000
4162		115.234375
4163		109.375000
4164		115.234375
4165		109.375000
4166		115.234375
4167		111.328125
4168		115.234375
4169		113.281250
4170		115.234375
4171		111.328125
4172		117.187500
4173		109.375000
4174		117.187500
4175		111.328125
4176		117.187500
4177		109.375000
4178		117.187500
4179		111.328125
4180		117.187500
4181		111.328125
4182		117.187500
4183		109.375000
4184		117.187500
4185		113.281250
4186		115.234375
4187		111.328125
4188		115.234375
4189		109.375000
4190		115.234375
4191		109.375000
4192		115.234375
4193		109.375000
4194		115.234375
4195		107.421875
4196		115.234375
4197		107.421875
4198		113.281250
4199		107.421875
4200		113.281250
4201		107.421875
4202		111.328125
4203		107.421875
4204		109.375000
4205		105.468750
4206		111.328125
4207		103.515625
4208		109.375000
4209		101.562500
4210		109.375000
4211		101.562500
4212		107.421875
4213		101.562500
4214		107.421875
4215		99.609375
4216		105.468750
4217		99.609375
4218		105.468750
4219		97.656250
4220		101.562500
4221		97.656250
4222		99.609375
4223		93.750000
4224		101.562500
4225		91.796875
4226		99.609375
4227		89.843750
4228		97.656250
4229		89.843750
4230		95.703125
4231		87.890625
4232		95.703125
4233		85.937500
4234		91.796875
4235		85.937500
4236		89.843750
4237		83.984375
4238		87.890625
4239		80.078125
4240		87.890625
4241		78.125000
4242		85.937500
4243		76.171875
4244		83.984375
4245		74.218750
4246		82.031250
4247		72.265625
4248		78.125000
4249		70.312500
4250		78.125000
4251		68.359375
4252		74.218750
4253		66.406250
4254		70.312500
4255		62.500000
4256		68.359375
4257		60.546875
4258		66.406250
4259		58.593750
4260		64.453125
4261		56.640625
4262		62.500000
4263		52.734375
4264		60.546875
4265		52.734375
4266		56.640625
4267		48.828125
4268		54.687500
4269		46.875000
4270		50.781250
4271		42.968750
4272		48.828125
4273		41.015625
4274		46.875000
4275		37.109375
4276		44.921875
4277		33.203125
4278		42.968750
4279		31.250000
4280		39.062500
4281		29.296875
4282		37.109375
4283		25.390625
4284		33.203125
4285		25.390625
4286		29.296875
4287		21.484375
4288		25.390625
4289		17.578125
4290		23.437500
4291		13.671875
4292		21.484375
4293		9.765625
4294		19.531250
4295		7.812500
4296		15.625000
4297		5.859375
4298		13.671875
4299		1.953125
4300		9.765625
4301		1.953125
4302		7.812500
4303		-1.953125
4304		1.953125
4305		-5.859375
4306		0.000000
4307		-9.765625
4308		0.000000
4309		-11.718750
4310		-3.906250
4311		-13.671875
4312		-7.812500
4313		-17.578125
4314		-9.765625
4315		-21.484375
4316		-13.671875
4317		-23.437500
4318		-15.625000
4319		-25.390625
4320		-21.484375
4321		-29.296875
4322		-23.437500
4323		-33.203125
4324		-25.390625
4325		-35.156250
4326		-27.343750
4327		-37.109375
4328		-31.250000
4329		-41.015625
4330		-33.203125
4331		-44.921875
4332		-35.156250
4333		-44.921875
4334		-39.062500
4335		-46.875000
4336		-42.968750
4337		-50.781250
4338		-44.921875
4339		-54.687500
4340		-48.828125
4341		-56.640625
4342		-48.828125
4343		-58.593750
4344		-52.734375
4345		-62.500000
4346		-54.687500
4347		-64.453125
4348		-58.593750
4349		-66.406250
4350		-60.546875
4351		-68.359375
4352		-64.453125
4353		-70.312500
4354		-66.406250
4355		-72.265625
4356		-68.359375
4357		-76.171875
4358		-68.359375
4359		-78.125000
4360		-70.312500
4361		-80.078125
4362		-72.265625
4363		-80.078125
4364		-76.171875
4365		-83.984375
4366		-78.125000
4367		-85.937500
4368		-80.078125
4369		-85.937500
4370		-82.031250
4371		-87.890625
4372		-83.984375
4373		-91.796875
4374		-83.984375
4375		-91.796875
4376		-85.937500
4377		-95.703125
4378		-87.890625
4379		-93.750000
4380		-89.843750
4381		-95.703125
4382		-91.796875
4383		-97.656250
4384		-93.750000
4385		-97.656250
4386		-93.750000
4387		-99.609375
4388		-95.703125
4389		-101.562500
4390		-97.656250
4391		-103.515625
4392		-95.703125
4393		-103.515625
4394		-97.656250
4395		-101.562500
4396		-99.609375
4397		-103.515625
4398		-99.609375
4399		-103.515625
4400		-101.562500
4401		-105.468750
4402		-101.562500
4403		-105.468750
4404		-101.562500
4405		-105.468750
4406		-101.562500
4407		-105.468750
4408		-101.562500
4409		-107.421875
4410		-101.562500
4411		-107.421875
4412		-101.562500
4413		-105.468750
4414		-103.515625
4415		-105.468750
4416		-103.515625
4417		-105.468750
4418		-103.515625
4419		-107.421875
4420		-101.562500
4421		-105.468750
4422		-101.562500
4423		-105.468750
4424		-101.562500
4425		-103.515625
4426		-101.562500
4427		-105.468750
4428		-99.609375
4429		-103.515625
4430		-99.609375
4431		-101.562500
4432		-99.609375
4433		-101.562500
4434		-97.656250
4435		-99.609375
4436		-97.656250
4437		-99.609375
4438		-95.703125
4439		-97.656250
4440		-95.703125
4441		-97.656250
4442		-93.750000
4443		-95.703125
4444		-89.843750
4445		-93.750000
4446		-89.843750
4447		-91.796875
4448		-89.843750
4449		-91.796875
4450		-87.890625
4451		-89.843750
4452		-85.937500
4453		-87.890625
4454		-83.984375
4455		-85.937500
4456		-83.984375
4457		-85.937500
4458		-80.078125
4459		-82.031250
4460		-78.125000
4461		-80.078125
4462		-76.171875
4463		-80.078125
4464		-74.218750
4465		-76.171875
4466		-72.265625
4467		-74.218750
4468		-70.312500
4469		-72.265625
4470		-68.359375
4471		-70.312500
4472		-66.406250
4473		-68.359375
4474		-62.500000
4475		-66.406250
4476		-60.546875
4477		-62.500000
4478		-58.593750
4479		-60.546875
4480		-56.640625
4481		-58.593750
4482		-52.734375
4483		-54.687500
4484		-50.781250
4485		-52.734375
4486		-48.828125
4487		-50.781250
4488		-44.921875
4489		-46.875000
4490		-42.968750
4491		-44.921875
4492		-41.015625
4493		-41.015625
4494		-37.109375
4495		-39.062500
4496		-35.156250
4497		-37.109375
4498		-31.250000
4499		-33.203125
4500		-29.296875
4501		-31.250000
4502		-25.390625
4503		-27.343750
4504		-23.437500
4505		-25.390625
4506		-19.531250
4507		-21.484375
4508		-17.578125
4509		-19.531250
4510		-13.671875
4511		-15.625000
4512		-11.718750
4513		-13.671875
4514		-9.765625
4515		-9.765625
4516		-5.859375
4517		-7.812500
4518		-1.953125
4519		-3.906250
4520		0.000000
4521		-1.953125
4522		3.906250
4523		1.953125
4524		5.859375
4525		3.906250
4526		9.765625
4527		7.812500
4528		11.718750
4529		9.765625
4530		15.625000
4531		13.671875
4532		17.578125
4533		15.625000
4534		21.484375
4535		19.531250
4536		23.437500
4537		21.484375
4538		25.390625
4539		25.390625
4540		29.296875
4541		27.343750
4542		33.203125
4543		29.296875
4544		37.109375
4545		33.203125
4546		37.109375
4547		37.109375
4548		41.015625
4549		39.062500
4550		42.968750
4551		41.015625
4552		44.921875
4553		42.968750
4554		48.828125
4555		46.875000
4556		50.781250
4557		48.828125
4558		54.687500
4559		52.734375
4560		56.640625
4561		54.687500
4562		58.593750
4563		56.640625
4564		60.546875
4565		58.593750
4566		62.500000
4567		62.500000
4568		66.406250
4569		64.453125
4570		68.359375
4571		66.406250
4572		70.312500
4573		68.359375
4574		72.265625
4575		70.312500
4576		76.171875
4577		72.265625
4578		76.171875
4579		74.218750
4580		80.078125
4581		78.125000
4582		80.078125
4583		78.125000
4584		82.031250
4585		80.078125
4586		85.937500
4587		82.031250
4588		85.937500
4589		83.984375
4590		87.890625
4591		85.937500
4592		89.843750
4593		87.890625
4594		91.796875
4595		89.843750
4596		93.750000
4597		91.796875
4598		95.703125
4599		93.750000
4600		95.703125
4601		93.750000
4602		97.656250
4603		95.703125
4604		99.609375
4605		97.656250
4606		101.562500
4607		99.609375
4608		101.562500
4609		99.609375
4610		103.515625
4611		101.562500
4612		105.468750
4613		103.515625
4614		105.468750
4615		103.515625
4616		107.421875
4617		103.515625
4618		107.421875
4619		105.468750
4620		109.375000
4621		105.468750
4622		109.375000
4623		107.421875
4624		109.375000
4625		107.421875
4626		111.328125
4627		107.421875
4628		111.328125
4629		109.375000
4630		113.281250
4631		109.375000
4632		113.281250
4633		109.375000
4634		113.281250
4635		111.328125
4636		113.281250
4637		111.328125
4638		115.234375
4639		111.328125
4640		115.234375
4641		111.328125
4642		115.234375
4643		111.328125
4644		115.234375
4645		111.328125
4646		115.234375
4647		113.281250
4648		115.234375
4649		113.281250
4650		115.234375
4651		113.281250
4652		115.234375
4653		111.328125
4654		115.234375
4655		113.281250
4656		115.234375
4657		111.328125
4658		115.234375
4659		111.328125
4660		115.234375
4661		111.328125
4662		113.281250
4663		111.328125
4664		113.281250
4665		111.328125
4666		113.281250
4667		109.375000
4668		113.281250
4669		109.375000
4670		111.328125
4671		107.421875
4672		111.328125
4673		107.421875
4674		111.328125
4675		105.468750
4676		111.328125
4677		105.468750
4678		109.375000
4679		105.468750
4680		109.375000
4681		103.515625
4682		107.421875
4683		103.515625
4684		105.468750
4685		101.562500
4686		105.468750
4687		99.609375
4688		103.515625
4689		99.609375
4690		101.562500
4691		97.656250
4692		101.562500
4693		95.703125
4694		99.609375
4695		95.703125
4696		99.609375
4697		93.750000
4698		97.656250
4699		91.796875
4700		95.703125
4701		89.843750
4702		93.750000
4703		87.890625
4704		91.796875
4705		85.937500
4706		91.796875
4707		85.937500
4708		87.890625
4709		83.984375
4710		87.890625
4711		82.031250
4712		85.937500
4713		78.125000
4714		82.031250
4715		76.171875
4716		82.031250
4717		76.171875
4718		78.125000
4719		72.265625
4720		76.171875
4721		70.312500
4722		74.218750
4723		68.359375
4724		72.265625
4725		64.453125
4726		70.312500
4727		62.500000
4728		68.359375
4729		60.546875
4730		66.406250
4731		58.593750
4732		62.500000
4733		56.640625
4734		60.546875
4735		52.734375
4736		58.593750
4737		50.781250
4738		54.687500
4739		48.828125
4740		52.734375
4741		44.921875
4742		50.781250
4743		42.968750
4744		48.828125
4745		41.015625
4746		44.921875
4747		37.109375
4748		42.968750
4749		35.156250
4750		39.062500
4751		31.250000
4752		37.109375
4753		29.296875
4754		33.203125
4755		25.390625
4756		31.250000
4757		23.437500
4758		27.343750
4759		19.531250
4760		25.390625
4761		17.578125
4762		23.437500
4763		13.671875
4764		19.531250
4765		11.718750
4766		15.625000
4767		7.812500
4768		13.671875
4769		5.859375
4770		11.718750
4771		1.953125
4772		7.812500
4773		0.000000
4774		3.906250
4775		-3.906250
4776		1.953125
4777		-5.859375
4778		0.000000
4779		-9.765625
4780		-3.906250
4781		-11.718750
4782		-7.812500
4783		-13.671875
4784		-9.765625
4785		-17.578125
4786		-13.671875
4787		-21.484375
4788		-15.625000
4789		-23.437500
4790		-17.578125
4791		-25.390625
4792		-21.484375
4793		-29.296875
4794		-25.390625
4795		-33.203125
4796		-27.343750
4797		-35.156250
4798		-31.250000
4799		-37.109375
4800		-33.203125
4801		-41.015625
4802		-35.156250
4803		-42.968750
4804		-39.062500
4805		-46.875000
4806		-41.015625
4807		-48.828125
4808		-44.921875
4809		-52.734375
4810		-46.875000
4811		-54.687500
4812		-48.828125
4813		-56.640625
4814		-52.734375
4815		-58.593750
4816		-54.687500
4817		-60.546875
4818		-56.640625
4819		-64.453125
4820		-58.593750
4821		-66.406250
4822		-62.500000
4823		-68.359375
4824		-64.453125
4825		-70.312500
4826		-66.406250
4827		-74.218750
4828		-68.359375
4829		-76.171875
4830		-70.312500
4831		-78.125000
4832		-72.265625
4833		-80.078125
4834		-76.171875
4835		-82.031250
4836		-78.125000
4837		-82.031250
4838		-80.078125
4839		-85.937500
4840		-80.078125
4841		-85.937500
4842		-83.984375
4843		-87.890625
4844		-83.984375
4845		-89.843750
4846		-85.937500
4847		-91.796875
4848		-87.890625
4849		-93.750000
4850		-89.843750
4851		-93.750000
4852		-91.796875
4853		-95.703125
4854		-91.796875
4855		-97.656250
4856		-93.750000
4857		-97.656250
4858		-95.703125
4859		-99.609375
4860		-95.703125
4861		-101.562500
4862		-97.656250
4863		-103.515625
4864		-97.656250
4865		-103.515625
4866		-99.609375
4867		-103.515625
4868		-99.609375
4869		-103.515625
4870		-101.562500
4871		-105.468750
4872		-101.562500
4873		-105.468750
4874		-101.562500
4875		-105.468750
4876		-101.562500
4877		-105.468750
4878		-101.562500
4879		-105.468750
4880		-103.515625
4881		-105.468750
4882		-103.515625
4883		-105.468750
4884		-103.515625
4885		-107.421875
4886		-103.515625
4887		-105.468750
4888		-103.515625
4889		-107.421875
4890		-103.515625
4891		-105.468750
4892		-103.515625
4893		-105.468750
4894		-101.562500
4895		-105.468750
4896		-101.562500
4897		-103.515625
4898		-101.562500
4899		-103.515625
4900		-101.562500
4901		-103.515625
4902		-99.609375
4903		-101.562500
4904		-97.656250
4905		-101.562500
4906		-97.656250
4907		-99.609375
4908		-97.656250
4909		-99.609375
4910		-95.703125
4911		-97.656250
4912		-93.750000
4913		-97.656250
4914		-93.750000
4915		-95.703125
4916		-91.796875
4917		-93.750000
4918		-89.843750
4919		-91.796875
4920		-87.890625
4921		-91.796875
4922		-87.890625
4923		-89.843750
4924		-85.937500
4925		-87.890625
4926		-83.984375
4927		-85.937500
4928		-82.031250
4929		-83.984375
4930		-80.078125
4931		-82.031250
4932		-78.125000
4933		-80.078125
4934		-76.171875
4935		-78.125000
4936		-74.218750
4937		-76.171875
4938		-72.265625
4939		-74.218750
4940		-70.312500
4941		-72.265625
4942		-68.359375
4943		-70.312500
4944		-66.406250
4945		-68.359375
4946		-62.500000
4947		-64.453125
4948		-60.546875
4949		-62.500000
4950		-58.593750
4951		-60.546875
4952		-56.640625
4953		-56.640625
4954		-52.734375
4955		-54.687500
4956		-48.828125
4957		-52.734375
4958		-48.828125
4959		-50.781250
4960		-44.921875
4961		-46.875000
4962		-42.968750
4963		-44.921875
4964		-39.062500
4965		-41.015625
4966		-37.109375
4967		-39.062500
4968		-33.203125
4969		-35.156250
4970		-31.250000
4971		-33.203125
4972		-27.343750
4973		-29.296875
4974		-25.390625
4975		-27.343750
4976		-23.437500
4977		-23.437500
4978		-19.531250
4979		-21.484375
4980		-17.578125
4981		-19.531250
4982		-13.671875
4983		-15.625000
4984		-11.718750
4985		-11.718750
4986		-7.812500
4987		-9.765625
4988		-3.906250
4989		-5.859375
4990		-1.953125
4991		-3.906250
4992		0.000000
4993		0.000000
4994		3.906250
4995		1.953125
4996		5.859375
4997		5.859375
4998		9.765625
4999		7.812500
5000		13.671875
5001		9.765625
5002		15.625000
5003		13.671875
5004		19.531250
5005		17.578125
5006		21.484375
5007		19.531250
5008		23.437500
5009		23.437500
5010		27.343750
5011		25.390625
5012		31.250000
5013		27.343750
5014		33.203125
5015		31.250000
5016		35.156250
5017		33.203125
5018		39.062500
5019		37.109375
5020		41.015625
5021		39.062500
5022		44.921875
5023		41.015625
5024		46.875000
5025		44.921875
5026		48.828125
5027		46.875000
5028		50.781250
5029		48.828125
5030		54.687500
5031		52.734375
5032		56.640625
5033		54.687500
5034		58.593750
5035		56.640625
5036		62.500000
5037		60.546875
5038		64.453125
5039		62.500000
5040		66.406250
5041		64.453125
5042		68.359375
5043		66.406250
5044		70.312500
5045		68.359375
5046		74.218750
5047		72.265625
5048		76.171875
5049		74.218750
5050		78.125000
5051		76.171875
5052		80.078125
5053		78.125000
5054		82.031250
5055		78.125000
5056		83.984375
5057		82.031250
5058		85.937500
5059		83.984375
5060		87.890625
5061		85.937500
5062		87.890625
5063		85.937500
5064		89.843750
5065		87.890625
5066		91.796875
5067		89.843750
5068		93.750000
5069		91.796875
5070		95.703125
5071		93.750000
5072		97.656250
5073		95.703125
5074		99.609375
5075		95.703125
5076		99.609375
5077		97.656250
5078		101.562500
5079		97.656250
5080		103.515625
5081		99.609375
5082		103.515625
5083		101.562500
5084		105.468750
5085		101.562500
5086		105.468750
5087		103.515625
5088		107.421875
5089		105.468750
5090		107.421875
5091		105.468750
5092		109.375000
5093		107.421875
5094		109.375000
5095		107.421875
5096		111.328125
5097		107.421875
5098		111.328125
5099		109.375000
5100		111.328125
5101		109.375000
5102		111.328125
5103		111.328125
5104		113.281250
5105		111.328125
5106		113.281250
5107		111.328125
5108		113.281250
5109		111.328125
5110		115.234375
5111		111.328125
5112		115.234375
5113		111.328125
5114		115.234375
5115		111.328125
5116		115.234375
5117		111.328125
5118		115.234375
5119		111.328125
5120		115.234375
5121		113.281250
5122		115.234375
5123		113.281250
5124		115.234375
5125		111.328125
5126		115.234375
5127		111.328125
5128		115.234375
5129		111.328125
5130		115.234375
5131		111.328125
5132		115.234375
5133		111.328125
5134		113.281250
5135		111.328125
5136		113.281250
5137		109.375000
5138		113.281250
5139		109.375000
5140		113.281250
5141		109.375000
5142		113.281250
5143		107.421875
5144		111.328125
5145		107.421875
5146		109.375000
5147		105.468750
5148		109.375000
5149		105.468750
5150		109.375000
5151		105.468750
5152		107.421875
5153		103.515625
5154		107.421875
5155		101.562500
5156		105.468750
5157		101.562500
5158		105.468750
5159		99.609375
5160		103.515625
5161		99.609375
5162		101.562500
5163		97.656250
5164		101.562500
5165		95.703125
5166		99.609375
5167		93.750000
5168		97.656250
5169		91.796875
5170		95.703125
5171		91.796875
5172		95.703125
5173		89.843750
5174		93.750000
5175		87.890625
5176		91.796875
5177		85.937500
5178		89.843750
5179		83.984375
5180		87.890625
5181		82.031250
5182		85.937500
5183		80.078125
5184		83.984375
5185		78.125000
5186		82.031250
5187		76.171875
5188		80.078125
5189		74.218750
5190		78.125000
5191		70.312500
5192		76.171875
5193		70.312500
5194		74.218750
5195		66.406250
5196		70.312500
5197		64.453125
5198		68.359375
5199		62.500000
5200		66.406250
5201		58.593750
5202		64.453125
5203		58.593750
5204		62.500000
5205		54.687500
5206		60.546875
5207		52.734375
5208		56.640625
5209		50.781250
5210		54.687500
5211		46.875000
5212		50.781250
5213		44.921875
5214		48.828125
5215		42.968750
5216		46.875000
5217		39.062500
5218		44.921875
5219		37.109375
5220		41.015625
5221		33.203125
5222		39.062500
5223		31.250000
5224		35.156250
5225		27.343750
5226		33.203125
5227		25.390625
5228		29.296875
5229		21.484375
5230		27.343750
5231		19.531250
5232		25.390625
5233		15.625000
5234		21.484375
5235		13.671875
5236		17.578125
5237		9.765625
5238		15.625000
5239		7.812500
5240		11.718750
5241		3.906250
5242		9.765625
5243		1.953125
5244		5.859375
5245		-1.953125
5246		3.906250
5247		-3.906250
5248		0.000000
5249		-7.812500
5250		-1.953125
5251		-9.765625
5252		-5.859375
5253		-13.671875
5254		-7.812500
5255		-15.625000
5256		-11.718750
5257		-19.531250
5258		-13.671875
5259		-21.484375
5260		-17.578125
5261		-25.390625
5262		-19.531250
5263		-29.296875
5264		-23.437500
5265		-31.250000
5266		-25.390625
5267		-33.203125
5268		-29.296875
5269		-37.109375
5270		-31.250000
5271		-39.062500
5272		-35.156250
5273		-42.968750
5274		-37.109375
5275		-44.921875
5276		-41.015625
5277		-46.875000
5278		-42.968750
5279		-50.781250
5280		-44.921875
5281		-52.734375
5282		-48.828125
5283		-54.687500
5284		-50.781250
5285		-58.593750
5286		-52.734375
5287		-60.546875
5288		-56.640625
5289		-62.500000
5290		-58.593750
5291		-64.453125
5292		-60.546875
5293		-66.406250
5294		-62.500000
5295		-70.312500
5296		-66.406250
5297		-72.265625
5298		-68.359375
5299		-74.218750
5300		-70.312500
5301		-76.171875
5302		-72.265625
5303		-78.125000
5304		-74.218750
5305		-80.078125
5306		-76.171875
5307		-82.031250
5308		-78.125000
5309		-83.984375
5310		-80.078125
5311		-85.937500
5312		-82.031250
5313		-87.890625
5314		-83.984375
5315		-89.843750
5316		-85.937500
5317		-91.796875
5318		-87.890625
5319		-91.796875
5320		-89.843750
5321		-93.750000
5322		-89.843750
5323		-95.703125
5324		-91.796875
5325		-97.656250
5326		-93.750000
5327		-97.656250
5328		-93.750000
5329		-99.609375
5330		-95.703125
5331		-99.609375
5332		-95.703125
5333		-101.562500
5334		-97.656250
5335		-103.515625
5336		-99.609375
5337		-103.515625
5338		-99.609375
5339		-103.515625
5340		-101.562500
5341		-103.515625
5342		-101.562500
5343		-105.468750
5344		-101.562500
5345		-105.468750
5346		-103.515625
5347		-105.468750
5348		-101.562500
5349		-105.468750
5350		-103.515625
5351		-105.468750
5352		-103.515625
5353		-109.375000
5354		-103.515625
5355		-105.468750
5356		-103.515625
5357		-107.421875
5358		-103.515625
5359		-107.421875
5360		-103.515625
5361		-105.468750
5362		-103.515625
5363		-105.468750
5364		-103.515625
5365		-105.468750
5366		-101.562500
5367		-105.468750
5368		-101.562500
5369		-103.515625
5370		-101.562500
5371		-103.515625
5372		-101.562500
5373		-103.515625
5374		-99.609375
5375		-101.562500
5376		-99.609375
5377		-101.562500
5378		-97.656250
5379		-99.609375
5380		-97.656250
5381		-99.609375
5382		-95.703125
5383		-97.656250
5384		-95.703125
5385		-97.656250
5386		-93.750000
5387		-95.703125
5388		-91.796875
5389		-93.750000
5390		-89.843750
5391		-93.750000
5392		-89.843750
5393		-91.796875
5394		-87.890625
5395		-89.843750
5396		-85.937500
5397		-87.890625
5398		-83.984375
5399		-85.937500
5400		-82.031250
5401		-83.984375
5402		-80.078125
5403		-82.031250
5404		-78.125000
5405		-80.078125
5406		-76.171875
5407		-78.125000
5408		-74.218750
5409		-78.125000
5410		-72.265625
5411		-74.218750
5412		-70.312500
5413		-72.265625
5414		-68.359375
5415		-70.312500
5416		-66.406250
5417		-66.406250
5418		-62.500000
5419		-64.453125
5420		-60.546875
5421		-62.500000
5422		-56.640625
5423		-60.546875
5424		-54.687500
5425		-56.640625
5426		-52.734375
5427		-54.687500
5428		-50.781250
5429		-52.734375
5430		-48.828125
5431		-48.828125
5432		-44.921875
5433		-46.875000
5434		-42.968750
5435		-44.921875
5436		-39.062500
5437		-41.015625
5438		-35.156250
5439		-39.062500
5440		-33.203125
5441		-35.156250
5442		-31.250000
5443		-33.203125
5444		-27.343750
5445		-29.296875
5446		-25.390625
5447		-27.343750
5448		-21.484375
5449		-23.437500
5450		-19.531250
5451		-21.484375
5452		-17.578125
5453		-17.578125
5454		-13.671875
5455		-15.625000
5456		-9.765625
5457		-11.718750
5458		-7.812500
5459		-9.765625
5460		-3.906250
5461		-7.812500
5462		-1.953125
5463		-3.906250
5464		1.953125
5465		0.000000
5466		3.906250
5467		1.953125
5468		7.812500
5469		5.859375
5470		9.765625
5471		7.812500
5472		13.671875
5473		11.718750
5474		15.625000
5475		13.671875
5476		19.531250
5477		17.578125
5478		21.484375
5479		19.531250
5480		25.390625
5481		23.437500
5482		27.343750
5483		25.390625
5484		31.250000
5485		29.296875
5486		33.203125
5487		31.250000
5488		35.156250
5489		33.203125
5490		39.062500
5491		37.109375
5492		41.015625
5493		39.062500
5494		44.921875
5495		42.968750
5496		46.875000
5497		44.921875
5498		48.828125
5499		46.875000
5500		52.734375
5501		50.781250
5502		54.687500
5503		52.734375
5504		56.640625
5505		54.687500
5506		60.546875
5507		58.593750
5508		62.500000
5509		60.546875
5510		64.453125
5511		62.500000
5512		66.406250
5513		64.453125
5514		68.359375
5515		66.406250
5516		72.265625
5517		68.359375
5518		72.265625
5519		72.265625
5520		76.171875
5521		74.218750
5522		78.125000
5523		76.171875
5524		80.078125
5525		78.125000
5526		82.031250
5527		80.078125
5528		83.984375
5529		82.031250
5530		85.937500
5531		83.984375
5532		87.890625
5533		85.937500
5534		89.843750
5535		85.937500
5536		89.843750
5537		87.890625
5538		91.796875
5539		89.843750
5540		93.750000
5541		91.796875
5542		95.703125
5543		93.750000
5544		97.656250
5545		93.750000
5546		97.656250
5547		95.703125
5548		99.609375
5549		97.656250
5550		101.562500
5551		99.609375
5552		103.515625
5553		99.609375
5554		103.515625
5555		101.562500
5556		103.515625
5557		101.562500
5558		105.468750
5559		103.515625
5560		107.421875
5561		103.515625
5562		107.421875
5563		105.468750
5564		107.421875
5565		107.421875
5566		109.375000
5567		105.468750
5568		111.328125
5569		107.421875
5570		111.328125
5571		109.375000
5572		111.328125
5573		109.375000
5574		113.281250
5575		109.375000
5576		111.328125
5577		109.375000
5578		113.281250
5579		109.375000
5580		113.281250
5581		111.328125
5582		113.281250
5583		111.328125
5584		115.234375
5585		111.328125
5586		115.234375
5587		111.328125
5588		115.234375
5589		111.328125
5590		115.234375
5591		111.328125
5592		115.234375
5593		111.328125
5594		115.234375
5595		111.328125
5596		115.234375
5597		111.328125
5598		113.281250
5599		111.328125
5600		115.234375
5601		111.328125
5602		115.234375
5603		109.375000
5604		113.281250
5605		109.375000
5606		113.281250
5607		109.375000
5608		113.281250
5609		109.375000
5610		113.281250
5611		107.421875
5612		111.328125
5613		109.375000
5614		111.328125
5615		107.421875
5616		109.375000
5617		105.468750
5618		109.375000
5619		105.468750
5620		109.375000
5621		103.515625
5622		107.421875
5623		103.515625
5624		107.421875
5625		103.515625
5626		105.468750
5627		101.562500
5628		105.468750
5629		101.562500
5630		105.468750
5631		99.609375
5632		101.562500
5633		95.703125
5634		101.562500
5635		95.703125
5636		99.609375
5637		95.703125
5638		99.609375
5639		93.750000
5640		97.656250
5641		91.796875
5642		95.703125
5643		89.843750
5644		93.750000
5645		87.890625
5646		91.796875
5647		87.890625
5648		89.843750
5649		85.937500
5650		89.843750
5651		83.984375
5652		87.890625
5653		80.078125
5654		83.984375
5655		80.078125
5656		83.984375
5657		76.171875
5658		80.078125
5659		74.218750
5660		78.125000
5661		72.265625
5662		76.171875
5663		70.312500
5664		74.218750
5665		68.359375
5666		72.265625
5667		66.406250
5668		70.312500
5669		64.453125
5670		68.359375
5671		60.546875
5672		66.406250
5673		58.593750
5674		62.500000
5675		56.640625
5676		60.546875
5677		54.687500
5678		58.593750
5679		50.781250
5680		54.687500
5681		48.828125
5682		52.734375
5683		46.875000
5684		50.781250
5685		42.968750
5686		48.828125
5687		41.015625
5688		44.921875
5689		37.109375
5690		42.968750
5691		35.156250
5692		39.062500
5693		31.250000
5694		37.109375
5695		29.296875
5696		33.203125
5697		27.343750
5698		31.250000
5699		23.437500
5700		29.296875
5701		21.484375
5702		25.390625
5703		17.578125
5704		23.437500
5705		15.625000
5706		19.531250
5707		11.718750
5708		17.578125
5709		9.765625
5710		13.671875
5711		5.859375
5712		11.718750
5713		3.906250
5714		7.812500
5715		0.000000
5716		5.859375
5717		-3.906250
5718		1.953125
5719		-5.859375
5720		0.000000
5721		-7.812500
5722		-3.906250
5723		-11.718750
5724		-5.859375
5725		-13.671875
5726		-9.765625
5727		-17.578125
5728		-11.718750
5729		-21.484375
5730		-15.625000
5731		-23.437500
5732		-19.531250
5733		-25.390625
5734		-21.484375
5735		-29.296875
5736		-25.390625
5737		-31.250000
5738		-27.343750
5739		-35.156250
5740		-29.296875
5741		-37.109375
5742		-33.203125
5743		-41.015625
5744		-35.156250
5745		-42.968750
5746		-39.062500
5747		-44.921875
5748		-41.015625
5749		-48.828125
5750		-42.968750
5751		-50.781250
5752		-46.875000
5753		-54.687500
5754		-48.828125
5755		-56.640625
5756		-50.781250
5757		-58.593750
5758		-54.687500
5759		-60.546875
5760		-56.640625
5761		-64.453125
5762		-58.593750
5763		-66.406250
5764		-62.500000
5765		-68.359375
5766		-64.453125
5767		-70.312500
5768		-66.406250
5769		-72.265625
5770		-68.359375
5771		-76.171875
5772		-70.312500
5773		-76.171875
5774		-72.265625
5775		-80.078125
5776		-74.218750
5777		-80.078125
5778		-78.125000
5779		-83.984375
5780		-78.125000
5781		-83.984375
5782		-80.078125
5783		-85.937500
5784		-82.031250
5785		-87.890625
5786		-83.984375
5787		-89.843750
5788		-85.937500
5789		-91.796875
5790		-87.890625
5791		-93.750000
5792		-89.843750
5793		-95.703125
5794		-91.796875
5795		-95.703125
5796		-91.796875
5797		-97.656250
5798		-93.750000
5799		-97.656250
5800		-95.703125
5801		-99.609375
5802		-95.703125
5803		-101.562500
5804		-95.703125
5805		-101.562500
5806		-97.656250
5807		-101.562500
5808		-99.609375
5809		-103.515625
5810		-99.609375
5811		-103.515625
5812		-99.609375
5813		-105.468750
5814		-101.562500
5815		-105.468750
5816		-101.562500
5817		-105.468750
5818		-101.562500
5819		-107.421875
5820		-101.562500
5821		-107.421875
5822		-103.515625
5823		-105.468750
5824		-101.562500
5825		-107.421875
5826		-101.562500
5827		-107.421875
5828		-103.515625
5829		-107.421875
5830		-103.515625
5831		-107.421875
5832		-103.515625
5833		-105.468750
5834		-103.515625
5835		-105.468750
5836		-101.562500
5837		-105.468750
5838		-101.562500
5839		-105.468750
5840		-101.562500
5841		-105.468750
5842		-101.562500
5843		-103.515625
5844		-99.609375
5845		-103.515625
5846		-99.609375
5847		-101.562500
5848		-97.656250
5849		-101.562500
5850		-97.656250
5851		-99.609375
5852		-95.703125
5853		-99.609375
5854		-95.703125
5855		-97.656250
5856		-93.750000
5857		-97.656250
5858		-93.750000
5859		-95.703125
5860		-89.843750
5861		-93.750000
5862		-89.843750
5863		-93.750000
5864		-87.890625
5865		-91.796875
5866		-87.890625
5867		-87.890625
5868		-85.937500
5869		-87.890625
5870		-82.031250
5871		-85.937500
5872		-80.078125
5873		-83.984375
5874		-80.078125
5875		-82.031250
5876		-76.171875
5877		-80.078125
5878		-74.218750
5879		-78.125000
5880		-72.265625
5881		-76.171875
5882		-70.312500
5883		-72.265625
5884		-68.359375
5885		-70.312500
5886		-66.406250
5887		-68.359375
5888		-62.500000
5889		-66.406250
5890		-60.546875
5891		-64.453125
5892		-58.593750
5893		-62.500000
5894		-56.640625
5895		-58.593750
5896		-52.734375
5897		-56.640625
5898		-50.781250
5899		-52.734375
5900		-48.828125
5901		-50.781250
5902		-46.875000
5903		-48.828125
5904		-42.968750
5905		-46.875000
5906		-41.015625
5907		-42.968750
5908		-37.109375
5909		-41.015625
5910		-35.156250
5911		-39.062500
5912		-33.203125
5913		-35.156250
5914		-29.296875
5915		-31.250000
5916		-27.343750
5917		-29.296875
5918		-23.437500
5919		-25.390625
5920		-19.531250
5921		-23.437500
5922		-17.578125
5923		-21.484375
5924		-13.671875
5925		-17.578125
5926		-11.718750
5927		-13.671875
5928		-7.812500
5929		-11.718750
5930		-5.859375
5931		-9.765625
5932		-3.906250
5933		-5.859375
5934		0.000000
5935		-1.953125
5936		1.953125
5937		0.000000
5938		5.859375
5939		3.906250
5940		7.812500
5941		5.859375
5942		11.718750
5943		9.765625
5944		13.671875
5945		13.671875
5946		17.578125
5947		15.625000
5948		19.531250
5949		17.578125
5950		23.437500
5951		21.484375
5952		25.390625
5953		23.437500
5954		29.296875
5955		27.343750
5956		31.250000
5957		29.296875
5958		33.203125
5959		33.203125
5960		37.109375
5961		35.156250
5962		39.062500
5963		37.109375
5964		42.968750
5965		41.015625
5966		44.921875
5967		42.968750
5968		46.875000
5969		46.875000
5970		50.781250
5971		48.828125
5972		52.734375
5973		50.781250
5974		54.687500
5975		52.734375
5976		58.593750
5977		56.640625
5978		60.546875
5979		58.593750
5980		62.500000
5981		60.546875
5982		64.453125
5983		64.453125
5984		66.406250
5985		66.406250
5986		70.312500
5987		68.359375
5988		72.265625
5989		70.312500
5990		74.218750
5991		72.265625
5992		76.171875
5993		74.218750
5994		78.125000
5995		76.171875
5996		80.078125
5997		78.125000
5998		82.031250
5999		80.078125
6000		83.984375
6001		82.031250
6002		85.937500
6003		83.984375
6004		87.890625
6005		85.937500
6006		89.843750
6007		87.890625
6008		91.796875
6009		89.843750
6010		93.750000
6011		91.796875
6012		93.750000
6013		91.796875
6014		95.703125
6015		93.750000
6016		97.656250
6017		95.703125
6018		99.609375
6019		97.656250
6020		99.609375
6021		97.656250
6022		101.562500
6023		99.609375
6024		103.515625
6025		101.562500
6026		103.515625
6027		101.562500
6028		105.468750
6029		103.515625
6030		105.468750
6031		103.515625
6032		107.421875
6033		105.468750
6034		107.421875
6035		105.468750
6036		109.375000
6037		103.515625
6038		113.281250
6039		105.468750
6040		113.281250
6041		105.468750
6042		115.234375
6043		109.375000
6044		111.328125
6045		109.375000
6046		111.328125
6047		109.375000
6048		113.281250
6049		111.328125
6050		113.281250
6051		111.328125
6052		113.281250
6053		109.375000
6054		117.187500
6055		109.375000
6056		117.187500
6057		109.375000
6058		117.187500
6059		109.375000
6060		117.187500
6061		113.281250
6062		115.234375
6063		111.328125
6064		115.234375
6065		111.328125
6066		115.234375
6067		113.281250
6068		115.234375
6069		111.328125
6070		115.234375
6071		109.375000
6072		117.187500
6073		109.375000
6074		117.187500
6075		109.375000
6076		117.187500
6077		111.328125
6078		113.281250
6079		111.328125
6080		113.281250
6081		109.375000
6082		111.328125
6083		109.375000
6084		111.328125
6085		109.375000
6086		111.328125
6087		105.468750
6088		113.281250
6089		103.515625
6090		113.281250
6091		103.515625
6092		111.328125
6093		103.515625
6094		111.328125
6095		103.515625
6096		107.421875
6097		103.515625
6098		105.468750
6099		101.562500
6100		105.468750
6101		99.609375
6102		103.515625
6103		99.609375
6104		101.562500
6105		95.703125
6106		103.515625
6107		93.750000
6108		103.515625
6109		91.796875
6110		101.562500
6111		93.750000
6112		95.703125
6113		91.796875
6114		95.703125
6115		89.843750
6116		93.750000
6117		87.890625
6118		91.796875
6119		85.937500
6120		89.843750
6121		82.031250
6122		89.843750
6123		80.078125
6124		89.843750
6125		78.125000
6126		87.890625
6127		78.125000
6128		82.031250
6129		76.171875
6130		80.078125
6131		74.218750
6132		78.125000
6133		72.265625
6134		76.171875
6135		70.312500
6136		74.218750
6137		66.406250
6138		74.218750
6139		64.453125
6140		72.265625
6141		60.546875
6142		70.312500
6143		58.593750
6144		68.359375
6145		58.593750
6146		62.500000
6147		56.640625
6148		60.546875
6149		54.687500
6150		58.593750
6151		50.781250
6152		54.687500
6153		48.828125
6154		52.734375
6155		44.921875
6156		52.734375
6157		41.015625
6158		48.828125
6159		39.062500
6160		46.875000
6161		37.109375
6162		42.968750
6163		35.156250
6164		39.062500
6165		31.250000
6166		37.109375
6167		29.296875
6168		33.203125
6169		25.390625
6170		31.250000
6171		21.484375
6172		29.296875
6173		17.578125
6174		29.296875
6175		15.625000
6176		25.390625
6177		13.671875
6178		23.437500
6179		11.718750
6180		15.625000
6181		9.765625
6182		13.671875
6183		5.859375
6184		9.765625
6185		3.906250
6186		7.812500
6187		0.000000
6188		3.906250
6189		-3.906250
6190		3.906250
6191		-7.812500
6192		1.953125
6193		-9.765625
6194		0.000000
6195		-11.718750
6196		-7.812500
6197		-15.625000
6198		-9.765625
6199		-17.578125
6200		-13.671875
6201		-19.531250
6202		-15.625000
6203		-23.437500
6204		-19.531250
6205		-29.296875
6206		-19.531250
6207		-33.203125
6208		-23.437500
6209		-35.156250
6210		-25.390625
6211		-35.156250
6212		-27.343750
6213		-37.109375
6214		-33.203125
6215		-41.015625
6216		-35.156250
6217		-42.968750
6218		-39.062500
6219		-46.875000
6220		-41.015625
6221		-48.828125
6222		-44.921875
6223		-52.734375
6224		-46.875000
6225		-54.687500
6226		-48.828125
6227		-56.640625
6228		-48.828125
6229		-58.593750
6230		-54.687500
6231		-62.500000
6232		-56.640625
6233		-64.453125
6234		-60.546875
6235		-66.406250
6236		-62.500000
6237		-68.359375
6238		-64.453125
6239		-70.312500
6240		-66.406250
6241		-76.171875
6242		-66.406250
6243		-76.171875
6244		-70.312500
6245		-78.125000
6246		-74.218750
6247		-80.078125
6248		-76.171875
6249		-82.031250
6250		-78.125000
6251		-83.984375
6252		-80.078125
6253		-85.937500
6254		-82.031250
6255		-87.890625
6256		-83.984375
6257		-89.843750
6258		-83.984375
6259		-91.796875
6260		-85.937500
6261		-91.796875
6262		-87.890625
6263		-93.750000
6264		-89.843750
6265		-95.703125
6266		-91.796875
6267		-95.703125
6268		-93.750000
6269		-97.656250
6270		-93.750000
6271		-97.656250
6272		-95.703125
6273		-99.609375
6274		-95.703125
6275		-99.609375
6276		-97.656250
6277		-101.562500
6278		-97.656250
6279		-101.562500
6280		-99.609375
6281		-103.515625
6282		-99.609375
6283		-105.468750
6284		-101.562500
6285		-103.515625
6286		-101.562500
6287		-105.468750
6288		-101.562500
6289		-105.468750
6290		-103.515625
6291		-105.468750
6292		-103.515625
6293		-105.468750
6294		-103.515625
6295		-105.468750
6296		-103.515625
6297		-105.468750
6298		-103.515625
6299		-105.468750
6300		-103.515625
6301		-105.468750
6302		-103.515625
6303		-105.468750
6304		-103.515625
6305		-105.468750
6306		-103.515625
6307		-105.468750
6308		-103.515625
6309		-105.468750
6310		-101.562500
6311		-103.515625
6312		-101.562500
6313		-103.515625
6314		-101.562500
6315		-103.515625
6316		-99.609375
6317		-101.562500
6318		-99.609375
6319		-101.562500
6320		-97.656250
6321		-99.609375
6322		-97.656250
6323		-99.609375
6324		-95.703125
6325		-97.656250
6326		-95.703125
6327		-97.656250
6328		-93.750000
6329		-95.703125
6330		-91.796875
6331		-95.703125
6332		-91.796875
6333		-93.750000
6334		-89.843750
6335		-91.796875
6336		-87.890625
6337		-89.843750
6338		-85.937500
6339		-87.890625
6340		-83.984375
6341		-87.890625
6342		-82.031250
6343		-83.984375
6344		-82.031250
6345		-82.031250
6346		-78.125000
6347		-82.031250
6348		-76.171875
6349		-78.125000
6350		-74.218750
6351		-76.171875
6352		-72.265625
6353		-74.218750
6354		-70.312500
6355		-74.218750
6356		-68.359375
6357		-72.265625
6358		-66.406250
6359		-68.359375
6360		-64.453125
6361		-64.453125
6362		-62.500000
6363		-62.500000
6364		-58.593750
6365		-60.546875
6366		-56.640625
6367		-58.593750
6368		-54.687500
6369		-54.687500
6370		-50.781250
6371		-52.734375
6372		-48.828125
6373		-50.781250
6374		-44.921875
6375		-46.875000
6376		-42.968750
6377		-44.921875
6378		-41.015625
6379		-41.015625
6380		-37.109375
6381		-39.062500
6382		-35.156250
6383		-37.109375
6384		-31.250000
6385		-33.203125
6386		-29.296875
6387		-31.250000
6388		-25.390625
6389		-27.343750
6390		-21.484375
6391		-25.390625
6392		-19.531250
6393		-21.484375
6394		-17.578125
6395		-19.531250
6396		-13.671875
6397		-15.625000
6398		-11.718750
6399		-13.671875
6400		-7.812500
6401		-9.765625
6402		-5.859375
6403		-7.812500
6404		-1.953125
6405		-3.906250
6406		0.000000
6407		-1.953125
6408		3.906250
6409		1.953125
6410		5.859375
6411		3.906250
6412		9.765625
6413		7.812500
6414		11.718750
6415		9.765625
6416		15.625000
6417		13.671875
6418		17.578125
6419		15.625000
6420		21.484375
6421		19.531250
6422		23.437500
6423		21.484375
6424		29.296875
6425		25.390625
6426		29.296875
6427		27.343750
6428		31.250000
6429		31.250000
6430		35.156250
6431		33.203125
6432		39.062500
6433		35.156250
6434		41.015625
6435		39.062500
6436		42.968750
6437		41.015625
6438		46.875000
6439		44.921875
6440		48.828125
6441		44.921875
6442		50.781250
6443		48.828125
6444		52.734375
6445		50.781250
6446		56.640625
6447		54.687500
6448		58.593750
6449		56.640625
6450		60.546875
6451		58.593750
6452		62.500000
6453		60.546875
6454		66.406250
6455		64.453125
6456		68.359375
6457		66.406250
6458		70.312500
6459		68.359375
6460		72.265625
6461		70.312500
6462		74.218750
6463		72.265625
6464		78.125000
6465		74.218750
6466		80.078125
6467		76.171875
6468		80.078125
6469		78.125000
6470		82.031250
6471		80.078125
6472		83.984375
6473		82.031250
6474		87.890625
6475		82.031250
6476		87.890625
6477		85.937500
6478		89.843750
6479		87.890625
6480		91.796875
6481		89.843750
6482		93.750000
6483		89.843750
6484		93.750000
6485		93.750000
6486		95.703125
6487		95.703125
6488		97.656250
6489		95.703125
6490		99.609375
6491		95.703125
6492		101.562500
6493		97.656250
6494		103.515625
6495		99.609375
6496		103.515625
6497		99.609375
6498		105.468750
6499		101.562500
6500		105.468750
6501		103.515625
6502		107.421875
6503		105.468750
6504		107.421875
6505		105.468750
6506		107.421875
6507		107.421875
6508		109.375000
6509		107.421875
6510		109.375000
6511		107.421875
6512		111.328125
6513		109.375000
6514		111.328125
6515		109.375000
6516		113.281250
6517		109.375000
6518		113.281250
6519		109.375000
6520		113.281250
6521		111.328125
6522		113.281250
6523		111.328125
6524		113.281250
6525		111.328125
6526		115.234375
6527		111.328125
6528		113.281250
6529		111.328125
6530		115.234375
6531		111.328125
6532		115.234375
6533		113.281250
6534		115.234375
6535		113.281250
6536		115.234375
6537		113.281250
6538		115.234375
6539		111.328125
6540		115.234375
6541		111.328125
6542		115.234375
6543		111.328125
6544		115.234375
6545		111.328125
6546		113.281250
6547		111.328125
6548		113.281250
6549		111.328125
6550		113.281250
6551		109.375000
6552		113.281250
6553		109.375000
6554		111.328125
6555		107.421875
6556		111.328125
6557		107.421875
6558		111.328125
6559		107.421875
6560		109.375000
6561		107.421875
6562		109.375000
6563		105.468750
6564		109.375000
6565		103.515625
6566		107.421875
6567		103.515625
6568		107.421875
6569		103.515625
6570		105.468750
6571		101.562500
6572		103.515625
6573		99.609375
6574		103.515625
6575		99.609375
6576		101.562500
6577		97.656250
6578		99.609375
6579		95.703125
6580		99.609375
6581		93.750000
6582		97.656250
6583		93.750000
6584		95.703125
6585		91.796875
6586		93.750000
6587		89.843750
6588		93.750000
6589		87.890625
6590		91.796875
6591		85.937500
6592		89.843750
6593		83.984375
6594		87.890625
6595		82.031250
6596		85.937500
6597		80.078125
6598		83.984375
6599		78.125000
6600		82.031250
6601		76.171875
6602		80.078125
6603		74.218750
6604		78.125000
6605		72.265625
6606		76.171875
6607		70.312500
6608		74.218750
6609		68.359375
6610		72.265625
6611		64.453125
6612		70.312500
6613		62.500000
6614		66.406250
6615		60.546875
6616		64.453125
6617		58.593750
6618		62.500000
6619		56.640625
6620		60.546875
6621		52.734375
6622		56.640625
6623		50.781250
6624		54.687500
6625		46.875000
6626		52.734375
6627		44.921875
6628		48.828125
6629		42.968750
6630		46.875000
6631		39.062500
6632		44.921875
6633		37.109375
6634		41.015625
6635		35.156250
6636		39.062500
6637		31.250000
6638		37.109375
6639		29.296875
6640		33.203125
6641		25.390625
6642		29.296875
6643		23.437500
6644		29.296875
6645		19.531250
6646		25.390625
6647		15.625000
6648		21.484375
6649		13.671875
6650		19.531250
6651		11.718750
6652		15.625000
6653		7.812500
6654		13.671875
6655		5.859375
6656		9.765625
6657		1.953125
6658		5.859375
6659		-1.953125
6660		3.906250
6661		-3.906250
6662		1.953125
6663		-7.812500
6664		-1.953125
6665		-9.765625
6666		-5.859375
6667		-11.718750
6668		-7.812500
6669		-15.625000
6670		-11.718750
6671		-17.578125
6672		-13.671875
6673		-21.484375
6674		-17.578125
6675		-25.390625
6676		-19.531250
6677		-27.343750
6678		-21.484375
6679		-29.296875
6680		-23.437500
6681		-33.203125
6682		-29.296875
6683		-35.156250
6684		-31.250000
6685		-39.062500
6686		-35.156250
6687		-41.015625
6688		-37.109375
6689		-42.968750
6690		-39.062500
6691		-46.875000
6692		-42.968750
6693		-48.828125
6694		-42.968750
6695		-52.734375
6696		-46.875000
6697		-54.687500
6698		-50.781250
6699		-56.640625
6700		-52.734375
6701		-58.593750
6702		-56.640625
6703		-62.500000
6704		-58.593750
6705		-64.453125
6706		-60.546875
6707		-66.406250
6708		-62.500000
6709		-70.312500
6710		-64.453125
6711		-72.265625
6712		-66.406250
6713		-74.218750
6714		-70.312500
6715		-76.171875
6716		-72.265625
6717		-78.125000
6718		-74.218750
6719		-80.078125
6720		-76.171875
6721		-82.031250
6722		-78.125000
6723		-83.984375
6724		-80.078125
6725		-85.937500
6726		-82.031250
6727		-87.890625
6728		-82.031250
6729		-89.843750
6730		-83.984375
6731		-89.843750
6732		-87.890625
6733		-91.796875
6734		-87.890625
6735		-93.750000
6736		-89.843750
6737		-93.750000
6738		-91.796875
6739		-95.703125
6740		-93.750000
6741		-97.656250
6742		-93.750000
6743		-99.609375
6744		-93.750000
6745		-99.609375
6746		-95.703125
6747		-99.609375
6748		-97.656250
6749		-101.562500
6750		-97.656250
6751		-101.562500
6752		-99.609375
6753		-101.562500
6754		-99.609375
6755		-103.515625
6756		-101.562500
6757		-103.515625
6758		-101.562500
6759		-105.468750
6760		-99.609375
6761		-105.468750
6762		-101.562500
6763		-105.468750
6764		-101.562500
6765		-105.468750
6766		-103.515625
6767		-105.468750
6768		-103.515625
6769		-105.468750
6770		-103.515625
6771		-105.468750
6772		-103.515625
6773		-105.468750
6774		-103.515625
6775		-105.468750
6776		-103.515625
6777		-107.421875
6778		-101.562500
6779		-105.468750
6780		-101.562500
6781		-103.515625
6782		-101.562500
6783		-103.515625
6784		-101.562500
6785		-103.515625
6786		-99.609375
6787		-103.515625
6788		-99.609375
6789		-101.562500
6790		-97.656250
6791		-99.609375
6792		-97.656250
6793		-101.562500
6794		-93.750000
6795		-99.609375
6796		-93.750000
6797		-97.656250
6798		-93.750000
6799		-95.703125
6800		-93.750000
6801		-95.703125
6802		-91.796875
6803		-93.750000
6804		-89.843750
6805		-91.796875
6806		-87.890625
6807		-89.843750
6808		-87.890625
6809		-89.843750
6810		-85.937500
6811		-89.843750
6812		-82.031250
6813		-85.937500
6814		-82.031250
6815		-83.984375
6816		-80.078125
6817		-82.031250
6818		-78.125000
6819		-80.078125
6820		-76.171875
6821		-78.125000
6822		-74.218750
6823		-76.171875
6824		-72.265625
6825		-74.218750
6826		-70.312500
6827		-72.265625
6828		-66.406250
6829		-70.312500
6830		-64.453125
6831		-66.406250
6832		-62.500000
6833		-64.453125
6834		-60.546875
6835		-62.500000
6836		-58.593750
6837		-58.593750
6838		-54.687500
6839		-56.640625
6840		-52.734375
6841		-54.687500
6842		-50.781250
6843		-50.781250
6844		-46.875000
6845		-48.828125
6846		-44.921875
6847		-46.875000
6848		-42.968750
6849		-42.968750
6850		-39.062500
6851		-41.015625
6852		-37.109375
6853		-37.109375
6854		-33.203125
6855		-35.156250
6856		-31.250000
6857		-31.250000
6858		-27.343750
6859		-29.296875
6860		-25.390625
6861		-27.343750
6862		-21.484375
6863		-23.437500
6864		-19.531250
6865		-21.484375
6866		-15.625000
6867		-17.578125
6868		-13.671875
6869		-13.671875
6870		-9.765625
6871		-11.718750
6872		-7.812500
6873		-7.812500
6874		-3.906250
6875		-5.859375
6876		-1.953125
6877		-1.953125
6878		1.953125
6879		0.000000
6880		3.906250
6881		3.906250
6882		7.812500
6883		5.859375
6884		9.765625
6885		9.765625
6886		13.671875
6887		11.718750
6888		15.625000
6889		13.671875
6890		19.531250
6891		17.578125
6892		21.484375
6893		21.484375
6894		25.390625
6895		23.437500
6896		27.343750
6897		25.390625
6898		31.250000
6899		29.296875
6900		33.203125
6901		31.250000
6902		35.156250
6903		35.156250
6904		39.062500
6905		37.109375
6906		41.015625
6907		41.015625
6908		44.921875
6909		42.968750
6910		46.875000
6911		44.921875
6912		48.828125
6913		46.875000
6914		52.734375
6915		50.781250
6916		54.687500
6917		52.734375
6918		56.640625
6919		54.687500
6920		58.593750
6921		58.593750
6922		62.500000
6923		60.546875
6924		64.453125
6925		62.500000
6926		66.406250
6927		64.453125
6928		68.359375
6929		66.406250
6930		70.312500
6931		68.359375
6932		72.265625
6933		72.265625
6934		76.171875
6935		74.218750
6936		76.171875
6937		76.171875
6938		80.078125
6939		78.125000
6940		82.031250
6941		80.078125
6942		83.984375
6943		82.031250
6944		85.937500
6945		83.984375
6946		87.890625
6947		85.937500
6948		87.890625
6949		87.890625
6950		89.843750
6951		87.890625
6952		91.796875
6953		89.843750
6954		93.750000
6955		91.796875
6956		95.703125
6957		93.750000
6958		95.703125
6959		95.703125
6960		97.656250
6961		95.703125
6962		99.609375
6963		97.656250
6964		101.562500
6965		99.609375
6966		101.562500
6967		99.609375
6968		103.515625
6969		101.562500
6970		103.515625
6971		103.515625
6972		105.468750
6973		103.515625
6974		107.421875
6975		105.468750
6976		107.421875
6977		105.468750
6978		107.421875
6979		107.421875
6980		109.375000
6981		107.421875
6982		109.375000
6983		109.375000
6984		111.328125
6985		109.375000
6986		111.328125
6987		109.375000
6988		111.328125
6989		109.375000
6990		113.281250
6991		111.328125
6992		113.281250
6993		111.328125
6994		113.281250
6995		111.328125
6996		113.281250
6997		111.328125
6998		115.234375
6999		111.328125
7000		113.281250
7001		111.328125
7002		115.234375
7003		113.281250
7004		115.234375
7005		113.281250
7006		115.234375
7007		113.281250
7008		115.234375
7009		113.281250
7010		115.234375
7011		111.328125
7012		115.234375
7013		111.328125
7014		115.234375
7015		111.328125
7016		113.281250
7017		111.328125
7018		113.281250
7019		111.328125
7020		113.281250
7021		109.375000
7022		113.281250
7023		109.375000
7024		113.281250
7025		109.375000
7026		111.328125
7027		107.421875
7028		111.328125
7029		107.421875
7030		111.328125
7031		107.421875
7032		109.375000
7033		105.468750
7034		109.375000
7035		105.468750
7036		107.421875
7037		103.515625
7038		107.421875
7039		103.515625
7040		105.468750
7041		101.562500
7042		105.468750
7043		101.562500
7044		103.515625
7045		99.609375
7046		101.562500
7047		97.656250
7048		101.562500
7049		97.656250
7050		99.609375
7051		95.703125
7052		99.609375
7053		93.750000
7054		97.656250
7055		91.796875
7056		95.703125
7057		89.843750
7058		93.750000
7059		89.843750
7060		91.796875
7061		87.890625
7062		89.843750
7063		85.937500
7064		87.890625
7065		83.984375
7066		87.890625
7067		82.031250
7068		85.937500
7069		80.078125
7070		83.984375
7071		78.125000
7072		82.031250
7073		76.171875
7074		80.078125
7075		74.218750
7076		78.125000
7077		72.265625
7078		76.171875
7079		68.359375
7080		72.265625
7081		66.406250
7082		70.312500
7083		64.453125
7084		68.359375
7085		62.500000
7086		66.406250
7087		60.546875
7088		64.453125
7089		56.640625
7090		60.546875
7091		54.687500
7092		58.593750
7093		52.734375
7094		56.640625
7095		48.828125
7096		54.687500
7097		46.875000
7098		50.781250
7099		44.921875
7100		48.828125
7101		41.015625
7102		46.875000
7103		39.062500
7104		42.968750
7105		37.109375
7106		41.015625
7107		33.203125
7108		37.109375
7109		31.250000
7110		35.156250
7111		27.343750
7112		31.250000
7113		25.390625
7114		29.296875
7115		21.484375
7116		25.390625
7117		19.531250
7118		23.437500
7119		15.625000
7120		21.484375
7121		13.671875
7122		17.578125
7123		9.765625
7124		15.625000
7125		7.812500
7126		11.718750
7127		3.906250
7128		7.812500
7129		1.953125
7130		5.859375
7131		-1.953125
7132		1.953125
7133		-3.906250
7134		0.000000
7135		-7.812500
7136		-1.953125
7137		-9.765625
7138		-5.859375
7139		-13.671875
7140		-9.765625
7141		-15.625000
7142		-11.718750
7143		-19.531250
7144		-15.625000
7145		-21.484375
7146		-17.578125
7147		-25.390625
7148		-21.484375
7149		-27.343750
7150		-23.437500
7151		-31.250000
7152		-27.343750
7153		-33.203125
7154		-29.296875
7155		-37.109375
7156		-33.203125
7157		-39.062500
7158		-35.156250
7159		-42.968750
7160		-37.109375
7161		-44.921875
7162		-41.015625
7163		-46.875000
7164		-42.968750
7165		-50.781250
7166		-44.921875
7167		-52.734375
7168		-48.828125
7169		-54.687500
7170		-50.781250
7171		-58.593750
7172		-54.687500
7173		-60.546875
7174		-56.640625
7175		-62.500000
7176		-58.593750
7177		-64.453125
7178		-60.546875
7179		-66.406250
7180		-62.500000
7181		-70.312500
7182		-64.453125
7183		-72.265625
7184		-68.359375
7185		-74.218750
7186		-70.312500
7187		-76.171875
7188		-72.265625
7189		-78.125000
7190		-74.218750
7191		-80.078125
7192		-76.171875
7193		-82.031250
7194		-78.125000
7195		-83.984375
7196		-80.078125
7197		-85.937500
7198		-82.031250
7199		-87.890625
7200		-83.984375
7201		-89.843750
7202		-85.937500
7203		-89.843750
7204		-87.890625
7205		-91.796875
7206		-89.843750
7207		-93.750000
7208		-89.843750
7209		-95.703125
7210		-91.796875
7211		-95.703125
7212		-93.750000
7213		-97.656250
7214		-93.750000
7215		-97.656250
7216		-95.703125
7217		-99.609375
7218		-95.703125
7219		-101.562500
7220		-97.656250
7221		-101.562500
7222		-97.656250
7223		-101.562500
7224		-99.609375
7225		-103.515625
7226		-99.609375
7227		-103.515625
7228		-101.562500
7229		-103.515625
7230		-101.562500
7231		-105.468750
7232		-101.562500
7233		-105.468750
7234		-103.515625
7235		-105.468750
7236		-103.515625
7237		-105.468750
7238		-103.515625
7239		-105.468750
7240		-103.515625
7241		-105.468750
7242		-103.515625
7243		-105.468750
7244		-103.515625
7245		-105.468750
7246		-103.515625
7247		-105.468750
7248		-103.515625
7249		-105.468750
7250		-103.515625
7251		-103.515625
7252		-101.562500
7253		-103.515625
7254		-101.562500
7255		-103.515625
7256		-101.562500
7257		-103.515625
7258		-99.609375
7259		-101.562500
7260		-99.609375
7261		-101.562500
7262		-99.609375
7263		-99.609375
7264		-97.656250
7265		-99.609375
7266		-97.656250
7267		-97.656250
7268		-95.703125
7269		-97.656250
7270		-93.750000
7271		-95.703125
7272		-93.750000
7273		-93.750000
7274		-91.796875
7275		-93.750000
7276		-89.843750
7277		-91.796875
7278		-87.890625
7279		-89.843750
7280		-87.890625
7281		-87.890625
7282		-85.937500
7283		-87.890625
7284		-83.984375
7285		-85.937500
7286		-82.031250
7287		-83.984375
7288		-80.078125
7289		-82.031250
7290		-78.125000
7291		-80.078125
7292		-76.171875
7293		-78.125000
7294		-74.218750
7295		-76.171875
7296		-72.265625
7297		-72.265625
7298		-68.359375
7299		-70.312500
7300		-66.406250
7301		-68.359375
7302		-64.453125
7303		-66.406250
7304		-62.500000
7305		-62.500000
7306		-60.546875
7307		-60.546875
7308		-56.640625
7309		-58.593750
7310		-54.687500
7311		-56.640625
7312		-52.734375
7313		-52.734375
7314		-48.828125
7315		-50.781250
7316		-46.875000
7317		-48.828125
7318		-44.921875
7319		-44.921875
7320		-41.015625
7321		-42.968750
7322		-39.062500
7323		-39.062500
7324		-35.156250
7325		-37.109375
7326		-33.203125
7327		-35.156250
7328		-29.296875
7329		-31.250000
7330		-27.343750
7331		-29.296875
7332		-25.390625
7333		-25.390625
7334		-21.484375
7335		-23.437500
7336		-17.578125
7337		-19.531250
7338		-15.625000
7339		-17.578125
7340		-11.718750
7341		-13.671875
7342		-9.765625
7343		-11.718750
7344		-5.859375
7345		-7.812500
7346		-3.906250
7347		-5.859375
7348		0.000000
7349		-1.953125
7350		1.953125
7351		0.000000
7352		3.906250
7353		3.906250
7354		7.812500
7355		5.859375
7356		11.718750
7357		9.765625
7358		13.671875
7359		11.718750
7360		17.578125
7361		15.625000
7362		19.531250
7363		17.578125
7364		23.437500
7365		21.484375
7366		25.390625
7367		23.437500
7368		27.343750
7369		27.343750
7370		31.250000
7371		29.296875
7372		33.203125
7373		33.203125
7374		37.109375
7375		35.156250
7376		39.062500
7377		37.109375
7378		42.968750
7379		41.015625
7380		44.921875
7381		42.968750
7382		46.875000
7383		46.875000
7384		50.781250
7385		48.828125
7386		52.734375
7387		50.781250
7388		54.687500
7389		52.734375
7390		56.640625
7391		56.640625
7392		60.546875
7393		58.593750
7394		62.500000
7395		60.546875
7396		64.453125
7397		62.500000
7398		66.406250
7399		66.406250
7400		70.312500
7401		68.359375
7402		72.265625
7403		68.359375
7404		74.218750
7405		72.265625
7406		76.171875
7407		74.218750
7408		78.125000
7409		76.171875
7410		80.078125
7411		78.125000
7412		82.031250
7413		80.078125
7414		83.984375
7415		82.031250
7416		85.937500
7417		83.984375
7418		87.890625
7419		85.937500
7420		89.843750
7421		87.890625
7422		91.796875
7423		89.843750
7424		93.750000
7425		91.796875
7426		93.750000
7427		91.796875
7428		95.703125
7429		93.750000
7430		97.656250
7431		95.703125
7432		99.609375
7433		97.656250
7434		99.609375
7435		97.656250
7436		101.562500
7437		99.609375
7438		101.562500
7439		101.562500
7440		103.515625
7441		101.562500
7442		105.468750
7443		103.515625
7444		105.468750
7445		103.515625
7446		107.421875
7447		105.468750
7448		107.421875
7449		105.468750
7450		109.375000
7451		107.421875
7452		109.375000
7453		107.421875
7454		111.328125
7455		109.375000
7456		111.328125
7457		109.375000
7458		111.328125
7459		109.375000
7460		111.328125
7461		111.328125
7462		113.281250
7463		111.328125
7464		113.281250
7465		111.328125
7466		113.281250
7467		111.328125
7468		113.281250
7469		111.328125
7470		113.281250
7471		111.328125
7472		115.234375
7473		113.281250
7474		115.234375
7475		113.281250
7476		115.234375
7477		113.281250
7478		115.234375
7479		113.281250
7480		115.234375
7481		111.328125
7482		115.234375
7483		111.328125
7484		115.234375
7485		111.328125
7486		113.281250
7487		111.328125
7488		115.234375
7489		111.328125
7490		113.281250
7491		111.328125
7492		113.281250
7493		111.328125
7494		113.281250
7495		109.375000
7496		113.281250
7497		109.375000
7498		111.328125
7499		109.375000
7500		111.328125
7501		107.421875
7502		111.328125
7503		107.421875
7504		109.375000
7505		105.468750
7506		109.375000
7507		105.468750
7508		107.421875
7509		103.515625
7510		107.421875
7511		103.515625
7512		105.468750
7513		101.562500
7514		105.468750
7515		101.562500
7516		103.515625
7517		99.609375
7518		103.515625
7519		97.656250
7520		101.562500
7521		95.703125
7522		99.609375
7523		95.703125
7524		97.656250
7525		93.750000
7526		97.656250
7527		91.796875
7528		95.703125
7529		89.843750
7530		93.750000
7531		89.843750
7532		91.796875
7533		87.890625
7534		89.843750
7535		85.937500
7536		87.890625
7537		83.984375
7538		85.937500
7539		82.031250
7540		85.937500
7541		80.078125
7542		83.984375
7543		78.125000
7544		82.031250
7545		76.171875
7546		80.078125
7547		74.218750
7548		76.171875
7549		70.312500
7550		74.218750
7551		68.359375
7552		72.265625
7553		66.406250
7554		70.312500
7555		64.453125
7556		68.359375
7557		62.500000
7558		66.406250
7559		58.593750
7560		62.500000
7561		56.640625
7562		60.546875
7563		54.687500
7564		58.593750
7565		52.734375
7566		56.640625
7567		48.828125
7568		52.734375
7569		46.875000
7570		50.781250
7571		44.921875
7572		48.828125
7573		41.015625
7574		44.921875
7575		39.062500
7576		42.968750
7577		35.156250
7578		41.015625
7579		33.203125
7580		37.109375
7581		29.296875
7582		35.156250
7583		27.343750
7584		31.250000
7585		23.437500
7586		29.296875
7587		21.484375
7588		25.390625
7589		19.531250
7590		23.437500
7591		15.625000
7592		19.531250
7593		13.671875
7594		17.578125
7595		9.765625
7596		13.671875
7597		7.812500
7598		11.718750
7599		3.906250
7600		7.812500
7601		1.953125
7602		5.859375
7603		-1.953125
7604		1.953125
7605		-5.859375
7606		0.000000
7607		-7.812500
7608		-3.906250
7609		-9.765625
7610		-5.859375
7611		-13.671875
7612		-9.765625
7613		-15.625000
7614		-11.718750
7615		-19.531250
7616		-15.625000
7617		-23.437500
7618		-17.578125
7619		-25.390625
7620		-21.484375
7621		-27.343750
7622		-23.437500
7623		-31.250000
7624		-27.343750
7625		-33.203125
7626		-29.296875
7627		-37.109375
7628		-33.203125
7629		-39.062500
7630		-35.156250
7631		-42.968750
7632		-37.109375
7633		-44.921875
7634		-41.015625
7635		-46.875000
7636		-42.968750
7637		-50.781250
7638		-46.875000
7639		-52.734375
7640		-48.828125
7641		-54.687500
7642		-50.781250
7643		-58.593750
7644		-54.687500
7645		-60.546875
7646		-56.640625
7647		-62.500000
7648		-58.593750
7649		-64.453125
7650		-60.546875
7651		-66.406250
7652		-64.453125
7653		-70.312500
7654		-66.406250
7655		-72.265625
7656		-68.359375
7657		-74.218750
7658		-70.312500
7659		-76.171875
7660		-72.265625
7661		-78.125000
7662		-74.218750
7663		-80.078125
7664		-76.171875
7665		-82.031250
7666		-78.125000
7667		-83.984375
7668		-80.078125
7669		-85.937500
7670		-82.031250
7671		-87.890625
7672		-83.984375
7673		-89.843750
7674		-85.937500
7675		-89.843750
7676		-87.890625
7677		-91.796875
7678		-89.843750
7679		-93.750000
7680		-89.843750
7681		-93.750000
7682		-91.796875
7683		-95.703125
7684		-93.750000
7685		-97.656250
7686		-93.750000
7687		-97.656250
7688		-95.703125
7689		-99.609375
7690		-95.703125
7691		-99.609375
7692		-97.656250
7693		-103.515625
7694		-97.656250
7695		-101.562500
7696		-99.609375
7697		-101.562500
7698		-99.609375
7699		-103.515625
7700		-101.562500
7701		-103.515625
7702		-101.562500
7703		-103.515625
7704		-101.562500
7705		-105.468750
7706		-99.609375
7707		-105.468750
7708		-101.562500
7709		-105.468750
7710		-99.609375
7711		-105.468750
7712		-103.515625
7713		-107.421875
7714		-99.609375
7715		-105.468750
7716		-103.515625
7717		-105.468750
7718		-101.562500
7719		-105.468750
7720		-101.562500
7721		-105.468750
7722		-99.609375
7723		-103.515625
7724		-99.609375
7725		-103.515625
7726		-99.609375
7727		-103.515625
7728		-99.609375
7729		-103.515625
7730		-97.656250
7731		-101.562500
7732		-99.609375
7733		-99.609375
7734		-97.656250
7735		-99.609375
7736		-95.703125
7737		-99.609375
7738		-95.703125
7739		-99.609375
7740		-93.750000
7741		-97.656250
7742		-91.796875
7743		-95.703125
7744		-91.796875
7745		-93.750000
7746		-89.843750
7747		-93.750000
7748		-87.890625
7749		-89.843750
7750		-87.890625
7751		-89.843750
7752		-85.937500
7753		-89.843750
7754		-82.031250
7755		-87.890625
7756		-80.078125
7757		-85.937500
7758		-80.078125
7759		-82.031250
7760		-78.125000
7761		-82.031250
7762		-76.171875
7763		-80.078125
7764		-72.265625
7765		-76.171875
7766		-72.265625
7767		-74.218750
7768		-70.312500
7769		-72.265625
7770		-68.359375
7771		-70.312500
7772		-64.453125
7773		-68.359375
7774		-62.500000
7775		-64.453125
7776		-60.546875
7777		-64.453125
7778		-54.687500
7779		-60.546875
7780		-56.640625
7781		-60.546875
7782		-52.734375
7783		-54.687500
7784		-50.781250
7785		-52.734375
7786		-46.875000
7787		-50.781250
7788		-42.968750
7789		-46.875000
7790		-42.968750
7791		-44.921875
7792		-39.062500
7793		-41.015625
7794		-35.156250
7795		-41.015625
7796		-33.203125
7797		-39.062500
7798		-31.250000
7799		-33.203125
7800		-29.296875
7801		-29.296875
7802		-25.390625
7803		-27.343750
7804		-21.484375
7805		-27.343750
7806		-17.578125
7807		-21.484375
7808		-17.578125
7809		-17.578125
7810		-13.671875
7811		-17.578125
7812		-7.812500
7813		-13.671875
7814		-5.859375
7815		-9.765625
7816		-5.859375
7817		-5.859375
7818		-1.953125
7819		-3.906250
7820		1.953125
7821		-1.953125
7822		5.859375
7823		0.000000
7824		7.812500
7825		5.859375
7826		9.765625
7827		7.812500
7828		15.625000
7829		7.812500
7830		17.578125
7831		11.718750
7832		19.531250
7833		15.625000
7834		21.484375
7835		19.531250
7836		25.390625
7837		21.484375
7838		29.296875
7839		21.484375
7840		31.250000
7841		27.343750
7842		33.203125
7843		31.250000
7844		35.156250
7845		31.250000
7846		41.015625
7847		35.156250
7848		42.968750
7849		39.062500
7850		42.968750
7851		41.015625
7852		44.921875
7853		44.921875
7854		48.828125
7855		44.921875
7856		54.687500
7857		48.828125
7858		54.687500
7859		52.734375
7860		56.640625
7861		52.734375
7862		62.500000
7863		54.687500
7864		62.500000
7865		56.640625
7866		64.453125
7867		62.500000
7868		66.406250
7869		64.453125
7870		68.359375
7871		66.406250
7872		74.218750
7873		66.406250
7874		72.265625
7875		70.312500
7876		74.218750
7877		72.265625
7878		80.078125
7879		72.265625
7880		82.031250
7881		76.171875
7882		83.984375
7883		80.078125
7884		82.031250
7885		82.031250
7886		83.984375
7887		82.031250
7888		87.890625
7889		82.031250
7890		89.843750
7891		85.937500
7892		89.843750
7893		87.890625
7894		91.796875
7895		87.890625
7896		97.656250
7897		89.843750
7898		97.656250
7899		93.750000
7900		95.703125
7901		95.703125
7902		97.656250
7903		95.703125
7904		99.609375
7905		95.703125
7906		103.515625
7907		99.609375
7908		103.515625
7909		99.609375
7910		103.515625
7911		99.609375
7912		107.421875
7913		99.609375
7914		109.375000
7915		101.562500
7916		107.421875
7917		105.468750
7918		107.421875
7919		105.468750
7920		109.375000
7921		105.468750
7922		113.281250
7923		103.515625
7924		113.281250
7925		107.421875
7926		111.328125
7927		107.421875
7928		113.281250
7929		107.421875
7930		115.234375
7931		109.375000
7932		115.234375
7933		111.328125
7934		113.281250
7935		111.328125
7936		113.281250
7937		111.328125
7938		115.234375
7939		109.375000
7940		117.187500
7941		109.375000
7942		115.234375
7943		113.281250
7944		115.234375
7945		109.375000
7946		117.187500
7947		109.375000
7948		117.187500
7949		111.328125
7950		117.187500
7951		113.281250
7952		115.234375
7953		111.328125
7954		115.234375
7955		109.375000
7956		117.187500
7957		109.375000
7958		117.187500
7959		111.328125
7960		115.234375
7961		109.375000
7962		115.234375
7963		111.328125
7964		113.281250
7965		107.421875
7966		115.234375
7967		109.375000
7968		113.281250
7969		109.375000
7970		111.328125
7971		107.421875
7972		111.328125
7973		105.468750
7974		113.281250
7975		105.468750
7976		111.328125
7977		105.468750
7978		109.375000
7979		103.515625
7980		109.375000
7981		103.515625
7982		107.421875
7983		103.515625
7984		105.468750
7985		101.562500
7986		105.468750
7987		101.562500
7988		103.515625
7989		99.609375
7990		101.562500
7991		95.703125
7992		103.515625
7993		97.656250
7994		99.609375
7995		93.750000
7996		99.609375
7997		93.750000
7998		97.656250
7999		91.796875
8000		95.703125
8001		89.843750
8002		93.750000
8003		87.890625
8004		91.796875
8005		85.937500
8006		89.843750
8007		85.937500
8008		89.843750
8009		83.984375
8010		87.890625
8011		82.031250
8012		85.937500
8013		80.078125
8014		82.031250
8015		76.171875
8016		80.078125
8017		76.171875
8018		78.125000
8019		72.265625
8020		76.171875
8021		70.312500
8022		74.218750
8023		68.359375
8024		72.265625
8025		66.406250
8026		70.312500
8027		64.453125
8028		68.359375
8029		60.546875
8030		64.453125
8031		58.593750
8032		62.500000
8033		56.640625
8034		60.546875
8035		54.687500
8036		58.593750
8037		50.781250
8038		56.640625
8039		48.828125
8040		54.687500
8041		44.921875
8042		50.781250
8043		42.968750
8044		48.828125
8045		41.015625
8046		46.875000
8047		37.109375
8048		44.921875
8049		35.156250
8050		41.015625
8051		33.203125
8052		37.109375
8053		29.296875
8054		33.203125
8055		25.390625
8056		31.250000
8057		23.437500
8058		31.250000
8059		19.531250
8060		27.343750
8061		17.578125
8062		23.437500
8063		13.671875
8064		21.484375
8065		11.718750
8066		17.578125
8067		9.765625
8068		15.625000
8069		5.859375
8070		11.718750
8071		1.953125
8072		7.812500
8073		0.000000
8074		5.859375
8075		-3.906250
8076		3.906250
8077		-5.859375
8078		0.000000
8079		-9.765625
8080		-1.953125
8081		-11.718750
8082		-5.859375
8083		-13.671875
8084		-9.765625
8085		-17.578125
8086		-11.718750
8087		-19.531250
8088		-15.625000
8089		-23.437500
8090		-17.578125
8091		-27.343750
8092		-19.531250
8093		-29.296875
8094		-23.437500
8095		-31.250000
8096		-25.390625
8097		-35.156250
8098		-29.296875
8099		-39.062500
8100		-31.250000
8101		-39.062500
8102		-35.156250
8103		-42.968750
8104		-39.062500
8105		-44.921875
8106		-41.015625
8107		-48.828125
8108		-42.968750
8109		-50.781250
8110		-46.875000
8111		-54.687500
8112		-46.875000
8113		-56.640625
8114		-50.781250
8115		-58.593750
8116		-52.734375
8117		-60.546875
8118		-56.640625
8119		-62.500000
8120		-58.593750
8121		-66.406250
8122		-60.546875
8123		-68.359375
8124		-62.500000
8125		-70.312500
8126		-66.406250
8127		-74.218750
8128		-66.406250
8129		-74.218750
8130		-70.312500
8131		-76.171875
8132		-72.265625
8133		-78.125000
8134		-74.218750
8135		-80.078125
8136		-76.171875
8137		-82.031250
8138		-78.125000
8139		-83.984375
8140		-80.078125
8141		-85.937500
8142		-82.031250
8143		-87.890625
8144		-83.984375
8145		-89.843750
8146		-83.984375
8147		-89.843750
8148		-85.937500
8149		-91.796875
8150		-87.890625
8151		-93.750000
8152		-89.843750
8153		-93.750000
8154		-91.796875
8155		-97.656250
8156		-91.796875
8157		-97.656250
8158		-93.750000
8159		-97.656250
8160		-93.750000
8161		-101.562500
8162		-93.750000
8163		-99.609375
8164		-97.656250
8165		-101.562500
8166		-97.656250
8167		-103.515625
8168		-99.609375
8169		-101.562500
8170		-99.609375
8171		-103.515625
8172		-99.609375
8173		-103.515625
8174		-99.609375
8175		-103.515625
8176		-101.562500
8177		-105.468750
8178		-99.609375
8179		-105.468750
8180		-99.609375
8181		-105.468750
8182		-101.562500
8183		-105.468750
8184		-101.562500
8185		-105.468750
8186		-101.562500
8187		-103.515625
8188		-101.562500
8189		-105.468750
8190		-101.562500
8191		-103.515625
8192		-101.562500
8193		-103.515625
8194		-101.562500
8195		-105.468750
8196		-99.609375
8197		-103.515625
8198		-99.609375
8199		-103.515625
8200		-99.609375
8201		-101.562500
8202		-97.656250
8203		-99.609375
8204		-97.656250
8205		-99.609375
8206		-95.703125
8207		-99.609375
8208		-95.703125
8209		-97.656250
8210		-93.750000
8211		-97.656250
8212		-91.796875
8213		-95.703125
8214		-91.796875
8215		-93.750000
8216		-89.843750
8217		-93.750000
8218		-89.843750
8219		-91.796875
8220		-87.890625
8221		-89.843750
8222		-85.937500
8223		-87.890625
8224		-83.984375
8225		-85.937500
8226		-82.031250
8227		-85.937500
8228		-80.078125
8229		-83.984375
8230		-80.078125
8231		-82.031250
8232		-78.125000
8233		-80.078125
8234		-74.218750
8235		-78.125000
8236		-74.218750
8237		-74.218750
8238		-72.265625
8239		-72.265625
8240		-68.359375
8241		-70.312500
8242		-66.406250
8243		-68.359375
8244		-64.453125
8245		-66.406250
8246		-60.546875
8247		-64.453125
8248		-58.593750
8249		-60.546875
8250		-56.640625
8251		-58.593750
8252		-54.687500
8253		-56.640625
8254		-52.734375
8255		-52.734375
8256		-48.828125
8257		-50.781250
8258		-46.875000
8259		-48.828125
8260		-44.921875
8261		-44.921875
8262		-41.015625
8263		-42.968750
8264		-39.062500
8265		-41.015625
8266		-35.156250
8267		-39.062500
8268		-33.203125
8269		-35.156250
8270		-29.296875
8271		-31.250000
8272		-27.343750
8273		-29.296875
8274		-25.390625
8275		-25.390625
8276		-21.484375
8277		-23.437500
8278		-19.531250
8279		-21.484375
8280		-15.625000
8281		-17.578125
8282		-13.671875
8283		-15.625000
8284		-9.765625
8285		-11.718750
8286		-7.812500
8287		-7.812500
8288		-3.906250
8289		-5.859375
8290		0.000000
8291		-3.906250
8292		1.953125
8293		0.000000
8294		3.906250
8295		3.906250
8296		7.812500
8297		5.859375
8298		9.765625
8299		9.765625
8300		13.671875
8301		11.718750
8302		17.578125
8303		15.625000
8304		19.531250
8305		17.578125
8306		21.484375
8307		19.531250
8308		25.390625
8309		23.437500
8310		27.343750
8311		25.390625
8312		31.250000
8313		29.296875
8314		33.203125
8315		31.250000
8316		37.109375
8317		35.156250
8318		39.062500
8319		37.109375
8320		41.015625
8321		41.015625
8322		44.921875
8323		42.968750
8324		48.828125
8325		44.921875
8326		48.828125
8327		48.828125
8328		52.734375
8329		50.781250
8330		54.687500
8331		52.734375
8332		56.640625
8333		56.640625
8334		60.546875
8335		58.593750
8336		62.500000
8337		60.546875
8338		64.453125
8339		62.500000
8340		66.406250
8341		64.453125
8342		68.359375
8343		68.359375
8344		72.265625
8345		70.312500
8346		74.218750
8347		72.265625
8348		76.171875
8349		74.218750
8350		78.125000
8351		76.171875
8352		80.078125
8353		78.125000
8354		82.031250
8355		80.078125
8356		83.984375
8357		82.031250
8358		85.937500
8359		83.984375
8360		87.890625
8361		85.937500
8362		89.843750
8363		87.890625
8364		91.796875
8365		89.843750
8366		93.750000
8367		89.843750
8368		95.703125
8369		91.796875
8370		95.703125
8371		93.750000
8372		97.656250
8373		95.703125
8374		99.609375
8375		97.656250
8376		101.562500
8377		99.609375
8378		101.562500
8379		99.609375
8380		103.515625
8381		101.562500
8382		103.515625
8383		101.562500
8384		105.468750
8385		103.515625
8386		107.421875
8387		105.468750
8388		107.421875
8389		105.468750
8390		109.375000
8391		107.421875
8392		109.375000
8393		107.421875
8394		111.328125
8395		107.421875
8396		111.328125
8397		109.375000
8398		111.328125
8399		109.375000
8400		113.281250
8401		109.375000
8402		113.281250
8403		109.375000
8404		113.281250
8405		111.328125
8406		113.281250
8407		111.328125
8408		115.234375
8409		113.281250
8410		115.234375
8411		111.328125
8412		115.234375
8413		113.281250
8414		115.234375
8415		113.281250
8416		115.234375
8417		113.281250
8418		115.234375
8419		113.281250
8420		117.187500
8421		113.281250
8422		115.234375
8423		113.281250
8424		115.234375
8425		111.328125
8426		117.187500
8427		113.281250
8428		115.234375
8429		113.281250
8430		115.234375
8431		111.328125
8432		115.234375
8433		111.328125
8434		115.234375
8435		111.328125
8436		115.234375
8437		111.328125
8438		113.281250
8439		111.328125
8440		113.281250
8441		109.375000
8442		113.281250
8443		109.375000
8444		111.328125
8445		107.421875
8446		111.328125
8447		107.421875
8448		111.328125
8449		105.468750
8450		109.375000
8451		105.468750
8452		109.375000
8453		103.515625
8454		107.421875
8455		103.515625
8456		105.468750
8457		101.562500
8458		105.468750
8459		101.562500
8460		105.468750
8461		99.609375
8462		103.515625
8463		97.656250
8464		101.562500
8465		97.656250
8466		99.609375
8467		95.703125
8468		99.609375
8469		91.796875
8470		97.656250
8471		91.796875
8472		95.703125
8473		91.796875
8474		93.750000
8475		87.890625
8476		91.796875
8477		87.890625
8478		89.843750
8479		83.984375
8480		89.843750
8481		83.984375
8482		85.937500
8483		82.031250
8484		85.937500
8485		80.078125
8486		83.984375
8487		78.125000
8488		82.031250
8489		76.171875
8490		78.125000
8491		72.265625
8492		76.171875
8493		70.312500
8494		74.218750
8495		68.359375
8496		74.218750
8497		66.406250
8498		70.312500
8499		64.453125
8500		68.359375
8501		60.546875
8502		66.406250
8503		58.593750
8504		64.453125
8505		56.640625
8506		60.546875
8507		54.687500
8508		58.593750
8509		50.781250
8510		56.640625
8511		48.828125
8512		52.734375
8513		46.875000
8514		50.781250
8515		42.968750
8516		46.875000
8517		41.015625
8518		44.921875
8519		39.062500
8520		42.968750
8521		35.156250
8522		41.015625
8523		33.203125
8524		37.109375
8525		29.296875
8526		33.203125
8527		27.343750
8528		31.250000
8529		23.437500
8530		29.296875
8531		21.484375
8532		25.390625
8533		17.578125
8534		23.437500
8535		15.625000
8536		19.531250
8537		11.718750
8538		17.578125
8539		9.765625
8540		13.671875
8541		5.859375
8542		9.765625
8543		3.906250
8544		9.765625
8545		0.000000
8546		5.859375
8547		-1.953125
8548		1.953125
8549		-5.859375
8550		0.000000
8551		-7.812500
8552		-3.906250
8553		-11.718750
8554		-5.859375
8555		-13.671875
8556		-9.765625
8557		-17.578125
8558		-11.718750
8559		-19.531250
8560		-15.625000
8561		-23.437500
8562		-17.578125
8563		-27.343750
8564		-21.484375
8565		-27.343750
8566		-23.437500
8567		-31.250000
8568		-27.343750
8569		-35.156250
8570		-29.296875
8571		-37.109375
8572		-31.250000
8573		-39.062500
8574		-35.156250
8575		-42.968750
8576		-39.062500
8577		-44.921875
8578		-41.015625
8579		-48.828125
8580		-42.968750
8581		-50.781250
8582		-46.875000
8583		-52.734375
8584		-48.828125
8585		-54.687500
8586		-50.781250
8587		-58.593750
8588		-54.687500
8589		-60.546875
8590		-56.640625
8591		-62.500000
8592		-58.593750
8593		-66.406250
8594		-60.546875
8595		-68.359375
8596		-64.453125
8597		-70.312500
8598		-66.406250
8599		-72.265625
8600		-68.359375
8601		-74.218750
8602		-70.312500
8603		-76.171875
8604		-72.265625
8605		-78.125000
8606		-72.265625
8607		-80.078125
8608		-76.171875
8609		-82.031250
8610		-78.125000
8611		-83.984375
8612		-80.078125
8613		-85.937500
8614		-82.031250
8615		-87.890625
8616		-82.031250
8617		-87.890625
8618		-85.937500
8619		-89.843750
8620		-85.937500
8621		-91.796875
8622		-87.890625
8623		-91.796875
8624		-89.843750
8625		-93.750000
8626		-91.796875
8627		-95.703125
8628		-91.796875
8629		-95.703125
8630		-91.796875
8631		-97.656250
8632		-93.750000
8633		-99.609375
8634		-95.703125
8635		-99.609375
8636		-95.703125
8637		-101.562500
8638		-97.656250
8639		-101.562500
8640		-97.656250
8641		-101.562500
8642		-99.609375
8643		-103.515625
8644		-99.609375
8645		-103.515625
8646		-99.609375
8647		-103.515625
8648		-99.609375
8649		-103.515625
8650		-99.609375
8651		-103.515625
8652		-101.562500
8653		-103.515625
8654		-101.562500
8655		-105.468750
8656		-101.562500
8657		-103.515625
8658		-101.562500
8659		-103.515625
8660		-99.609375
8661		-103.515625
8662		-99.609375
8663		-103.515625
8664		-99.609375
8665		-103.515625
8666		-99.609375
8667		-103.515625
8668		-99.609375
8669		-101.562500
8670		-99.609375
8671		-101.562500
8672		-97.656250
8673		-99.609375
8674		-97.656250
8675		-99.609375
8676		-97.656250
8677		-99.609375
8678		-95.703125
8679		-97.656250
8680		-93.750000
8681		-97.656250
8682		-93.750000
8683		-95.703125
8684		-91.796875
8685		-93.750000
8686		-89.843750
8687		-93.750000
8688		-89.843750
8689		-91.796875
8690		-87.890625
8691		-89.843750
8692		-85.937500
8693		-87.890625
8694		-85.937500
8695		-85.937500
8696		-83.984375
8697		-85.937500
8698		-82.031250
8699		-83.984375
8700		-80.078125
8701		-82.031250
8702		-78.125000
8703		-80.078125
8704		-76.171875
8705		-78.125000
8706		-74.218750
8707		-76.171875
8708		-72.265625
8709		-74.218750
8710		-70.312500
8711		-72.265625
8712		-68.359375
8713		-68.359375
8714		-64.453125
8715		-66.406250
8716		-62.500000
8717		-66.406250
8718		-60.546875
8719		-62.500000
8720		-56.640625
8721		-60.546875
8722		-54.687500
8723		-56.640625
8724		-52.734375
8725		-54.687500
8726		-50.781250
8727		-52.734375
8728		-46.875000
8729		-48.828125
8730		-44.921875
8731		-46.875000
8732		-42.968750
8733		-44.921875
8734		-39.062500
8735		-41.015625
8736		-35.156250
8737		-39.062500
8738		-35.156250
8739		-37.109375
8740		-31.250000
8741		-33.203125
8742		-29.296875
8743		-29.296875
8744		-25.390625
8745		-27.343750
8746		-21.484375
8747		-23.437500
8748		-19.531250
8749		-21.484375
8750		-17.578125
8751		-19.531250
8752		-13.671875
8753		-15.625000
8754		-11.718750
8755		-13.671875
8756		-7.812500
8757		-9.765625
8758		-5.859375
8759		-7.812500
8760		-1.953125
8761		-3.906250
8762		0.000000
8763		-1.953125
8764		3.906250
8765		1.953125
8766		5.859375
8767		5.859375
8768		9.765625
8769		7.812500
8770		11.718750
8771		9.765625
8772		15.625000
8773		13.671875
8774		17.578125
8775		17.578125
8776		21.484375
8777		19.531250
8778		25.390625
8779		21.484375
8780		27.343750
8781		25.390625
8782		29.296875
8783		27.343750
8784		31.250000
8785		31.250000
8786		35.156250
8787		33.203125
8788		39.062500
8789		37.109375
8790		41.015625
8791		39.062500
8792		42.968750
8793		41.015625
8794		46.875000
8795		42.968750
8796		48.828125
8797		46.875000
8798		50.781250
8799		48.828125
8800		52.734375
8801		52.734375
8802		56.640625
8803		54.687500
8804		58.593750
8805		56.640625
8806		60.546875
8807		58.593750
8808		64.453125
8809		62.500000
8810		66.406250
8811		64.453125
8812		68.359375
8813		66.406250
8814		70.312500
8815		68.359375
8816		72.265625
8817		70.312500
8818		74.218750
8819		74.218750
8820		78.125000
8821		74.218750
8822		80.078125
8823		76.171875
8824		82.031250
8825		80.078125
8826		83.984375
8827		82.031250
8828		85.937500
8829		83.984375
8830		87.890625
8831		85.937500
8832		87.890625
8833		85.937500
8834		91.796875
8835		89.843750
8836		91.796875
8837		89.843750
8838		95.703125
8839		91.796875
8840		95.703125
8841		93.750000
8842		97.656250
8843		95.703125
8844		99.609375
8845		95.703125
8846		101.562500
8847		99.609375
8848		101.562500
8849		99.609375
8850		103.515625
8851		101.562500
8852		103.515625
8853		101.562500
8854		105.468750
8855		103.515625
8856		107.421875
8857		103.515625
8858		107.421875
8859		105.468750
8860		109.375000
8861		107.421875
8862		111.328125
8863		107.421875
8864		111.328125
8865		107.421875
8866		111.328125
8867		109.375000
8868		111.328125
8869		109.375000
8870		113.281250
8871		111.328125
8872		113.281250
8873		109.375000
8874		115.234375
8875		111.328125
8876		113.281250
8877		113.281250
8878		115.234375
8879		111.328125
8880		117.187500
8881		113.281250
8882		115.234375
8883		113.281250
8884		115.234375
8885		113.281250
8886		117.187500
8887		113.281250
8888		117.187500
8889		115.234375
8890		117.187500
8891		113.281250
8892		117.187500
8893		113.281250
8894		117.187500
8895		113.281250
8896		117.187500
8897		113.281250
8898		117.187500
8899		113.281250
8900		117.187500
8901		113.281250
8902		115.234375
8903		113.281250
8904		115.234375
8905		111.328125
8906		115.234375
8907		111.328125
8908		115.234375
8909		111.328125
8910		113.281250
8911		111.328125
8912		113.281250
8913		109.375000
8914		113.281250
8915		109.375000
8916		113.281250
8917		109.375000
8918		111.328125
8919		107.421875
8920		111.328125
8921		107.421875
8922		109.375000
8923		105.468750
8924		109.375000
8925		105.468750
8926		107.421875
8927		103.515625
8928		107.421875
8929		101.562500
8930		107.421875
8931		101.562500
8932		105.468750
8933		99.609375
8934		103.515625
8935		97.656250
8936		101.562500
8937		95.703125
8938		99.609375
8939		95.703125
8940		99.609375
8941		93.750000
8942		97.656250
8943		91.796875
8944		95.703125
8945		89.843750
8946		93.750000
8947		89.843750
8948		91.796875
8949		85.937500
8950		91.796875
8951		85.937500
8952		89.843750
8953		83.984375
8954		87.890625
8955		82.031250
8956		85.937500
8957		78.125000
8958		83.984375
8959		78.125000
8960		82.031250
8961		74.218750
8962		78.125000
8963		72.265625
8964		76.171875
8965		70.312500
8966		76.171875
8967		68.359375
8968		72.265625
8969		66.406250
8970		70.312500
8971		64.453125
8972		68.359375
8973		60.546875
8974		66.406250
8975		58.593750
8976		64.453125
8977		56.640625
8978		60.546875
8979		52.734375
8980		58.593750
8981		50.781250
8982		56.640625
8983		48.828125
8984		52.734375
8985		44.921875
8986		50.781250
8987		42.968750
8988		48.828125
8989		41.015625
8990		44.921875
8991		39.062500
8992		42.968750
8993		35.156250
8994		39.062500
8995		31.250000
8996		37.109375
8997		29.296875
8998		35.156250
8999		27.343750
9000		31.250000
9001		23.437500
9002		29.296875
9003		21.484375
9004		25.390625
9005		17.578125
9006		23.437500
9007		13.671875
9008		19.531250
9009		11.718750
9010		17.578125
9011		9.765625
9012		13.671875
9013		5.859375
9014		11.718750
9015		3.906250
9016		7.812500
9017		0.000000
9018		5.859375
9019		-1.953125
9020		1.953125
9021		-5.859375
9022		0.000000
9023		-7.812500
9024		-3.906250
9025		-11.718750
9026		-5.859375
9027		-13.671875
9028		-9.765625
9029		-17.578125
9030		-13.671875
9031		-19.531250
9032		-15.625000
9033		-23.437500
9034		-19.531250
9035		-25.390625
9036		-21.484375
9037		-29.296875
9038		-23.437500
9039		-31.250000
9040		-27.343750
9041		-35.156250
9042		-29.296875
9043		-37.109375
9044		-33.203125
9045		-39.062500
9046		-35.156250
9047		-42.968750
9048		-37.109375
9049		-44.921875
9050		-41.015625
9051		-46.875000
9052		-42.968750
9053		-50.781250
9054		-46.875000
9055		-52.734375
9056		-48.828125
9057		-54.687500
9058		-50.781250
9059		-58.593750
9060		-52.734375
9061		-60.546875
9062		-56.640625
9063		-62.500000
9064		-58.593750
9065		-64.453125
9066		-60.546875
9067		-66.406250
9068		-62.500000
9069		-70.312500
9070		-64.453125
9071		-72.265625
9072		-68.359375
9073		-74.218750
9074		-70.312500
9075		-76.171875
9076		-72.265625
9077		-78.125000
9078		-74.218750
9079		-80.078125
9080		-76.171875
9081		-82.031250
9082		-78.125000
9083		-83.984375
9084		-80.078125
9085		-85.937500
9086		-80.078125
9087		-85.937500
9088		-83.984375
9089		-87.890625
9090		-83.984375
9091		-89.843750
9092		-85.937500
9093		-91.796875
9094		-87.890625
9095		-91.796875
9096		-89.843750
9097		-93.750000
9098		-89.843750
9099		-95.703125
9100		-91.796875
9101		-97.656250
9102		-91.796875
9103		-97.656250
9104		-93.750000
9105		-97.656250
9106		-93.750000
9107		-99.609375
9108		-95.703125
9109		-99.609375
9110		-95.703125
9111		-99.609375
9112		-97.656250
9113		-101.562500
9114		-97.656250
9115		-101.562500
9116		-97.656250
9117		-101.562500
9118		-99.609375
9119		-103.515625
9120		-99.609375
9121		-103.515625
9122		-99.609375
9123		-103.515625
9124		-99.609375
9125		-103.515625
9126		-99.609375
9127		-103.515625
9128		-99.609375
9129		-103.515625
9130		-101.562500
9131		-103.515625
9132		-99.609375
9133		-103.515625
9134		-99.609375
9135		-103.515625
9136		-99.609375
9137		-101.562500
9138		-99.609375
9139		-101.562500
9140		-97.656250
9141		-101.562500
9142		-97.656250
9143		-101.562500
9144		-97.656250
9145		-99.609375
9146		-95.703125
9147		-99.609375
9148		-95.703125
9149		-97.656250
9150		-93.750000
9151		-97.656250
9152		-93.750000
9153		-95.703125
9154		-91.796875
9155		-93.750000
9156		-91.796875
9157		-93.750000
9158		-89.843750
9159		-91.796875
9160		-87.890625
9161		-89.843750
9162		-87.890625
9163		-89.843750
9164		-83.984375
9165		-87.890625
9166		-83.984375
9167		-85.937500
9168		-82.031250
9169		-83.984375
9170		-80.078125
9171		-82.031250
9172		-78.125000
9173		-80.078125
9174		-76.171875
9175		-78.125000
9176		-74.218750
9177		-76.171875
9178		-72.265625
9179		-74.218750
9180		-70.312500
9181		-72.265625
9182		-68.359375
9183		-70.312500
9184		-66.406250
9185		-68.359375
9186		-62.500000
9187		-66.406250
9188		-62.500000
9189		-64.453125
9190		-58.593750
9191		-60.546875
9192		-56.640625
9193		-58.593750
9194		-54.687500
9195		-56.640625
9196		-50.781250
9197		-52.734375
9198		-48.828125
9199		-50.781250
9200		-46.875000
9201		-48.828125
9202		-42.968750
9203		-44.921875
9204		-41.015625
9205		-42.968750
9206		-37.109375
9207		-41.015625
9208		-35.156250
9209		-37.109375
9210		-33.203125
9211		-35.156250
9212		-31.250000
9213		-31.250000
9214		-27.343750
9215		-29.296875
9216		-23.437500
9217		-25.390625
9218		-21.484375
9219		-23.437500
9220		-17.578125
9221		-21.484375
9222		-15.625000
9223		-17.578125
9224		-13.671875
9225		-13.671875
9226		-9.765625
9227		-11.718750
9228		-5.859375
9229		-7.812500
9230		-3.906250
9231		-5.859375
9232		0.000000
9233		-3.906250
9234		1.953125
9235		0.000000
9236		5.859375
9237		1.953125
9238		7.812500
9239		5.859375
9240		11.718750
9241		9.765625
9242		13.671875
9243		11.718750
9244		17.578125
9245		15.625000
9246		19.531250
9247		17.578125
9248		21.484375
9249		19.531250
9250		25.390625
9251		23.437500
9252		27.343750
9253		27.343750
9254		31.250000
9255		29.296875
9256		33.203125
9257		31.250000
9258		37.109375
9259		35.156250
9260		39.062500
9261		37.109375
9262		41.015625
9263		41.015625
9264		44.921875
9265		42.968750
9266		46.875000
9267		44.921875
9268		50.781250
9269		48.828125
9270		52.734375
9271		50.781250
9272		54.687500
9273		52.734375
9274		58.593750
9275		56.640625
9276		60.546875
9277		58.593750
9278		62.500000
9279		60.546875
9280		64.453125
9281		62.500000
9282		68.359375
9283		64.453125
9284		70.312500
9285		68.359375
9286		72.265625
9287		70.312500
9288		74.218750
9289		72.265625
9290		76.171875
9291		74.218750
9292		78.125000
9293		76.171875
9294		80.078125
9295		78.125000
9296		82.031250
9297		80.078125
9298		83.984375
9299		82.031250
9300		85.937500
9301		83.984375
9302		87.890625
9303		85.937500
9304		89.843750
9305		87.890625
9306		91.796875
9307		89.843750
9308		93.750000
9309		91.796875
9310		95.703125
9311		91.796875
9312		95.703125
9313		95.703125
9314		97.656250
9315		95.703125
9316		99.609375
9317		97.656250
9318		101.562500
9319		97.656250
9320		101.562500
9321		99.609375
9322		103.515625
9323		101.562500
9324		105.468750
9325		103.515625
9326		105.468750
9327		103.515625
9328		107.421875
9329		105.468750
9330		107.421875
9331		107.421875
9332		109.375000
9333		105.468750
9334		109.375000
9335		107.421875
9336		111.328125
9337		109.375000
9338		111.328125
9339		109.375000
9340		113.281250
9341		109.375000
9342		113.281250
9343		109.375000
9344		115.234375
9345		111.328125
9346		113.281250
9347		111.328125
9348		115.234375
9349		113.281250
9350		115.234375
9351		113.281250
9352		115.234375
9353		113.281250
9354		117.187500
9355		113.281250
9356		117.187500
9357		113.281250
9358		117.187500
9359		113.281250
9360		117.187500
9361		113.281250
9362		117.187500
9363		115.234375
9364		117.187500
9365		113.281250
9366		117.187500
9367		113.281250
9368		117.187500
9369		113.281250
9370		117.187500
9371		113.281250
9372		117.187500
9373		111.328125
9374		117.187500
9375		113.281250
9376		117.187500
9377		111.328125
9378		115.234375
9379		111.328125
9380		115.234375
9381		111.328125
9382		113.281250
9383		111.328125
9384		113.281250
9385		109.375000
9386		113.281250
9387		109.375000
9388		113.281250
9389		109.375000
9390		111.328125
9391		107.421875
9392		111.328125
9393		107.421875
9394		111.328125
9395		105.468750
9396		109.375000
9397		105.468750
9398		107.421875
9399		103.515625
9400		107.421875
9401		103.515625
9402		105.468750
9403		101.562500
9404		105.468750
9405		99.609375
9406		103.515625
9407		97.656250
9408		103.515625
9409		95.703125
9410		101.562500
9411		95.703125
9412		97.656250
9413		93.750000
9414		97.656250
9415		91.796875
9416		95.703125
9417		89.843750
9418		95.703125
9419		87.890625
9420		93.750000
9421		85.937500
9422		91.796875
9423		82.031250
9424		89.843750
9425		82.031250
9426		87.890625
9427		80.078125
9428		85.937500
9429		80.078125
9430		83.984375
9431		76.171875
9432		80.078125
9433		72.265625
9434		80.078125
9435		70.312500
9436		78.125000
9437		70.312500
9438		76.171875
9439		66.406250
9440		72.265625
9441		64.453125
9442		70.312500
9443		62.500000
9444		68.359375
9445		60.546875
9446		66.406250
9447		58.593750
9448		62.500000
9449		54.687500
9450		60.546875
9451		52.734375
9452		58.593750
9453		48.828125
9454		56.640625
9455		46.875000
9456		54.687500
9457		44.921875
9458		50.781250
9459		41.015625
9460		48.828125
9461		39.062500
9462		46.875000
9463		37.109375
9464		41.015625
9465		35.156250
9466		39.062500
9467		29.296875
9468		37.109375
9469		27.343750
9470		35.156250
9471		25.390625
9472		31.250000
9473		21.484375
9474		29.296875
9475		19.531250
9476		27.343750
9477		15.625000
9478		23.437500
9479		15.625000
9480		19.531250
9481		11.718750
9482		15.625000
9483		5.859375
9484		13.671875
9485		3.906250
9486		11.718750
9487		1.953125
9488		7.812500
9489		-1.953125
9490		5.859375
9491		-3.906250
9492		3.906250
9493		-7.812500
9494		0.000000
9495		-9.765625
9496		-3.906250
9497		-11.718750
9498		-7.812500
9499		-15.625000
9500		-9.765625
9501		-19.531250
9502		-11.718750
9503		-21.484375
9504		-15.625000
9505		-25.390625
9506		-17.578125
9507		-27.343750
9508		-19.531250
9509		-31.250000
9510		-23.437500
9511		-33.203125
9512		-25.390625
9513		-35.156250
9514		-29.296875
9515		-37.109375
9516		-33.203125
9517		-42.968750
9518		-37.109375
9519		-44.921875
9520		-37.109375
9521		-46.875000
9522		-41.015625
9523		-50.781250
9524		-42.968750
9525		-52.734375
9526		-44.921875
9527		-54.687500
9528		-46.875000
9529		-56.640625
9530		-50.781250
9531		-58.593750
9532		-54.687500
9533		-62.500000
9534		-56.640625
9535		-64.453125
9536		-56.640625
9537		-66.406250
9538		-60.546875
9539		-70.312500
9540		-62.500000
9541		-72.265625
9542		-64.453125
9543		-74.218750
9544		-66.406250
9545		-76.171875
9546		-68.359375
9547		-76.171875
9548		-72.265625
9549		-78.125000
9550		-74.218750
9551		-82.031250
9552		-74.218750
9553		-83.984375
9554		-76.171875
9555		-85.937500
9556		-78.125000
9557		-85.937500
9558		-80.078125
9559		-89.843750
9560		-82.031250
9561		-89.843750
9562		-83.984375
9563		-89.843750
9564		-85.937500
9565		-91.796875
9566		-87.890625
9567		-95.703125
9568		-87.890625
9569		-97.656250
9570		-87.890625
9571		-97.656250
9572		-89.843750
9573		-97.656250
9574		-91.796875
9575		-99.609375
9576		-91.796875
9577		-99.609375
9578		-93.750000
9579		-101.562500
9580		-93.750000
9581		-99.609375
9582		-97.656250
9583		-99.609375
9584		-97.656250
9585		-103.515625
9586		-95.703125
9587		-103.515625
9588		-97.656250
9589		-103.515625
9590		-97.656250
9591		-103.515625
9592		-97.656250
9593		-105.468750
9594		-97.656250
9595		-105.468750
9596		-97.656250
9597		-103.515625
9598		-99.609375
9599		-101.562500
9600		-99.609375
9601		-103.515625
9602		-97.656250
9603		-105.468750
9604		-97.656250
9605		-105.468750
9606		-97.656250
9607		-103.515625
9608		-97.656250
9609		-103.515625
9610		-97.656250
9611		-103.515625
9612		-95.703125
9613		-101.562500
9614		-95.703125
9615		-99.609375
9616		-95.703125
9617		-99.609375
9618		-95.703125
9619		-99.609375
9620		-93.750000
9621		-99.609375
9622		-91.796875
9623		-97.656250
9624		-91.796875
9625		-97.656250
9626		-89.843750
9627		-95.703125
9628		-87.890625
9629		-93.750000
9630		-87.890625
9631		-91.796875
9632		-87.890625
9633		-89.843750
9634		-85.937500
9635		-89.843750
9636		-83.984375
9637		-87.890625
9638		-82.031250
9639		-85.937500
9640		-80.078125
9641		-85.937500
9642		-78.125000
9643		-83.984375
9644		-76.171875
9645		-82.031250
9646		-74.218750
9647		-80.078125
9648		-74.218750
9649		-76.171875
9650		-72.265625
9651		-74.218750
9652		-68.359375
9653		-74.218750
9654		-64.453125
9655		-70.312500
9656		-62.500000
9657		-70.312500
9658		-60.546875
9659		-66.406250
9660		-58.593750
9661		-64.453125
9662		-56.640625
9663		-60.546875
9664		-54.687500
9665		-56.640625
9666		-52.734375
9667		-54.687500
9668		-50.781250
9669		-52.734375
9670		-46.875000
9671		-50.781250
9672		-42.968750
9673		-48.828125
9674		-41.015625
9675		-44.921875
9676		-39.062500
9677		-42.968750
9678		-35.156250
9679		-41.015625
9680		-33.203125
9681		-37.109375
9682		-31.250000
9683		-33.203125
9684		-29.296875
9685		-31.250000
9686		-25.390625
9687		-29.296875
9688		-21.484375
9689		-27.343750
9690		-17.578125
9691		-23.437500
9692		-15.625000
9693		-21.484375
9694		-13.671875
9695		-17.578125
9696		-9.765625
9697		-13.671875
9698		-7.812500
9699		-9.765625
9700		-5.859375
9701		-7.812500
9702		-1.953125
9703		-5.859375
9704		1.953125
9705		-1.953125
9706		5.859375
9707		0.000000
9708		7.812500
9709		1.953125
9710		9.765625
9711		5.859375
9712		13.671875
9713		9.765625
9714		15.625000
9715		13.671875
9716		17.578125
9717		15.625000
9718		21.484375
9719		19.531250
9720		25.390625
9721		21.484375
9722		27.343750
9723		25.390625
9724		29.296875
9725		27.343750
9726		33.203125
9727		29.296875
9728		35.156250
9729		31.250000
9730		39.062500
9731		35.156250
9732		41.015625
9733		39.062500
9734		42.968750
9735		41.015625
9736		48.828125
9737		42.968750
9738		50.781250
9739		44.921875
9740		52.734375
9741		48.828125
9742		54.687500
9743		50.781250
9744		58.593750
9745		52.734375
9746		60.546875
9747		54.687500
9748		62.500000
9749		58.593750
9750		62.500000
9751		62.500000
9752		66.406250
9753		62.500000
9754		70.312500
9755		64.453125
9756		72.265625
9757		66.406250
9758		74.218750
9759		70.312500
9760		76.171875
9761		70.312500
9762		78.125000
9763		74.218750
9764		80.078125
9765		76.171875
9766		82.031250
9767		80.078125
9768		82.031250
9769		80.078125
9770		85.937500
9771		82.031250
9772		87.890625
9773		83.984375
9774		89.843750
9775		85.937500
9776		91.796875
9777		85.937500
9778		93.750000
9779		89.843750
9780		95.703125
9781		89.843750
9782		95.703125
9783		93.750000
9784		97.656250
9785		95.703125
9786		99.609375
9787		93.750000
9788		101.562500
9789		95.703125
9790		103.515625
9791		97.656250
9792		103.515625
9793		99.609375
9794		105.468750
9795		99.609375
9796		107.421875
9797		101.562500
9798		107.421875
9799		105.468750
9800		107.421875
9801		105.468750
9802		109.375000
9803		105.468750
9804		111.328125
9805		105.468750
9806		113.281250
9807		105.468750
9808		113.281250
9809		107.421875
9810		113.281250
9811		107.421875
9812		115.234375
9813		109.375000
9814		115.234375
9815		109.375000
9816		115.234375
9817		111.328125
9818		113.281250
9819		109.375000
9820		117.187500
9821		111.328125
9822		117.187500
9823		111.328125
9824		117.187500
9825		111.328125
9826		117.187500
9827		111.328125
9828		117.187500
9829		111.328125
9830		119.140625
9831		111.328125
9832		119.140625
9833		115.234375
9834		117.187500
9835		115.234375
9836		117.187500
9837		111.328125
9838		119.140625
9839		111.328125
9840		119.140625
9841		111.328125
9842		119.140625
9843		111.328125
9844		117.187500
9845		111.328125
9846		117.187500
9847		111.328125
9848		117.187500
9849		111.328125
9850		115.234375
9851		111.328125
9852		115.234375
9853		109.375000
9854		115.234375
9855		109.375000
9856		115.234375
9857		107.421875
9858		115.234375
9859		107.421875
9860		113.281250
9861		105.468750
9862		113.281250
9863		105.468750
9864		111.328125
9865		105.468750
9866		111.328125
9867		105.468750
9868		107.421875
9869		103.515625
9870		107.421875
9871		101.562500
9872		107.421875
9873		99.609375
9874		107.421875
9875		99.609375
9876		105.468750
9877		97.656250
9878		103.515625
9879		95.703125
9880		103.515625
9881		93.750000
9882		101.562500
9883		93.750000
9884		97.656250
9885		91.796875
9886		95.703125
9887		89.843750
9888		95.703125
9889		87.890625
9890		93.750000
9891		85.937500
9892		93.750000
9893		83.984375
9894		91.796875
9895		82.031250
9896		89.843750
9897		80.078125
9898		87.890625
9899		80.078125
9900		85.937500
9901		78.125000
9902		82.031250
9903		74.218750
9904		80.078125
9905		72.265625
9906		80.078125
9907		70.312500
9908		78.125000
9909		68.359375
9910		74.218750
9911		64.453125
9912		72.265625
9913		62.500000
9914		70.312500
9915		60.546875
9916		68.359375
9917		60.546875
9918		64.453125
9919		56.640625
9920		62.500000
9921		52.734375
9922		60.546875
9923		50.781250
9924		58.593750
9925		48.828125
9926		54.687500
9927		44.921875
9928		52.734375
9929		42.968750
9930		50.781250
9931		39.062500
9932		48.828125
9933		39.062500
9934		44.921875
9935		37.109375
9936		41.015625
9937		31.250000
9938		39.062500
9939		29.296875
9940		37.109375
9941		25.390625
9942		33.203125
9943		23.437500
9944		31.250000
9945		21.484375
9946		27.343750
9947		17.578125
9948		25.390625
9949		15.625000
9950		21.484375
9951		13.671875
9952		17.578125
9953		9.765625
9954		15.625000
9955		3.906250
9956		13.671875
9957		1.953125
9958		9.765625
9959		0.000000
9960		7.812500
9961		-1.953125
9962		3.906250
9963		-5.859375
9964		1.953125
9965		-7.812500
9966		0.000000
9967		-9.765625
9968		-5.859375
9969		-13.671875
9970		-9.765625
9971		-17.578125
9972		-11.718750
9973		-21.484375
9974		-13.671875
9975		-23.437500
9976		-15.625000
9977		-27.343750
9978		-19.531250
9979		-29.296875
9980		-21.484375
9981		-33.203125
9982		-23.437500
9983		-33.203125
9984		-27.343750
9985		-35.156250
9986		-31.250000
9987		-41.015625
9988		-35.156250
9989		-42.968750
9990		-35.156250
9991		-46.875000
9992		-37.109375
9993		-50.781250
9994		-41.015625
9995		-52.734375
9996		-44.921875
9997		-54.687500
9998		-46.875000
9999		-56.640625
10000		-48.828125
