Channel              :		CH1
Frequency            :		1.061kHz
Period               :		0.942ms
PK-PK                :		234.4mV
Probe attenuation    :		1X
Voltage per ADC value:		0.122070mV
Time interval        :		2.00000us

index		CH1_Voltage(mV)
1		60.546875
2		60.546875
3		66.406250
4		56.640625
5		64.453125
6		56.640625
7		60.546875
8		52.734375
9		56.640625
10		48.828125
11		56.640625
12		46.875000
13		54.687500
14		42.968750
15		52.734375
16		41.015625
17		48.828125
18		37.109375
19		46.875000
20		37.109375
21		42.968750
22		35.156250
23		41.015625
24		33.203125
25		37.109375
26		27.343750
27		35.156250
28		25.390625
29		33.203125
30		21.484375
31		31.250000
32		19.531250
33		27.343750
34		17.578125
35		25.390625
36		13.671875
37		21.484375
38		11.718750
39		19.531250
40		9.765625
41		13.671875
42		5.859375
43		11.718750
44		1.953125
45		9.765625
46		-1.953125
47		5.859375
48		-3.906250
49		3.906250
50		-7.812500
51		0.000000
52		-11.718750
53		-3.906250
54		-13.671875
55		-5.859375
56		-15.625000
57		-11.718750
58		-17.578125
59		-13.671875
60		-23.437500
61		-15.625000
62		-27.343750
63		-17.578125
64		-29.296875
65		-21.484375
66		-31.250000
67		-23.437500
68		-35.156250
69		-27.343750
70		-37.109375
71		-29.296875
72		-39.062500
73		-33.203125
74		-42.968750
75		-37.109375
76		-48.828125
77		-41.015625
78		-48.828125
79		-42.968750
80		-52.734375
81		-44.921875
82		-54.687500
83		-46.875000
84		-58.593750
85		-50.781250
86		-60.546875
87		-52.734375
88		-62.500000
89		-56.640625
90		-64.453125
91		-60.546875
92		-68.359375
93		-62.500000
94		-72.265625
95		-64.453125
96		-74.218750
97		-66.406250
98		-76.171875
99		-68.359375
100		-80.078125
101		-72.265625
102		-82.031250
103		-74.218750
104		-85.937500
105		-76.171875
106		-83.984375
107		-80.078125
108		-87.890625
109		-83.984375
110		-91.796875
111		-83.984375
112		-93.750000
113		-85.937500
114		-95.703125
115		-87.890625
116		-97.656250
117		-89.843750
118		-99.609375
119		-91.796875
120		-101.562500
121		-93.750000
122		-101.562500
123		-95.703125
124		-103.515625
125		-99.609375
126		-105.468750
127		-101.562500
128		-107.421875
129		-101.562500
130		-109.375000
131		-101.562500
132		-111.328125
133		-103.515625
134		-113.281250
135		-105.468750
136		-113.281250
137		-105.468750
138		-115.234375
139		-107.421875
140		-113.281250
141		-111.328125
142		-115.234375
143		-113.281250
144		-117.187500
145		-111.328125
146		-119.140625
147		-111.328125
148		-119.140625
149		-113.281250
150		-119.140625
151		-113.281250
152		-121.093750
153		-113.281250
154		-121.093750
155		-115.234375
156		-121.093750
157		-115.234375
158		-119.140625
159		-117.187500
160		-123.046875
161		-117.187500
162		-123.046875
163		-115.234375
164		-121.093750
165		-115.234375
166		-123.046875
167		-115.234375
168		-123.046875
169		-115.234375
170		-123.046875
171		-115.234375
172		-123.046875
173		-115.234375
174		-119.140625
175		-117.187500
176		-119.140625
177		-117.187500
178		-121.093750
179		-113.281250
180		-119.140625
181		-113.281250
182		-119.140625
183		-113.281250
184		-117.187500
185		-111.328125
186		-117.187500
187		-111.328125
188		-117.187500
189		-109.375000
190		-113.281250
191		-109.375000
192		-111.328125
193		-109.375000
194		-111.328125
195		-105.468750
196		-111.328125
197		-105.468750
198		-109.375000
199		-103.515625
200		-109.375000
201		-101.562500
202		-107.421875
203		-99.609375
204		-105.468750
205		-97.656250
206		-103.515625
207		-97.656250
208		-99.609375
209		-95.703125
210		-97.656250
211		-93.750000
212		-99.609375
213		-89.843750
214		-95.703125
215		-87.890625
216		-93.750000
217		-85.937500
218		-91.796875
219		-83.984375
220		-89.843750
221		-82.031250
222		-85.937500
223		-80.078125
224		-82.031250
225		-78.125000
226		-80.078125
227		-76.171875
228		-78.125000
229		-72.265625
230		-76.171875
231		-70.312500
232		-74.218750
233		-66.406250
234		-72.265625
235		-64.453125
236		-70.312500
237		-60.546875
238		-66.406250
239		-58.593750
240		-64.453125
241		-58.593750
242		-58.593750
243		-54.687500
244		-56.640625
245		-50.781250
246		-54.687500
247		-46.875000
248		-52.734375
249		-44.921875
250		-48.828125
251		-41.015625
252		-46.875000
253		-37.109375
254		-42.968750
255		-35.156250
256		-41.015625
257		-33.203125
258		-37.109375
259		-31.250000
260		-33.203125
261		-29.296875
262		-31.250000
263		-23.437500
264		-29.296875
265		-21.484375
266		-25.390625
267		-17.578125
268		-21.484375
269		-13.671875
270		-19.531250
271		-11.718750
272		-15.625000
273		-7.812500
274		-13.671875
275		-7.812500
276		-7.812500
277		-3.906250
278		-5.859375
279		0.000000
280		-3.906250
281		3.906250
282		-1.953125
283		7.812500
284		1.953125
285		9.765625
286		3.906250
287		13.671875
288		7.812500
289		15.625000
290		11.718750
291		17.578125
292		15.625000
293		19.531250
294		17.578125
295		23.437500
296		19.531250
297		27.343750
298		23.437500
299		29.296875
300		25.390625
301		33.203125
302		27.343750
303		37.109375
304		29.296875
305		39.062500
306		33.203125
307		42.968750
308		37.109375
309		42.968750
310		41.015625
311		44.921875
312		42.968750
313		48.828125
314		42.968750
315		52.734375
316		46.875000
317		54.687500
318		48.828125
319		56.640625
320		50.781250
321		58.593750
322		54.687500
323		60.546875
324		54.687500
325		62.500000
326		60.546875
327		64.453125
328		62.500000
329		68.359375
330		62.500000
331		70.312500
332		64.453125
333		72.265625
334		68.359375
335		76.171875
336		70.312500
337		76.171875
338		72.265625
339		78.125000
340		72.265625
341		80.078125
342		76.171875
343		80.078125
344		78.125000
345		82.031250
346		78.125000
347		85.937500
348		80.078125
349		87.890625
350		82.031250
351		89.843750
352		83.984375
353		91.796875
354		83.984375
355		91.796875
356		85.937500
357		93.750000
358		87.890625
359		93.750000
360		91.796875
361		93.750000
362		91.796875
363		97.656250
364		91.796875
365		99.609375
366		93.750000
367		99.609375
368		93.750000
369		101.562500
370		95.703125
371		101.562500
372		95.703125
373		101.562500
374		97.656250
375		103.515625
376		99.609375
377		101.562500
378		99.609375
379		103.515625
380		99.609375
381		105.468750
382		99.609375
383		107.421875
384		99.609375
385		107.421875
386		101.562500
387		107.421875
388		101.562500
389		107.421875
390		101.562500
391		107.421875
392		103.515625
393		107.421875
394		103.515625
395		107.421875
396		101.562500
397		109.375000
398		103.515625
399		109.375000
400		101.562500
401		109.375000
402		103.515625
403		109.375000
404		101.562500
405		109.375000
406		101.562500
407		109.375000
408		101.562500
409		109.375000
410		103.515625
411		105.468750
412		101.562500
413		107.421875
414		101.562500
415		107.421875
416		99.609375
417		107.421875
418		99.609375
419		107.421875
420		99.609375
421		105.468750
422		97.656250
423		105.468750
424		97.656250
425		105.468750
426		99.609375
427		101.562500
428		97.656250
429		101.562500
430		95.703125
431		101.562500
432		93.750000
433		101.562500
434		91.796875
435		99.609375
436		91.796875
437		97.656250
438		91.796875
439		97.656250
440		89.843750
441		97.656250
442		87.890625
443		95.703125
444		87.890625
445		91.796875
446		85.937500
447		89.843750
448		83.984375
449		89.843750
450		82.031250
451		89.843750
452		80.078125
453		87.890625
454		78.125000
455		85.937500
456		76.171875
457		83.984375
458		76.171875
459		82.031250
460		74.218750
461		78.125000
462		72.265625
463		76.171875
464		68.359375
465		76.171875
466		66.406250
467		74.218750
468		64.453125
469		72.265625
470		62.500000
471		70.312500
472		60.546875
473		66.406250
474		58.593750
475		66.406250
476		56.640625
477		64.453125
478		54.687500
479		58.593750
480		50.781250
481		56.640625
482		46.875000
483		56.640625
484		46.875000
485		52.734375
486		42.968750
487		50.781250
488		39.062500
489		48.828125
490		37.109375
491		44.921875
492		35.156250
493		42.968750
494		33.203125
495		39.062500
496		29.296875
497		35.156250
498		25.390625
499		33.203125
500		23.437500
501		31.250000
502		19.531250
503		29.296875
504		17.578125
505		25.390625
506		13.671875
507		23.437500
508		13.671875
509		21.484375
510		9.765625
511		15.625000
512		7.812500
513		11.718750
514		3.906250
515		9.765625
516		0.000000
517		7.812500
518		-3.906250
519		3.906250
520		-5.859375
521		1.953125
522		-9.765625
523		-1.953125
524		-13.671875
525		-3.906250
526		-13.671875
527		-7.812500
528		-17.578125
529		-11.718750
530		-21.484375
531		-15.625000
532		-25.390625
533		-15.625000
534		-27.343750
535		-19.531250
536		-31.250000
537		-23.437500
538		-33.203125
539		-25.390625
540		-37.109375
541		-29.296875
542		-39.062500
543		-31.250000
544		-41.015625
545		-37.109375
546		-42.968750
547		-39.062500
548		-48.828125
549		-41.015625
550		-52.734375
551		-42.968750
552		-54.687500
553		-46.875000
554		-56.640625
555		-48.828125
556		-58.593750
557		-50.781250
558		-62.500000
559		-54.687500
560		-62.500000
561		-56.640625
562		-66.406250
563		-62.500000
564		-70.312500
565		-62.500000
566		-72.265625
567		-66.406250
568		-76.171875
569		-68.359375
570		-78.125000
571		-70.312500
572		-80.078125
573		-72.265625
574		-82.031250
575		-76.171875
576		-85.937500
577		-78.125000
578		-85.937500
579		-82.031250
580		-89.843750
581		-83.984375
582		-91.796875
583		-83.984375
584		-93.750000
585		-87.890625
586		-97.656250
587		-89.843750
588		-97.656250
589		-89.843750
590		-101.562500
591		-93.750000
592		-101.562500
593		-95.703125
594		-101.562500
595		-97.656250
596		-103.515625
597		-99.609375
598		-107.421875
599		-101.562500
600		-107.421875
601		-101.562500
602		-109.375000
603		-103.515625
604		-111.328125
605		-105.468750
606		-113.281250
607		-105.468750
608		-115.234375
609		-107.421875
610		-113.281250
611		-109.375000
612		-113.281250
613		-111.328125
614		-117.187500
615		-111.328125
616		-119.140625
617		-111.328125
618		-119.140625
619		-111.328125
620		-119.140625
621		-113.281250
622		-119.140625
623		-113.281250
624		-121.093750
625		-113.281250
626		-121.093750
627		-115.234375
628		-119.140625
629		-117.187500
630		-121.093750
631		-117.187500
632		-123.046875
633		-115.234375
634		-123.046875
635		-115.234375
636		-123.046875
637		-115.234375
638		-123.046875
639		-115.234375
640		-121.093750
641		-115.234375
642		-121.093750
643		-115.234375
644		-121.093750
645		-115.234375
646		-119.140625
647		-117.187500
648		-119.140625
649		-113.281250
650		-119.140625
651		-113.281250
652		-119.140625
653		-111.328125
654		-119.140625
655		-111.328125
656		-117.187500
657		-111.328125
658		-117.187500
659		-109.375000
660		-115.234375
661		-109.375000
662		-113.281250
663		-109.375000
664		-111.328125
665		-107.421875
666		-111.328125
667		-105.468750
668		-111.328125
669		-103.515625
670		-109.375000
671		-101.562500
672		-107.421875
673		-101.562500
674		-105.468750
675		-97.656250
676		-103.515625
677		-97.656250
678		-99.609375
679		-97.656250
680		-99.609375
681		-95.703125
682		-97.656250
683		-91.796875
684		-97.656250
685		-87.890625
686		-93.750000
687		-87.890625
688		-91.796875
689		-85.937500
690		-89.843750
691		-82.031250
692		-87.890625
693		-80.078125
694		-85.937500
695		-80.078125
696		-82.031250
697		-78.125000
698		-80.078125
699		-72.265625
700		-78.125000
701		-70.312500
702		-76.171875
703		-68.359375
704		-74.218750
705		-66.406250
706		-72.265625
707		-62.500000
708		-68.359375
709		-60.546875
710		-64.453125
711		-58.593750
712		-60.546875
713		-56.640625
714		-58.593750
715		-54.687500
716		-56.640625
717		-48.828125
718		-52.734375
719		-46.875000
720		-50.781250
721		-42.968750
722		-48.828125
723		-41.015625
724		-44.921875
725		-37.109375
726		-42.968750
727		-33.203125
728		-39.062500
729		-33.203125
730		-35.156250
731		-29.296875
732		-31.250000
733		-25.390625
734		-29.296875
735		-21.484375
736		-27.343750
737		-19.531250
738		-23.437500
739		-15.625000
740		-21.484375
741		-13.671875
742		-17.578125
743		-9.765625
744		-15.625000
745		-7.812500
746		-9.765625
747		-5.859375
748		-7.812500
749		0.000000
750		-5.859375
751		1.953125
752		-3.906250
753		5.859375
754		0.000000
755		7.812500
756		3.906250
757		11.718750
758		5.859375
759		13.671875
760		7.812500
761		17.578125
762		13.671875
763		17.578125
764		17.578125
765		21.484375
766		17.578125
767		25.390625
768		19.531250
769		29.296875
770		23.437500
771		31.250000
772		25.390625
773		35.156250
774		29.296875
775		37.109375
776		33.203125
777		39.062500
778		35.156250
779		41.015625
780		39.062500
781		42.968750
782		41.015625
783		48.828125
784		42.968750
785		50.781250
786		44.921875
787		52.734375
788		46.875000
789		56.640625
790		48.828125
791		56.640625
792		52.734375
793		60.546875
794		54.687500
795		62.500000
796		58.593750
797		62.500000
798		62.500000
799		66.406250
800		62.500000
801		70.312500
802		64.453125
803		72.265625
804		66.406250
805		74.218750
806		68.359375
807		76.171875
808		70.312500
809		76.171875
810		72.265625
811		80.078125
812		74.218750
813		80.078125
814		78.125000
815		82.031250
816		78.125000
817		85.937500
818		78.125000
819		85.937500
820		82.031250
821		87.890625
822		83.984375
823		89.843750
824		83.984375
825		91.796875
826		85.937500
827		93.750000
828		85.937500
829		93.750000
830		89.843750
831		93.750000
832		91.796875
833		95.703125
834		89.843750
835		97.656250
836		91.796875
837		99.609375
838		93.750000
839		99.609375
840		93.750000
841		101.562500
842		95.703125
843		101.562500
844		95.703125
845		103.515625
846		99.609375
847		101.562500
848		99.609375
849		103.515625
850		97.656250
851		105.468750
852		99.609375
853		107.421875
854		99.609375
855		107.421875
856		99.609375
857		107.421875
858		101.562500
859		107.421875
860		101.562500
861		107.421875
862		101.562500
863		107.421875
864		103.515625
865		105.468750
866		103.515625
867		109.375000
868		103.515625
869		109.375000
870		101.562500
871		109.375000
872		101.562500
873		109.375000
874		101.562500
875		109.375000
876		103.515625
877		109.375000
878		101.562500
879		107.421875
880		103.515625
881		105.468750
882		103.515625
883		105.468750
884		101.562500
885		107.421875
886		101.562500
887		107.421875
888		99.609375
889		107.421875
890		99.609375
891		105.468750
892		97.656250
893		105.468750
894		97.656250
895		105.468750
896		99.609375
897		103.515625
898		97.656250
899		101.562500
900		95.703125
901		101.562500
902		93.750000
903		101.562500
904		93.750000
905		99.609375
906		91.796875
907		97.656250
908		91.796875
909		97.656250
910		89.843750
911		95.703125
912		89.843750
913		95.703125
914		89.843750
915		91.796875
916		87.890625
917		89.843750
918		83.984375
919		91.796875
920		82.031250
921		89.843750
922		82.031250
923		87.890625
924		80.078125
925		85.937500
926		78.125000
927		83.984375
928		74.218750
929		83.984375
930		76.171875
931		80.078125
932		74.218750
933		78.125000
934		70.312500
935		76.171875
936		68.359375
937		76.171875
938		66.406250
939		72.265625
940		64.453125
941		70.312500
942		62.500000
943		68.359375
944		58.593750
945		66.406250
946		56.640625
947		64.453125
948		56.640625
949		60.546875
950		52.734375
951		56.640625
952		48.828125
953		56.640625
954		46.875000
955		54.687500
956		44.921875
957		52.734375
958		41.015625
959		48.828125
960		39.062500
961		46.875000
962		37.109375
963		44.921875
964		35.156250
965		39.062500
966		33.203125
967		37.109375
968		27.343750
969		35.156250
970		23.437500
971		33.203125
972		21.484375
973		29.296875
974		17.578125
975		27.343750
976		15.625000
977		23.437500
978		13.671875
979		21.484375
980		11.718750
981		17.578125
982		9.765625
983		13.671875
984		3.906250
985		9.765625
986		1.953125
987		9.765625
988		0.000000
989		5.859375
990		-5.859375
991		3.906250
992		-7.812500
993		0.000000
994		-11.718750
995		-1.953125
996		-13.671875
997		-5.859375
998		-15.625000
999		-9.765625
1000		-17.578125
1001		-13.671875
1002		-23.437500
1003		-15.625000
1004		-25.390625
1005		-17.578125
1006		-29.296875
1007		-21.484375
1008		-33.203125
1009		-23.437500
1010		-35.156250
1011		-27.343750
1012		-37.109375
1013		-29.296875
1014		-39.062500
1015		-33.203125
1016		-42.968750
1017		-37.109375
1018		-46.875000
1019		-39.062500
1020		-50.781250
1021		-41.015625
1022		-52.734375
1023		-44.921875
1024		-54.687500
1025		-46.875000
1026		-56.640625
1027		-50.781250
1028		-60.546875
1029		-52.734375
1030		-62.500000
1031		-56.640625
1032		-64.453125
1033		-60.546875
1034		-70.312500
1035		-62.500000
1036		-72.265625
1037		-64.453125
1038		-74.218750
1039		-66.406250
1040		-76.171875
1041		-68.359375
1042		-80.078125
1043		-72.265625
1044		-82.031250
1045		-74.218750
1046		-83.984375
1047		-76.171875
1048		-83.984375
1049		-80.078125
1050		-87.890625
1051		-83.984375
1052		-91.796875
1053		-83.984375
1054		-93.750000
1055		-85.937500
1056		-95.703125
1057		-87.890625
1058		-97.656250
1059		-89.843750
1060		-99.609375
1061		-91.796875
1062		-99.609375
1063		-93.750000
1064		-101.562500
1065		-95.703125
1066		-103.515625
1067		-99.609375
1068		-105.468750
1069		-101.562500
1070		-107.421875
1071		-99.609375
1072		-109.375000
1073		-101.562500
1074		-111.328125
1075		-103.515625
1076		-111.328125
1077		-105.468750
1078		-113.281250
1079		-107.421875
1080		-115.234375
1081		-107.421875
1082		-113.281250
1083		-111.328125
1084		-115.234375
1085		-111.328125
1086		-117.187500
1087		-111.328125
1088		-119.140625
1089		-111.328125
1090		-119.140625
1091		-113.281250
1092		-121.093750
1093		-113.281250
1094		-121.093750
1095		-115.234375
1096		-121.093750
1097		-115.234375
1098		-121.093750
1099		-115.234375
1100		-119.140625
1101		-117.187500
1102		-123.046875
1103		-115.234375
1104		-123.046875
1105		-117.187500
1106		-123.046875
1107		-117.187500
1108		-123.046875
1109		-115.234375
1110		-123.046875
1111		-117.187500
1112		-123.046875
1113		-117.187500
1114		-123.046875
1115		-117.187500
1116		-119.140625
1117		-117.187500
1118		-121.093750
1119		-115.234375
1120		-121.093750
1121		-115.234375
1122		-121.093750
1123		-113.281250
1124		-119.140625
1125		-113.281250
1126		-119.140625
1127		-113.281250
1128		-119.140625
1129		-111.328125
1130		-117.187500
1131		-109.375000
1132		-115.234375
1133		-111.328125
1134		-113.281250
1135		-109.375000
1136		-113.281250
1137		-107.421875
1138		-113.281250
1139		-105.468750
1140		-111.328125
1141		-103.515625
1142		-109.375000
1143		-101.562500
1144		-107.421875
1145		-101.562500
1146		-107.421875
1147		-99.609375
1148		-105.468750
1149		-97.656250
1150		-101.562500
1151		-97.656250
1152		-99.609375
1153		-93.750000
1154		-99.609375
1155		-91.796875
1156		-97.656250
1157		-87.890625
1158		-93.750000
1159		-87.890625
1160		-93.750000
1161		-85.937500
1162		-89.843750
1163		-83.984375
1164		-87.890625
1165		-82.031250
1166		-83.984375
1167		-80.078125
1168		-83.984375
1169		-78.125000
1170		-80.078125
1171		-74.218750
1172		-78.125000
1173		-70.312500
1174		-76.171875
1175		-68.359375
1176		-74.218750
1177		-66.406250
1178		-70.312500
1179		-62.500000
1180		-68.359375
1181		-60.546875
1182		-64.453125
1183		-58.593750
1184		-60.546875
1185		-56.640625
1186		-58.593750
1187		-50.781250
1188		-56.640625
1189		-48.828125
1190		-54.687500
1191		-44.921875
1192		-50.781250
1193		-42.968750
1194		-48.828125
1195		-41.015625
1196		-44.921875
1197		-37.109375
1198		-41.015625
1199		-35.156250
1200		-37.109375
1201		-33.203125
1202		-35.156250
1203		-29.296875
1204		-33.203125
1205		-25.390625
1206		-29.296875
1207		-21.484375
1208		-27.343750
1209		-17.578125
1210		-23.437500
1211		-15.625000
1212		-21.484375
1213		-11.718750
1214		-17.578125
1215		-9.765625
1216		-13.671875
1217		-7.812500
1218		-9.765625
1219		-5.859375
1220		-7.812500
1221		0.000000
1222		-5.859375
1223		1.953125
1224		-1.953125
1225		5.859375
1226		0.000000
1227		7.812500
1228		3.906250
1229		11.718750
1230		5.859375
1231		13.671875
1232		9.765625
1233		15.625000
1234		13.671875
1235		17.578125
1236		17.578125
1237		23.437500
1238		17.578125
1239		25.390625
1240		21.484375
1241		29.296875
1242		23.437500
1243		31.250000
1244		27.343750
1245		35.156250
1246		29.296875
1247		37.109375
1248		31.250000
1249		39.062500
1250		35.156250
1251		41.015625
1252		39.062500
1253		42.968750
1254		41.015625
1255		46.875000
1256		42.968750
1257		50.781250
1258		44.921875
1259		54.687500
1260		46.875000
1261		56.640625
1262		50.781250
1263		58.593750
1264		52.734375
1265		60.546875
1266		54.687500
1267		60.546875
1268		58.593750
1269		62.500000
1270		60.546875
1271		66.406250
1272		62.500000
1273		70.312500
1274		62.500000
1275		72.265625
1276		66.406250
1277		74.218750
1278		68.359375
1279		76.171875
1280		70.312500
1281		78.125000
1282		72.265625
1283		78.125000
1284		76.171875
1285		80.078125
1286		78.125000
1287		82.031250
1288		78.125000
1289		85.937500
1290		80.078125
1291		85.937500
1292		80.078125
1293		87.890625
1294		82.031250
1295		89.843750
1296		83.984375
1297		91.796875
1298		85.937500
1299		91.796875
1300		89.843750
1301		91.796875
1302		89.843750
1303		93.750000
1304		89.843750
1305		95.703125
1306		91.796875
1307		97.656250
1308		91.796875
1309		97.656250
1310		93.750000
1311		99.609375
1312		93.750000
1313		101.562500
1314		95.703125
1315		103.515625
1316		97.656250
1317		103.515625
1318		99.609375
1319		101.562500
1320		99.609375
1321		103.515625
1322		97.656250
1323		105.468750
1324		99.609375
1325		105.468750
1326		99.609375
1327		105.468750
1328		99.609375
1329		107.421875
1330		99.609375
1331		107.421875
1332		101.562500
1333		107.421875
1334		103.515625
1335		105.468750
1336		103.515625
1337		105.468750
1338		101.562500
1339		109.375000
1340		101.562500
1341		109.375000
1342		101.562500
1343		109.375000
1344		101.562500
1345		109.375000
1346		101.562500
1347		107.421875
1348		101.562500
1349		107.421875
1350		101.562500
1351		107.421875
1352		103.515625
1353		105.468750
1354		101.562500
1355		107.421875
1356		99.609375
1357		107.421875
1358		99.609375
1359		105.468750
1360		99.609375
1361		105.468750
1362		97.656250
1363		105.468750
1364		97.656250
1365		105.468750
1366		97.656250
1367		103.515625
1368		97.656250
1369		101.562500
1370		95.703125
1371		101.562500
1372		93.750000
1373		101.562500
1374		93.750000
1375		99.609375
1376		91.796875
1377		99.609375
1378		91.796875
1379		97.656250
1380		89.843750
1381		97.656250
1382		89.843750
1383		95.703125
1384		89.843750
1385		91.796875
1386		87.890625
1387		91.796875
1388		83.984375
1389		91.796875
1390		82.031250
1391		89.843750
1392		80.078125
1393		87.890625
1394		80.078125
1395		87.890625
1396		78.125000
1397		85.937500
1398		76.171875
1399		83.984375
1400		76.171875
1401		82.031250
1402		74.218750
1403		78.125000
1404		72.265625
1405		78.125000
1406		68.359375
1407		76.171875
1408		66.406250
1409		74.218750
1410		64.453125
1411		72.265625
1412		62.500000
1413		68.359375
1414		58.593750
1415		68.359375
1416		58.593750
1417		64.453125
1418		56.640625
1419		60.546875
1420		54.687500
1421		58.593750
1422		50.781250
1423		58.593750
1424		48.828125
1425		54.687500
1426		44.921875
1427		54.687500
1428		42.968750
1429		50.781250
1430		39.062500
1431		48.828125
1432		37.109375
1433		44.921875
1434		35.156250
1435		42.968750
1436		33.203125
1437		39.062500
1438		29.296875
1439		35.156250
1440		27.343750
1441		35.156250
1442		23.437500
1443		33.203125
1444		21.484375
1445		27.343750
1446		17.578125
1447		25.390625
1448		15.625000
1449		23.437500
1450		13.671875
1451		19.531250
1452		11.718750
1453		15.625000
1454		5.859375
1455		11.718750
1456		1.953125
1457		9.765625
1458		0.000000
1459		7.812500
1460		-3.906250
1461		5.859375
1462		-5.859375
1463		1.953125
1464		-9.765625
1465		0.000000
1466		-11.718750
1467		-3.906250
1468		-13.671875
1469		-7.812500
1470		-15.625000
1471		-11.718750
1472		-21.484375
1473		-13.671875
1474		-23.437500
1475		-15.625000
1476		-27.343750
1477		-19.531250
1478		-29.296875
1479		-23.437500
1480		-33.203125
1481		-25.390625
1482		-37.109375
1483		-29.296875
1484		-39.062500
1485		-31.250000
1486		-41.015625
1487		-37.109375
1488		-44.921875
1489		-39.062500
1490		-48.828125
1491		-41.015625
1492		-50.781250
1493		-42.968750
1494		-54.687500
1495		-46.875000
1496		-56.640625
1497		-48.828125
1498		-60.546875
1499		-52.734375
1500		-62.500000
1501		-54.687500
1502		-62.500000
1503		-58.593750
1504		-66.406250
1505		-62.500000
1506		-70.312500
1507		-62.500000
1508		-74.218750
1509		-64.453125
1510		-74.218750
1511		-68.359375
1512		-80.078125
1513		-70.312500
1514		-80.078125
1515		-74.218750
1516		-83.984375
1517		-76.171875
1518		-83.984375
1519		-78.125000
1520		-85.937500
1521		-82.031250
1522		-89.843750
1523		-83.984375
1524		-93.750000
1525		-83.984375
1526		-93.750000
1527		-87.890625
1528		-95.703125
1529		-89.843750
1530		-99.609375
1531		-91.796875
1532		-101.562500
1533		-93.750000
1534		-101.562500
1535		-95.703125
1536		-101.562500
1537		-97.656250
1538		-103.515625
1539		-101.562500
1540		-107.421875
1541		-101.562500
1542		-109.375000
1543		-101.562500
1544		-111.328125
1545		-103.515625
1546		-111.328125
1547		-105.468750
1548		-113.281250
1549		-107.421875
1550		-115.234375
1551		-107.421875
1552		-113.281250
1553		-109.375000
1554		-115.234375
1555		-111.328125
1556		-117.187500
1557		-111.328125
1558		-119.140625
1559		-111.328125
1560		-119.140625
1561		-113.281250
1562		-121.093750
1563		-113.281250
1564		-121.093750
1565		-115.234375
1566		-121.093750
1567		-115.234375
1568		-121.093750
1569		-115.234375
1570		-121.093750
1571		-117.187500
1572		-123.046875
1573		-117.187500
1574		-123.046875
1575		-117.187500
1576		-123.046875
1577		-117.187500
1578		-123.046875
1579		-117.187500
1580		-123.046875
1581		-117.187500
1582		-123.046875
1583		-117.187500
1584		-123.046875
1585		-115.234375
1586		-121.093750
1587		-117.187500
1588		-119.140625
1589		-117.187500
1590		-121.093750
1591		-115.234375
1592		-121.093750
1593		-115.234375
1594		-119.140625
1595		-113.281250
1596		-119.140625
1597		-113.281250
1598		-119.140625
1599		-111.328125
1600		-119.140625
1601		-111.328125
1602		-117.187500
1603		-111.328125
1604		-115.234375
1605		-111.328125
1606		-113.281250
1607		-109.375000
1608		-113.281250
1609		-105.468750
1610		-113.281250
1611		-105.468750
1612		-111.328125
1613		-103.515625
1614		-109.375000
1615		-101.562500
1616		-107.421875
1617		-101.562500
1618		-105.468750
1619		-99.609375
1620		-103.515625
1621		-99.609375
1622		-99.609375
1623		-95.703125
1624		-99.609375
1625		-93.750000
1626		-97.656250
1627		-91.796875
1628		-97.656250
1629		-89.843750
1630		-93.750000
1631		-85.937500
1632		-91.796875
1633		-83.984375
1634		-89.843750
1635		-82.031250
1636		-87.890625
1637		-82.031250
1638		-83.984375
1639		-80.078125
1640		-82.031250
1641		-76.171875
1642		-80.078125
1643		-72.265625
1644		-78.125000
1645		-70.312500
1646		-76.171875
1647		-68.359375
1648		-72.265625
1649		-64.453125
1650		-70.312500
1651		-62.500000
1652		-68.359375
1653		-60.546875
1654		-62.500000
1655		-58.593750
1656		-60.546875
1657		-54.687500
1658		-58.593750
1659		-50.781250
1660		-56.640625
1661		-48.828125
1662		-52.734375
1663		-44.921875
1664		-50.781250
1665		-42.968750
1666		-48.828125
1667		-39.062500
1668		-44.921875
1669		-37.109375
1670		-39.062500
1671		-35.156250
1672		-37.109375
1673		-33.203125
1674		-33.203125
1675		-29.296875
1676		-31.250000
1677		-23.437500
1678		-29.296875
1679		-21.484375
1680		-25.390625
1681		-19.531250
1682		-21.484375
1683		-15.625000
1684		-19.531250
1685		-13.671875
1686		-17.578125
1687		-11.718750
1688		-11.718750
1689		-7.812500
1690		-9.765625
1691		-3.906250
1692		-7.812500
1693		0.000000
1694		-5.859375
1695		1.953125
1696		-1.953125
1697		5.859375
1698		0.000000
1699		9.765625
1700		3.906250
1701		11.718750
1702		7.812500
1703		13.671875
1704		11.718750
1705		15.625000
1706		13.671875
1707		19.531250
1708		15.625000
1709		23.437500
1710		17.578125
1711		27.343750
1712		21.484375
1713		29.296875
1714		25.390625
1715		31.250000
1716		27.343750
1717		35.156250
1718		29.296875
1719		37.109375
1720		31.250000
1721		39.062500
1722		37.109375
1723		41.015625
1724		39.062500
1725		44.921875
1726		41.015625
1727		48.828125
1728		42.968750
1729		50.781250
1730		46.875000
1731		52.734375
1732		48.828125
1733		56.640625
1734		50.781250
1735		58.593750
1736		52.734375
1737		58.593750
1738		56.640625
1739		60.546875
1740		58.593750
1741		64.453125
1742		60.546875
1743		68.359375
1744		60.546875
1745		68.359375
1746		64.453125
1747		72.265625
1748		66.406250
1749		74.218750
1750		68.359375
1751		76.171875
1752		70.312500
1753		78.125000
1754		74.218750
1755		78.125000
1756		76.171875
1757		80.078125
1758		76.171875
1759		83.984375
1760		78.125000
1761		83.984375
1762		80.078125
1763		85.937500
1764		82.031250
1765		87.890625
1766		82.031250
1767		89.843750
1768		83.984375
1769		89.843750
1770		85.937500
1771		91.796875
1772		89.843750
1773		91.796875
1774		89.843750
1775		95.703125
1776		89.843750
1777		95.703125
1778		91.796875
1779		97.656250
1780		91.796875
1781		97.656250
1782		93.750000
1783		99.609375
1784		93.750000
1785		99.609375
1786		95.703125
1787		101.562500
1788		97.656250
1789		99.609375
1790		99.609375
1791		101.562500
1792		97.656250
1793		103.515625
1794		97.656250
1795		105.468750
1796		99.609375
1797		105.468750
1798		99.609375
1799		105.468750
1800		99.609375
1801		105.468750
1802		99.609375
1803		107.421875
1804		101.562500
1805		107.421875
1806		103.515625
1807		105.468750
1808		101.562500
1809		107.421875
1810		101.562500
1811		107.421875
1812		101.562500
1813		107.421875
1814		101.562500
1815		107.421875
1816		101.562500
1817		107.421875
1818		101.562500
1819		107.421875
1820		101.562500
1821		107.421875
1822		103.515625
1823		105.468750
1824		101.562500
1825		105.468750
1826		99.609375
1827		107.421875
1828		99.609375
1829		107.421875
1830		99.609375
1831		105.468750
1832		97.656250
1833		105.468750
1834		97.656250
1835		105.468750
1836		97.656250
1837		103.515625
1838		99.609375
1839		101.562500
1840		97.656250
1841		101.562500
1842		95.703125
1843		101.562500
1844		93.750000
1845		101.562500
1846		93.750000
1847		99.609375
1848		91.796875
1849		99.609375
1850		89.843750
1851		97.656250
1852		89.843750
1853		95.703125
1854		87.890625
1855		95.703125
1856		87.890625
1857		91.796875
1858		85.937500
1859		91.796875
1860		83.984375
1861		89.843750
1862		82.031250
1863		89.843750
1864		80.078125
1865		87.890625
1866		78.125000
1867		85.937500
1868		76.171875
1869		83.984375
1870		74.218750
1871		82.031250
1872		76.171875
1873		78.125000
1874		74.218750
1875		76.171875
1876		68.359375
1877		76.171875
1878		68.359375
1879		74.218750
1880		64.453125
1881		72.265625
1882		62.500000
1883		70.312500
1884		60.546875
1885		68.359375
1886		58.593750
1887		66.406250
1888		58.593750
1889		64.453125
1890		56.640625
1891		60.546875
1892		50.781250
1893		58.593750
1894		48.828125
1895		56.640625
1896		46.875000
1897		54.687500
1898		44.921875
1899		52.734375
1900		41.015625
1901		48.828125
1902		37.109375
1903		46.875000
1904		37.109375
1905		44.921875
1906		35.156250
1907		39.062500
1908		31.250000
1909		37.109375
1910		27.343750
1911		35.156250
1912		25.390625
1913		33.203125
1914		23.437500
1915		31.250000
1916		19.531250
1917		27.343750
1918		17.578125
1919		23.437500
1920		13.671875
1921		21.484375
1922		11.718750
1923		17.578125
1924		9.765625
1925		13.671875
1926		3.906250
1927		11.718750
1928		1.953125
1929		9.765625
1930		-1.953125
1931		5.859375
1932		-3.906250
1933		3.906250
1934		-5.859375
1935		0.000000
1936		-9.765625
1937		-1.953125
1938		-11.718750
1939		-5.859375
1940		-15.625000
1941		-9.765625
1942		-17.578125
1943		-13.671875
1944		-21.484375
1945		-15.625000
1946		-27.343750
1947		-17.578125
1948		-29.296875
1949		-21.484375
1950		-31.250000
1951		-23.437500
1952		-35.156250
1953		-27.343750
1954		-37.109375
1955		-31.250000
1956		-39.062500
1957		-35.156250
1958		-42.968750
1959		-37.109375
1960		-46.875000
1961		-39.062500
1962		-48.828125
1963		-41.015625
1964		-50.781250
1965		-44.921875
1966		-54.687500
1967		-46.875000
1968		-58.593750
1969		-50.781250
1970		-60.546875
1971		-52.734375
1972		-62.500000
1973		-56.640625
1974		-64.453125
1975		-60.546875
1976		-68.359375
1977		-62.500000
1978		-72.265625
1979		-64.453125
1980		-74.218750
1981		-66.406250
1982		-78.125000
1983		-70.312500
1984		-80.078125
1985		-72.265625
1986		-82.031250
1987		-74.218750
1988		-83.984375
1989		-76.171875
1990		-83.984375
1991		-80.078125
1992		-87.890625
1993		-83.984375
1994		-91.796875
1995		-83.984375
1996		-91.796875
1997		-85.937500
1998		-95.703125
1999		-87.890625
2000		-97.656250
2001		-89.843750
2002		-99.609375
2003		-91.796875
2004		-101.562500
2005		-93.750000
2006		-101.562500
2007		-97.656250
2008		-103.515625
2009		-99.609375
2010		-105.468750
2011		-99.609375
2012		-109.375000
2013		-101.562500
2014		-109.375000
2015		-103.515625
2016		-111.328125
2017		-103.515625
2018		-113.281250
2019		-105.468750
2020		-113.281250
2021		-107.421875
2022		-113.281250
2023		-107.421875
2024		-113.281250
2025		-111.328125
2026		-117.187500
2027		-111.328125
2028		-119.140625
2029		-111.328125
2030		-119.140625
2031		-111.328125
2032		-121.093750
2033		-113.281250
2034		-121.093750
2035		-113.281250
2036		-121.093750
2037		-115.234375
2038		-121.093750
2039		-115.234375
2040		-121.093750
2041		-117.187500
2042		-121.093750
2043		-117.187500
2044		-123.046875
2045		-115.234375
2046		-123.046875
2047		-117.187500
2048		-123.046875
2049		-117.187500
2050		-123.046875
2051		-117.187500
2052		-123.046875
2053		-117.187500
2054		-123.046875
2055		-115.234375
2056		-123.046875
2057		-117.187500
2058		-119.140625
2059		-117.187500
2060		-121.093750
2061		-115.234375
2062		-121.093750
2063		-115.234375
2064		-121.093750
2065		-113.281250
2066		-121.093750
2067		-113.281250
2068		-119.140625
2069		-113.281250
2070		-117.187500
2071		-111.328125
2072		-117.187500
2073		-111.328125
2074		-115.234375
2075		-111.328125
2076		-113.281250
2077		-111.328125
2078		-113.281250
2079		-107.421875
2080		-113.281250
2081		-105.468750
2082		-111.328125
2083		-103.515625
2084		-109.375000
2085		-103.515625
2086		-109.375000
2087		-101.562500
2088		-107.421875
2089		-99.609375
2090		-103.515625
2091		-99.609375
2092		-101.562500
2093		-97.656250
2094		-101.562500
2095		-93.750000
2096		-99.609375
2097		-91.796875
2098		-97.656250
2099		-89.843750
2100		-95.703125
2101		-87.890625
2102		-93.750000
2103		-85.937500
2104		-91.796875
2105		-83.984375
2106		-87.890625
2107		-82.031250
2108		-83.984375
2109		-80.078125
2110		-82.031250
2111		-78.125000
2112		-82.031250
2113		-74.218750
2114		-80.078125
2115		-72.265625
2116		-76.171875
2117		-68.359375
2118		-74.218750
2119		-66.406250
2120		-72.265625
2121		-64.453125
2122		-68.359375
2123		-62.500000
2124		-64.453125
2125		-60.546875
2126		-62.500000
2127		-56.640625
2128		-60.546875
2129		-52.734375
2130		-58.593750
2131		-48.828125
2132		-56.640625
2133		-46.875000
2134		-52.734375
2135		-42.968750
2136		-48.828125
2137		-41.015625
2138		-46.875000
2139		-39.062500
2140		-42.968750
2141		-37.109375
2142		-39.062500
2143		-33.203125
2144		-35.156250
2145		-29.296875
2146		-35.156250
2147		-27.343750
2148		-33.203125
2149		-23.437500
2150		-27.343750
2151		-19.531250
2152		-23.437500
2153		-15.625000
2154		-21.484375
2155		-13.671875
2156		-19.531250
2157		-11.718750
2158		-13.671875
2159		-9.765625
2160		-11.718750
2161		-5.859375
2162		-9.765625
2163		-1.953125
2164		-5.859375
2165		0.000000
2166		-3.906250
2167		3.906250
2168		0.000000
2169		7.812500
2170		1.953125
2171		9.765625
2172		5.859375
2173		13.671875
2174		9.765625
2175		13.671875
2176		13.671875
2177		17.578125
2178		15.625000
2179		21.484375
2180		17.578125
2181		25.390625
2182		19.531250
2183		27.343750
2184		23.437500
2185		29.296875
2186		25.390625
2187		33.203125
2188		27.343750
2189		37.109375
2190		33.203125
2191		37.109375
2192		35.156250
2193		39.062500
2194		39.062500
2195		42.968750
2196		39.062500
2197		46.875000
2198		42.968750
2199		48.828125
2200		44.921875
2201		52.734375
2202		46.875000
2203		54.687500
2204		48.828125
2205		56.640625
2206		52.734375
2207		58.593750
2208		56.640625
2209		58.593750
2210		58.593750
2211		62.500000
2212		58.593750
2213		66.406250
2214		62.500000
2215		68.359375
2216		62.500000
2217		70.312500
2218		66.406250
2219		72.265625
2220		68.359375
2221		74.218750
2222		68.359375
2223		76.171875
2224		70.312500
2225		76.171875
2226		74.218750
2227		78.125000
2228		76.171875
2229		82.031250
2230		76.171875
2231		83.984375
2232		78.125000
2233		85.937500
2234		80.078125
2235		87.890625
2236		82.031250
2237		87.890625
2238		82.031250
2239		89.843750
2240		83.984375
2241		91.796875
2242		87.890625
2243		91.796875
2244		89.843750
2245		93.750000
2246		89.843750
2247		95.703125
2248		89.843750
2249		95.703125
2250		91.796875
2251		97.656250
2252		93.750000
2253		99.609375
2254		93.750000
2255		101.562500
2256		95.703125
2257		101.562500
2258		97.656250
2259		99.609375
2260		97.656250
2261		101.562500
2262		97.656250
2263		103.515625
2264		97.656250
2265		103.515625
2266		97.656250
2267		105.468750
2268		99.609375
2269		105.468750
2270		99.609375
2271		105.468750
2272		99.609375
2273		107.421875
2274		101.562500
2275		107.421875
2276		103.515625
2277		105.468750
2278		103.515625
2279		107.421875
2280		101.562500
2281		107.421875
2282		101.562500
2283		107.421875
2284		101.562500
2285		107.421875
2286		101.562500
2287		107.421875
2288		101.562500
2289		107.421875
2290		101.562500
2291		107.421875
2292		103.515625
2293		105.468750
2294		103.515625
2295		105.468750
2296		101.562500
2297		107.421875
2298		99.609375
2299		107.421875
2300		99.609375
2301		105.468750
2302		99.609375
2303		105.468750
2304		99.609375
2305		105.468750
2306		97.656250
2307		105.468750
2308		97.656250
2309		103.515625
2310		97.656250
2311		101.562500
2312		95.703125
2313		101.562500
2314		93.750000
2315		101.562500
2316		93.750000
2317		101.562500
2318		91.796875
2319		99.609375
2320		91.796875
2321		97.656250
2322		89.843750
2323		97.656250
2324		89.843750
2325		95.703125
2326		89.843750
2327		91.796875
2328		87.890625
2329		91.796875
2330		85.937500
2331		91.796875
2332		82.031250
2333		91.796875
2334		82.031250
2335		89.843750
2336		80.078125
2337		87.890625
2338		78.125000
2339		85.937500
2340		76.171875
2341		83.984375
2342		76.171875
2343		82.031250
2344		76.171875
2345		78.125000
2346		72.265625
2347		76.171875
2348		68.359375
2349		76.171875
2350		66.406250
2351		74.218750
2352		64.453125
2353		72.265625
2354		62.500000
2355		70.312500
2356		60.546875
2357		68.359375
2358		58.593750
2359		66.406250
2360		58.593750
2361		62.500000
2362		54.687500
2363		58.593750
2364		50.781250
2365		58.593750
2366		48.828125
2367		56.640625
2368		46.875000
2369		54.687500
2370		42.968750
2371		52.734375
2372		41.015625
2373		48.828125
2374		39.062500
2375		46.875000
2376		37.109375
2377		41.015625
2378		35.156250
2379		39.062500
2380		31.250000
2381		37.109375
2382		27.343750
2383		35.156250
2384		25.390625
2385		33.203125
2386		21.484375
2387		29.296875
2388		19.531250
2389		27.343750
2390		15.625000
2391		25.390625
2392		15.625000
2393		21.484375
2394		11.718750
2395		15.625000
2396		5.859375
2397		13.671875
2398		3.906250
2399		11.718750
2400		1.953125
2401		9.765625
2402		-1.953125
2403		5.859375
2404		-3.906250
2405		1.953125
2406		-7.812500
2407		0.000000
2408		-9.765625
2409		-3.906250
2410		-13.671875
2411		-7.812500
2412		-15.625000
2413		-11.718750
2414		-21.484375
2415		-13.671875
2416		-23.437500
2417		-15.625000
2418		-25.390625
2419		-19.531250
2420		-29.296875
2421		-21.484375
2422		-31.250000
2423		-23.437500
2424		-35.156250
2425		-27.343750
2426		-37.109375
2427		-29.296875
2428		-39.062500
2429		-35.156250
2430		-44.921875
2431		-39.062500
2432		-46.875000
2433		-39.062500
2434		-50.781250
2435		-42.968750
2436		-52.734375
2437		-44.921875
2438		-54.687500
2439		-46.875000
2440		-58.593750
2441		-50.781250
2442		-60.546875
2443		-52.734375
2444		-62.500000
2445		-58.593750
2446		-66.406250
2447		-60.546875
2448		-70.312500
2449		-62.500000
2450		-72.265625
2451		-64.453125
2452		-74.218750
2453		-66.406250
2454		-78.125000
2455		-70.312500
2456		-80.078125
2457		-72.265625
2458		-82.031250
2459		-74.218750
2460		-82.031250
2461		-78.125000
2462		-85.937500
2463		-82.031250
2464		-89.843750
2465		-82.031250
2466		-91.796875
2467		-83.984375
2468		-93.750000
2469		-85.937500
2470		-95.703125
2471		-87.890625
2472		-97.656250
2473		-89.843750
2474		-99.609375
2475		-91.796875
2476		-99.609375
2477		-93.750000
2478		-101.562500
2479		-97.656250
2480		-103.515625
2481		-99.609375
2482		-107.421875
2483		-99.609375
2484		-107.421875
2485		-101.562500
2486		-109.375000
2487		-103.515625
2488		-111.328125
2489		-105.468750
2490		-113.281250
2491		-105.468750
2492		-113.281250
2493		-105.468750
2494		-113.281250
2495		-109.375000
2496		-115.234375
2497		-111.328125
2498		-117.187500
2499		-111.328125
2500		-119.140625
2501		-111.328125
2502		-119.140625
2503		-113.281250
2504		-121.093750
2505		-113.281250
2506		-121.093750
2507		-113.281250
2508		-121.093750
2509		-115.234375
2510		-121.093750
2511		-115.234375
2512		-119.140625
2513		-117.187500
2514		-121.093750
2515		-117.187500
2516		-121.093750
2517		-117.187500
2518		-123.046875
2519		-117.187500
2520		-123.046875
2521		-117.187500
2522		-123.046875
2523		-117.187500
2524		-123.046875
2525		-117.187500
2526		-121.093750
2527		-117.187500
2528		-121.093750
2529		-119.140625
2530		-121.093750
2531		-117.187500
2532		-123.046875
2533		-115.234375
2534		-121.093750
2535		-113.281250
2536		-121.093750
2537		-113.281250
2538		-121.093750
2539		-113.281250
2540		-119.140625
2541		-113.281250
2542		-119.140625
2543		-111.328125
2544		-115.234375
2545		-113.281250
2546		-113.281250
2547		-111.328125
2548		-113.281250
2549		-107.421875
2550		-115.234375
2551		-107.421875
2552		-113.281250
2553		-105.468750
2554		-111.328125
2555		-103.515625
2556		-109.375000
2557		-103.515625
2558		-107.421875
2559		-99.609375
2560		-107.421875
2561		-99.609375
2562		-103.515625
2563		-99.609375
2564		-101.562500
2565		-97.656250
2566		-101.562500
2567		-93.750000
2568		-99.609375
2569		-91.796875
2570		-97.656250
2571		-89.843750
2572		-95.703125
2573		-87.890625
2574		-93.750000
2575		-85.937500
2576		-91.796875
2577		-83.984375
2578		-85.937500
2579		-82.031250
2580		-83.984375
2581		-80.078125
2582		-83.984375
2583		-76.171875
2584		-82.031250
2585		-72.265625
2586		-78.125000
2587		-70.312500
2588		-76.171875
2589		-68.359375
2590		-74.218750
2591		-64.453125
2592		-70.312500
2593		-62.500000
2594		-68.359375
2595		-62.500000
2596		-64.453125
2597		-60.546875
2598		-60.546875
2599		-54.687500
2600		-58.593750
2601		-52.734375
2602		-56.640625
2603		-48.828125
2604		-54.687500
2605		-46.875000
2606		-52.734375
2607		-42.968750
2608		-48.828125
2609		-41.015625
2610		-44.921875
2611		-39.062500
2612		-41.015625
2613		-37.109375
2614		-37.109375
2615		-33.203125
2616		-37.109375
2617		-29.296875
2618		-33.203125
2619		-25.390625
2620		-29.296875
2621		-21.484375
2622		-27.343750
2623		-19.531250
2624		-23.437500
2625		-17.578125
2626		-21.484375
2627		-13.671875
2628		-15.625000
2629		-11.718750
2630		-13.671875
2631		-7.812500
2632		-9.765625
2633		-3.906250
2634		-9.765625
2635		-1.953125
2636		-5.859375
2637		1.953125
2638		-1.953125
2639		3.906250
2640		0.000000
2641		9.765625
2642		3.906250
2643		11.718750
2644		5.859375
2645		11.718750
2646		11.718750
2647		15.625000
2648		13.671875
2649		19.531250
2650		13.671875
2651		23.437500
2652		19.531250
2653		27.343750
2654		21.484375
2655		27.343750
2656		23.437500
2657		31.250000
2658		25.390625
2659		35.156250
2660		29.296875
2661		37.109375
2662		33.203125
2663		39.062500
2664		37.109375
2665		41.015625
2666		37.109375
2667		44.921875
2668		39.062500
2669		48.828125
2670		42.968750
2671		48.828125
2672		44.921875
2673		52.734375
2674		46.875000
2675		54.687500
2676		50.781250
2677		56.640625
2678		52.734375
2679		58.593750
2680		56.640625
2681		60.546875
2682		58.593750
2683		64.453125
2684		60.546875
2685		66.406250
2686		62.500000
2687		68.359375
2688		64.453125
2689		70.312500
2690		66.406250
2691		72.265625
2692		68.359375
2693		74.218750
2694		68.359375
2695		76.171875
2696		74.218750
2697		78.125000
2698		76.171875
2699		78.125000
2700		76.171875
2701		82.031250
2702		78.125000
2703		83.984375
2704		78.125000
2705		85.937500
2706		80.078125
2707		87.890625
2708		82.031250
2709		89.843750
2710		83.984375
2711		89.843750
2712		85.937500
2713		89.843750
2714		87.890625
2715		91.796875
2716		87.890625
2717		95.703125
2718		89.843750
2719		97.656250
2720		89.843750
2721		97.656250
2722		91.796875
2723		97.656250
2724		91.796875
2725		99.609375
2726		93.750000
2727		101.562500
2728		95.703125
2729		101.562500
2730		97.656250
2731		101.562500
2732		97.656250
2733		101.562500
2734		97.656250
2735		103.515625
2736		97.656250
2737		103.515625
2738		99.609375
2739		105.468750
2740		99.609375
2741		105.468750
2742		99.609375
2743		105.468750
2744		99.609375
2745		107.421875
2746		103.515625
2747		105.468750
2748		103.515625
2749		105.468750
2750		101.562500
2751		107.421875
2752		101.562500
2753		109.375000
2754		101.562500
2755		107.421875
2756		101.562500
2757		107.421875
2758		101.562500
2759		107.421875
2760		101.562500
2761		107.421875
2762		101.562500
2763		107.421875
2764		103.515625
2765		105.468750
2766		101.562500
2767		107.421875
2768		101.562500
2769		107.421875
2770		101.562500
2771		107.421875
2772		99.609375
2773		105.468750
2774		99.609375
2775		105.468750
2776		97.656250
2777		105.468750
2778		97.656250
2779		105.468750
2780		99.609375
2781		101.562500
2782		97.656250
2783		101.562500
2784		95.703125
2785		101.562500
2786		93.750000
2787		101.562500
2788		93.750000
2789		101.562500
2790		91.796875
2791		99.609375
2792		91.796875
2793		97.656250
2794		89.843750
2795		97.656250
2796		91.796875
2797		95.703125
2798		89.843750
2799		91.796875
2800		85.937500
2801		91.796875
2802		83.984375
2803		91.796875
2804		82.031250
2805		89.843750
2806		82.031250
2807		87.890625
2808		80.078125
2809		87.890625
2810		78.125000
2811		85.937500
2812		78.125000
2813		83.984375
2814		76.171875
2815		80.078125
2816		74.218750
2817		78.125000
2818		70.312500
2819		78.125000
2820		68.359375
2821		76.171875
2822		66.406250
2823		74.218750
2824		64.453125
2825		72.265625
2826		62.500000
2827		70.312500
2828		60.546875
2829		66.406250
2830		60.546875
2831		64.453125
2832		56.640625
2833		60.546875
2834		52.734375
2835		60.546875
2836		50.781250
2837		58.593750
2838		48.828125
2839		56.640625
2840		44.921875
2841		52.734375
2842		42.968750
2843		48.828125
2844		41.015625
2845		46.875000
2846		39.062500
2847		44.921875
2848		37.109375
2849		41.015625
2850		31.250000
2851		39.062500
2852		29.296875
2853		37.109375
2854		27.343750
2855		35.156250
2856		25.390625
2857		29.296875
2858		23.437500
2859		27.343750
2860		17.578125
2861		23.437500
2862		15.625000
2863		23.437500
2864		13.671875
2865		17.578125
2866		11.718750
2867		15.625000
2868		5.859375
2869		13.671875
2870		3.906250
2871		11.718750
2872		1.953125
2873		7.812500
2874		-1.953125
2875		3.906250
2876		-3.906250
2877		0.000000
2878		-9.765625
2879		-1.953125
2880		-9.765625
2881		-3.906250
2882		-13.671875
2883		-9.765625
2884		-17.578125
2885		-11.718750
2886		-19.531250
2887		-13.671875
2888		-25.390625
2889		-17.578125
2890		-25.390625
2891		-21.484375
2892		-29.296875
2893		-23.437500
2894		-31.250000
2895		-25.390625
2896		-35.156250
2897		-29.296875
2898		-37.109375
2899		-33.203125
2900		-41.015625
2901		-35.156250
2902		-42.968750
2903		-37.109375
2904		-46.875000
2905		-41.015625
2906		-48.828125
2907		-42.968750
2908		-52.734375
2909		-46.875000
2910		-54.687500
2911		-50.781250
2912		-58.593750
2913		-52.734375
2914		-60.546875
2915		-56.640625
2916		-62.500000
2917		-58.593750
2918		-66.406250
2919		-60.546875
2920		-68.359375
2921		-64.453125
2922		-70.312500
2923		-66.406250
2924		-74.218750
2925		-70.312500
2926		-76.171875
2927		-72.265625
2928		-78.125000
2929		-74.218750
2930		-80.078125
2931		-76.171875
2932		-83.984375
2933		-80.078125
2934		-85.937500
2935		-82.031250
2936		-87.890625
2937		-83.984375
2938		-89.843750
2939		-85.937500
2940		-91.796875
2941		-87.890625
2942		-95.703125
2943		-89.843750
2944		-95.703125
2945		-91.796875
2946		-97.656250
2947		-93.750000
2948		-99.609375
2949		-95.703125
2950		-101.562500
2951		-97.656250
2952		-103.515625
2953		-99.609375
2954		-105.468750
2955		-101.562500
2956		-107.421875
2957		-103.515625
2958		-107.421875
2959		-105.468750
2960		-109.375000
2961		-105.468750
2962		-111.328125
2963		-107.421875
2964		-111.328125
2965		-107.421875
2966		-113.281250
2967		-109.375000
2968		-113.281250
2969		-111.328125
2970		-115.234375
2971		-111.328125
2972		-115.234375
2973		-113.281250
2974		-117.187500
2975		-113.281250
2976		-117.187500
2977		-115.234375
2978		-119.140625
2979		-115.234375
2980		-119.140625
2981		-115.234375
2982		-119.140625
2983		-117.187500
2984		-119.140625
2985		-117.187500
2986		-121.093750
2987		-117.187500
2988		-121.093750
2989		-117.187500
2990		-121.093750
2991		-117.187500
2992		-121.093750
2993		-117.187500
2994		-121.093750
2995		-117.187500
2996		-121.093750
2997		-115.234375
2998		-119.140625
2999		-117.187500
3000		-119.140625
3001		-117.187500
3002		-119.140625
3003		-117.187500
3004		-119.140625
3005		-117.187500
3006		-119.140625
3007		-115.234375
3008		-119.140625
3009		-115.234375
3010		-117.187500
3011		-113.281250
3012		-117.187500
3013		-113.281250
3014		-115.234375
3015		-111.328125
3016		-113.281250
3017		-111.328125
3018		-113.281250
3019		-109.375000
3020		-111.328125
3021		-109.375000
3022		-111.328125
3023		-107.421875
3024		-109.375000
3025		-105.468750
3026		-109.375000
3027		-103.515625
3028		-107.421875
3029		-103.515625
3030		-105.468750
3031		-101.562500
3032		-103.515625
3033		-99.609375
3034		-101.562500
3035		-97.656250
3036		-101.562500
3037		-95.703125
3038		-97.656250
3039		-93.750000
3040		-95.703125
3041		-91.796875
3042		-93.750000
3043		-89.843750
3044		-91.796875
3045		-87.890625
3046		-89.843750
3047		-85.937500
3048		-87.890625
3049		-83.984375
3050		-83.984375
3051		-82.031250
3052		-83.984375
3053		-78.125000
3054		-80.078125
3055		-76.171875
3056		-78.125000
3057		-74.218750
3058		-76.171875
3059		-70.312500
3060		-72.265625
3061		-68.359375
3062		-70.312500
3063		-66.406250
3064		-68.359375
3065		-62.500000
3066		-64.453125
3067		-60.546875
3068		-62.500000
3069		-56.640625
3070		-58.593750
3071		-54.687500
3072		-56.640625
3073		-52.734375
3074		-52.734375
3075		-48.828125
3076		-50.781250
3077		-44.921875
3078		-48.828125
3079		-42.968750
3080		-44.921875
3081		-39.062500
3082		-41.015625
3083		-37.109375
3084		-39.062500
3085		-35.156250
3086		-37.109375
3087		-31.250000
3088		-33.203125
3089		-27.343750
3090		-29.296875
3091		-25.390625
3092		-27.343750
3093		-21.484375
3094		-23.437500
3095		-17.578125
3096		-21.484375
3097		-15.625000
3098		-17.578125
3099		-13.671875
3100		-13.671875
3101		-9.765625
3102		-11.718750
3103		-5.859375
3104		-9.765625
3105		-3.906250
3106		-5.859375
3107		0.000000
3108		-1.953125
3109		1.953125
3110		0.000000
3111		5.859375
3112		3.906250
3113		7.812500
3114		5.859375
3115		11.718750
3116		9.765625
3117		13.671875
3118		11.718750
3119		17.578125
3120		15.625000
3121		19.531250
3122		17.578125
3123		23.437500
3124		21.484375
3125		25.390625
3126		23.437500
3127		29.296875
3128		27.343750
3129		31.250000
3130		29.296875
3131		35.156250
3132		31.250000
3133		37.109375
3134		35.156250
3135		39.062500
3136		37.109375
3137		42.968750
3138		41.015625
3139		44.921875
3140		42.968750
3141		46.875000
3142		44.921875
3143		50.781250
3144		48.828125
3145		52.734375
3146		50.781250
3147		54.687500
3148		52.734375
3149		56.640625
3150		54.687500
3151		60.546875
3152		58.593750
3153		62.500000
3154		60.546875
3155		64.453125
3156		62.500000
3157		66.406250
3158		64.453125
3159		68.359375
3160		66.406250
3161		70.312500
3162		68.359375
3163		74.218750
3164		70.312500
3165		76.171875
3166		72.265625
3167		76.171875
3168		74.218750
3169		78.125000
3170		76.171875
3171		80.078125
3172		78.125000
3173		82.031250
3174		80.078125
3175		83.984375
3176		82.031250
3177		85.937500
3178		83.984375
3179		87.890625
3180		83.984375
3181		87.890625
3182		85.937500
3183		89.843750
3184		87.890625
3185		91.796875
3186		89.843750
3187		93.750000
3188		91.796875
3189		93.750000
3190		91.796875
3191		95.703125
3192		93.750000
3193		97.656250
3194		93.750000
3195		97.656250
3196		95.703125
3197		99.609375
3198		97.656250
3199		99.609375
3200		97.656250
3201		99.609375
3202		99.609375
3203		101.562500
3204		99.609375
3205		103.515625
3206		99.609375
3207		103.515625
3208		99.609375
3209		103.515625
3210		101.562500
3211		105.468750
3212		101.562500
3213		105.468750
3214		103.515625
3215		105.468750
3216		103.515625
3217		105.468750
3218		103.515625
3219		105.468750
3220		103.515625
3221		107.421875
3222		103.515625
3223		107.421875
3224		103.515625
3225		107.421875
3226		103.515625
3227		107.421875
3228		103.515625
3229		107.421875
3230		103.515625
3231		107.421875
3232		103.515625
3233		107.421875
3234		103.515625
3235		105.468750
3236		103.515625
3237		105.468750
3238		103.515625
3239		107.421875
3240		101.562500
3241		105.468750
3242		103.515625
3243		105.468750
3244		101.562500
3245		105.468750
3246		101.562500
3247		105.468750
3248		99.609375
3249		103.515625
3250		99.609375
3251		103.515625
3252		99.609375
3253		101.562500
3254		99.609375
3255		101.562500
3256		97.656250
3257		101.562500
3258		95.703125
3259		99.609375
3260		95.703125
3261		97.656250
3262		93.750000
3263		97.656250
3264		93.750000
3265		97.656250
3266		91.796875
3267		95.703125
3268		89.843750
3269		93.750000
3270		87.890625
3271		91.796875
3272		87.890625
3273		91.796875
3274		85.937500
3275		89.843750
3276		85.937500
3277		87.890625
3278		82.031250
3279		87.890625
3280		82.031250
3281		85.937500
3282		80.078125
3283		83.984375
3284		78.125000
3285		82.031250
3286		76.171875
3287		80.078125
3288		74.218750
3289		78.125000
3290		72.265625
3291		76.171875
3292		70.312500
3293		74.218750
3294		68.359375
3295		72.265625
3296		66.406250
3297		70.312500
3298		64.453125
3299		68.359375
3300		62.500000
3301		66.406250
3302		58.593750
3303		62.500000
3304		56.640625
3305		60.546875
3306		54.687500
3307		58.593750
3308		52.734375
3309		56.640625
3310		48.828125
3311		54.687500
3312		46.875000
3313		50.781250
3314		44.921875
3315		48.828125
3316		41.015625
3317		44.921875
3318		39.062500
3319		42.968750
3320		37.109375
3321		41.015625
3322		33.203125
3323		39.062500
3324		31.250000
3325		37.109375
3326		27.343750
3327		33.203125
3328		25.390625
3329		29.296875
3330		21.484375
3331		27.343750
3332		17.578125
3333		23.437500
3334		17.578125
3335		21.484375
3336		13.671875
3337		17.578125
3338		9.765625
3339		15.625000
3340		7.812500
3341		11.718750
3342		3.906250
3343		9.765625
3344		1.953125
3345		5.859375
3346		-1.953125
3347		3.906250
3348		-5.859375
3349		0.000000
3350		-7.812500
3351		-1.953125
3352		-9.765625
3353		-5.859375
3354		-13.671875
3355		-9.765625
3356		-17.578125
3357		-11.718750
3358		-19.531250
3359		-15.625000
3360		-23.437500
3361		-17.578125
3362		-25.390625
3363		-21.484375
3364		-29.296875
3365		-23.437500
3366		-31.250000
3367		-27.343750
3368		-35.156250
3369		-29.296875
3370		-37.109375
3371		-33.203125
3372		-41.015625
3373		-35.156250
3374		-42.968750
3375		-39.062500
3376		-46.875000
3377		-41.015625
3378		-48.828125
3379		-44.921875
3380		-52.734375
3381		-46.875000
3382		-56.640625
3383		-50.781250
3384		-58.593750
3385		-52.734375
3386		-60.546875
3387		-56.640625
3388		-64.453125
3389		-58.593750
3390		-66.406250
3391		-62.500000
3392		-68.359375
3393		-64.453125
3394		-70.312500
3395		-66.406250
3396		-74.218750
3397		-68.359375
3398		-76.171875
3399		-72.265625
3400		-80.078125
3401		-74.218750
3402		-80.078125
3403		-76.171875
3404		-83.984375
3405		-80.078125
3406		-85.937500
3407		-82.031250
3408		-87.890625
3409		-83.984375
3410		-89.843750
3411		-85.937500
3412		-91.796875
3413		-87.890625
3414		-93.750000
3415		-89.843750
3416		-95.703125
3417		-91.796875
3418		-97.656250
3419		-93.750000
3420		-99.609375
3421		-95.703125
3422		-103.515625
3423		-97.656250
3424		-103.515625
3425		-99.609375
3426		-105.468750
3427		-101.562500
3428		-107.421875
3429		-103.515625
3430		-107.421875
3431		-105.468750
3432		-109.375000
3433		-105.468750
3434		-111.328125
3435		-107.421875
3436		-111.328125
3437		-109.375000
3438		-115.234375
3439		-109.375000
3440		-115.234375
3441		-111.328125
3442		-115.234375
3443		-111.328125
3444		-115.234375
3445		-111.328125
3446		-117.187500
3447		-113.281250
3448		-117.187500
3449		-113.281250
3450		-119.140625
3451		-115.234375
3452		-119.140625
3453		-115.234375
3454		-119.140625
3455		-117.187500
3456		-119.140625
3457		-115.234375
3458		-119.140625
3459		-117.187500
3460		-119.140625
3461		-117.187500
3462		-119.140625
3463		-117.187500
3464		-121.093750
3465		-117.187500
3466		-119.140625
3467		-117.187500
3468		-121.093750
3469		-117.187500
3470		-119.140625
3471		-117.187500
3472		-119.140625
3473		-115.234375
3474		-119.140625
3475		-115.234375
3476		-119.140625
3477		-115.234375
3478		-117.187500
3479		-115.234375
3480		-117.187500
3481		-113.281250
3482		-115.234375
3483		-113.281250
3484		-115.234375
3485		-111.328125
3486		-113.281250
3487		-111.328125
3488		-113.281250
3489		-109.375000
3490		-113.281250
3491		-109.375000
3492		-111.328125
3493		-107.421875
3494		-109.375000
3495		-105.468750
3496		-107.421875
3497		-105.468750
3498		-107.421875
3499		-103.515625
3500		-105.468750
3501		-101.562500
3502		-103.515625
3503		-99.609375
3504		-101.562500
3505		-99.609375
3506		-101.562500
3507		-95.703125
3508		-97.656250
3509		-95.703125
3510		-97.656250
3511		-93.750000
3512		-95.703125
3513		-89.843750
3514		-93.750000
3515		-89.843750
3516		-91.796875
3517		-85.937500
3518		-87.890625
3519		-83.984375
3520		-85.937500
3521		-82.031250
3522		-83.984375
3523		-78.125000
3524		-82.031250
3525		-76.171875
3526		-80.078125
3527		-74.218750
3528		-76.171875
3529		-72.265625
3530		-74.218750
3531		-70.312500
3532		-72.265625
3533		-66.406250
3534		-68.359375
3535		-64.453125
3536		-66.406250
3537		-62.500000
3538		-62.500000
3539		-58.593750
3540		-60.546875
3541		-54.687500
3542		-58.593750
3543		-52.734375
3544		-54.687500
3545		-50.781250
3546		-52.734375
3547		-46.875000
3548		-48.828125
3549		-44.921875
3550		-46.875000
3551		-41.015625
3552		-44.921875
3553		-39.062500
3554		-41.015625
3555		-35.156250
3556		-37.109375
3557		-31.250000
3558		-35.156250
3559		-29.296875
3560		-31.250000
3561		-25.390625
3562		-27.343750
3563		-23.437500
3564		-25.390625
3565		-21.484375
3566		-21.484375
3567		-17.578125
3568		-19.531250
3569		-13.671875
3570		-15.625000
3571		-11.718750
3572		-13.671875
3573		-7.812500
3574		-11.718750
3575		-5.859375
3576		-7.812500
3577		-1.953125
3578		-3.906250
3579		0.000000
3580		-1.953125
3581		3.906250
3582		1.953125
3583		5.859375
3584		3.906250
3585		9.765625
3586		7.812500
3587		11.718750
3588		11.718750
3589		15.625000
3590		13.671875
3591		19.531250
3592		15.625000
3593		21.484375
3594		19.531250
3595		23.437500
3596		21.484375
3597		27.343750
3598		25.390625
3599		29.296875
3600		27.343750
3601		33.203125
3602		31.250000
3603		35.156250
3604		33.203125
3605		37.109375
3606		37.109375
3607		41.015625
3608		39.062500
3609		44.921875
3610		41.015625
3611		46.875000
3612		42.968750
3613		48.828125
3614		46.875000
3615		50.781250
3616		48.828125
3617		52.734375
3618		50.781250
3619		56.640625
3620		54.687500
3621		58.593750
3622		56.640625
3623		60.546875
3624		58.593750
3625		64.453125
3626		60.546875
3627		66.406250
3628		62.500000
3629		68.359375
3630		66.406250
3631		70.312500
3632		68.359375
3633		72.265625
3634		70.312500
3635		74.218750
3636		72.265625
3637		76.171875
3638		74.218750
3639		78.125000
3640		76.171875
3641		80.078125
3642		78.125000
3643		80.078125
3644		80.078125
3645		83.984375
3646		82.031250
3647		83.984375
3648		82.031250
3649		85.937500
3650		83.984375
3651		87.890625
3652		85.937500
3653		89.843750
3654		87.890625
3655		89.843750
3656		87.890625
3657		91.796875
3658		89.843750
3659		93.750000
3660		91.796875
3661		95.703125
3662		91.796875
3663		95.703125
3664		93.750000
3665		97.656250
3666		95.703125
3667		99.609375
3668		95.703125
3669		99.609375
3670		95.703125
3671		99.609375
3672		97.656250
3673		101.562500
3674		99.609375
3675		101.562500
3676		99.609375
3677		103.515625
3678		99.609375
3679		103.515625
3680		101.562500
3681		103.515625
3682		101.562500
3683		105.468750
3684		101.562500
3685		105.468750
3686		103.515625
3687		105.468750
3688		103.515625
3689		105.468750
3690		103.515625
3691		107.421875
3692		103.515625
3693		107.421875
3694		103.515625
3695		107.421875
3696		103.515625
3697		107.421875
3698		103.515625
3699		107.421875
3700		103.515625
3701		107.421875
3702		103.515625
3703		107.421875
3704		103.515625
3705		107.421875
3706		103.515625
3707		107.421875
3708		103.515625
3709		107.421875
3710		103.515625
3711		105.468750
3712		103.515625
3713		105.468750
3714		101.562500
3715		105.468750
3716		101.562500
3717		105.468750
3718		101.562500
3719		105.468750
3720		101.562500
3721		105.468750
3722		99.609375
3723		103.515625
3724		97.656250
3725		103.515625
3726		97.656250
3727		101.562500
3728		95.703125
3729		101.562500
3730		97.656250
3731		99.609375
3732		95.703125
3733		99.609375
3734		93.750000
3735		97.656250
3736		91.796875
3737		95.703125
3738		91.796875
3739		95.703125
3740		89.843750
3741		93.750000
3742		89.843750
3743		91.796875
3744		87.890625
3745		91.796875
3746		85.937500
3747		89.843750
3748		83.984375
3749		87.890625
3750		83.984375
3751		85.937500
3752		82.031250
3753		85.937500
3754		80.078125
3755		83.984375
3756		78.125000
3757		82.031250
3758		76.171875
3759		80.078125
3760		72.265625
3761		78.125000
3762		72.265625
3763		76.171875
3764		70.312500
3765		74.218750
3766		66.406250
3767		72.265625
3768		66.406250
3769		70.312500
3770		64.453125
3771		68.359375
3772		60.546875
3773		64.453125
3774		56.640625
3775		62.500000
3776		56.640625
3777		60.546875
3778		54.687500
3779		58.593750
3780		52.734375
3781		54.687500
3782		48.828125
3783		52.734375
3784		46.875000
3785		50.781250
3786		42.968750
3787		48.828125
3788		41.015625
3789		44.921875
3790		39.062500
3791		42.968750
3792		35.156250
3793		41.015625
3794		33.203125
3795		37.109375
3796		29.296875
3797		35.156250
3798		27.343750
3799		31.250000
3800		25.390625
3801		29.296875
3802		21.484375
3803		25.390625
3804		19.531250
3805		23.437500
3806		15.625000
3807		21.484375
3808		11.718750
3809		17.578125
3810		9.765625
3811		15.625000
3812		5.859375
3813		11.718750
3814		3.906250
3815		9.765625
3816		0.000000
3817		5.859375
3818		-1.953125
3819		1.953125
3820		-5.859375
3821		0.000000
3822		-7.812500
3823		-3.906250
3824		-11.718750
3825		-5.859375
3826		-13.671875
3827		-9.765625
3828		-17.578125
3829		-13.671875
3830		-19.531250
3831		-15.625000
3832		-23.437500
3833		-19.531250
3834		-27.343750
3835		-21.484375
3836		-29.296875
3837		-25.390625
3838		-33.203125
3839		-27.343750
3840		-35.156250
3841		-31.250000
3842		-39.062500
3843		-33.203125
3844		-41.015625
3845		-37.109375
3846		-44.921875
3847		-39.062500
3848		-46.875000
3849		-42.968750
3850		-50.781250
3851		-44.921875
3852		-52.734375
3853		-48.828125
3854		-54.687500
3855		-50.781250
3856		-58.593750
3857		-54.687500
3858		-60.546875
3859		-56.640625
3860		-64.453125
3861		-58.593750
3862		-66.406250
3863		-62.500000
3864		-70.312500
3865		-64.453125
3866		-72.265625
3867		-66.406250
3868		-74.218750
3869		-70.312500
3870		-78.125000
3871		-72.265625
3872		-80.078125
3873		-76.171875
3874		-82.031250
3875		-78.125000
3876		-83.984375
3877		-80.078125
3878		-85.937500
3879		-82.031250
3880		-87.890625
3881		-83.984375
3882		-91.796875
3883		-85.937500
3884		-93.750000
3885		-89.843750
3886		-95.703125
3887		-91.796875
3888		-95.703125
3889		-91.796875
3890		-97.656250
3891		-95.703125
3892		-99.609375
3893		-97.656250
3894		-101.562500
3895		-97.656250
3896		-103.515625
3897		-99.609375
3898		-105.468750
3899		-101.562500
3900		-107.421875
3901		-103.515625
3902		-109.375000
3903		-105.468750
3904		-111.328125
3905		-105.468750
3906		-111.328125
3907		-107.421875
3908		-111.328125
3909		-109.375000
3910		-113.281250
3911		-109.375000
3912		-115.234375
3913		-111.328125
3914		-115.234375
3915		-111.328125
3916		-117.187500
3917		-113.281250
3918		-117.187500
3919		-113.281250
3920		-117.187500
3921		-115.234375
3922		-117.187500
3923		-115.234375
3924		-119.140625
3925		-115.234375
3926		-121.093750
3927		-115.234375
3928		-119.140625
3929		-117.187500
3930		-119.140625
3931		-117.187500
3932		-121.093750
3933		-117.187500
3934		-119.140625
3935		-117.187500
3936		-119.140625
3937		-117.187500
3938		-121.093750
3939		-117.187500
3940		-119.140625
3941		-117.187500
3942		-119.140625
3943		-117.187500
3944		-119.140625
3945		-115.234375
3946		-119.140625
3947		-115.234375
3948		-119.140625
3949		-115.234375
3950		-117.187500
3951		-115.234375
3952		-117.187500
3953		-113.281250
3954		-115.234375
3955		-113.281250
3956		-117.187500
3957		-111.328125
3958		-113.281250
3959		-111.328125
3960		-113.281250
3961		-109.375000
3962		-111.328125
3963		-109.375000
3964		-111.328125
3965		-107.421875
3966		-109.375000
3967		-105.468750
3968		-107.421875
3969		-103.515625
3970		-107.421875
3971		-103.515625
3972		-105.468750
3973		-101.562500
3974		-103.515625
3975		-99.609375
3976		-101.562500
3977		-97.656250
3978		-99.609375
3979		-95.703125
3980		-97.656250
3981		-93.750000
3982		-95.703125
3983		-91.796875
3984		-93.750000
3985		-89.843750
3986		-91.796875
3987		-87.890625
3988		-89.843750
3989		-85.937500
3990		-87.890625
3991		-83.984375
3992		-85.937500
3993		-82.031250
3994		-83.984375
3995		-78.125000
3996		-80.078125
3997		-76.171875
3998		-78.125000
3999		-74.218750
4000		-76.171875
4001		-72.265625
4002		-74.218750
4003		-68.359375
4004		-70.312500
4005		-64.453125
4006		-68.359375
4007		-64.453125
4008		-64.453125
4009		-60.546875
4010		-62.500000
4011		-56.640625
4012		-60.546875
4013		-54.687500
4014		-56.640625
4015		-52.734375
4016		-54.687500
4017		-48.828125
4018		-52.734375
4019		-46.875000
4020		-48.828125
4021		-42.968750
4022		-44.921875
4023		-41.015625
4024		-42.968750
4025		-37.109375
4026		-39.062500
4027		-35.156250
4028		-37.109375
4029		-31.250000
4030		-35.156250
4031		-29.296875
4032		-31.250000
4033		-25.390625
4034		-27.343750
4035		-21.484375
4036		-23.437500
4037		-19.531250
4038		-21.484375
4039		-15.625000
4040		-19.531250
4041		-13.671875
4042		-15.625000
4043		-11.718750
4044		-11.718750
4045		-7.812500
4046		-9.765625
4047		-3.906250
4048		-5.859375
4049		-1.953125
4050		-3.906250
4051		1.953125
4052		0.000000
4053		3.906250
4054		1.953125
4055		7.812500
4056		5.859375
4057		9.765625
4058		9.765625
4059		13.671875
4060		11.718750
4061		17.578125
4062		15.625000
4063		19.531250
4064		17.578125
4065		21.484375
4066		21.484375
4067		25.390625
4068		23.437500
4069		27.343750
4070		25.390625
4071		31.250000
4072		29.296875
4073		33.203125
4074		31.250000
4075		37.109375
4076		35.156250
4077		39.062500
4078		37.109375
4079		42.968750
4080		39.062500
4081		44.921875
4082		41.015625
4083		48.828125
4084		44.921875
4085		50.781250
4086		46.875000
4087		52.734375
4088		50.781250
4089		56.640625
4090		52.734375
4091		56.640625
4092		54.687500
4093		58.593750
4094		56.640625
4095		62.500000
4096		60.546875
4097		64.453125
4098		62.500000
4099		66.406250
4100		64.453125
4101		68.359375
4102		66.406250
4103		70.312500
4104		68.359375
4105		72.265625
4106		70.312500
4107		74.218750
4108		72.265625
4109		76.171875
4110		74.218750
4111		78.125000
4112		76.171875
4113		80.078125
4114		76.171875
4115		82.031250
4116		80.078125
4117		83.984375
4118		82.031250
4119		85.937500
4120		83.984375
4121		87.890625
4122		83.984375
4123		87.890625
4124		85.937500
4125		89.843750
4126		87.890625
4127		91.796875
4128		89.843750
4129		93.750000
4130		89.843750
4131		95.703125
4132		89.843750
4133		95.703125
4134		91.796875
4135		97.656250
4136		93.750000
4137		97.656250
4138		95.703125
4139		99.609375
4140		95.703125
4141		99.609375
4142		97.656250
4143		101.562500
4144		97.656250
4145		103.515625
4146		97.656250
4147		103.515625
4148		99.609375
4149		103.515625
4150		99.609375
4151		105.468750
4152		101.562500
4153		105.468750
4154		101.562500
4155		105.468750
4156		101.562500
4157		107.421875
4158		103.515625
4159		105.468750
4160		103.515625
4161		105.468750
4162		103.515625
4163		107.421875
4164		103.515625
4165		107.421875
4166		103.515625
4167		107.421875
4168		103.515625
4169		107.421875
4170		103.515625
4171		107.421875
4172		103.515625
4173		107.421875
4174		103.515625
4175		107.421875
4176		103.515625
4177		107.421875
4178		103.515625
4179		107.421875
4180		101.562500
4181		107.421875
4182		101.562500
4183		107.421875
4184		101.562500
4185		107.421875
4186		101.562500
4187		107.421875
4188		101.562500
4189		105.468750
4190		101.562500
4191		105.468750
4192		99.609375
4193		103.515625
4194		99.609375
4195		103.515625
4196		99.609375
4197		101.562500
4198		97.656250
4199		101.562500
4200		97.656250
4201		99.609375
4202		95.703125
4203		99.609375
4204		95.703125
4205		97.656250
4206		93.750000
4207		95.703125
4208		91.796875
4209		95.703125
4210		91.796875
4211		93.750000
4212		89.843750
4213		93.750000
4214		87.890625
4215		91.796875
4216		87.890625
4217		89.843750
4218		85.937500
4219		87.890625
4220		83.984375
4221		87.890625
4222		82.031250
4223		85.937500
4224		80.078125
4225		83.984375
4226		78.125000
4227		82.031250
4228		76.171875
4229		80.078125
4230		76.171875
4231		78.125000
4232		72.265625
4233		76.171875
4234		70.312500
4235		74.218750
4236		68.359375
4237		72.265625
4238		66.406250
4239		70.312500
4240		64.453125
4241		68.359375
4242		62.500000
4243		66.406250
4244		60.546875
4245		64.453125
4246		56.640625
4247		62.500000
4248		56.640625
4249		58.593750
4250		52.734375
4251		56.640625
4252		50.781250
4253		54.687500
4254		48.828125
4255		52.734375
4256		44.921875
4257		48.828125
4258		42.968750
4259		46.875000
4260		41.015625
4261		44.921875
4262		37.109375
4263		41.015625
4264		35.156250
4265		39.062500
4266		31.250000
4267		37.109375
4268		29.296875
4269		33.203125
4270		25.390625
4271		31.250000
4272		23.437500
4273		27.343750
4274		19.531250
4275		25.390625
4276		17.578125
4277		21.484375
4278		13.671875
4279		19.531250
4280		11.718750
4281		15.625000
4282		7.812500
4283		13.671875
4284		5.859375
4285		9.765625
4286		1.953125
4287		7.812500
4288		0.000000
4289		3.906250
4290		-3.906250
4291		0.000000
4292		-5.859375
4293		-1.953125
4294		-9.765625
4295		-3.906250
4296		-13.671875
4297		-5.859375
4298		-17.578125
4299		-9.765625
4300		-21.484375
4301		-11.718750
4302		-21.484375
4303		-17.578125
4304		-23.437500
4305		-19.531250
4306		-27.343750
4307		-23.437500
4308		-31.250000
4309		-25.390625
4310		-33.203125
4311		-29.296875
4312		-41.015625
4313		-31.250000
4314		-42.968750
4315		-33.203125
4316		-46.875000
4317		-35.156250
4318		-46.875000
4319		-37.109375
4320		-48.828125
4321		-42.968750
4322		-50.781250
4323		-46.875000
4324		-54.687500
4325		-48.828125
4326		-56.640625
4327		-52.734375
4328		-58.593750
4329		-54.687500
4330		-64.453125
4331		-56.640625
4332		-66.406250
4333		-58.593750
4334		-70.312500
4335		-60.546875
4336		-70.312500
4337		-66.406250
4338		-72.265625
4339		-68.359375
4340		-74.218750
4341		-70.312500
4342		-78.125000
4343		-74.218750
4344		-80.078125
4345		-76.171875
4346		-85.937500
4347		-76.171875
4348		-87.890625
4349		-78.125000
4350		-89.843750
4351		-80.078125
4352		-89.843750
4353		-82.031250
4354		-91.796875
4355		-87.890625
4356		-93.750000
4357		-89.843750
4358		-95.703125
4359		-91.796875
4360		-97.656250
4361		-93.750000
4362		-99.609375
4363		-95.703125
4364		-103.515625
4365		-93.750000
4366		-105.468750
4367		-95.703125
4368		-107.421875
4369		-97.656250
4370		-105.468750
4371		-101.562500
4372		-107.421875
4373		-103.515625
4374		-109.375000
4375		-105.468750
4376		-109.375000
4377		-107.421875
4378		-111.328125
4379		-107.421875
4380		-115.234375
4381		-107.421875
4382		-117.187500
4383		-107.421875
4384		-117.187500
4385		-107.421875
4386		-115.234375
4387		-111.328125
4388		-115.234375
4389		-113.281250
4390		-117.187500
4391		-113.281250
4392		-117.187500
4393		-115.234375
4394		-117.187500
4395		-115.234375
4396		-121.093750
4397		-113.281250
4398		-121.093750
4399		-113.281250
4400		-123.046875
4401		-113.281250
4402		-123.046875
4403		-113.281250
4404		-119.140625
4405		-117.187500
4406		-119.140625
4407		-117.187500
4408		-119.140625
4409		-117.187500
4410		-119.140625
4411		-117.187500
4412		-119.140625
4413		-117.187500
4414		-121.093750
4415		-113.281250
4416		-121.093750
4417		-113.281250
4418		-121.093750
4419		-111.328125
4420		-117.187500
4421		-115.234375
4422		-117.187500
4423		-113.281250
4424		-115.234375
4425		-113.281250
4426		-115.234375
4427		-113.281250
4428		-115.234375
4429		-111.328125
4430		-115.234375
4431		-107.421875
4432		-115.234375
4433		-105.468750
4434		-113.281250
4435		-105.468750
4436		-113.281250
4437		-105.468750
4438		-109.375000
4439		-105.468750
4440		-107.421875
4441		-103.515625
4442		-105.468750
4443		-101.562500
4444		-103.515625
4445		-101.562500
4446		-101.562500
4447		-99.609375
4448		-103.515625
4449		-93.750000
4450		-101.562500
4451		-91.796875
4452		-99.609375
4453		-89.843750
4454		-95.703125
4455		-91.796875
4456		-91.796875
4457		-89.843750
4458		-91.796875
4459		-87.890625
4460		-87.890625
4461		-83.984375
4462		-85.937500
4463		-82.031250
4464		-85.937500
4465		-76.171875
4466		-85.937500
4467		-74.218750
4468		-82.031250
4469		-72.265625
4470		-80.078125
4471		-72.265625
4472		-74.218750
4473		-70.312500
4474		-72.265625
4475		-68.359375
4476		-68.359375
4477		-64.453125
4478		-66.406250
4479		-62.500000
4480		-64.453125
4481		-60.546875
4482		-60.546875
4483		-54.687500
4484		-60.546875
4485		-52.734375
4486		-56.640625
4487		-50.781250
4488		-52.734375
4489		-48.828125
4490		-50.781250
4491		-44.921875
4492		-46.875000
4493		-42.968750
4494		-44.921875
4495		-39.062500
4496		-41.015625
4497		-37.109375
4498		-39.062500
4499		-33.203125
4500		-35.156250
4501		-27.343750
4502		-33.203125
4503		-25.390625
4504		-29.296875
4505		-23.437500
4506		-25.390625
4507		-21.484375
4508		-23.437500
4509		-17.578125
4510		-19.531250
4511		-15.625000
4512		-17.578125
4513		-11.718750
4514		-13.671875
4515		-9.765625
4516		-11.718750
4517		-3.906250
4518		-9.765625
4519		0.000000
4520		-3.906250
4521		0.000000
4522		-1.953125
4523		1.953125
4524		1.953125
4525		5.859375
4526		3.906250
4527		9.765625
4528		7.812500
4529		11.718750
4530		9.765625
4531		15.625000
4532		13.671875
4533		17.578125
4534		15.625000
4535		21.484375
4536		19.531250
4537		23.437500
4538		21.484375
4539		27.343750
4540		25.390625
4541		29.296875
4542		27.343750
4543		31.250000
4544		29.296875
4545		35.156250
4546		33.203125
4547		37.109375
4548		35.156250
4549		41.015625
4550		39.062500
4551		42.968750
4552		41.015625
4553		44.921875
4554		42.968750
4555		48.828125
4556		46.875000
4557		50.781250
4558		48.828125
4559		52.734375
4560		50.781250
4561		56.640625
4562		54.687500
4563		58.593750
4564		56.640625
4565		60.546875
4566		58.593750
4567		62.500000
4568		60.546875
4569		64.453125
4570		62.500000
4571		66.406250
4572		64.453125
4573		70.312500
4574		68.359375
4575		70.312500
4576		70.312500
4577		74.218750
4578		72.265625
4579		76.171875
4580		74.218750
4581		78.125000
4582		76.171875
4583		80.078125
4584		76.171875
4585		80.078125
4586		80.078125
4587		82.031250
4588		80.078125
4589		85.937500
4590		82.031250
4591		85.937500
4592		83.984375
4593		87.890625
4594		85.937500
4595		89.843750
4596		87.890625
4597		89.843750
4598		87.890625
4599		91.796875
4600		89.843750
4601		93.750000
4602		91.796875
4603		93.750000
4604		93.750000
4605		95.703125
4606		93.750000
4607		97.656250
4608		95.703125
4609		97.656250
4610		95.703125
4611		99.609375
4612		97.656250
4613		99.609375
4614		97.656250
4615		101.562500
4616		97.656250
4617		101.562500
4618		99.609375
4619		103.515625
4620		101.562500
4621		103.515625
4622		101.562500
4623		105.468750
4624		101.562500
4625		105.468750
4626		103.515625
4627		105.468750
4628		103.515625
4629		105.468750
4630		103.515625
4631		105.468750
4632		103.515625
4633		107.421875
4634		103.515625
4635		107.421875
4636		103.515625
4637		107.421875
4638		103.515625
4639		107.421875
4640		103.515625
4641		107.421875
4642		105.468750
4643		107.421875
4644		105.468750
4645		107.421875
4646		105.468750
4647		107.421875
4648		101.562500
4649		107.421875
4650		103.515625
4651		107.421875
4652		103.515625
4653		107.421875
4654		103.515625
4655		105.468750
4656		103.515625
4657		105.468750
4658		101.562500
4659		105.468750
4660		101.562500
4661		105.468750
4662		101.562500
4663		103.515625
4664		101.562500
4665		103.515625
4666		99.609375
4667		103.515625
4668		99.609375
4669		101.562500
4670		97.656250
4671		101.562500
4672		97.656250
4673		99.609375
4674		95.703125
4675		99.609375
4676		95.703125
4677		97.656250
4678		93.750000
4679		97.656250
4680		93.750000
4681		95.703125
4682		89.843750
4683		95.703125
4684		89.843750
4685		93.750000
4686		87.890625
4687		91.796875
4688		87.890625
4689		89.843750
4690		83.984375
4691		89.843750
4692		83.984375
4693		87.890625
4694		82.031250
4695		85.937500
4696		80.078125
4697		83.984375
4698		78.125000
4699		82.031250
4700		76.171875
4701		82.031250
4702		74.218750
4703		78.125000
4704		72.265625
4705		76.171875
4706		70.312500
4707		74.218750
4708		68.359375
4709		72.265625
4710		66.406250
4711		70.312500
4712		64.453125
4713		68.359375
4714		62.500000
4715		66.406250
4716		58.593750
4717		64.453125
4718		56.640625
4719		62.500000
4720		54.687500
4721		58.593750
4722		52.734375
4723		56.640625
4724		48.828125
4725		54.687500
4726		46.875000
4727		50.781250
4728		44.921875
4729		48.828125
4730		42.968750
4731		46.875000
4732		39.062500
4733		44.921875
4734		37.109375
4735		42.968750
4736		33.203125
4737		39.062500
4738		31.250000
4739		35.156250
4740		29.296875
4741		33.203125
4742		25.390625
4743		31.250000
4744		23.437500
4745		27.343750
4746		19.531250
4747		23.437500
4748		17.578125
4749		21.484375
4750		13.671875
4751		19.531250
4752		11.718750
4753		15.625000
4754		7.812500
4755		11.718750
4756		3.906250
4757		9.765625
4758		1.953125
4759		7.812500
4760		0.000000
4761		3.906250
4762		-3.906250
4763		0.000000
4764		-7.812500
4765		-1.953125
4766		-9.765625
4767		-5.859375
4768		-13.671875
4769		-7.812500
4770		-15.625000
4771		-11.718750
4772		-19.531250
4773		-15.625000
4774		-21.484375
4775		-17.578125
4776		-25.390625
4777		-21.484375
4778		-27.343750
4779		-23.437500
4780		-31.250000
4781		-27.343750
4782		-35.156250
4783		-29.296875
4784		-37.109375
4785		-33.203125
4786		-39.062500
4787		-35.156250
4788		-42.968750
4789		-39.062500
4790		-46.875000
4791		-41.015625
4792		-48.828125
4793		-44.921875
4794		-50.781250
4795		-46.875000
4796		-54.687500
4797		-50.781250
4798		-56.640625
4799		-52.734375
4800		-60.546875
4801		-54.687500
4802		-62.500000
4803		-58.593750
4804		-64.453125
4805		-60.546875
4806		-68.359375
4807		-64.453125
4808		-70.312500
4809		-66.406250
4810		-74.218750
4811		-68.359375
4812		-76.171875
4813		-72.265625
4814		-78.125000
4815		-74.218750
4816		-80.078125
4817		-76.171875
4818		-82.031250
4819		-78.125000
4820		-85.937500
4821		-82.031250
4822		-87.890625
4823		-83.984375
4824		-89.843750
4825		-85.937500
4826		-91.796875
4827		-87.890625
4828		-93.750000
4829		-89.843750
4830		-95.703125
4831		-91.796875
4832		-97.656250
4833		-93.750000
4834		-99.609375
4835		-95.703125
4836		-101.562500
4837		-97.656250
4838		-103.515625
4839		-99.609375
4840		-103.515625
4841		-101.562500
4842		-105.468750
4843		-103.515625
4844		-107.421875
4845		-103.515625
4846		-109.375000
4847		-105.468750
4848		-111.328125
4849		-107.421875
4850		-111.328125
4851		-107.421875
4852		-113.281250
4853		-109.375000
4854		-113.281250
4855		-111.328125
4856		-115.234375
4857		-111.328125
4858		-115.234375
4859		-113.281250
4860		-115.234375
4861		-113.281250
4862		-117.187500
4863		-113.281250
4864		-117.187500
4865		-115.234375
4866		-119.140625
4867		-115.234375
4868		-119.140625
4869		-115.234375
4870		-119.140625
4871		-117.187500
4872		-119.140625
4873		-117.187500
4874		-119.140625
4875		-117.187500
4876		-119.140625
4877		-117.187500
4878		-119.140625
4879		-117.187500
4880		-119.140625
4881		-117.187500
4882		-119.140625
4883		-117.187500
4884		-119.140625
4885		-115.234375
4886		-119.140625
4887		-117.187500
4888		-119.140625
4889		-115.234375
4890		-117.187500
4891		-115.234375
4892		-117.187500
4893		-115.234375
4894		-117.187500
4895		-113.281250
4896		-115.234375
4897		-113.281250
4898		-115.234375
4899		-111.328125
4900		-113.281250
4901		-111.328125
4902		-115.234375
4903		-109.375000
4904		-111.328125
4905		-109.375000
4906		-111.328125
4907		-107.421875
4908		-109.375000
4909		-105.468750
4910		-107.421875
4911		-105.468750
4912		-107.421875
4913		-103.515625
4914		-105.468750
4915		-101.562500
4916		-103.515625
4917		-99.609375
4918		-103.515625
4919		-97.656250
4920		-101.562500
4921		-95.703125
4922		-97.656250
4923		-95.703125
4924		-97.656250
4925		-93.750000
4926		-95.703125
4927		-91.796875
4928		-91.796875
4929		-87.890625
4930		-89.843750
4931		-85.937500
4932		-87.890625
4933		-83.984375
4934		-85.937500
4935		-80.078125
4936		-85.937500
4937		-78.125000
4938		-82.031250
4939		-78.125000
4940		-78.125000
4941		-74.218750
4942		-76.171875
4943		-72.265625
4944		-74.218750
4945		-70.312500
4946		-70.312500
4947		-66.406250
4948		-68.359375
4949		-64.453125
4950		-66.406250
4951		-62.500000
4952		-64.453125
4953		-58.593750
4954		-62.500000
4955		-56.640625
4956		-58.593750
4957		-52.734375
4958		-54.687500
4959		-50.781250
4960		-52.734375
4961		-46.875000
4962		-48.828125
4963		-44.921875
4964		-46.875000
4965		-41.015625
4966		-42.968750
4967		-39.062500
4968		-41.015625
4969		-35.156250
4970		-39.062500
4971		-31.250000
4972		-35.156250
4973		-29.296875
4974		-31.250000
4975		-25.390625
4976		-29.296875
4977		-23.437500
4978		-25.390625
4979		-21.484375
4980		-21.484375
4981		-17.578125
4982		-19.531250
4983		-15.625000
4984		-15.625000
4985		-11.718750
4986		-15.625000
4987		-7.812500
4988		-11.718750
4989		-5.859375
4990		-7.812500
4991		-1.953125
4992		-3.906250
4993		0.000000
4994		-1.953125
4995		3.906250
4996		1.953125
4997		5.859375
4998		3.906250
4999		9.765625
5000		7.812500
5001		11.718750
5002		11.718750
5003		17.578125
5004		11.718750
5005		19.531250
5006		17.578125
5007		21.484375
5008		19.531250
5009		25.390625
5010		23.437500
5011		27.343750
5012		25.390625
5013		29.296875
5014		29.296875
5015		33.203125
5016		31.250000
5017		35.156250
5018		33.203125
5019		39.062500
5020		35.156250
5021		42.968750
5022		37.109375
5023		42.968750
5024		41.015625
5025		46.875000
5026		44.921875
5027		48.828125
5028		46.875000
5029		50.781250
5030		48.828125
5031		54.687500
5032		52.734375
5033		56.640625
5034		54.687500
5035		58.593750
5036		56.640625
5037		62.500000
5038		58.593750
5039		64.453125
5040		60.546875
5041		66.406250
5042		64.453125
5043		68.359375
5044		66.406250
5045		70.312500
5046		68.359375
5047		72.265625
5048		70.312500
5049		74.218750
5050		72.265625
5051		76.171875
5052		74.218750
5053		80.078125
5054		74.218750
5055		82.031250
5056		78.125000
5057		82.031250
5058		80.078125
5059		83.984375
5060		80.078125
5061		83.984375
5062		82.031250
5063		85.937500
5064		83.984375
5065		87.890625
5066		85.937500
5067		89.843750
5068		87.890625
5069		91.796875
5070		87.890625
5071		93.750000
5072		89.843750
5073		93.750000
5074		91.796875
5075		95.703125
5076		93.750000
5077		95.703125
5078		93.750000
5079		97.656250
5080		95.703125
5081		97.656250
5082		95.703125
5083		99.609375
5084		97.656250
5085		101.562500
5086		97.656250
5087		103.515625
5088		97.656250
5089		103.515625
5090		99.609375
5091		103.515625
5092		101.562500
5093		103.515625
5094		101.562500
5095		103.515625
5096		101.562500
5097		105.468750
5098		103.515625
5099		105.468750
5100		103.515625
5101		105.468750
5102		103.515625
5103		107.421875
5104		103.515625
5105		107.421875
5106		103.515625
5107		107.421875
5108		105.468750
5109		107.421875
5110		105.468750
5111		107.421875
5112		105.468750
5113		107.421875
5114		105.468750
5115		107.421875
5116		105.468750
5117		107.421875
5118		105.468750
5119		107.421875
5120		103.515625
5121		107.421875
5122		103.515625
5123		107.421875
5124		103.515625
5125		105.468750
5126		103.515625
5127		105.468750
5128		103.515625
5129		105.468750
5130		103.515625
5131		105.468750
5132		101.562500
5133		105.468750
5134		101.562500
5135		103.515625
5136		99.609375
5137		103.515625
5138		99.609375
5139		103.515625
5140		99.609375
5141		101.562500
5142		97.656250
5143		101.562500
5144		97.656250
5145		99.609375
5146		95.703125
5147		99.609375
5148		95.703125
5149		97.656250
5150		93.750000
5151		97.656250
5152		91.796875
5153		95.703125
5154		91.796875
5155		93.750000
5156		89.843750
5157		91.796875
5158		87.890625
5159		91.796875
5160		85.937500
5161		89.843750
5162		85.937500
5163		87.890625
5164		83.984375
5165		87.890625
5166		82.031250
5167		85.937500
5168		80.078125
5169		83.984375
5170		78.125000
5171		82.031250
5172		76.171875
5173		80.078125
5174		74.218750
5175		78.125000
5176		72.265625
5177		76.171875
5178		70.312500
5179		74.218750
5180		68.359375
5181		72.265625
5182		66.406250
5183		70.312500
5184		64.453125
5185		68.359375
5186		62.500000
5187		64.453125
5188		58.593750
5189		62.500000
5190		56.640625
5191		60.546875
5192		54.687500
5193		58.593750
5194		52.734375
5195		56.640625
5196		48.828125
5197		52.734375
5198		46.875000
5199		50.781250
5200		44.921875
5201		48.828125
5202		41.015625
5203		46.875000
5204		39.062500
5205		42.968750
5206		37.109375
5207		41.015625
5208		33.203125
5209		37.109375
5210		31.250000
5211		35.156250
5212		27.343750
5213		33.203125
5214		25.390625
5215		29.296875
5216		21.484375
5217		27.343750
5218		19.531250
5219		23.437500
5220		15.625000
5221		21.484375
5222		13.671875
5223		17.578125
5224		9.765625
5225		13.671875
5226		7.812500
5227		11.718750
5228		3.906250
5229		9.765625
5230		1.953125
5231		5.859375
5232		-1.953125
5233		1.953125
5234		-3.906250
5235		0.000000
5236		-7.812500
5237		-3.906250
5238		-9.765625
5239		-5.859375
5240		-13.671875
5241		-9.765625
5242		-17.578125
5243		-11.718750
5244		-19.531250
5245		-15.625000
5246		-23.437500
5247		-17.578125
5248		-25.390625
5249		-21.484375
5250		-29.296875
5251		-23.437500
5252		-31.250000
5253		-27.343750
5254		-35.156250
5255		-29.296875
5256		-37.109375
5257		-33.203125
5258		-41.015625
5259		-37.109375
5260		-44.921875
5261		-39.062500
5262		-46.875000
5263		-42.968750
5264		-50.781250
5265		-44.921875
5266		-52.734375
5267		-46.875000
5268		-54.687500
5269		-50.781250
5270		-58.593750
5271		-52.734375
5272		-60.546875
5273		-56.640625
5274		-62.500000
5275		-58.593750
5276		-66.406250
5277		-62.500000
5278		-68.359375
5279		-64.453125
5280		-70.312500
5281		-66.406250
5282		-74.218750
5283		-70.312500
5284		-76.171875
5285		-72.265625
5286		-78.125000
5287		-74.218750
5288		-82.031250
5289		-78.125000
5290		-83.984375
5291		-80.078125
5292		-85.937500
5293		-82.031250
5294		-87.890625
5295		-83.984375
5296		-89.843750
5297		-85.937500
5298		-91.796875
5299		-87.890625
5300		-93.750000
5301		-89.843750
5302		-95.703125
5303		-91.796875
5304		-97.656250
5305		-93.750000
5306		-99.609375
5307		-95.703125
5308		-101.562500
5309		-97.656250
5310		-103.515625
5311		-99.609375
5312		-105.468750
5313		-101.562500
5314		-105.468750
5315		-103.515625
5316		-107.421875
5317		-103.515625
5318		-109.375000
5319		-105.468750
5320		-109.375000
5321		-107.421875
5322		-111.328125
5323		-109.375000
5324		-111.328125
5325		-109.375000
5326		-113.281250
5327		-111.328125
5328		-115.234375
5329		-111.328125
5330		-115.234375
5331		-113.281250
5332		-115.234375
5333		-113.281250
5334		-117.187500
5335		-113.281250
5336		-117.187500
5337		-115.234375
5338		-117.187500
5339		-115.234375
5340		-119.140625
5341		-115.234375
5342		-119.140625
5343		-115.234375
5344		-119.140625
5345		-117.187500
5346		-119.140625
5347		-117.187500
5348		-119.140625
5349		-117.187500
5350		-119.140625
5351		-117.187500
5352		-119.140625
5353		-117.187500
5354		-119.140625
5355		-117.187500
5356		-119.140625
5357		-115.234375
5358		-119.140625
5359		-115.234375
5360		-117.187500
5361		-115.234375
5362		-117.187500
5363		-115.234375
5364		-117.187500
5365		-115.234375
5366		-115.234375
5367		-113.281250
5368		-115.234375
5369		-111.328125
5370		-115.234375
5371		-111.328125
5372		-113.281250
5373		-111.328125
5374		-113.281250
5375		-109.375000
5376		-111.328125
5377		-107.421875
5378		-109.375000
5379		-107.421875
5380		-109.375000
5381		-105.468750
5382		-107.421875
5383		-103.515625
5384		-105.468750
5385		-103.515625
5386		-105.468750
5387		-101.562500
5388		-103.515625
5389		-99.609375
5390		-101.562500
5391		-97.656250
5392		-99.609375
5393		-95.703125
5394		-97.656250
5395		-93.750000
5396		-95.703125
5397		-91.796875
5398		-93.750000
5399		-89.843750
5400		-91.796875
5401		-87.890625
5402		-89.843750
5403		-85.937500
5404		-87.890625
5405		-83.984375
5406		-85.937500
5407		-80.078125
5408		-82.031250
5409		-78.125000
5410		-80.078125
5411		-76.171875
5412		-78.125000
5413		-74.218750
5414		-76.171875
5415		-72.265625
5416		-72.265625
5417		-68.359375
5418		-70.312500
5419		-66.406250
5420		-68.359375
5421		-64.453125
5422		-64.453125
5423		-60.546875
5424		-62.500000
5425		-58.593750
5426		-58.593750
5427		-54.687500
5428		-56.640625
5429		-52.734375
5430		-54.687500
5431		-48.828125
5432		-50.781250
5433		-46.875000
5434		-48.828125
5435		-42.968750
5436		-44.921875
5437		-41.015625
5438		-42.968750
5439		-37.109375
5440		-39.062500
5441		-35.156250
5442		-37.109375
5443		-31.250000
5444		-33.203125
5445		-29.296875
5446		-31.250000
5447		-25.390625
5448		-27.343750
5449		-23.437500
5450		-23.437500
5451		-19.531250
5452		-21.484375
5453		-15.625000
5454		-17.578125
5455		-13.671875
5456		-15.625000
5457		-9.765625
5458		-11.718750
5459		-7.812500
5460		-9.765625
5461		-3.906250
5462		-5.859375
5463		-1.953125
5464		-1.953125
5465		1.953125
5466		0.000000
5467		3.906250
5468		3.906250
5469		7.812500
5470		5.859375
5471		11.718750
5472		9.765625
5473		13.671875
5474		11.718750
5475		17.578125
5476		15.625000
5477		21.484375
5478		17.578125
5479		23.437500
5480		21.484375
5481		25.390625
5482		23.437500
5483		27.343750
5484		27.343750
5485		31.250000
5486		29.296875
5487		33.203125
5488		31.250000
5489		37.109375
5490		35.156250
5491		39.062500
5492		37.109375
5493		41.015625
5494		41.015625
5495		44.921875
5496		42.968750
5497		46.875000
5498		44.921875
5499		50.781250
5500		48.828125
5501		52.734375
5502		50.781250
5503		54.687500
5504		52.734375
5505		56.640625
5506		54.687500
5507		58.593750
5508		58.593750
5509		62.500000
5510		60.546875
5511		64.453125
5512		62.500000
5513		66.406250
5514		64.453125
5515		68.359375
5516		66.406250
5517		70.312500
5518		68.359375
5519		72.265625
5520		70.312500
5521		74.218750
5522		72.265625
5523		76.171875
5524		74.218750
5525		78.125000
5526		76.171875
5527		80.078125
5528		78.125000
5529		82.031250
5530		80.078125
5531		83.984375
5532		82.031250
5533		85.937500
5534		83.984375
5535		87.890625
5536		85.937500
5537		87.890625
5538		87.890625
5539		89.843750
5540		87.890625
5541		91.796875
5542		89.843750
5543		93.750000
5544		91.796875
5545		93.750000
5546		91.796875
5547		95.703125
5548		93.750000
5549		95.703125
5550		93.750000
5551		97.656250
5552		95.703125
5553		99.609375
5554		97.656250
5555		99.609375
5556		97.656250
5557		101.562500
5558		99.609375
5559		101.562500
5560		99.609375
5561		103.515625
5562		99.609375
5563		103.515625
5564		101.562500
5565		103.515625
5566		101.562500
5567		105.468750
5568		103.515625
5569		105.468750
5570		103.515625
5571		105.468750
5572		103.515625
5573		107.421875
5574		103.515625
5575		107.421875
5576		105.468750
5577		107.421875
5578		105.468750
5579		107.421875
5580		105.468750
5581		107.421875
5582		105.468750
5583		107.421875
5584		105.468750
5585		107.421875
5586		105.468750
5587		107.421875
5588		105.468750
5589		107.421875
5590		105.468750
5591		107.421875
5592		105.468750
5593		107.421875
5594		105.468750
5595		107.421875
5596		103.515625
5597		107.421875
5598		103.515625
5599		105.468750
5600		103.515625
5601		105.468750
5602		103.515625
5603		105.468750
5604		101.562500
5605		105.468750
5606		101.562500
5607		103.515625
5608		101.562500
5609		103.515625
5610		99.609375
5611		101.562500
5612		99.609375
5613		101.562500
5614		97.656250
5615		101.562500
5616		97.656250
5617		101.562500
5618		95.703125
5619		99.609375
5620		95.703125
5621		97.656250
5622		93.750000
5623		97.656250
5624		91.796875
5625		95.703125
5626		91.796875
5627		93.750000
5628		89.843750
5629		91.796875
5630		87.890625
5631		91.796875
5632		85.937500
5633		89.843750
5634		85.937500
5635		87.890625
5636		82.031250
5637		85.937500
5638		82.031250
5639		85.937500
5640		80.078125
5641		83.984375
5642		78.125000
5643		82.031250
5644		76.171875
5645		80.078125
5646		74.218750
5647		78.125000
5648		72.265625
5649		76.171875
5650		70.312500
5651		74.218750
5652		68.359375
5653		72.265625
5654		66.406250
5655		70.312500
5656		64.453125
5657		68.359375
5658		60.546875
5659		64.453125
5660		58.593750
5661		62.500000
5662		56.640625
5663		60.546875
5664		54.687500
5665		58.593750
5666		50.781250
5667		54.687500
5668		48.828125
5669		52.734375
5670		46.875000
5671		50.781250
5672		44.921875
5673		48.828125
5674		41.015625
5675		44.921875
5676		39.062500
5677		42.968750
5678		35.156250
5679		41.015625
5680		33.203125
5681		37.109375
5682		29.296875
5683		35.156250
5684		27.343750
5685		31.250000
5686		23.437500
5687		29.296875
5688		21.484375
5689		25.390625
5690		17.578125
5691		23.437500
5692		15.625000
5693		19.531250
5694		13.671875
5695		17.578125
5696		9.765625
5697		13.671875
5698		5.859375
5699		11.718750
5700		3.906250
5701		7.812500
5702		0.000000
5703		5.859375
5704		-1.953125
5705		1.953125
5706		-5.859375
5707		-1.953125
5708		-7.812500
5709		-3.906250
5710		-11.718750
5711		-7.812500
5712		-15.625000
5713		-9.765625
5714		-17.578125
5715		-13.671875
5716		-21.484375
5717		-15.625000
5718		-23.437500
5719		-19.531250
5720		-27.343750
5721		-21.484375
5722		-29.296875
5723		-25.390625
5724		-33.203125
5725		-27.343750
5726		-35.156250
5727		-31.250000
5728		-39.062500
5729		-35.156250
5730		-41.015625
5731		-37.109375
5732		-44.921875
5733		-39.062500
5734		-46.875000
5735		-42.968750
5736		-50.781250
5737		-44.921875
5738		-52.734375
5739		-48.828125
5740		-56.640625
5741		-50.781250
5742		-58.593750
5743		-54.687500
5744		-60.546875
5745		-56.640625
5746		-64.453125
5747		-60.546875
5748		-66.406250
5749		-62.500000
5750		-70.312500
5751		-64.453125
5752		-72.265625
5753		-68.359375
5754		-74.218750
5755		-70.312500
5756		-76.171875
5757		-72.265625
5758		-80.078125
5759		-76.171875
5760		-82.031250
5761		-78.125000
5762		-83.984375
5763		-80.078125
5764		-85.937500
5765		-82.031250
5766		-87.890625
5767		-83.984375
5768		-89.843750
5769		-85.937500
5770		-91.796875
5771		-87.890625
5772		-93.750000
5773		-91.796875
5774		-95.703125
5775		-93.750000
5776		-97.656250
5777		-93.750000
5778		-99.609375
5779		-97.656250
5780		-101.562500
5781		-99.609375
5782		-103.515625
5783		-99.609375
5784		-105.468750
5785		-101.562500
5786		-107.421875
5787		-103.515625
5788		-107.421875
5789		-105.468750
5790		-109.375000
5791		-105.468750
5792		-111.328125
5793		-107.421875
5794		-111.328125
5795		-109.375000
5796		-113.281250
5797		-109.375000
5798		-113.281250
5799		-111.328125
5800		-115.234375
5801		-111.328125
5802		-115.234375
5803		-113.281250
5804		-115.234375
5805		-113.281250
5806		-117.187500
5807		-115.234375
5808		-117.187500
5809		-115.234375
5810		-117.187500
5811		-115.234375
5812		-119.140625
5813		-115.234375
5814		-119.140625
5815		-115.234375
5816		-119.140625
5817		-117.187500
5818		-119.140625
5819		-117.187500
5820		-119.140625
5821		-117.187500
5822		-119.140625
5823		-117.187500
5824		-119.140625
5825		-117.187500
5826		-119.140625
5827		-117.187500
5828		-119.140625
5829		-115.234375
5830		-119.140625
5831		-115.234375
5832		-117.187500
5833		-115.234375
5834		-117.187500
5835		-115.234375
5836		-117.187500
5837		-113.281250
5838		-115.234375
5839		-113.281250
5840		-115.234375
5841		-111.328125
5842		-113.281250
5843		-111.328125
5844		-113.281250
5845		-109.375000
5846		-111.328125
5847		-109.375000
5848		-111.328125
5849		-107.421875
5850		-109.375000
5851		-105.468750
5852		-107.421875
5853		-105.468750
5854		-107.421875
5855		-103.515625
5856		-105.468750
5857		-101.562500
5858		-103.515625
5859		-99.609375
5860		-101.562500
5861		-99.609375
5862		-101.562500
5863		-95.703125
5864		-97.656250
5865		-95.703125
5866		-95.703125
5867		-93.750000
5868		-95.703125
5869		-91.796875
5870		-91.796875
5871		-89.843750
5872		-89.843750
5873		-85.937500
5874		-87.890625
5875		-83.984375
5876		-85.937500
5877		-82.031250
5878		-83.984375
5879		-80.078125
5880		-82.031250
5881		-78.125000
5882		-80.078125
5883		-74.218750
5884		-76.171875
5885		-72.265625
5886		-74.218750
5887		-70.312500
5888		-72.265625
5889		-66.406250
5890		-68.359375
5891		-64.453125
5892		-66.406250
5893		-62.500000
5894		-64.453125
5895		-58.593750
5896		-60.546875
5897		-56.640625
5898		-58.593750
5899		-52.734375
5900		-54.687500
5901		-50.781250
5902		-52.734375
5903		-48.828125
5904		-48.828125
5905		-44.921875
5906		-46.875000
5907		-41.015625
5908		-42.968750
5909		-39.062500
5910		-41.015625
5911		-37.109375
5912		-37.109375
5913		-33.203125
5914		-35.156250
5915		-29.296875
5916		-31.250000
5917		-27.343750
5918		-29.296875
5919		-23.437500
5920		-25.390625
5921		-21.484375
5922		-21.484375
5923		-17.578125
5924		-19.531250
5925		-15.625000
5926		-15.625000
5927		-11.718750
5928		-13.671875
5929		-9.765625
5930		-9.765625
5931		-5.859375
5932		-7.812500
5933		-3.906250
5934		-3.906250
5935		0.000000
5936		-1.953125
5937		3.906250
5938		1.953125
5939		5.859375
5940		3.906250
5941		9.765625
5942		7.812500
5943		11.718750
5944		9.765625
5945		15.625000
5946		13.671875
5947		17.578125
5948		13.671875
5949		21.484375
5950		19.531250
5951		23.437500
5952		21.484375
5953		27.343750
5954		25.390625
5955		31.250000
5956		27.343750
5957		33.203125
5958		31.250000
5959		35.156250
5960		33.203125
5961		39.062500
5962		37.109375
5963		41.015625
5964		37.109375
5965		44.921875
5966		41.015625
5967		46.875000
5968		42.968750
5969		48.828125
5970		46.875000
5971		50.781250
5972		46.875000
5973		56.640625
5974		52.734375
5975		56.640625
5976		54.687500
5977		58.593750
5978		56.640625
5979		60.546875
5980		58.593750
5981		64.453125
5982		60.546875
5983		66.406250
5984		62.500000
5985		70.312500
5986		64.453125
5987		70.312500
5988		66.406250
5989		74.218750
5990		70.312500
5991		74.218750
5992		72.265625
5993		76.171875
5994		74.218750
5995		78.125000
5996		76.171875
5997		80.078125
5998		78.125000
5999		82.031250
6000		80.078125
6001		83.984375
6002		80.078125
6003		85.937500
6004		83.984375
6005		85.937500
6006		83.984375
6007		87.890625
6008		85.937500
6009		89.843750
6010		87.890625
6011		91.796875
6012		87.890625
6013		93.750000
6014		87.890625
6015		95.703125
6016		91.796875
6017		95.703125
6018		93.750000
6019		97.656250
6020		91.796875
6021		97.656250
6022		93.750000
6023		101.562500
6024		97.656250
6025		99.609375
6026		97.656250
6027		101.562500
6028		97.656250
6029		103.515625
6030		97.656250
6031		105.468750
6032		97.656250
6033		105.468750
6034		101.562500
6035		105.468750
6036		99.609375
6037		107.421875
6038		103.515625
6039		105.468750
6040		99.609375
6041		109.375000
6042		103.515625
6043		105.468750
6044		103.515625
6045		107.421875
6046		103.515625
6047		109.375000
6048		103.515625
6049		109.375000
6050		105.468750
6051		109.375000
6052		103.515625
6053		111.328125
6054		103.515625
6055		111.328125
6056		103.515625
6057		111.328125
6058		105.468750
6059		107.421875
6060		105.468750
6061		107.421875
6062		103.515625
6063		109.375000
6064		101.562500
6065		111.328125
6066		103.515625
6067		107.421875
6068		103.515625
6069		107.421875
6070		101.562500
6071		109.375000
6072		101.562500
6073		109.375000
6074		101.562500
6075		105.468750
6076		103.515625
6077		105.468750
6078		101.562500
6079		105.468750
6080		97.656250
6081		105.468750
6082		99.609375
6083		103.515625
6084		99.609375
6085		101.562500
6086		95.703125
6087		103.515625
6088		93.750000
6089		103.515625
6090		93.750000
6091		101.562500
6092		93.750000
6093		97.656250
6094		91.796875
6095		97.656250
6096		89.843750
6097		97.656250
6098		87.890625
6099		97.656250
6100		89.843750
6101		91.796875
6102		87.890625
6103		91.796875
6104		82.031250
6105		93.750000
6106		82.031250
6107		91.796875
6108		83.984375
6109		85.937500
6110		82.031250
6111		83.984375
6112		78.125000
6113		83.984375
6114		74.218750
6115		83.984375
6116		74.218750
6117		80.078125
6118		74.218750
6119		78.125000
6120		68.359375
6121		78.125000
6122		68.359375
6123		76.171875
6124		64.453125
6125		74.218750
6126		64.453125
6127		68.359375
6128		62.500000
6129		66.406250
6130		58.593750
6131		66.406250
6132		56.640625
6133		62.500000
6134		56.640625
6135		60.546875
6136		52.734375
6137		56.640625
6138		48.828125
6139		58.593750
6140		46.875000
6141		54.687500
6142		46.875000
6143		50.781250
6144		42.968750
6145		46.875000
6146		39.062500
6147		44.921875
6148		35.156250
6149		44.921875
6150		33.203125
6151		39.062500
6152		31.250000
6153		37.109375
6154		27.343750
6155		35.156250
6156		23.437500
6157		31.250000
6158		23.437500
6159		27.343750
6160		21.484375
6161		25.390625
6162		17.578125
6163		21.484375
6164		11.718750
6165		21.484375
6166		11.718750
6167		17.578125
6168		9.765625
6169		13.671875
6170		3.906250
6171		11.718750
6172		1.953125
6173		11.718750
6174		0.000000
6175		5.859375
6176		-3.906250
6177		1.953125
6178		-5.859375
6179		-1.953125
6180		-9.765625
6181		-3.906250
6182		-13.671875
6183		-3.906250
6184		-15.625000
6185		-9.765625
6186		-17.578125
6187		-13.671875
6188		-23.437500
6189		-13.671875
6190		-27.343750
6191		-19.531250
6192		-27.343750
6193		-23.437500
6194		-29.296875
6195		-25.390625
6196		-33.203125
6197		-29.296875
6198		-37.109375
6199		-29.296875
6200		-39.062500
6201		-33.203125
6202		-42.968750
6203		-37.109375
6204		-48.828125
6205		-39.062500
6206		-48.828125
6207		-41.015625
6208		-50.781250
6209		-42.968750
6210		-52.734375
6211		-48.828125
6212		-56.640625
6213		-52.734375
6214		-62.500000
6215		-54.687500
6216		-62.500000
6217		-56.640625
6218		-64.453125
6219		-60.546875
6220		-70.312500
6221		-62.500000
6222		-70.312500
6223		-66.406250
6224		-74.218750
6225		-68.359375
6226		-74.218750
6227		-70.312500
6228		-78.125000
6229		-74.218750
6230		-80.078125
6231		-76.171875
6232		-83.984375
6233		-76.171875
6234		-83.984375
6235		-80.078125
6236		-85.937500
6237		-82.031250
6238		-89.843750
6239		-83.984375
6240		-89.843750
6241		-87.890625
6242		-93.750000
6243		-89.843750
6244		-95.703125
6245		-91.796875
6246		-97.656250
6247		-93.750000
6248		-99.609375
6249		-95.703125
6250		-101.562500
6251		-95.703125
6252		-101.562500
6253		-97.656250
6254		-105.468750
6255		-99.609375
6256		-105.468750
6257		-101.562500
6258		-107.421875
6259		-103.515625
6260		-107.421875
6261		-105.468750
6262		-109.375000
6263		-105.468750
6264		-111.328125
6265		-107.421875
6266		-111.328125
6267		-109.375000
6268		-113.281250
6269		-109.375000
6270		-113.281250
6271		-111.328125
6272		-115.234375
6273		-111.328125
6274		-115.234375
6275		-113.281250
6276		-115.234375
6277		-113.281250
6278		-117.187500
6279		-113.281250
6280		-117.187500
6281		-115.234375
6282		-117.187500
6283		-115.234375
6284		-117.187500
6285		-115.234375
6286		-119.140625
6287		-115.234375
6288		-117.187500
6289		-115.234375
6290		-119.140625
6291		-115.234375
6292		-117.187500
6293		-115.234375
6294		-119.140625
6295		-115.234375
6296		-119.140625
6297		-115.234375
6298		-119.140625
6299		-113.281250
6300		-119.140625
6301		-113.281250
6302		-119.140625
6303		-113.281250
6304		-117.187500
6305		-113.281250
6306		-117.187500
6307		-111.328125
6308		-117.187500
6309		-111.328125
6310		-115.234375
6311		-111.328125
6312		-113.281250
6313		-111.328125
6314		-113.281250
6315		-109.375000
6316		-113.281250
6317		-107.421875
6318		-111.328125
6319		-107.421875
6320		-111.328125
6321		-105.468750
6322		-109.375000
6323		-103.515625
6324		-107.421875
6325		-103.515625
6326		-107.421875
6327		-101.562500
6328		-103.515625
6329		-101.562500
6330		-103.515625
6331		-97.656250
6332		-101.562500
6333		-95.703125
6334		-99.609375
6335		-93.750000
6336		-97.656250
6337		-91.796875
6338		-95.703125
6339		-91.796875
6340		-93.750000
6341		-87.890625
6342		-91.796875
6343		-87.890625
6344		-89.843750
6345		-85.937500
6346		-87.890625
6347		-83.984375
6348		-85.937500
6349		-80.078125
6350		-83.984375
6351		-78.125000
6352		-80.078125
6353		-74.218750
6354		-80.078125
6355		-72.265625
6356		-76.171875
6357		-70.312500
6358		-74.218750
6359		-68.359375
6360		-70.312500
6361		-66.406250
6362		-68.359375
6363		-62.500000
6364		-66.406250
6365		-60.546875
6366		-62.500000
6367		-58.593750
6368		-60.546875
6369		-54.687500
6370		-56.640625
6371		-50.781250
6372		-54.687500
6373		-48.828125
6374		-50.781250
6375		-44.921875
6376		-48.828125
6377		-42.968750
6378		-44.921875
6379		-41.015625
6380		-42.968750
6381		-37.109375
6382		-41.015625
6383		-35.156250
6384		-37.109375
6385		-31.250000
6386		-35.156250
6387		-27.343750
6388		-31.250000
6389		-23.437500
6390		-27.343750
6391		-21.484375
6392		-23.437500
6393		-19.531250
6394		-21.484375
6395		-17.578125
6396		-17.578125
6397		-13.671875
6398		-15.625000
6399		-9.765625
6400		-11.718750
6401		-7.812500
6402		-9.765625
6403		-3.906250
6404		-7.812500
6405		-1.953125
6406		-3.906250
6407		1.953125
6408		0.000000
6409		5.859375
6410		1.953125
6411		7.812500
6412		5.859375
6413		11.718750
6414		9.765625
6415		13.671875
6416		11.718750
6417		15.625000
6418		15.625000
6419		19.531250
6420		17.578125
6421		23.437500
6422		21.484375
6423		25.390625
6424		23.437500
6425		29.296875
6426		27.343750
6427		31.250000
6428		29.296875
6429		33.203125
6430		31.250000
6431		37.109375
6432		33.203125
6433		39.062500
6434		37.109375
6435		42.968750
6436		41.015625
6437		46.875000
6438		41.015625
6439		46.875000
6440		44.921875
6441		50.781250
6442		48.828125
6443		52.734375
6444		48.828125
6445		54.687500
6446		52.734375
6447		56.640625
6448		56.640625
6449		60.546875
6450		56.640625
6451		62.500000
6452		60.546875
6453		64.453125
6454		60.546875
6455		68.359375
6456		64.453125
6457		68.359375
6458		66.406250
6459		70.312500
6460		68.359375
6461		72.265625
6462		72.265625
6463		74.218750
6464		72.265625
6465		78.125000
6466		74.218750
6467		80.078125
6468		78.125000
6469		80.078125
6470		78.125000
6471		83.984375
6472		80.078125
6473		83.984375
6474		82.031250
6475		85.937500
6476		83.984375
6477		87.890625
6478		85.937500
6479		89.843750
6480		87.890625
6481		91.796875
6482		87.890625
6483		91.796875
6484		89.843750
6485		93.750000
6486		91.796875
6487		95.703125
6488		91.796875
6489		97.656250
6490		93.750000
6491		97.656250
6492		95.703125
6493		97.656250
6494		95.703125
6495		99.609375
6496		97.656250
6497		101.562500
6498		97.656250
6499		103.515625
6500		99.609375
6501		103.515625
6502		99.609375
6503		103.515625
6504		99.609375
6505		105.468750
6506		101.562500
6507		105.468750
6508		103.515625
6509		107.421875
6510		103.515625
6511		107.421875
6512		103.515625
6513		107.421875
6514		105.468750
6515		107.421875
6516		103.515625
6517		109.375000
6518		105.468750
6519		109.375000
6520		105.468750
6521		109.375000
6522		105.468750
6523		109.375000
6524		105.468750
6525		109.375000
6526		105.468750
6527		109.375000
6528		105.468750
6529		109.375000
6530		105.468750
6531		109.375000
6532		105.468750
6533		109.375000
6534		105.468750
6535		109.375000
6536		105.468750
6537		109.375000
6538		103.515625
6539		109.375000
6540		105.468750
6541		107.421875
6542		103.515625
6543		107.421875
6544		103.515625
6545		107.421875
6546		103.515625
6547		105.468750
6548		101.562500
6549		105.468750
6550		101.562500
6551		105.468750
6552		101.562500
6553		103.515625
6554		99.609375
6555		103.515625
6556		99.609375
6557		103.515625
6558		97.656250
6559		101.562500
6560		97.656250
6561		99.609375
6562		95.703125
6563		99.609375
6564		95.703125
6565		97.656250
6566		93.750000
6567		97.656250
6568		91.796875
6569		95.703125
6570		91.796875
6571		95.703125
6572		89.843750
6573		93.750000
6574		87.890625
6575		91.796875
6576		85.937500
6577		89.843750
6578		85.937500
6579		89.843750
6580		83.984375
6581		87.890625
6582		80.078125
6583		85.937500
6584		80.078125
6585		83.984375
6586		78.125000
6587		82.031250
6588		76.171875
6589		80.078125
6590		74.218750
6591		78.125000
6592		70.312500
6593		76.171875
6594		70.312500
6595		74.218750
6596		68.359375
6597		72.265625
6598		66.406250
6599		68.359375
6600		62.500000
6601		68.359375
6602		60.546875
6603		64.453125
6604		58.593750
6605		62.500000
6606		54.687500
6607		60.546875
6608		52.734375
6609		56.640625
6610		50.781250
6611		56.640625
6612		48.828125
6613		52.734375
6614		46.875000
6615		50.781250
6616		42.968750
6617		46.875000
6618		41.015625
6619		44.921875
6620		39.062500
6621		42.968750
6622		35.156250
6623		39.062500
6624		33.203125
6625		37.109375
6626		29.296875
6627		33.203125
6628		27.343750
6629		31.250000
6630		23.437500
6631		27.343750
6632		19.531250
6633		25.390625
6634		17.578125
6635		23.437500
6636		15.625000
6637		19.531250
6638		11.718750
6639		15.625000
6640		9.765625
6641		13.671875
6642		5.859375
6643		11.718750
6644		1.953125
6645		7.812500
6646		0.000000
6647		3.906250
6648		-3.906250
6649		1.953125
6650		-5.859375
6651		-1.953125
6652		-9.765625
6653		-3.906250
6654		-11.718750
6655		-7.812500
6656		-15.625000
6657		-9.765625
6658		-19.531250
6659		-13.671875
6660		-21.484375
6661		-17.578125
6662		-23.437500
6663		-19.531250
6664		-27.343750
6665		-23.437500
6666		-31.250000
6667		-25.390625
6668		-33.203125
6669		-29.296875
6670		-37.109375
6671		-31.250000
6672		-39.062500
6673		-35.156250
6674		-42.968750
6675		-37.109375
6676		-44.921875
6677		-41.015625
6678		-48.828125
6679		-42.968750
6680		-50.781250
6681		-46.875000
6682		-52.734375
6683		-48.828125
6684		-56.640625
6685		-52.734375
6686		-58.593750
6687		-54.687500
6688		-62.500000
6689		-58.593750
6690		-64.453125
6691		-60.546875
6692		-66.406250
6693		-62.500000
6694		-70.312500
6695		-66.406250
6696		-72.265625
6697		-66.406250
6698		-74.218750
6699		-70.312500
6700		-78.125000
6701		-72.265625
6702		-80.078125
6703		-76.171875
6704		-82.031250
6705		-78.125000
6706		-83.984375
6707		-80.078125
6708		-87.890625
6709		-82.031250
6710		-89.843750
6711		-83.984375
6712		-89.843750
6713		-87.890625
6714		-93.750000
6715		-89.843750
6716		-95.703125
6717		-91.796875
6718		-97.656250
6719		-91.796875
6720		-99.609375
6721		-95.703125
6722		-99.609375
6723		-97.656250
6724		-101.562500
6725		-97.656250
6726		-103.515625
6727		-99.609375
6728		-105.468750
6729		-101.562500
6730		-105.468750
6731		-103.515625
6732		-107.421875
6733		-105.468750
6734		-109.375000
6735		-105.468750
6736		-109.375000
6737		-107.421875
6738		-111.328125
6739		-107.421875
6740		-111.328125
6741		-109.375000
6742		-113.281250
6743		-109.375000
6744		-113.281250
6745		-111.328125
6746		-115.234375
6747		-111.328125
6748		-115.234375
6749		-113.281250
6750		-117.187500
6751		-113.281250
6752		-117.187500
6753		-113.281250
6754		-117.187500
6755		-113.281250
6756		-117.187500
6757		-115.234375
6758		-117.187500
6759		-115.234375
6760		-119.140625
6761		-115.234375
6762		-119.140625
6763		-115.234375
6764		-117.187500
6765		-115.234375
6766		-117.187500
6767		-115.234375
6768		-119.140625
6769		-115.234375
6770		-117.187500
6771		-115.234375
6772		-117.187500
6773		-113.281250
6774		-117.187500
6775		-113.281250
6776		-117.187500
6777		-113.281250
6778		-115.234375
6779		-111.328125
6780		-115.234375
6781		-111.328125
6782		-113.281250
6783		-111.328125
6784		-113.281250
6785		-109.375000
6786		-111.328125
6787		-109.375000
6788		-111.328125
6789		-107.421875
6790		-111.328125
6791		-105.468750
6792		-109.375000
6793		-105.468750
6794		-109.375000
6795		-103.515625
6796		-107.421875
6797		-103.515625
6798		-105.468750
6799		-101.562500
6800		-103.515625
6801		-99.609375
6802		-103.515625
6803		-97.656250
6804		-99.609375
6805		-95.703125
6806		-97.656250
6807		-93.750000
6808		-95.703125
6809		-91.796875
6810		-93.750000
6811		-89.843750
6812		-91.796875
6813		-87.890625
6814		-89.843750
6815		-85.937500
6816		-87.890625
6817		-83.984375
6818		-85.937500
6819		-82.031250
6820		-83.984375
6821		-80.078125
6822		-82.031250
6823		-76.171875
6824		-78.125000
6825		-74.218750
6826		-76.171875
6827		-72.265625
6828		-74.218750
6829		-70.312500
6830		-72.265625
6831		-68.359375
6832		-68.359375
6833		-64.453125
6834		-66.406250
6835		-60.546875
6836		-64.453125
6837		-58.593750
6838		-60.546875
6839		-56.640625
6840		-58.593750
6841		-52.734375
6842		-54.687500
6843		-50.781250
6844		-52.734375
6845		-48.828125
6846		-48.828125
6847		-44.921875
6848		-46.875000
6849		-41.015625
6850		-42.968750
6851		-39.062500
6852		-41.015625
6853		-35.156250
6854		-37.109375
6855		-33.203125
6856		-35.156250
6857		-29.296875
6858		-31.250000
6859		-27.343750
6860		-29.296875
6861		-23.437500
6862		-25.390625
6863		-19.531250
6864		-23.437500
6865		-17.578125
6866		-19.531250
6867		-15.625000
6868		-15.625000
6869		-11.718750
6870		-13.671875
6871		-9.765625
6872		-9.765625
6873		-5.859375
6874		-7.812500
6875		-1.953125
6876		-3.906250
6877		0.000000
6878		-1.953125
6879		3.906250
6880		1.953125
6881		5.859375
6882		3.906250
6883		9.765625
6884		7.812500
6885		11.718750
6886		9.765625
6887		15.625000
6888		13.671875
6889		17.578125
6890		15.625000
6891		21.484375
6892		19.531250
6893		23.437500
6894		23.437500
6895		27.343750
6896		25.390625
6897		31.250000
6898		27.343750
6899		33.203125
6900		31.250000
6901		35.156250
6902		33.203125
6903		39.062500
6904		37.109375
6905		41.015625
6906		39.062500
6907		42.968750
6908		41.015625
6909		46.875000
6910		44.921875
6911		48.828125
6912		46.875000
6913		50.781250
6914		50.781250
6915		54.687500
6916		52.734375
6917		56.640625
6918		54.687500
6919		60.546875
6920		56.640625
6921		62.500000
6922		58.593750
6923		62.500000
6924		62.500000
6925		66.406250
6926		64.453125
6927		68.359375
6928		66.406250
6929		70.312500
6930		68.359375
6931		72.265625
6932		70.312500
6933		76.171875
6934		72.265625
6935		76.171875
6936		74.218750
6937		78.125000
6938		76.171875
6939		80.078125
6940		78.125000
6941		82.031250
6942		80.078125
6943		83.984375
6944		82.031250
6945		85.937500
6946		83.984375
6947		87.890625
6948		83.984375
6949		87.890625
6950		85.937500
6951		89.843750
6952		87.890625
6953		91.796875
6954		89.843750
6955		93.750000
6956		91.796875
6957		95.703125
6958		91.796875
6959		95.703125
6960		93.750000
6961		97.656250
6962		95.703125
6963		97.656250
6964		95.703125
6965		99.609375
6966		97.656250
6967		99.609375
6968		99.609375
6969		101.562500
6970		99.609375
6971		103.515625
6972		99.609375
6973		103.515625
6974		101.562500
6975		103.515625
6976		101.562500
6977		105.468750
6978		103.515625
6979		105.468750
6980		103.515625
6981		107.421875
6982		103.515625
6983		107.421875
6984		105.468750
6985		107.421875
6986		103.515625
6987		107.421875
6988		105.468750
6989		107.421875
6990		105.468750
6991		109.375000
6992		105.468750
6993		109.375000
6994		105.468750
6995		109.375000
6996		105.468750
6997		109.375000
6998		105.468750
6999		109.375000
7000		107.421875
7001		109.375000
7002		105.468750
7003		109.375000
7004		105.468750
7005		109.375000
7006		105.468750
7007		109.375000
7008		105.468750
7009		109.375000
7010		105.468750
7011		109.375000
7012		105.468750
7013		107.421875
7014		103.515625
7015		107.421875
7016		103.515625
7017		107.421875
7018		103.515625
7019		105.468750
7020		101.562500
7021		105.468750
7022		101.562500
7023		105.468750
7024		99.609375
7025		103.515625
7026		99.609375
7027		103.515625
7028		99.609375
7029		101.562500
7030		97.656250
7031		101.562500
7032		95.703125
7033		99.609375
7034		95.703125
7035		99.609375
7036		93.750000
7037		97.656250
7038		93.750000
7039		97.656250
7040		91.796875
7041		95.703125
7042		89.843750
7043		93.750000
7044		89.843750
7045		93.750000
7046		85.937500
7047		91.796875
7048		85.937500
7049		89.843750
7050		83.984375
7051		87.890625
7052		82.031250
7053		85.937500
7054		80.078125
7055		85.937500
7056		78.125000
7057		83.984375
7058		78.125000
7059		80.078125
7060		74.218750
7061		78.125000
7062		72.265625
7063		78.125000
7064		70.312500
7065		76.171875
7066		68.359375
7067		74.218750
7068		66.406250
7069		70.312500
7070		64.453125
7071		68.359375
7072		62.500000
7073		66.406250
7074		60.546875
7075		64.453125
7076		56.640625
7077		62.500000
7078		54.687500
7079		60.546875
7080		52.734375
7081		56.640625
7082		50.781250
7083		54.687500
7084		48.828125
7085		52.734375
7086		44.921875
7087		48.828125
7088		41.015625
7089		46.875000
7090		41.015625
7091		44.921875
7092		37.109375
7093		42.968750
7094		35.156250
7095		39.062500
7096		31.250000
7097		37.109375
7098		27.343750
7099		33.203125
7100		25.390625
7101		29.296875
7102		23.437500
7103		27.343750
7104		19.531250
7105		25.390625
7106		17.578125
7107		21.484375
7108		13.671875
7109		19.531250
7110		11.718750
7111		15.625000
7112		7.812500
7113		13.671875
7114		5.859375
7115		9.765625
7116		1.953125
7117		7.812500
7118		0.000000
7119		3.906250
7120		-3.906250
7121		0.000000
7122		-7.812500
7123		-1.953125
7124		-9.765625
7125		-5.859375
7126		-13.671875
7127		-7.812500
7128		-17.578125
7129		-11.718750
7130		-19.531250
7131		-15.625000
7132		-21.484375
7133		-17.578125
7134		-25.390625
7135		-21.484375
7136		-27.343750
7137		-23.437500
7138		-31.250000
7139		-25.390625
7140		-33.203125
7141		-29.296875
7142		-37.109375
7143		-33.203125
7144		-41.015625
7145		-35.156250
7146		-42.968750
7147		-39.062500
7148		-46.875000
7149		-41.015625
7150		-48.828125
7151		-42.968750
7152		-50.781250
7153		-46.875000
7154		-54.687500
7155		-50.781250
7156		-56.640625
7157		-52.734375
7158		-60.546875
7159		-56.640625
7160		-62.500000
7161		-58.593750
7162		-64.453125
7163		-60.546875
7164		-68.359375
7165		-62.500000
7166		-70.312500
7167		-66.406250
7168		-72.265625
7169		-68.359375
7170		-76.171875
7171		-70.312500
7172		-78.125000
7173		-74.218750
7174		-80.078125
7175		-76.171875
7176		-82.031250
7177		-78.125000
7178		-85.937500
7179		-80.078125
7180		-87.890625
7181		-83.984375
7182		-89.843750
7183		-85.937500
7184		-91.796875
7185		-87.890625
7186		-93.750000
7187		-89.843750
7188		-95.703125
7189		-91.796875
7190		-97.656250
7191		-93.750000
7192		-99.609375
7193		-93.750000
7194		-101.562500
7195		-97.656250
7196		-101.562500
7197		-97.656250
7198		-103.515625
7199		-99.609375
7200		-105.468750
7201		-101.562500
7202		-107.421875
7203		-103.515625
7204		-109.375000
7205		-105.468750
7206		-109.375000
7207		-105.468750
7208		-111.328125
7209		-107.421875
7210		-111.328125
7211		-107.421875
7212		-113.281250
7213		-109.375000
7214		-113.281250
7215		-111.328125
7216		-115.234375
7217		-111.328125
7218		-115.234375
7219		-113.281250
7220		-115.234375
7221		-113.281250
7222		-117.187500
7223		-113.281250
7224		-117.187500
7225		-113.281250
7226		-117.187500
7227		-113.281250
7228		-117.187500
7229		-113.281250
7230		-117.187500
7231		-115.234375
7232		-117.187500
7233		-115.234375
7234		-119.140625
7235		-115.234375
7236		-117.187500
7237		-115.234375
7238		-117.187500
7239		-115.234375
7240		-117.187500
7241		-113.281250
7242		-117.187500
7243		-115.234375
7244		-117.187500
7245		-113.281250
7246		-115.234375
7247		-113.281250
7248		-115.234375
7249		-113.281250
7250		-115.234375
7251		-111.328125
7252		-115.234375
7253		-111.328125
7254		-113.281250
7255		-109.375000
7256		-113.281250
7257		-109.375000
7258		-111.328125
7259		-109.375000
7260		-111.328125
7261		-107.421875
7262		-109.375000
7263		-105.468750
7264		-109.375000
7265		-105.468750
7266		-107.421875
7267		-103.515625
7268		-105.468750
7269		-101.562500
7270		-103.515625
7271		-99.609375
7272		-103.515625
7273		-97.656250
7274		-99.609375
7275		-95.703125
7276		-99.609375
7277		-93.750000
7278		-97.656250
7279		-93.750000
7280		-95.703125
7281		-91.796875
7282		-93.750000
7283		-89.843750
7284		-91.796875
7285		-87.890625
7286		-89.843750
7287		-85.937500
7288		-85.937500
7289		-82.031250
7290		-85.937500
7291		-82.031250
7292		-82.031250
7293		-78.125000
7294		-80.078125
7295		-76.171875
7296		-78.125000
7297		-74.218750
7298		-76.171875
7299		-72.265625
7300		-72.265625
7301		-68.359375
7302		-70.312500
7303		-66.406250
7304		-68.359375
7305		-64.453125
7306		-66.406250
7307		-60.546875
7308		-62.500000
7309		-58.593750
7310		-58.593750
7311		-54.687500
7312		-56.640625
7313		-52.734375
7314		-54.687500
7315		-48.828125
7316		-50.781250
7317		-46.875000
7318		-48.828125
7319		-42.968750
7320		-44.921875
7321		-41.015625
7322		-42.968750
7323		-37.109375
7324		-39.062500
7325		-33.203125
7326		-37.109375
7327		-31.250000
7328		-33.203125
7329		-29.296875
7330		-31.250000
7331		-25.390625
7332		-27.343750
7333		-23.437500
7334		-23.437500
7335		-19.531250
7336		-21.484375
7337		-15.625000
7338		-17.578125
7339		-13.671875
7340		-15.625000
7341		-9.765625
7342		-11.718750
7343		-7.812500
7344		-9.765625
7345		-3.906250
7346		-5.859375
7347		-1.953125
7348		-3.906250
7349		1.953125
7350		0.000000
7351		5.859375
7352		3.906250
7353		7.812500
7354		5.859375
7355		11.718750
7356		9.765625
7357		13.671875
7358		11.718750
7359		17.578125
7360		13.671875
7361		19.531250
7362		17.578125
7363		21.484375
7364		19.531250
7365		25.390625
7366		23.437500
7367		27.343750
7368		25.390625
7369		31.250000
7370		29.296875
7371		33.203125
7372		31.250000
7373		37.109375
7374		35.156250
7375		39.062500
7376		37.109375
7377		42.968750
7378		39.062500
7379		44.921875
7380		42.968750
7381		46.875000
7382		44.921875
7383		48.828125
7384		46.875000
7385		52.734375
7386		50.781250
7387		54.687500
7388		52.734375
7389		56.640625
7390		54.687500
7391		60.546875
7392		58.593750
7393		62.500000
7394		60.546875
7395		64.453125
7396		62.500000
7397		68.359375
7398		64.453125
7399		68.359375
7400		66.406250
7401		70.312500
7402		68.359375
7403		72.265625
7404		70.312500
7405		76.171875
7406		74.218750
7407		78.125000
7408		76.171875
7409		80.078125
7410		78.125000
7411		82.031250
7412		78.125000
7413		82.031250
7414		80.078125
7415		85.937500
7416		82.031250
7417		85.937500
7418		83.984375
7419		87.890625
7420		85.937500
7421		89.843750
7422		87.890625
7423		91.796875
7424		89.843750
7425		91.796875
7426		89.843750
7427		93.750000
7428		91.796875
7429		95.703125
7430		93.750000
7431		95.703125
7432		93.750000
7433		97.656250
7434		95.703125
7435		99.609375
7436		97.656250
7437		99.609375
7438		97.656250
7439		101.562500
7440		99.609375
7441		101.562500
7442		99.609375
7443		103.515625
7444		101.562500
7445		105.468750
7446		101.562500
7447		105.468750
7448		101.562500
7449		105.468750
7450		103.515625
7451		105.468750
7452		103.515625
7453		107.421875
7454		103.515625
7455		107.421875
7456		103.515625
7457		107.421875
7458		105.468750
7459		107.421875
7460		105.468750
7461		109.375000
7462		105.468750
7463		109.375000
7464		105.468750
7465		109.375000
7466		107.421875
7467		109.375000
7468		107.421875
7469		109.375000
7470		107.421875
7471		109.375000
7472		107.421875
7473		109.375000
7474		105.468750
7475		111.328125
7476		105.468750
7477		109.375000
7478		105.468750
7479		109.375000
7480		105.468750
7481		109.375000
7482		105.468750
7483		109.375000
7484		105.468750
7485		107.421875
7486		105.468750
7487		107.421875
7488		103.515625
7489		107.421875
7490		103.515625
7491		107.421875
7492		103.515625
7493		105.468750
7494		101.562500
7495		105.468750
7496		101.562500
7497		103.515625
7498		99.609375
7499		103.515625
7500		99.609375
7501		103.515625
7502		97.656250
7503		101.562500
7504		97.656250
7505		99.609375
7506		95.703125
7507		99.609375
7508		93.750000
7509		99.609375
7510		93.750000
7511		97.656250
7512		91.796875
7513		95.703125
7514		89.843750
7515		93.750000
7516		87.890625
7517		91.796875
7518		85.937500
7519		91.796875
7520		85.937500
7521		89.843750
7522		83.984375
7523		87.890625
7524		82.031250
7525		85.937500
7526		80.078125
7527		85.937500
7528		80.078125
7529		82.031250
7530		76.171875
7531		82.031250
7532		74.218750
7533		80.078125
7534		74.218750
7535		76.171875
7536		72.265625
7537		76.171875
7538		70.312500
7539		72.265625
7540		66.406250
7541		70.312500
7542		64.453125
7543		68.359375
7544		62.500000
7545		66.406250
7546		60.546875
7547		64.453125
7548		56.640625
7549		62.500000
7550		54.687500
7551		58.593750
7552		52.734375
7553		58.593750
7554		50.781250
7555		54.687500
7556		48.828125
7557		52.734375
7558		44.921875
7559		50.781250
7560		42.968750
7561		46.875000
7562		39.062500
7563		44.921875
7564		37.109375
7565		41.015625
7566		33.203125
7567		39.062500
7568		31.250000
7569		35.156250
7570		29.296875
7571		33.203125
7572		25.390625
7573		29.296875
7574		23.437500
7575		27.343750
7576		19.531250
7577		23.437500
7578		15.625000
7579		21.484375
7580		13.671875
7581		19.531250
7582		9.765625
7583		15.625000
7584		7.812500
7585		13.671875
7586		3.906250
7587		9.765625
7588		1.953125
7589		5.859375
7590		-1.953125
7591		3.906250
7592		-3.906250
7593		0.000000
7594		-7.812500
7595		-1.953125
7596		-9.765625
7597		-5.859375
7598		-13.671875
7599		-7.812500
7600		-17.578125
7601		-11.718750
7602		-19.531250
7603		-15.625000
7604		-23.437500
7605		-17.578125
7606		-25.390625
7607		-21.484375
7608		-29.296875
7609		-23.437500
7610		-31.250000
7611		-27.343750
7612		-35.156250
7613		-29.296875
7614		-37.109375
7615		-33.203125
7616		-41.015625
7617		-35.156250
7618		-42.968750
7619		-39.062500
7620		-46.875000
7621		-41.015625
7622		-48.828125
7623		-44.921875
7624		-52.734375
7625		-46.875000
7626		-54.687500
7627		-48.828125
7628		-56.640625
7629		-52.734375
7630		-60.546875
7631		-54.687500
7632		-62.500000
7633		-58.593750
7634		-64.453125
7635		-60.546875
7636		-70.312500
7637		-62.500000
7638		-70.312500
7639		-66.406250
7640		-72.265625
7641		-68.359375
7642		-76.171875
7643		-70.312500
7644		-78.125000
7645		-74.218750
7646		-80.078125
7647		-76.171875
7648		-82.031250
7649		-78.125000
7650		-85.937500
7651		-80.078125
7652		-87.890625
7653		-82.031250
7654		-89.843750
7655		-83.984375
7656		-89.843750
7657		-87.890625
7658		-93.750000
7659		-89.843750
7660		-95.703125
7661		-91.796875
7662		-97.656250
7663		-93.750000
7664		-97.656250
7665		-93.750000
7666		-99.609375
7667		-95.703125
7668		-101.562500
7669		-97.656250
7670		-103.515625
7671		-99.609375
7672		-105.468750
7673		-101.562500
7674		-105.468750
7675		-103.515625
7676		-107.421875
7677		-103.515625
7678		-109.375000
7679		-105.468750
7680		-109.375000
7681		-107.421875
7682		-111.328125
7683		-107.421875
7684		-111.328125
7685		-109.375000
7686		-113.281250
7687		-109.375000
7688		-113.281250
7689		-111.328125
7690		-113.281250
7691		-111.328125
7692		-115.234375
7693		-111.328125
7694		-115.234375
7695		-113.281250
7696		-115.234375
7697		-113.281250
7698		-117.187500
7699		-113.281250
7700		-117.187500
7701		-113.281250
7702		-117.187500
7703		-113.281250
7704		-117.187500
7705		-113.281250
7706		-117.187500
7707		-115.234375
7708		-117.187500
7709		-113.281250
7710		-117.187500
7711		-113.281250
7712		-117.187500
7713		-113.281250
7714		-117.187500
7715		-113.281250
7716		-117.187500
7717		-113.281250
7718		-115.234375
7719		-111.328125
7720		-115.234375
7721		-111.328125
7722		-115.234375
7723		-111.328125
7724		-113.281250
7725		-111.328125
7726		-113.281250
7727		-109.375000
7728		-113.281250
7729		-107.421875
7730		-111.328125
7731		-107.421875
7732		-109.375000
7733		-107.421875
7734		-109.375000
7735		-105.468750
7736		-107.421875
7737		-103.515625
7738		-107.421875
7739		-101.562500
7740		-103.515625
7741		-101.562500
7742		-103.515625
7743		-99.609375
7744		-101.562500
7745		-97.656250
7746		-99.609375
7747		-95.703125
7748		-97.656250
7749		-93.750000
7750		-95.703125
7751		-91.796875
7752		-93.750000
7753		-89.843750
7754		-93.750000
7755		-87.890625
7756		-89.843750
7757		-85.937500
7758		-87.890625
7759		-83.984375
7760		-87.890625
7761		-82.031250
7762		-83.984375
7763		-80.078125
7764		-82.031250
7765		-76.171875
7766		-78.125000
7767		-74.218750
7768		-76.171875
7769		-72.265625
7770		-74.218750
7771		-70.312500
7772		-72.265625
7773		-66.406250
7774		-68.359375
7775		-64.453125
7776		-66.406250
7777		-62.500000
7778		-64.453125
7779		-58.593750
7780		-62.500000
7781		-56.640625
7782		-58.593750
7783		-52.734375
7784		-54.687500
7785		-50.781250
7786		-52.734375
7787		-48.828125
7788		-50.781250
7789		-44.921875
7790		-46.875000
7791		-42.968750
7792		-44.921875
7793		-39.062500
7794		-41.015625
7795		-35.156250
7796		-39.062500
7797		-33.203125
7798		-35.156250
7799		-31.250000
7800		-33.203125
7801		-27.343750
7802		-29.296875
7803		-23.437500
7804		-25.390625
7805		-21.484375
7806		-23.437500
7807		-17.578125
7808		-19.531250
7809		-15.625000
7810		-17.578125
7811		-9.765625
7812		-15.625000
7813		-7.812500
7814		-11.718750
7815		-3.906250
7816		-9.765625
7817		-1.953125
7818		-5.859375
7819		0.000000
7820		-3.906250
7821		1.953125
7822		0.000000
7823		5.859375
7824		3.906250
7825		9.765625
7826		7.812500
7827		13.671875
7828		7.812500
7829		17.578125
7830		11.718750
7831		19.531250
7832		13.671875
7833		21.484375
7834		17.578125
7835		25.390625
7836		21.484375
7837		27.343750
7838		23.437500
7839		29.296875
7840		27.343750
7841		31.250000
7842		31.250000
7843		35.156250
7844		31.250000
7845		41.015625
7846		35.156250
7847		41.015625
7848		37.109375
7849		44.921875
7850		39.062500
7851		46.875000
7852		42.968750
7853		50.781250
7854		44.921875
7855		52.734375
7856		48.828125
7857		54.687500
7858		52.734375
7859		56.640625
7860		54.687500
7861		60.546875
7862		54.687500
7863		62.500000
7864		56.640625
7865		64.453125
7866		60.546875
7867		66.406250
7868		62.500000
7869		68.359375
7870		64.453125
7871		72.265625
7872		68.359375
7873		72.265625
7874		70.312500
7875		74.218750
7876		72.265625
7877		76.171875
7878		72.265625
7879		80.078125
7880		74.218750
7881		82.031250
7882		78.125000
7883		83.984375
7884		78.125000
7885		85.937500
7886		80.078125
7887		85.937500
7888		82.031250
7889		87.890625
7890		85.937500
7891		87.890625
7892		87.890625
7893		89.843750
7894		87.890625
7895		93.750000
7896		87.890625
7897		93.750000
7898		89.843750
7899		95.703125
7900		89.843750
7901		97.656250
7902		91.796875
7903		99.609375
7904		93.750000
7905		99.609375
7906		95.703125
7907		99.609375
7908		97.656250
7909		101.562500
7910		97.656250
7911		103.515625
7912		97.656250
7913		105.468750
7914		99.609375
7915		105.468750
7916		99.609375
7917		105.468750
7918		99.609375
7919		107.421875
7920		99.609375
7921		107.421875
7922		101.562500
7923		107.421875
7924		105.468750
7925		107.421875
7926		105.468750
7927		107.421875
7928		103.515625
7929		109.375000
7930		103.515625
7931		111.328125
7932		103.515625
7933		111.328125
7934		103.515625
7935		111.328125
7936		105.468750
7937		111.328125
7938		105.468750
7939		111.328125
7940		105.468750
7941		109.375000
7942		107.421875
7943		109.375000
7944		105.468750
7945		109.375000
7946		105.468750
7947		111.328125
7948		105.468750
7949		111.328125
7950		103.515625
7951		111.328125
7952		103.515625
7953		111.328125
7954		103.515625
7955		109.375000
7956		103.515625
7957		109.375000
7958		105.468750
7959		107.421875
7960		103.515625
7961		107.421875
7962		101.562500
7963		107.421875
7964		99.609375
7965		107.421875
7966		99.609375
7967		107.421875
7968		99.609375
7969		107.421875
7970		97.656250
7971		105.468750
7972		97.656250
7973		103.515625
7974		97.656250
7975		101.562500
7976		97.656250
7977		99.609375
7978		95.703125
7979		99.609375
7980		93.750000
7981		99.609375
7982		91.796875
7983		97.656250
7984		89.843750
7985		95.703125
7986		89.843750
7987		95.703125
7988		87.890625
7989		93.750000
7990		87.890625
7991		91.796875
7992		85.937500
7993		89.843750
7994		82.031250
7995		87.890625
7996		80.078125
7997		87.890625
7998		78.125000
7999		85.937500
8000		76.171875
8001		83.984375
8002		74.218750
8003		82.031250
8004		74.218750
8005		80.078125
8006		72.265625
8007		78.125000
8008		70.312500
8009		74.218750
8010		68.359375
8011		72.265625
8012		64.453125
8013		72.265625
8014		62.500000
8015		70.312500
8016		60.546875
8017		68.359375
8018		56.640625
8019		64.453125
8020		54.687500
8021		62.500000
8022		52.734375
8023		60.546875
8024		52.734375
8025		56.640625
8026		48.828125
8027		52.734375
8028		44.921875
8029		52.734375
8030		42.968750
8031		50.781250
8032		39.062500
8033		48.828125
8034		37.109375
8035		44.921875
8036		35.156250
8037		41.015625
8038		31.250000
8039		39.062500
8040		29.296875
8041		35.156250
8042		27.343750
8043		31.250000
8044		23.437500
8045		29.296875
8046		19.531250
8047		27.343750
8048		15.625000
8049		25.390625
8050		13.671875
8051		21.484375
8052		11.718750
8053		19.531250
8054		7.812500
8055		15.625000
8056		5.859375
8057		13.671875
8058		3.906250
8059		7.812500
8060		1.953125
8061		5.859375
8062		-3.906250
8063		1.953125
8064		-7.812500
8065		0.000000
8066		-9.765625
8067		-1.953125
8068		-13.671875
8069		-3.906250
8070		-15.625000
8071		-7.812500
8072		-19.531250
8073		-11.718750
8074		-19.531250
8075		-13.671875
8076		-23.437500
8077		-19.531250
8078		-29.296875
8079		-21.484375
8080		-31.250000
8081		-23.437500
8082		-33.203125
8083		-25.390625
8084		-37.109375
8085		-29.296875
8086		-39.062500
8087		-31.250000
8088		-42.968750
8089		-35.156250
8090		-44.921875
8091		-39.062500
8092		-46.875000
8093		-42.968750
8094		-48.828125
8095		-44.921875
8096		-54.687500
8097		-46.875000
8098		-56.640625
8099		-48.828125
8100		-60.546875
8101		-52.734375
8102		-62.500000
8103		-54.687500
8104		-66.406250
8105		-56.640625
8106		-68.359375
8107		-60.546875
8108		-68.359375
8109		-64.453125
8110		-72.265625
8111		-66.406250
8112		-76.171875
8113		-68.359375
8114		-78.125000
8115		-70.312500
8116		-80.078125
8117		-72.265625
8118		-82.031250
8119		-76.171875
8120		-83.984375
8121		-78.125000
8122		-87.890625
8123		-78.125000
8124		-87.890625
8125		-82.031250
8126		-89.843750
8127		-85.937500
8128		-91.796875
8129		-87.890625
8130		-95.703125
8131		-87.890625
8132		-97.656250
8133		-89.843750
8134		-97.656250
8135		-91.796875
8136		-101.562500
8137		-93.750000
8138		-103.515625
8139		-95.703125
8140		-103.515625
8141		-97.656250
8142		-103.515625
8143		-101.562500
8144		-105.468750
8145		-101.562500
8146		-109.375000
8147		-101.562500
8148		-109.375000
8149		-103.515625
8150		-111.328125
8151		-103.515625
8152		-113.281250
8153		-105.468750
8154		-113.281250
8155		-105.468750
8156		-115.234375
8157		-107.421875
8158		-115.234375
8159		-107.421875
8160		-113.281250
8161		-111.328125
8162		-117.187500
8163		-111.328125
8164		-117.187500
8165		-111.328125
8166		-117.187500
8167		-111.328125
8168		-119.140625
8169		-111.328125
8170		-119.140625
8171		-111.328125
8172		-119.140625
8173		-113.281250
8174		-119.140625
8175		-113.281250
8176		-117.187500
8177		-115.234375
8178		-117.187500
8179		-115.234375
8180		-119.140625
8181		-113.281250
8182		-119.140625
8183		-111.328125
8184		-119.140625
8185		-113.281250
8186		-119.140625
8187		-111.328125
8188		-119.140625
8189		-111.328125
8190		-117.187500
8191		-111.328125
8192		-115.234375
8193		-111.328125
8194		-115.234375
8195		-111.328125
8196		-115.234375
8197		-109.375000
8198		-115.234375
8199		-107.421875
8200		-113.281250
8201		-107.421875
8202		-113.281250
8203		-105.468750
8204		-111.328125
8205		-105.468750
8206		-109.375000
8207		-103.515625
8208		-109.375000
8209		-103.515625
8210		-105.468750
8211		-103.515625
8212		-103.515625
8213		-101.562500
8214		-103.515625
8215		-97.656250
8216		-103.515625
8217		-95.703125
8218		-101.562500
8219		-95.703125
8220		-99.609375
8221		-91.796875
8222		-97.656250
8223		-89.843750
8224		-95.703125
8225		-89.843750
8226		-93.750000
8227		-87.890625
8228		-89.843750
8229		-85.937500
8230		-87.890625
8231		-82.031250
8232		-85.937500
8233		-80.078125
8234		-85.937500
8235		-78.125000
8236		-83.984375
8237		-76.171875
8238		-80.078125
8239		-72.265625
8240		-78.125000
8241		-70.312500
8242		-76.171875
8243		-70.312500
8244		-72.265625
8245		-68.359375
8246		-68.359375
8247		-62.500000
8248		-68.359375
8249		-60.546875
8250		-64.453125
8251		-56.640625
8252		-62.500000
8253		-54.687500
8254		-60.546875
8255		-50.781250
8256		-56.640625
8257		-48.828125
8258		-54.687500
8259		-46.875000
8260		-48.828125
8261		-44.921875
8262		-46.875000
8263		-42.968750
8264		-44.921875
8265		-39.062500
8266		-42.968750
8267		-35.156250
8268		-39.062500
8269		-31.250000
8270		-37.109375
8271		-29.296875
8272		-33.203125
8273		-25.390625
8274		-31.250000
8275		-21.484375
8276		-27.343750
8277		-21.484375
8278		-23.437500
8279		-17.578125
8280		-19.531250
8281		-13.671875
8282		-19.531250
8283		-9.765625
8284		-15.625000
8285		-7.812500
8286		-13.671875
8287		-3.906250
8288		-9.765625
8289		0.000000
8290		-5.859375
8291		1.953125
8292		-1.953125
8293		3.906250
8294		1.953125
8295		5.859375
8296		3.906250
8297		9.765625
8298		5.859375
8299		13.671875
8300		7.812500
8301		15.625000
8302		9.765625
8303		19.531250
8304		13.671875
8305		23.437500
8306		17.578125
8307		25.390625
8308		21.484375
8309		27.343750
8310		25.390625
8311		29.296875
8312		27.343750
8313		33.203125
8314		29.296875
8315		37.109375
8316		31.250000
8317		39.062500
8318		33.203125
8319		42.968750
8320		37.109375
8321		44.921875
8322		41.015625
8323		46.875000
8324		42.968750
8325		50.781250
8326		46.875000
8327		50.781250
8328		48.828125
8329		54.687500
8330		52.734375
8331		58.593750
8332		52.734375
8333		60.546875
8334		54.687500
8335		62.500000
8336		56.640625
8337		64.453125
8338		60.546875
8339		66.406250
8340		60.546875
8341		68.359375
8342		64.453125
8343		70.312500
8344		68.359375
8345		72.265625
8346		70.312500
8347		74.218750
8348		72.265625
8349		78.125000
8350		72.265625
8351		80.078125
8352		74.218750
8353		82.031250
8354		76.171875
8355		82.031250
8356		78.125000
8357		83.984375
8358		80.078125
8359		87.890625
8360		82.031250
8361		85.937500
8362		85.937500
8363		87.890625
8364		85.937500
8365		91.796875
8366		85.937500
8367		93.750000
8368		87.890625
8369		95.703125
8370		89.843750
8371		95.703125
8372		89.843750
8373		97.656250
8374		91.796875
8375		99.609375
8376		93.750000
8377		99.609375
8378		95.703125
8379		99.609375
8380		97.656250
8381		99.609375
8382		95.703125
8383		103.515625
8384		97.656250
8385		103.515625
8386		97.656250
8387		105.468750
8388		99.609375
8389		105.468750
8390		99.609375
8391		107.421875
8392		101.562500
8393		107.421875
8394		101.562500
8395		105.468750
8396		103.515625
8397		105.468750
8398		103.515625
8399		109.375000
8400		101.562500
8401		109.375000
8402		103.515625
8403		109.375000
8404		103.515625
8405		109.375000
8406		103.515625
8407		111.328125
8408		103.515625
8409		109.375000
8410		105.468750
8411		109.375000
8412		105.468750
8413		109.375000
8414		105.468750
8415		111.328125
8416		103.515625
8417		111.328125
8418		103.515625
8419		111.328125
8420		103.515625
8421		109.375000
8422		103.515625
8423		109.375000
8424		103.515625
8425		109.375000
8426		101.562500
8427		109.375000
8428		105.468750
8429		107.421875
8430		103.515625
8431		105.468750
8432		101.562500
8433		107.421875
8434		101.562500
8435		107.421875
8436		99.609375
8437		107.421875
8438		99.609375
8439		105.468750
8440		97.656250
8441		105.468750
8442		97.656250
8443		103.515625
8444		97.656250
8445		103.515625
8446		97.656250
8447		99.609375
8448		93.750000
8449		99.609375
8450		93.750000
8451		99.609375
8452		91.796875
8453		97.656250
8454		89.843750
8455		97.656250
8456		87.890625
8457		95.703125
8458		85.937500
8459		93.750000
8460		87.890625
8461		93.750000
8462		85.937500
8463		89.843750
8464		83.984375
8465		87.890625
8466		80.078125
8467		87.890625
8468		78.125000
8469		85.937500
8470		78.125000
8471		85.937500
8472		76.171875
8473		82.031250
8474		74.218750
8475		80.078125
8476		70.312500
8477		78.125000
8478		70.312500
8479		76.171875
8480		68.359375
8481		72.265625
8482		64.453125
8483		72.265625
8484		62.500000
8485		70.312500
8486		60.546875
8487		68.359375
8488		58.593750
8489		66.406250
8490		56.640625
8491		64.453125
8492		54.687500
8493		62.500000
8494		52.734375
8495		58.593750
8496		50.781250
8497		54.687500
8498		46.875000
8499		52.734375
8500		42.968750
8501		50.781250
8502		41.015625
8503		48.828125
8504		39.062500
8505		46.875000
8506		35.156250
8507		42.968750
8508		33.203125
8509		41.015625
8510		31.250000
8511		37.109375
8512		29.296875
8513		33.203125
8514		25.390625
8515		29.296875
8516		21.484375
8517		29.296875
8518		17.578125
8519		25.390625
8520		15.625000
8521		23.437500
8522		11.718750
8523		21.484375
8524		9.765625
8525		17.578125
8526		5.859375
8527		15.625000
8528		5.859375
8529		11.718750
8530		1.953125
8531		7.812500
8532		-1.953125
8533		3.906250
8534		-5.859375
8535		1.953125
8536		-7.812500
8537		0.000000
8538		-11.718750
8539		-3.906250
8540		-15.625000
8541		-7.812500
8542		-19.531250
8543		-9.765625
8544		-19.531250
8545		-13.671875
8546		-21.484375
8547		-17.578125
8548		-25.390625
8549		-21.484375
8550		-31.250000
8551		-21.484375
8552		-33.203125
8553		-25.390625
8554		-37.109375
8555		-27.343750
8556		-39.062500
8557		-31.250000
8558		-42.968750
8559		-33.203125
8560		-44.921875
8561		-37.109375
8562		-44.921875
8563		-39.062500
8564		-48.828125
8565		-44.921875
8566		-54.687500
8567		-46.875000
8568		-56.640625
8569		-46.875000
8570		-60.546875
8571		-50.781250
8572		-60.546875
8573		-54.687500
8574		-64.453125
8575		-56.640625
8576		-68.359375
8577		-58.593750
8578		-68.359375
8579		-62.500000
8580		-70.312500
8581		-66.406250
8582		-74.218750
8583		-68.359375
8584		-78.125000
8585		-70.312500
8586		-80.078125
8587		-72.265625
8588		-82.031250
8589		-74.218750
8590		-83.984375
8591		-76.171875
8592		-85.937500
8593		-78.125000
8594		-87.890625
8595		-82.031250
8596		-89.843750
8597		-85.937500
8598		-91.796875
8599		-87.890625
8600		-95.703125
8601		-87.890625
8602		-95.703125
8603		-89.843750
8604		-99.609375
8605		-91.796875
8606		-101.562500
8607		-93.750000
8608		-103.515625
8609		-95.703125
8610		-103.515625
8611		-97.656250
8612		-105.468750
8613		-99.609375
8614		-105.468750
8615		-103.515625
8616		-109.375000
8617		-103.515625
8618		-111.328125
8619		-103.515625
8620		-111.328125
8621		-105.468750
8622		-113.281250
8623		-105.468750
8624		-115.234375
8625		-107.421875
8626		-115.234375
8627		-107.421875
8628		-115.234375
8629		-109.375000
8630		-115.234375
8631		-111.328125
8632		-115.234375
8633		-113.281250
8634		-119.140625
8635		-111.328125
8636		-119.140625
8637		-111.328125
8638		-119.140625
8639		-111.328125
8640		-119.140625
8641		-113.281250
8642		-121.093750
8643		-113.281250
8644		-121.093750
8645		-113.281250
8646		-117.187500
8647		-115.234375
8648		-119.140625
8649		-117.187500
8650		-121.093750
8651		-115.234375
8652		-121.093750
8653		-113.281250
8654		-121.093750
8655		-113.281250
8656		-121.093750
8657		-113.281250
8658		-119.140625
8659		-113.281250
8660		-119.140625
8661		-113.281250
8662		-119.140625
8663		-111.328125
8664		-115.234375
8665		-113.281250
8666		-117.187500
8667		-111.328125
8668		-117.187500
8669		-109.375000
8670		-117.187500
8671		-109.375000
8672		-115.234375
8673		-107.421875
8674		-115.234375
8675		-107.421875
8676		-113.281250
8677		-105.468750
8678		-111.328125
8679		-103.515625
8680		-107.421875
8681		-105.468750
8682		-107.421875
8683		-103.515625
8684		-107.421875
8685		-99.609375
8686		-105.468750
8687		-99.609375
8688		-103.515625
8689		-97.656250
8690		-101.562500
8691		-95.703125
8692		-99.609375
8693		-93.750000
8694		-99.609375
8695		-91.796875
8696		-97.656250
8697		-89.843750
8698		-91.796875
8699		-87.890625
8700		-91.796875
8701		-85.937500
8702		-89.843750
8703		-82.031250
8704		-87.890625
8705		-80.078125
8706		-85.937500
8707		-78.125000
8708		-83.984375
8709		-76.171875
8710		-82.031250
8711		-74.218750
8712		-78.125000
8713		-72.265625
8714		-74.218750
8715		-70.312500
8716		-72.265625
8717		-68.359375
8718		-70.312500
8719		-62.500000
8720		-68.359375
8721		-60.546875
8722		-66.406250
8723		-58.593750
8724		-62.500000
8725		-54.687500
8726		-60.546875
8727		-52.734375
8728		-58.593750
8729		-50.781250
8730		-52.734375
8731		-48.828125
8732		-50.781250
8733		-44.921875
8734		-46.875000
8735		-41.015625
8736		-46.875000
8737		-39.062500
8738		-42.968750
8739		-35.156250
8740		-41.015625
8741		-31.250000
8742		-39.062500
8743		-29.296875
8744		-33.203125
8745		-25.390625
8746		-31.250000
8747		-25.390625
8748		-25.390625
8749		-21.484375
8750		-23.437500
8751		-17.578125
8752		-21.484375
8753		-13.671875
8754		-17.578125
8755		-9.765625
8756		-15.625000
8757		-7.812500
8758		-13.671875
8759		-5.859375
8760		-9.765625
8761		-1.953125
8762		-5.859375
8763		1.953125
8764		-1.953125
8765		1.953125
8766		1.953125
8767		5.859375
8768		3.906250
8769		11.718750
8770		5.859375
8771		13.671875
8772		9.765625
8773		15.625000
8774		11.718750
8775		19.531250
8776		13.671875
8777		21.484375
8778		17.578125
8779		23.437500
8780		19.531250
8781		27.343750
8782		25.390625
8783		29.296875
8784		27.343750
8785		33.203125
8786		27.343750
8787		35.156250
8788		31.250000
8789		39.062500
8790		33.203125
8791		41.015625
8792		37.109375
8793		44.921875
8794		39.062500
8795		46.875000
8796		42.968750
8797		48.828125
8798		46.875000
8799		50.781250
8800		48.828125
8801		52.734375
8802		50.781250
8803		56.640625
8804		52.734375
8805		60.546875
8806		54.687500
8807		62.500000
8808		56.640625
8809		64.453125
8810		58.593750
8811		66.406250
8812		60.546875
8813		68.359375
8814		62.500000
8815		68.359375
8816		68.359375
8817		72.265625
8818		70.312500
8819		74.218750
8820		70.312500
8821		76.171875
8822		72.265625
8823		78.125000
8824		74.218750
8825		80.078125
8826		76.171875
8827		82.031250
8828		78.125000
8829		83.984375
8830		80.078125
8831		85.937500
8832		82.031250
8833		85.937500
8834		83.984375
8835		87.890625
8836		83.984375
8837		91.796875
8838		85.937500
8839		93.750000
8840		85.937500
8841		93.750000
8842		87.890625
8843		95.703125
8844		89.843750
8845		97.656250
8846		91.796875
8847		99.609375
8848		93.750000
8849		97.656250
8850		95.703125
8851		97.656250
8852		95.703125
8853		101.562500
8854		95.703125
8855		103.515625
8856		97.656250
8857		103.515625
8858		97.656250
8859		103.515625
8860		97.656250
8861		105.468750
8862		99.609375
8863		105.468750
8864		99.609375
8865		107.421875
8866		103.515625
8867		105.468750
8868		101.562500
8869		107.421875
8870		101.562500
8871		107.421875
8872		101.562500
8873		109.375000
8874		101.562500
8875		109.375000
8876		103.515625
8877		109.375000
8878		103.515625
8879		109.375000
8880		103.515625
8881		109.375000
8882		105.468750
8883		107.421875
8884		105.468750
8885		107.421875
8886		103.515625
8887		109.375000
8888		103.515625
8889		109.375000
8890		103.515625
8891		109.375000
8892		103.515625
8893		109.375000
8894		103.515625
8895		109.375000
8896		101.562500
8897		109.375000
8898		101.562500
8899		107.421875
8900		103.515625
8901		105.468750
8902		101.562500
8903		107.421875
8904		99.609375
8905		107.421875
8906		99.609375
8907		105.468750
8908		97.656250
8909		105.468750
8910		97.656250
8911		105.468750
8912		97.656250
8913		103.515625
8914		95.703125
8915		103.515625
8916		97.656250
8917		99.609375
8918		95.703125
8919		99.609375
8920		93.750000
8921		99.609375
8922		91.796875
8923		99.609375
8924		89.843750
8925		97.656250
8926		89.843750
8927		95.703125
8928		87.890625
8929		93.750000
8930		85.937500
8931		93.750000
8932		85.937500
8933		91.796875
8934		83.984375
8935		87.890625
8936		82.031250
8937		87.890625
8938		80.078125
8939		87.890625
8940		78.125000
8941		85.937500
8942		76.171875
8943		83.984375
8944		74.218750
8945		82.031250
8946		72.265625
8947		80.078125
8948		70.312500
8949		78.125000
8950		70.312500
8951		74.218750
8952		66.406250
8953		72.265625
8954		64.453125
8955		72.265625
8956		62.500000
8957		70.312500
8958		58.593750
8959		66.406250
8960		56.640625
8961		64.453125
8962		54.687500
8963		62.500000
8964		52.734375
8965		60.546875
8966		52.734375
8967		54.687500
8968		48.828125
8969		52.734375
8970		44.921875
8971		52.734375
8972		41.015625
8973		50.781250
8974		39.062500
8975		46.875000
8976		37.109375
8977		44.921875
8978		33.203125
8979		42.968750
8980		31.250000
8981		39.062500
8982		29.296875
8983		37.109375
8984		27.343750
8985		31.250000
8986		21.484375
8987		29.296875
8988		19.531250
8989		27.343750
8990		15.625000
8991		23.437500
8992		15.625000
8993		21.484375
8994		9.765625
8995		19.531250
8996		7.812500
8997		15.625000
8998		5.859375
8999		13.671875
9000		3.906250
9001		7.812500
9002		0.000000
9003		5.859375
9004		-3.906250
9005		3.906250
9006		-7.812500
9007		1.953125
9008		-9.765625
9009		-1.953125
9010		-13.671875
9011		-5.859375
9012		-17.578125
9013		-7.812500
9014		-19.531250
9015		-11.718750
9016		-21.484375
9017		-15.625000
9018		-23.437500
9019		-19.531250
9020		-29.296875
9021		-21.484375
9022		-31.250000
9023		-23.437500
9024		-35.156250
9025		-27.343750
9026		-37.109375
9027		-29.296875
9028		-41.015625
9029		-31.250000
9030		-42.968750
9031		-35.156250
9032		-44.921875
9033		-39.062500
9034		-46.875000
9035		-42.968750
9036		-52.734375
9037		-46.875000
9038		-54.687500
9039		-46.875000
9040		-58.593750
9041		-50.781250
9042		-60.546875
9043		-52.734375
9044		-62.500000
9045		-54.687500
9046		-66.406250
9047		-58.593750
9048		-68.359375
9049		-60.546875
9050		-70.312500
9051		-64.453125
9052		-72.265625
9053		-68.359375
9054		-76.171875
9055		-70.312500
9056		-80.078125
9057		-70.312500
9058		-82.031250
9059		-74.218750
9060		-83.984375
9061		-76.171875
9062		-85.937500
9063		-78.125000
9064		-87.890625
9065		-82.031250
9066		-87.890625
9067		-83.984375
9068		-89.843750
9069		-87.890625
9070		-93.750000
9071		-87.890625
9072		-95.703125
9073		-87.890625
9074		-99.609375
9075		-91.796875
9076		-99.609375
9077		-93.750000
9078		-103.515625
9079		-95.703125
9080		-103.515625
9081		-97.656250
9082		-105.468750
9083		-99.609375
9084		-105.468750
9085		-101.562500
9086		-107.421875
9087		-103.515625
9088		-109.375000
9089		-103.515625
9090		-111.328125
9091		-105.468750
9092		-111.328125
9093		-105.468750
9094		-115.234375
9095		-107.421875
9096		-115.234375
9097		-107.421875
9098		-115.234375
9099		-109.375000
9100		-115.234375
9101		-111.328125
9102		-115.234375
9103		-113.281250
9104		-119.140625
9105		-113.281250
9106		-119.140625
9107		-113.281250
9108		-119.140625
9109		-113.281250
9110		-121.093750
9111		-113.281250
9112		-121.093750
9113		-113.281250
9114		-121.093750
9115		-115.234375
9116		-121.093750
9117		-115.234375
9118		-119.140625
9119		-117.187500
9120		-121.093750
9121		-115.234375
9122		-121.093750
9123		-115.234375
9124		-121.093750
9125		-115.234375
9126		-121.093750
9127		-115.234375
9128		-121.093750
9129		-113.281250
9130		-121.093750
9131		-113.281250
9132		-119.140625
9133		-113.281250
9134		-117.187500
9135		-115.234375
9136		-115.234375
9137		-113.281250
9138		-117.187500
9139		-111.328125
9140		-117.187500
9141		-109.375000
9142		-115.234375
9143		-109.375000
9144		-115.234375
9145		-109.375000
9146		-115.234375
9147		-107.421875
9148		-113.281250
9149		-105.468750
9150		-111.328125
9151		-105.468750
9152		-107.421875
9153		-105.468750
9154		-109.375000
9155		-101.562500
9156		-107.421875
9157		-99.609375
9158		-105.468750
9159		-97.656250
9160		-103.515625
9161		-97.656250
9162		-101.562500
9163		-93.750000
9164		-99.609375
9165		-91.796875
9166		-97.656250
9167		-91.796875
9168		-93.750000
9169		-91.796875
9170		-91.796875
9171		-87.890625
9172		-91.796875
9173		-83.984375
9174		-89.843750
9175		-82.031250
9176		-87.890625
9177		-80.078125
9178		-85.937500
9179		-78.125000
9180		-83.984375
9181		-76.171875
9182		-80.078125
9183		-72.265625
9184		-78.125000
9185		-72.265625
9186		-74.218750
9187		-70.312500
9188		-72.265625
9189		-66.406250
9190		-70.312500
9191		-62.500000
9192		-68.359375
9193		-60.546875
9194		-64.453125
9195		-56.640625
9196		-62.500000
9197		-54.687500
9198		-60.546875
9199		-50.781250
9200		-56.640625
9201		-50.781250
9202		-52.734375
9203		-48.828125
9204		-48.828125
9205		-42.968750
9206		-48.828125
9207		-41.015625
9208		-44.921875
9209		-37.109375
9210		-42.968750
9211		-35.156250
9212		-41.015625
9213		-31.250000
9214		-37.109375
9215		-27.343750
9216		-33.203125
9217		-25.390625
9218		-29.296875
9219		-23.437500
9220		-25.390625
9221		-21.484375
9222		-23.437500
9223		-15.625000
9224		-19.531250
9225		-13.671875
9226		-19.531250
9227		-9.765625
9228		-15.625000
9229		-7.812500
9230		-11.718750
9231		-3.906250
9232		-9.765625
9233		0.000000
9234		-5.859375
9235		0.000000
9236		-1.953125
9237		3.906250
9238		1.953125
9239		9.765625
9240		1.953125
9241		11.718750
9242		5.859375
9243		13.671875
9244		9.765625
9245		17.578125
9246		11.718750
9247		19.531250
9248		15.625000
9249		23.437500
9250		17.578125
9251		25.390625
9252		23.437500
9253		27.343750
9254		25.390625
9255		29.296875
9256		25.390625
9257		35.156250
9258		29.296875
9259		37.109375
9260		31.250000
9261		39.062500
9262		35.156250
9263		42.968750
9264		37.109375
9265		44.921875
9266		39.062500
9267		48.828125
9268		41.015625
9269		48.828125
9270		46.875000
9271		50.781250
9272		48.828125
9273		54.687500
9274		48.828125
9275		56.640625
9276		52.734375
9277		60.546875
9278		54.687500
9279		62.500000
9280		56.640625
9281		64.453125
9282		60.546875
9283		66.406250
9284		62.500000
9285		68.359375
9286		66.406250
9287		70.312500
9288		68.359375
9289		72.265625
9290		68.359375
9291		76.171875
9292		70.312500
9293		78.125000
9294		72.265625
9295		80.078125
9296		74.218750
9297		82.031250
9298		76.171875
9299		83.984375
9300		78.125000
9301		83.984375
9302		80.078125
9303		83.984375
9304		82.031250
9305		85.937500
9306		83.984375
9307		89.843750
9308		83.984375
9309		91.796875
9310		85.937500
9311		93.750000
9312		85.937500
9313		93.750000
9314		87.890625
9315		95.703125
9316		89.843750
9317		97.656250
9318		91.796875
9319		97.656250
9320		93.750000
9321		97.656250
9322		93.750000
9323		99.609375
9324		93.750000
9325		101.562500
9326		95.703125
9327		103.515625
9328		97.656250
9329		103.515625
9330		97.656250
9331		103.515625
9332		97.656250
9333		105.468750
9334		99.609375
9335		105.468750
9336		101.562500
9337		103.515625
9338		103.515625
9339		105.468750
9340		101.562500
9341		107.421875
9342		101.562500
9343		107.421875
9344		101.562500
9345		109.375000
9346		101.562500
9347		109.375000
9348		101.562500
9349		109.375000
9350		101.562500
9351		109.375000
9352		103.515625
9353		109.375000
9354		105.468750
9355		107.421875
9356		103.515625
9357		109.375000
9358		103.515625
9359		109.375000
9360		101.562500
9361		109.375000
9362		101.562500
9363		109.375000
9364		101.562500
9365		109.375000
9366		101.562500
9367		109.375000
9368		101.562500
9369		109.375000
9370		103.515625
9371		105.468750
9372		103.515625
9373		105.468750
9374		99.609375
9375		105.468750
9376		97.656250
9377		105.468750
9378		99.609375
9379		105.468750
9380		97.656250
9381		103.515625
9382		95.703125
9383		103.515625
9384		95.703125
9385		103.515625
9386		97.656250
9387		99.609375
9388		95.703125
9389		99.609375
9390		93.750000
9391		99.609375
9392		91.796875
9393		97.656250
9394		89.843750
9395		97.656250
9396		89.843750
9397		95.703125
9398		87.890625
9399		95.703125
9400		85.937500
9401		93.750000
9402		85.937500
9403		91.796875
9404		85.937500
9405		87.890625
9406		82.031250
9407		87.890625
9408		80.078125
9409		87.890625
9410		78.125000
9411		85.937500
9412		76.171875
9413		83.984375
9414		74.218750
9415		82.031250
9416		72.265625
9417		80.078125
9418		70.312500
9419		78.125000
9420		70.312500
9421		74.218750
9422		68.359375
9423		72.265625
9424		64.453125
9425		70.312500
9426		62.500000
9427		70.312500
9428		60.546875
9429		68.359375
9430		56.640625
9431		64.453125
9432		54.687500
9433		62.500000
9434		52.734375
9435		60.546875
9436		52.734375
9437		58.593750
9438		50.781250
9439		54.687500
9440		44.921875
9441		50.781250
9442		42.968750
9443		50.781250
9444		39.062500
9445		46.875000
9446		37.109375
9447		44.921875
9448		35.156250
9449		41.015625
9450		31.250000
9451		39.062500
9452		29.296875
9453		37.109375
9454		27.343750
9455		33.203125
9456		25.390625
9457		29.296875
9458		19.531250
9459		29.296875
9460		17.578125
9461		25.390625
9462		13.671875
9463		23.437500
9464		11.718750
9465		19.531250
9466		9.765625
9467		17.578125
9468		5.859375
9469		13.671875
9470		3.906250
9471		9.765625
9472		1.953125
9473		5.859375
9474		-1.953125
9475		3.906250
9476		-7.812500
9477		1.953125
9478		-9.765625
9479		-1.953125
9480		-13.671875
9481		-3.906250
9482		-15.625000
9483		-7.812500
9484		-19.531250
9485		-9.765625
9486		-19.531250
9487		-13.671875
9488		-23.437500
9489		-17.578125
9490		-27.343750
9491		-21.484375
9492		-29.296875
9493		-21.484375
9494		-33.203125
9495		-25.390625
9496		-35.156250
9497		-29.296875
9498		-39.062500
9499		-31.250000
9500		-42.968750
9501		-35.156250
9502		-44.921875
9503		-37.109375
9504		-46.875000
9505		-42.968750
9506		-48.828125
9507		-44.921875
9508		-54.687500
9509		-46.875000
9510		-56.640625
9511		-48.828125
9512		-58.593750
9513		-52.734375
9514		-62.500000
9515		-54.687500
9516		-64.453125
9517		-56.640625
9518		-68.359375
9519		-60.546875
9520		-68.359375
9521		-62.500000
9522		-72.265625
9523		-66.406250
9524		-76.171875
9525		-70.312500
9526		-80.078125
9527		-70.312500
9528		-80.078125
9529		-72.265625
9530		-82.031250
9531		-76.171875
9532		-85.937500
9533		-78.125000
9534		-87.890625
9535		-80.078125
9536		-89.843750
9537		-82.031250
9538		-89.843750
9539		-85.937500
9540		-91.796875
9541		-87.890625
9542		-95.703125
9543		-89.843750
9544		-97.656250
9545		-89.843750
9546		-101.562500
9547		-93.750000
9548		-101.562500
9549		-93.750000
9550		-103.515625
9551		-97.656250
9552		-105.468750
9553		-97.656250
9554		-105.468750
9555		-99.609375
9556		-107.421875
9557		-103.515625
9558		-109.375000
9559		-103.515625
9560		-111.328125
9561		-103.515625
9562		-113.281250
9563		-105.468750
9564		-115.234375
9565		-107.421875
9566		-115.234375
9567		-109.375000
9568		-115.234375
9569		-109.375000
9570		-117.187500
9571		-109.375000
9572		-115.234375
9573		-113.281250
9574		-117.187500
9575		-113.281250
9576		-119.140625
9577		-113.281250
9578		-121.093750
9579		-113.281250
9580		-121.093750
9581		-113.281250
9582		-121.093750
9583		-115.234375
9584		-121.093750
9585		-115.234375
9586		-121.093750
9587		-115.234375
9588		-119.140625
9589		-117.187500
9590		-119.140625
9591		-117.187500
9592		-123.046875
9593		-115.234375
9594		-121.093750
9595		-115.234375
9596		-121.093750
9597		-115.234375
9598		-121.093750
9599		-115.234375
9600		-121.093750
9601		-113.281250
9602		-121.093750
9603		-113.281250
9604		-119.140625
9605		-113.281250
9606		-117.187500
9607		-115.234375
9608		-119.140625
9609		-111.328125
9610		-117.187500
9611		-111.328125
9612		-117.187500
9613		-109.375000
9614		-115.234375
9615		-109.375000
9616		-115.234375
9617		-107.421875
9618		-113.281250
9619		-107.421875
9620		-111.328125
9621		-105.468750
9622		-109.375000
9623		-107.421875
9624		-107.421875
9625		-105.468750
9626		-109.375000
9627		-101.562500
9628		-107.421875
9629		-99.609375
9630		-105.468750
9631		-99.609375
9632		-103.515625
9633		-95.703125
9634		-103.515625
9635		-93.750000
9636		-99.609375
9637		-93.750000
9638		-97.656250
9639		-91.796875
9640		-93.750000
9641		-89.843750
9642		-91.796875
9643		-87.890625
9644		-91.796875
9645		-83.984375
9646		-89.843750
9647		-82.031250
9648		-87.890625
9649		-80.078125
9650		-83.984375
9651		-78.125000
9652		-83.984375
9653		-76.171875
9654		-80.078125
9655		-74.218750
9656		-76.171875
9657		-72.265625
9658		-74.218750
9659		-68.359375
9660		-74.218750
9661		-64.453125
9662		-70.312500
9663		-62.500000
9664		-66.406250
9665		-58.593750
9666		-64.453125
9667		-56.640625
9668		-60.546875
9669		-54.687500
9670		-58.593750
9671		-52.734375
9672		-54.687500
9673		-50.781250
9674		-50.781250
9675		-46.875000
9676		-50.781250
9677		-42.968750
9678		-46.875000
9679		-39.062500
9680		-44.921875
9681		-37.109375
9682		-41.015625
9683		-33.203125
9684		-39.062500
9685		-31.250000
9686		-35.156250
9687		-27.343750
9688		-33.203125
9689		-25.390625
9690		-27.343750
9691		-23.437500
9692		-25.390625
9693		-19.531250
9694		-23.437500
9695		-15.625000
9696		-21.484375
9697		-13.671875
9698		-17.578125
9699		-9.765625
9700		-15.625000
9701		-5.859375
9702		-9.765625
9703		-1.953125
9704		-7.812500
9705		-1.953125
9706		-3.906250
9707		1.953125
9708		0.000000
9709		3.906250
9710		1.953125
9711		9.765625
9712		3.906250
9713		11.718750
9714		5.859375
9715		15.625000
9716		9.765625
9717		17.578125
9718		13.671875
9719		21.484375
9720		15.625000
9721		23.437500
9722		19.531250
9723		25.390625
9724		23.437500
9725		27.343750
9726		25.390625
9727		33.203125
9728		29.296875
9729		35.156250
9730		31.250000
9731		37.109375
9732		33.203125
9733		41.015625
9734		35.156250
9735		42.968750
9736		39.062500
9737		46.875000
9738		41.015625
9739		46.875000
9740		44.921875
9741		48.828125
9742		46.875000
9743		52.734375
9744		48.828125
9745		56.640625
9746		50.781250
9747		58.593750
9748		52.734375
9749		60.546875
9750		54.687500
9751		62.500000
9752		56.640625
9753		64.453125
9754		60.546875
9755		68.359375
9756		64.453125
9757		68.359375
9758		66.406250
9759		70.312500
9760		66.406250
9761		74.218750
9762		68.359375
9763		76.171875
9764		70.312500
9765		78.125000
9766		72.265625
9767		80.078125
9768		74.218750
9769		82.031250
9770		76.171875
9771		83.984375
9772		78.125000
9773		83.984375
9774		82.031250
9775		83.984375
9776		82.031250
9777		89.843750
9778		83.984375
9779		89.843750
9780		83.984375
9781		91.796875
9782		85.937500
9783		93.750000
9784		87.890625
9785		93.750000
9786		87.890625
9787		95.703125
9788		89.843750
9789		97.656250
9790		93.750000
9791		95.703125
9792		93.750000
9793		97.656250
9794		93.750000
9795		99.609375
9796		93.750000
9797		101.562500
9798		95.703125
9799		103.515625
9800		95.703125
9801		103.515625
9802		97.656250
9803		103.515625
9804		97.656250
9805		105.468750
9806		99.609375
9807		105.468750
9808		101.562500
9809		103.515625
9810		99.609375
9811		107.421875
9812		101.562500
9813		107.421875
9814		101.562500
9815		107.421875
9816		101.562500
9817		107.421875
9818		101.562500
9819		109.375000
9820		103.515625
9821		109.375000
9822		103.515625
9823		109.375000
9824		105.468750
9825		107.421875
9826		103.515625
9827		107.421875
9828		103.515625
9829		109.375000
9830		101.562500
9831		109.375000
9832		103.515625
9833		109.375000
9834		101.562500
9835		109.375000
9836		101.562500
9837		109.375000
9838		101.562500
9839		107.421875
9840		103.515625
9841		105.468750
9842		103.515625
9843		105.468750
9844		101.562500
9845		107.421875
9846		99.609375
9847		105.468750
9848		99.609375
9849		105.468750
9850		97.656250
9851		105.468750
9852		97.656250
9853		103.515625
9854		95.703125
9855		103.515625
9856		95.703125
9857		103.515625
9858		95.703125
9859		99.609375
9860		93.750000
9861		99.609375
9862		91.796875
9863		99.609375
9864		91.796875
9865		97.656250
9866		89.843750
9867		97.656250
9868		89.843750
9869		95.703125
9870		87.890625
9871		93.750000
9872		85.937500
9873		91.796875
9874		85.937500
9875		89.843750
9876		83.984375
9877		87.890625
9878		82.031250
9879		87.890625
9880		80.078125
9881		85.937500
9882		78.125000
9883		85.937500
9884		76.171875
9885		83.984375
9886		74.218750
9887		82.031250
9888		72.265625
9889		80.078125
9890		70.312500
9891		78.125000
9892		70.312500
9893		74.218750
9894		66.406250
9895		72.265625
9896		64.453125
9897		70.312500
9898		62.500000
9899		68.359375
9900		58.593750
9901		66.406250
9902		56.640625
9903		64.453125
9904		54.687500
9905		62.500000
9906		52.734375
9907		60.546875
9908		50.781250
9909		54.687500
9910		48.828125
9911		52.734375
9912		44.921875
9913		52.734375
9914		42.968750
9915		50.781250
9916		39.062500
9917		46.875000
9918		35.156250
9919		44.921875
9920		33.203125
9921		41.015625
9922		31.250000
9923		39.062500
9924		31.250000
9925		35.156250
9926		27.343750
9927		31.250000
9928		23.437500
9929		29.296875
9930		19.531250
9931		27.343750
9932		17.578125
9933		25.390625
9934		13.671875
9935		21.484375
9936		9.765625
9937		19.531250
9938		7.812500
9939		15.625000
9940		5.859375
9941		13.671875
9942		3.906250
9943		7.812500
9944		0.000000
9945		5.859375
9946		-5.859375
9947		3.906250
9948		-5.859375
9949		1.953125
9950		-9.765625
9951		-1.953125
9952		-13.671875
9953		-5.859375
9954		-15.625000
9955		-7.812500
9956		-19.531250
9957		-11.718750
9958		-21.484375
9959		-15.625000
9960		-23.437500
9961		-19.531250
9962		-27.343750
9963		-19.531250
9964		-31.250000
9965		-23.437500
9966		-35.156250
9967		-27.343750
9968		-37.109375
9969		-29.296875
9970		-39.062500
9971		-33.203125
9972		-42.968750
9973		-35.156250
9974		-44.921875
9975		-39.062500
9976		-46.875000
9977		-42.968750
9978		-52.734375
9979		-46.875000
9980		-54.687500
9981		-46.875000
9982		-58.593750
9983		-50.781250
9984		-60.546875
9985		-52.734375
9986		-62.500000
9987		-56.640625
9988		-66.406250
9989		-58.593750
9990		-68.359375
9991		-60.546875
9992		-70.312500
9993		-66.406250
9994		-72.265625
9995		-68.359375
9996		-78.125000
9997		-68.359375
9998		-78.125000
9999		-72.265625
10000		-82.031250
