Channel              :		CH1
Frequency            :		1.061kHz
Period               :		0.942ms
PK-PK                :		195.3mV
Probe attenuation    :		1X
Voltage per ADC value:		0.122070mV
Time interval        :		2.00000us

index		CH1_Voltage(mV)
1		80.078125
2		80.078125
3		74.218750
4		78.125000
5		72.265625
6		76.171875
7		70.312500
8		74.218750
9		68.359375
10		72.265625
11		66.406250
12		70.312500
13		64.453125
14		68.359375
15		64.453125
16		66.406250
17		60.546875
18		66.406250
19		58.593750
20		62.500000
21		56.640625
22		60.546875
23		54.687500
24		58.593750
25		52.734375
26		56.640625
27		50.781250
28		54.687500
29		48.828125
30		52.734375
31		46.875000
32		50.781250
33		44.921875
34		48.828125
35		41.015625
36		44.921875
37		39.062500
38		42.968750
39		37.109375
40		41.015625
41		35.156250
42		39.062500
43		33.203125
44		37.109375
45		31.250000
46		35.156250
47		27.343750
48		31.250000
49		25.390625
50		29.296875
51		21.484375
52		27.343750
53		21.484375
54		25.390625
55		17.578125
56		21.484375
57		15.625000
58		19.531250
59		11.718750
60		17.578125
61		9.765625
62		15.625000
63		7.812500
64		13.671875
65		5.859375
66		9.765625
67		1.953125
68		7.812500
69		0.000000
70		5.859375
71		-1.953125
72		1.953125
73		-5.859375
74		0.000000
75		-7.812500
76		-1.953125
77		-9.765625
78		-3.906250
79		-11.718750
80		-7.812500
81		-13.671875
82		-9.765625
83		-17.578125
84		-11.718750
85		-19.531250
86		-13.671875
87		-21.484375
88		-17.578125
89		-23.437500
90		-19.531250
91		-27.343750
92		-21.484375
93		-29.296875
94		-25.390625
95		-31.250000
96		-27.343750
97		-33.203125
98		-29.296875
99		-35.156250
100		-29.296875
101		-37.109375
102		-33.203125
103		-39.062500
104		-35.156250
105		-41.015625
106		-37.109375
107		-44.921875
108		-39.062500
109		-46.875000
110		-42.968750
111		-46.875000
112		-44.921875
113		-50.781250
114		-46.875000
115		-52.734375
116		-48.828125
117		-54.687500
118		-48.828125
119		-54.687500
120		-50.781250
121		-58.593750
122		-52.734375
123		-60.546875
124		-54.687500
125		-60.546875
126		-56.640625
127		-62.500000
128		-58.593750
129		-64.453125
130		-60.546875
131		-66.406250
132		-62.500000
133		-66.406250
134		-62.500000
135		-68.359375
136		-64.453125
137		-70.312500
138		-66.406250
139		-70.312500
140		-68.359375
141		-72.265625
142		-68.359375
143		-74.218750
144		-68.359375
145		-74.218750
146		-70.312500
147		-74.218750
148		-72.265625
149		-76.171875
150		-72.265625
151		-78.125000
152		-74.218750
153		-78.125000
154		-74.218750
155		-78.125000
156		-76.171875
157		-80.078125
158		-76.171875
159		-80.078125
160		-76.171875
161		-80.078125
162		-76.171875
163		-80.078125
164		-78.125000
165		-82.031250
166		-78.125000
167		-82.031250
168		-78.125000
169		-82.031250
170		-78.125000
171		-82.031250
172		-78.125000
173		-82.031250
174		-78.125000
175		-82.031250
176		-78.125000
177		-82.031250
178		-78.125000
179		-82.031250
180		-80.078125
181		-82.031250
182		-80.078125
183		-82.031250
184		-78.125000
185		-82.031250
186		-78.125000
187		-82.031250
188		-78.125000
189		-80.078125
190		-78.125000
191		-80.078125
192		-76.171875
193		-80.078125
194		-76.171875
195		-80.078125
196		-76.171875
197		-78.125000
198		-74.218750
199		-78.125000
200		-72.265625
201		-76.171875
202		-72.265625
203		-76.171875
204		-72.265625
205		-74.218750
206		-70.312500
207		-74.218750
208		-68.359375
209		-72.265625
210		-68.359375
211		-70.312500
212		-68.359375
213		-68.359375
214		-66.406250
215		-68.359375
216		-64.453125
217		-68.359375
218		-62.500000
219		-66.406250
220		-62.500000
221		-64.453125
222		-60.546875
223		-62.500000
224		-58.593750
225		-60.546875
226		-56.640625
227		-58.593750
228		-54.687500
229		-56.640625
230		-52.734375
231		-54.687500
232		-50.781250
233		-54.687500
234		-48.828125
235		-52.734375
236		-46.875000
237		-50.781250
238		-44.921875
239		-46.875000
240		-42.968750
241		-46.875000
242		-41.015625
243		-42.968750
244		-39.062500
245		-41.015625
246		-37.109375
247		-39.062500
248		-35.156250
249		-37.109375
250		-31.250000
251		-35.156250
252		-31.250000
253		-33.203125
254		-27.343750
255		-29.296875
256		-25.390625
257		-27.343750
258		-23.437500
259		-25.390625
260		-21.484375
261		-23.437500
262		-19.531250
263		-21.484375
264		-15.625000
265		-17.578125
266		-13.671875
267		-17.578125
268		-11.718750
269		-13.671875
270		-9.765625
271		-11.718750
272		-7.812500
273		-7.812500
274		-3.906250
275		-5.859375
276		-1.953125
277		-3.906250
278		0.000000
279		-3.906250
280		3.906250
281		1.953125
282		5.859375
283		3.906250
284		7.812500
285		5.859375
286		11.718750
287		7.812500
288		13.671875
289		11.718750
290		15.625000
291		13.671875
292		17.578125
293		15.625000
294		19.531250
295		17.578125
296		23.437500
297		21.484375
298		25.390625
299		23.437500
300		27.343750
301		25.390625
302		31.250000
303		27.343750
304		33.203125
305		31.250000
306		35.156250
307		33.203125
308		37.109375
309		35.156250
310		39.062500
311		37.109375
312		42.968750
313		41.015625
314		44.921875
315		41.015625
316		46.875000
317		42.968750
318		48.828125
319		46.875000
320		50.781250
321		48.828125
322		52.734375
323		50.781250
324		54.687500
325		52.734375
326		56.640625
327		54.687500
328		60.546875
329		56.640625
330		62.500000
331		58.593750
332		64.453125
333		62.500000
334		64.453125
335		62.500000
336		66.406250
337		64.453125
338		70.312500
339		66.406250
340		70.312500
341		68.359375
342		72.265625
343		70.312500
344		74.218750
345		72.265625
346		76.171875
347		74.218750
348		78.125000
349		76.171875
350		80.078125
351		78.125000
352		80.078125
353		78.125000
354		82.031250
355		80.078125
356		83.984375
357		82.031250
358		85.937500
359		83.984375
360		85.937500
361		83.984375
362		87.890625
363		83.984375
364		89.843750
365		87.890625
366		91.796875
367		87.890625
368		91.796875
369		89.843750
370		93.750000
371		91.796875
372		93.750000
373		91.796875
374		95.703125
375		93.750000
376		95.703125
377		93.750000
378		97.656250
379		95.703125
380		97.656250
381		95.703125
382		99.609375
383		95.703125
384		99.609375
385		97.656250
386		101.562500
387		97.656250
388		101.562500
389		99.609375
390		101.562500
391		99.609375
392		101.562500
393		99.609375
394		103.515625
395		99.609375
396		103.515625
397		101.562500
398		103.515625
399		101.562500
400		103.515625
401		101.562500
402		105.468750
403		101.562500
404		105.468750
405		101.562500
406		105.468750
407		101.562500
408		105.468750
409		101.562500
410		105.468750
411		101.562500
412		105.468750
413		101.562500
414		105.468750
415		103.515625
416		105.468750
417		101.562500
418		105.468750
419		101.562500
420		105.468750
421		101.562500
422		105.468750
423		101.562500
424		103.515625
425		101.562500
426		103.515625
427		99.609375
428		103.515625
429		99.609375
430		103.515625
431		99.609375
432		103.515625
433		99.609375
434		101.562500
435		97.656250
436		101.562500
437		97.656250
438		101.562500
439		97.656250
440		101.562500
441		95.703125
442		99.609375
443		95.703125
444		97.656250
445		93.750000
446		97.656250
447		93.750000
448		97.656250
449		91.796875
450		95.703125
451		89.843750
452		95.703125
453		89.843750
454		93.750000
455		89.843750
456		91.796875
457		87.890625
458		91.796875
459		85.937500
460		89.843750
461		83.984375
462		87.890625
463		82.031250
464		87.890625
465		82.031250
466		85.937500
467		80.078125
468		83.984375
469		78.125000
470		83.984375
471		78.125000
472		82.031250
473		76.171875
474		80.078125
475		74.218750
476		78.125000
477		72.265625
478		76.171875
479		70.312500
480		74.218750
481		68.359375
482		72.265625
483		66.406250
484		70.312500
485		64.453125
486		68.359375
487		62.500000
488		66.406250
489		60.546875
490		64.453125
491		58.593750
492		62.500000
493		56.640625
494		60.546875
495		54.687500
496		58.593750
497		52.734375
498		56.640625
499		50.781250
500		54.687500
501		48.828125
502		52.734375
503		46.875000
504		50.781250
505		42.968750
506		48.828125
507		41.015625
508		44.921875
509		39.062500
510		42.968750
511		37.109375
512		41.015625
513		35.156250
514		39.062500
515		33.203125
516		37.109375
517		29.296875
518		33.203125
519		27.343750
520		31.250000
521		25.390625
522		29.296875
523		21.484375
524		27.343750
525		19.531250
526		25.390625
527		17.578125
528		21.484375
529		15.625000
530		19.531250
531		11.718750
532		17.578125
533		9.765625
534		13.671875
535		7.812500
536		11.718750
537		3.906250
538		9.765625
539		1.953125
540		7.812500
541		0.000000
542		3.906250
543		-1.953125
544		1.953125
545		-5.859375
546		0.000000
547		-7.812500
548		-3.906250
549		-9.765625
550		-5.859375
551		-11.718750
552		-7.812500
553		-15.625000
554		-9.765625
555		-17.578125
556		-13.671875
557		-19.531250
558		-15.625000
559		-21.484375
560		-17.578125
561		-25.390625
562		-19.531250
563		-27.343750
564		-21.484375
565		-29.296875
566		-25.390625
567		-31.250000
568		-27.343750
569		-33.203125
570		-29.296875
571		-35.156250
572		-31.250000
573		-39.062500
574		-33.203125
575		-41.015625
576		-35.156250
577		-41.015625
578		-37.109375
579		-44.921875
580		-41.015625
581		-46.875000
582		-41.015625
583		-48.828125
584		-44.921875
585		-50.781250
586		-46.875000
587		-52.734375
588		-46.875000
589		-54.687500
590		-48.828125
591		-54.687500
592		-50.781250
593		-58.593750
594		-54.687500
595		-58.593750
596		-54.687500
597		-60.546875
598		-56.640625
599		-62.500000
600		-58.593750
601		-64.453125
602		-60.546875
603		-64.453125
604		-60.546875
605		-66.406250
606		-62.500000
607		-68.359375
608		-64.453125
609		-70.312500
610		-66.406250
611		-70.312500
612		-66.406250
613		-72.265625
614		-68.359375
615		-74.218750
616		-68.359375
617		-74.218750
618		-70.312500
619		-74.218750
620		-70.312500
621		-76.171875
622		-72.265625
623		-76.171875
624		-74.218750
625		-78.125000
626		-74.218750
627		-78.125000
628		-76.171875
629		-80.078125
630		-76.171875
631		-80.078125
632		-76.171875
633		-80.078125
634		-78.125000
635		-80.078125
636		-78.125000
637		-82.031250
638		-78.125000
639		-82.031250
640		-78.125000
641		-82.031250
642		-78.125000
643		-82.031250
644		-78.125000
645		-82.031250
646		-78.125000
647		-82.031250
648		-78.125000
649		-82.031250
650		-78.125000
651		-82.031250
652		-78.125000
653		-82.031250
654		-78.125000
655		-82.031250
656		-78.125000
657		-80.078125
658		-78.125000
659		-80.078125
660		-78.125000
661		-80.078125
662		-76.171875
663		-80.078125
664		-76.171875
665		-80.078125
666		-76.171875
667		-78.125000
668		-74.218750
669		-78.125000
670		-72.265625
671		-76.171875
672		-72.265625
673		-76.171875
674		-72.265625
675		-74.218750
676		-70.312500
677		-74.218750
678		-70.312500
679		-72.265625
680		-68.359375
681		-70.312500
682		-68.359375
683		-70.312500
684		-66.406250
685		-68.359375
686		-64.453125
687		-68.359375
688		-62.500000
689		-66.406250
690		-62.500000
691		-64.453125
692		-60.546875
693		-62.500000
694		-58.593750
695		-62.500000
696		-56.640625
697		-58.593750
698		-54.687500
699		-58.593750
700		-54.687500
701		-56.640625
702		-52.734375
703		-54.687500
704		-50.781250
705		-52.734375
706		-48.828125
707		-50.781250
708		-46.875000
709		-48.828125
710		-44.921875
711		-46.875000
712		-42.968750
713		-44.921875
714		-39.062500
715		-42.968750
716		-39.062500
717		-41.015625
718		-37.109375
719		-37.109375
720		-33.203125
721		-37.109375
722		-31.250000
723		-33.203125
724		-29.296875
725		-31.250000
726		-27.343750
727		-29.296875
728		-25.390625
729		-27.343750
730		-21.484375
731		-25.390625
732		-19.531250
733		-21.484375
734		-17.578125
735		-19.531250
736		-15.625000
737		-17.578125
738		-11.718750
739		-15.625000
740		-9.765625
741		-11.718750
742		-7.812500
743		-9.765625
744		-5.859375
745		-7.812500
746		-1.953125
747		-5.859375
748		0.000000
749		-5.859375
750		1.953125
751		0.000000
752		3.906250
753		1.953125
754		9.765625
755		3.906250
756		9.765625
757		7.812500
758		11.718750
759		9.765625
760		13.671875
761		11.718750
762		17.578125
763		13.671875
764		19.531250
765		15.625000
766		21.484375
767		19.531250
768		23.437500
769		21.484375
770		27.343750
771		23.437500
772		29.296875
773		25.390625
774		33.203125
775		27.343750
776		33.203125
777		31.250000
778		37.109375
779		33.203125
780		39.062500
781		35.156250
782		42.968750
783		39.062500
784		42.968750
785		41.015625
786		44.921875
787		42.968750
788		48.828125
789		44.921875
790		50.781250
791		46.875000
792		52.734375
793		50.781250
794		54.687500
795		50.781250
796		56.640625
797		52.734375
798		60.546875
799		54.687500
800		60.546875
801		58.593750
802		62.500000
803		60.546875
804		64.453125
805		60.546875
806		68.359375
807		62.500000
808		70.312500
809		64.453125
810		72.265625
811		66.406250
812		72.265625
813		68.359375
814		76.171875
815		70.312500
816		76.171875
817		72.265625
818		78.125000
819		74.218750
820		78.125000
821		76.171875
822		82.031250
823		76.171875
824		82.031250
825		78.125000
826		85.937500
827		80.078125
828		85.937500
829		80.078125
830		87.890625
831		82.031250
832		87.890625
833		83.984375
834		89.843750
835		85.937500
836		89.843750
837		87.890625
838		91.796875
839		87.890625
840		93.750000
841		87.890625
842		95.703125
843		89.843750
844		97.656250
845		91.796875
846		97.656250
847		91.796875
848		97.656250
849		93.750000
850		99.609375
851		95.703125
852		97.656250
853		95.703125
854		99.609375
855		95.703125
856		101.562500
857		95.703125
858		103.515625
859		97.656250
860		103.515625
861		97.656250
862		105.468750
863		97.656250
864		105.468750
865		97.656250
866		105.468750
867		101.562500
868		103.515625
869		101.562500
870		103.515625
871		99.609375
872		105.468750
873		101.562500
874		105.468750
875		101.562500
876		105.468750
877		101.562500
878		105.468750
879		101.562500
880		105.468750
881		101.562500
882		107.421875
883		101.562500
884		105.468750
885		103.515625
886		105.468750
887		103.515625
888		105.468750
889		99.609375
890		107.421875
891		101.562500
892		107.421875
893		99.609375
894		105.468750
895		99.609375
896		105.468750
897		99.609375
898		105.468750
899		97.656250
900		105.468750
901		99.609375
902		103.515625
903		99.609375
904		101.562500
905		97.656250
906		103.515625
907		97.656250
908		103.515625
909		95.703125
910		103.515625
911		95.703125
912		101.562500
913		93.750000
914		101.562500
915		93.750000
916		99.609375
917		91.796875
918		99.609375
919		93.750000
920		95.703125
921		89.843750
922		95.703125
923		89.843750
924		95.703125
925		87.890625
926		95.703125
927		85.937500
928		93.750000
929		85.937500
930		91.796875
931		83.984375
932		91.796875
933		83.984375
934		89.843750
935		83.984375
936		85.937500
937		82.031250
938		85.937500
939		78.125000
940		85.937500
941		76.171875
942		83.984375
943		74.218750
944		82.031250
945		74.218750
946		82.031250
947		72.265625
948		80.078125
949		68.359375
950		78.125000
951		70.312500
952		76.171875
953		68.359375
954		72.265625
955		64.453125
956		70.312500
957		62.500000
958		70.312500
959		60.546875
960		68.359375
961		58.593750
962		66.406250
963		56.640625
964		64.453125
965		54.687500
966		62.500000
967		52.734375
968		60.546875
969		52.734375
970		56.640625
971		50.781250
972		54.687500
973		44.921875
974		52.734375
975		44.921875
976		50.781250
977		41.015625
978		48.828125
979		39.062500
980		46.875000
981		37.109375
982		44.921875
983		35.156250
984		42.968750
985		33.203125
986		39.062500
987		31.250000
988		35.156250
989		27.343750
990		33.203125
991		25.390625
992		33.203125
993		21.484375
994		31.250000
995		19.531250
996		27.343750
997		17.578125
998		25.390625
999		15.625000
1000		23.437500
1001		13.671875
1002		21.484375
1003		11.718750
1004		15.625000
1005		7.812500
1006		13.671875
1007		5.859375
1008		11.718750
1009		1.953125
1010		9.765625
1011		0.000000
1012		7.812500
1013		-1.953125
1014		5.859375
1015		-5.859375
1016		1.953125
1017		-5.859375
1018		0.000000
1019		-7.812500
1020		-3.906250
1021		-9.765625
1022		-5.859375
1023		-13.671875
1024		-7.812500
1025		-17.578125
1026		-9.765625
1027		-19.531250
1028		-11.718750
1029		-23.437500
1030		-13.671875
1031		-23.437500
1032		-17.578125
1033		-27.343750
1034		-19.531250
1035		-27.343750
1036		-21.484375
1037		-29.296875
1038		-25.390625
1039		-33.203125
1040		-27.343750
1041		-35.156250
1042		-27.343750
1043		-37.109375
1044		-31.250000
1045		-41.015625
1046		-33.203125
1047		-42.968750
1048		-35.156250
1049		-44.921875
1050		-37.109375
1051		-46.875000
1052		-39.062500
1053		-46.875000
1054		-42.968750
1055		-48.828125
1056		-44.921875
1057		-52.734375
1058		-44.921875
1059		-54.687500
1060		-46.875000
1061		-56.640625
1062		-48.828125
1063		-58.593750
1064		-50.781250
1065		-58.593750
1066		-52.734375
1067		-60.546875
1068		-54.687500
1069		-60.546875
1070		-56.640625
1071		-62.500000
1072		-58.593750
1073		-66.406250
1074		-58.593750
1075		-68.359375
1076		-60.546875
1077		-68.359375
1078		-60.546875
1079		-70.312500
1080		-62.500000
1081		-72.265625
1082		-64.453125
1083		-74.218750
1084		-66.406250
1085		-72.265625
1086		-66.406250
1087		-72.265625
1088		-70.312500
1089		-74.218750
1090		-70.312500
1091		-76.171875
1092		-70.312500
1093		-78.125000
1094		-70.312500
1095		-78.125000
1096		-72.265625
1097		-80.078125
1098		-72.265625
1099		-80.078125
1100		-72.265625
1101		-80.078125
1102		-74.218750
1103		-78.125000
1104		-76.171875
1105		-80.078125
1106		-76.171875
1107		-82.031250
1108		-76.171875
1109		-82.031250
1110		-76.171875
1111		-82.031250
1112		-76.171875
1113		-82.031250
1114		-76.171875
1115		-82.031250
1116		-76.171875
1117		-83.984375
1118		-76.171875
1119		-82.031250
1120		-76.171875
1121		-80.078125
1122		-78.125000
1123		-82.031250
1124		-76.171875
1125		-82.031250
1126		-76.171875
1127		-82.031250
1128		-76.171875
1129		-82.031250
1130		-74.218750
1131		-80.078125
1132		-74.218750
1133		-80.078125
1134		-74.218750
1135		-80.078125
1136		-74.218750
1137		-76.171875
1138		-74.218750
1139		-76.171875
1140		-74.218750
1141		-78.125000
1142		-70.312500
1143		-76.171875
1144		-70.312500
1145		-76.171875
1146		-68.359375
1147		-74.218750
1148		-66.406250
1149		-74.218750
1150		-66.406250
1151		-72.265625
1152		-64.453125
1153		-70.312500
1154		-66.406250
1155		-68.359375
1156		-64.453125
1157		-68.359375
1158		-62.500000
1159		-68.359375
1160		-60.546875
1161		-66.406250
1162		-58.593750
1163		-64.453125
1164		-56.640625
1165		-62.500000
1166		-56.640625
1167		-60.546875
1168		-52.734375
1169		-58.593750
1170		-52.734375
1171		-54.687500
1172		-52.734375
1173		-54.687500
1174		-48.828125
1175		-54.687500
1176		-46.875000
1177		-50.781250
1178		-44.921875
1179		-50.781250
1180		-42.968750
1181		-48.828125
1182		-41.015625
1183		-46.875000
1184		-37.109375
1185		-42.968750
1186		-37.109375
1187		-39.062500
1188		-37.109375
1189		-37.109375
1190		-33.203125
1191		-37.109375
1192		-29.296875
1193		-35.156250
1194		-27.343750
1195		-33.203125
1196		-25.390625
1197		-31.250000
1198		-23.437500
1199		-29.296875
1200		-21.484375
1201		-25.390625
1202		-17.578125
1203		-23.437500
1204		-17.578125
1205		-19.531250
1206		-15.625000
1207		-17.578125
1208		-9.765625
1209		-15.625000
1210		-7.812500
1211		-13.671875
1212		-5.859375
1213		-11.718750
1214		-3.906250
1215		-9.765625
1216		-1.953125
1217		-7.812500
1218		0.000000
1219		-3.906250
1220		1.953125
1221		0.000000
1222		3.906250
1223		1.953125
1224		5.859375
1225		1.953125
1226		9.765625
1227		5.859375
1228		13.671875
1229		7.812500
1230		15.625000
1231		11.718750
1232		17.578125
1233		13.671875
1234		19.531250
1235		15.625000
1236		23.437500
1237		17.578125
1238		23.437500
1239		21.484375
1240		25.390625
1241		23.437500
1242		31.250000
1243		25.390625
1244		33.203125
1245		27.343750
1246		35.156250
1247		29.296875
1248		39.062500
1249		33.203125
1250		39.062500
1251		35.156250
1252		42.968750
1253		37.109375
1254		42.968750
1255		41.015625
1256		44.921875
1257		42.968750
1258		46.875000
1259		42.968750
1260		50.781250
1261		44.921875
1262		52.734375
1263		46.875000
1264		54.687500
1265		48.828125
1266		56.640625
1267		52.734375
1268		60.546875
1269		54.687500
1270		60.546875
1271		58.593750
1272		62.500000
1273		60.546875
1274		64.453125
1275		62.500000
1276		68.359375
1277		62.500000
1278		70.312500
1279		64.453125
1280		72.265625
1281		66.406250
1282		74.218750
1283		68.359375
1284		76.171875
1285		70.312500
1286		76.171875
1287		72.265625
1288		76.171875
1289		76.171875
1290		80.078125
1291		76.171875
1292		82.031250
1293		76.171875
1294		83.984375
1295		78.125000
1296		85.937500
1297		80.078125
1298		87.890625
1299		80.078125
1300		87.890625
1301		82.031250
1302		89.843750
1303		82.031250
1304		89.843750
1305		85.937500
1306		89.843750
1307		87.890625
1308		91.796875
1309		87.890625
1310		93.750000
1311		89.843750
1312		95.703125
1313		89.843750
1314		97.656250
1315		89.843750
1316		97.656250
1317		91.796875
1318		99.609375
1319		91.796875
1320		99.609375
1321		93.750000
1322		99.609375
1323		97.656250
1324		99.609375
1325		95.703125
1326		103.515625
1327		95.703125
1328		103.515625
1329		97.656250
1330		103.515625
1331		97.656250
1332		105.468750
1333		97.656250
1334		105.468750
1335		99.609375
1336		105.468750
1337		99.609375
1338		105.468750
1339		101.562500
1340		105.468750
1341		101.562500
1342		105.468750
1343		99.609375
1344		107.421875
1345		101.562500
1346		107.421875
1347		101.562500
1348		107.421875
1349		101.562500
1350		107.421875
1351		101.562500
1352		107.421875
1353		101.562500
1354		107.421875
1355		103.515625
1356		105.468750
1357		103.515625
1358		105.468750
1359		101.562500
1360		107.421875
1361		101.562500
1362		107.421875
1363		101.562500
1364		107.421875
1365		99.609375
1366		107.421875
1367		99.609375
1368		107.421875
1369		99.609375
1370		107.421875
1371		99.609375
1372		105.468750
1373		101.562500
1374		103.515625
1375		99.609375
1376		103.515625
1377		97.656250
1378		105.468750
1379		97.656250
1380		103.515625
1381		95.703125
1382		103.515625
1383		95.703125
1384		101.562500
1385		93.750000
1386		101.562500
1387		93.750000
1388		99.609375
1389		93.750000
1390		97.656250
1391		93.750000
1392		97.656250
1393		91.796875
1394		97.656250
1395		89.843750
1396		97.656250
1397		87.890625
1398		95.703125
1399		87.890625
1400		93.750000
1401		85.937500
1402		93.750000
1403		83.984375
1404		91.796875
1405		85.937500
1406		89.843750
1407		83.984375
1408		87.890625
1409		80.078125
1410		85.937500
1411		78.125000
1412		85.937500
1413		76.171875
1414		83.984375
1415		76.171875
1416		82.031250
1417		74.218750
1418		82.031250
1419		72.265625
1420		80.078125
1421		72.265625
1422		78.125000
1423		70.312500
1424		74.218750
1425		68.359375
1426		72.265625
1427		64.453125
1428		72.265625
1429		62.500000
1430		70.312500
1431		60.546875
1432		68.359375
1433		58.593750
1434		66.406250
1435		56.640625
1436		64.453125
1437		54.687500
1438		62.500000
1439		54.687500
1440		58.593750
1441		52.734375
1442		56.640625
1443		48.828125
1444		54.687500
1445		44.921875
1446		54.687500
1447		42.968750
1448		50.781250
1449		41.015625
1450		48.828125
1451		39.062500
1452		46.875000
1453		37.109375
1454		44.921875
1455		35.156250
1456		41.015625
1457		33.203125
1458		37.109375
1459		29.296875
1460		35.156250
1461		27.343750
1462		35.156250
1463		25.390625
1464		33.203125
1465		21.484375
1466		29.296875
1467		19.531250
1468		27.343750
1469		17.578125
1470		25.390625
1471		15.625000
1472		23.437500
1473		13.671875
1474		17.578125
1475		11.718750
1476		15.625000
1477		7.812500
1478		13.671875
1479		5.859375
1480		11.718750
1481		1.953125
1482		9.765625
1483		0.000000
1484		7.812500
1485		-1.953125
1486		5.859375
1487		-5.859375
1488		1.953125
1489		-5.859375
1490		0.000000
1491		-7.812500
1492		-3.906250
1493		-13.671875
1494		-5.859375
1495		-15.625000
1496		-5.859375
1497		-17.578125
1498		-9.765625
1499		-19.531250
1500		-11.718750
1501		-21.484375
1502		-13.671875
1503		-25.390625
1504		-17.578125
1505		-25.390625
1506		-17.578125
1507		-27.343750
1508		-23.437500
1509		-31.250000
1510		-25.390625
1511		-33.203125
1512		-25.390625
1513		-37.109375
1514		-29.296875
1515		-37.109375
1516		-31.250000
1517		-41.015625
1518		-33.203125
1519		-42.968750
1520		-35.156250
1521		-44.921875
1522		-37.109375
1523		-44.921875
1524		-39.062500
1525		-46.875000
1526		-42.968750
1527		-50.781250
1528		-44.921875
1529		-52.734375
1530		-44.921875
1531		-54.687500
1532		-46.875000
1533		-56.640625
1534		-48.828125
1535		-58.593750
1536		-50.781250
1537		-60.546875
1538		-52.734375
1539		-60.546875
1540		-54.687500
1541		-60.546875
1542		-56.640625
1543		-64.453125
1544		-58.593750
1545		-66.406250
1546		-58.593750
1547		-68.359375
1548		-60.546875
1549		-68.359375
1550		-60.546875
1551		-70.312500
1552		-62.500000
1553		-72.265625
1554		-64.453125
1555		-72.265625
1556		-66.406250
1557		-72.265625
1558		-68.359375
1559		-72.265625
1560		-70.312500
1561		-76.171875
1562		-70.312500
1563		-76.171875
1564		-70.312500
1565		-78.125000
1566		-72.265625
1567		-78.125000
1568		-72.265625
1569		-80.078125
1570		-72.265625
1571		-80.078125
1572		-74.218750
1573		-80.078125
1574		-74.218750
1575		-80.078125
1576		-76.171875
1577		-82.031250
1578		-76.171875
1579		-82.031250
1580		-74.218750
1581		-82.031250
1582		-76.171875
1583		-82.031250
1584		-76.171875
1585		-82.031250
1586		-76.171875
1587		-82.031250
1588		-76.171875
1589		-82.031250
1590		-76.171875
1591		-80.078125
1592		-78.125000
1593		-80.078125
1594		-78.125000
1595		-82.031250
1596		-76.171875
1597		-82.031250
1598		-74.218750
1599		-82.031250
1600		-76.171875
1601		-82.031250
1602		-74.218750
1603		-80.078125
1604		-74.218750
1605		-80.078125
1606		-74.218750
1607		-78.125000
1608		-74.218750
1609		-78.125000
1610		-74.218750
1611		-78.125000
1612		-72.265625
1613		-78.125000
1614		-70.312500
1615		-76.171875
1616		-70.312500
1617		-76.171875
1618		-68.359375
1619		-76.171875
1620		-68.359375
1621		-74.218750
1622		-66.406250
1623		-72.265625
1624		-66.406250
1625		-70.312500
1626		-66.406250
1627		-68.359375
1628		-62.500000
1629		-68.359375
1630		-62.500000
1631		-68.359375
1632		-60.546875
1633		-66.406250
1634		-58.593750
1635		-64.453125
1636		-56.640625
1637		-62.500000
1638		-54.687500
1639		-60.546875
1640		-54.687500
1641		-56.640625
1642		-52.734375
1643		-54.687500
1644		-52.734375
1645		-54.687500
1646		-48.828125
1647		-54.687500
1648		-46.875000
1649		-52.734375
1650		-44.921875
1651		-48.828125
1652		-42.968750
1653		-48.828125
1654		-41.015625
1655		-46.875000
1656		-39.062500
1657		-42.968750
1658		-37.109375
1659		-39.062500
1660		-37.109375
1661		-37.109375
1662		-33.203125
1663		-37.109375
1664		-29.296875
1665		-37.109375
1666		-27.343750
1667		-33.203125
1668		-25.390625
1669		-31.250000
1670		-23.437500
1671		-29.296875
1672		-21.484375
1673		-27.343750
1674		-17.578125
1675		-23.437500
1676		-17.578125
1677		-19.531250
1678		-15.625000
1679		-17.578125
1680		-11.718750
1681		-15.625000
1682		-9.765625
1683		-13.671875
1684		-5.859375
1685		-11.718750
1686		-3.906250
1687		-9.765625
1688		-1.953125
1689		-5.859375
1690		1.953125
1691		-3.906250
1692		1.953125
1693		0.000000
1694		3.906250
1695		1.953125
1696		7.812500
1697		3.906250
1698		9.765625
1699		3.906250
1700		13.671875
1701		9.765625
1702		15.625000
1703		9.765625
1704		17.578125
1705		13.671875
1706		21.484375
1707		15.625000
1708		21.484375
1709		19.531250
1710		23.437500
1711		23.437500
1712		27.343750
1713		23.437500
1714		29.296875
1715		25.390625
1716		33.203125
1717		29.296875
1718		35.156250
1719		31.250000
1720		37.109375
1721		33.203125
1722		39.062500
1723		35.156250
1724		41.015625
1725		39.062500
1726		42.968750
1727		41.015625
1728		44.921875
1729		42.968750
1730		48.828125
1731		42.968750
1732		52.734375
1733		46.875000
1734		54.687500
1735		48.828125
1736		54.687500
1737		50.781250
1738		56.640625
1739		52.734375
1740		60.546875
1741		54.687500
1742		60.546875
1743		58.593750
1744		62.500000
1745		60.546875
1746		66.406250
1747		60.546875
1748		68.359375
1749		62.500000
1750		70.312500
1751		64.453125
1752		72.265625
1753		66.406250
1754		72.265625
1755		68.359375
1756		76.171875
1757		70.312500
1758		78.125000
1759		74.218750
1760		76.171875
1761		76.171875
1762		78.125000
1763		74.218750
1764		82.031250
1765		76.171875
1766		83.984375
1767		78.125000
1768		85.937500
1769		78.125000
1770		85.937500
1771		82.031250
1772		87.890625
1773		82.031250
1774		89.843750
1775		85.937500
1776		89.843750
1777		87.890625
1778		89.843750
1779		87.890625
1780		93.750000
1781		87.890625
1782		93.750000
1783		89.843750
1784		95.703125
1785		89.843750
1786		97.656250
1787		91.796875
1788		97.656250
1789		91.796875
1790		99.609375
1791		93.750000
1792		99.609375
1793		95.703125
1794		99.609375
1795		95.703125
1796		101.562500
1797		95.703125
1798		103.515625
1799		95.703125
1800		103.515625
1801		97.656250
1802		103.515625
1803		97.656250
1804		103.515625
1805		97.656250
1806		105.468750
1807		99.609375
1808		105.468750
1809		101.562500
1810		103.515625
1811		101.562500
1812		105.468750
1813		99.609375
1814		107.421875
1815		99.609375
1816		107.421875
1817		101.562500
1818		107.421875
1819		101.562500
1820		107.421875
1821		101.562500
1822		107.421875
1823		101.562500
1824		107.421875
1825		101.562500
1826		107.421875
1827		101.562500
1828		105.468750
1829		101.562500
1830		107.421875
1831		99.609375
1832		107.421875
1833		99.609375
1834		107.421875
1835		99.609375
1836		107.421875
1837		99.609375
1838		107.421875
1839		99.609375
1840		107.421875
1841		99.609375
1842		105.468750
1843		101.562500
1844		103.515625
1845		99.609375
1846		103.515625
1847		97.656250
1848		103.515625
1849		95.703125
1850		103.515625
1851		95.703125
1852		103.515625
1853		95.703125
1854		101.562500
1855		95.703125
1856		101.562500
1857		93.750000
1858		101.562500
1859		93.750000
1860		99.609375
1861		93.750000
1862		97.656250
1863		89.843750
1864		97.656250
1865		89.843750
1866		97.656250
1867		89.843750
1868		95.703125
1869		87.890625
1870		93.750000
1871		85.937500
1872		93.750000
1873		83.984375
1874		91.796875
1875		83.984375
1876		89.843750
1877		83.984375
1878		87.890625
1879		82.031250
1880		85.937500
1881		78.125000
1882		85.937500
1883		78.125000
1884		83.984375
1885		76.171875
1886		83.984375
1887		74.218750
1888		82.031250
1889		72.265625
1890		80.078125
1891		72.265625
1892		78.125000
1893		70.312500
1894		74.218750
1895		70.312500
1896		74.218750
1897		66.406250
1898		72.265625
1899		64.453125
1900		72.265625
1901		62.500000
1902		68.359375
1903		58.593750
1904		68.359375
1905		58.593750
1906		66.406250
1907		54.687500
1908		62.500000
1909		54.687500
1910		60.546875
1911		52.734375
1912		56.640625
1913		48.828125
1914		54.687500
1915		46.875000
1916		54.687500
1917		44.921875
1918		52.734375
1919		42.968750
1920		50.781250
1921		41.015625
1922		46.875000
1923		37.109375
1924		44.921875
1925		37.109375
1926		42.968750
1927		35.156250
1928		39.062500
1929		33.203125
1930		37.109375
1931		29.296875
1932		35.156250
1933		27.343750
1934		35.156250
1935		23.437500
1936		31.250000
1937		21.484375
1938		29.296875
1939		19.531250
1940		27.343750
1941		15.625000
1942		23.437500
1943		15.625000
1944		21.484375
1945		13.671875
1946		17.578125
1947		7.812500
1948		15.625000
1949		5.859375
1950		13.671875
1951		3.906250
1952		11.718750
1953		1.953125
1954		7.812500
1955		0.000000
1956		5.859375
1957		-3.906250
1958		3.906250
1959		-5.859375
1960		1.953125
1961		-5.859375
1962		-1.953125
1963		-9.765625
1964		-5.859375
1965		-13.671875
1966		-5.859375
1967		-15.625000
1968		-7.812500
1969		-19.531250
1970		-9.765625
1971		-19.531250
1972		-13.671875
1973		-23.437500
1974		-15.625000
1975		-25.390625
1976		-17.578125
1977		-25.390625
1978		-21.484375
1979		-27.343750
1980		-23.437500
1981		-33.203125
1982		-25.390625
1983		-35.156250
1984		-27.343750
1985		-37.109375
1986		-29.296875
1987		-39.062500
1988		-31.250000
1989		-41.015625
1990		-33.203125
1991		-42.968750
1992		-35.156250
1993		-44.921875
1994		-37.109375
1995		-44.921875
1996		-41.015625
1997		-48.828125
1998		-42.968750
1999		-52.734375
2000		-42.968750
2001		-54.687500
2002		-44.921875
2003		-56.640625
2004		-46.875000
2005		-56.640625
2006		-50.781250
2007		-58.593750
2008		-50.781250
2009		-60.546875
2010		-52.734375
2011		-60.546875
2012		-56.640625
2013		-62.500000
2014		-58.593750
2015		-64.453125
2016		-58.593750
2017		-66.406250
2018		-58.593750
2019		-68.359375
2020		-60.546875
2021		-70.312500
2022		-62.500000
2023		-70.312500
2024		-64.453125
2025		-70.312500
2026		-64.453125
2027		-72.265625
2028		-66.406250
2029		-72.265625
2030		-68.359375
2031		-74.218750
2032		-68.359375
2033		-76.171875
2034		-70.312500
2035		-76.171875
2036		-70.312500
2037		-78.125000
2038		-72.265625
2039		-78.125000
2040		-72.265625
2041		-80.078125
2042		-72.265625
2043		-80.078125
2044		-72.265625
2045		-78.125000
2046		-76.171875
2047		-82.031250
2048		-74.218750
2049		-82.031250
2050		-74.218750
2051		-82.031250
2052		-74.218750
2053		-82.031250
2054		-76.171875
2055		-82.031250
2056		-76.171875
2057		-82.031250
2058		-76.171875
2059		-82.031250
2060		-76.171875
2061		-80.078125
2062		-78.125000
2063		-80.078125
2064		-78.125000
2065		-82.031250
2066		-76.171875
2067		-82.031250
2068		-76.171875
2069		-82.031250
2070		-76.171875
2071		-82.031250
2072		-74.218750
2073		-82.031250
2074		-74.218750
2075		-80.078125
2076		-74.218750
2077		-80.078125
2078		-74.218750
2079		-76.171875
2080		-74.218750
2081		-78.125000
2082		-72.265625
2083		-78.125000
2084		-70.312500
2085		-76.171875
2086		-70.312500
2087		-76.171875
2088		-68.359375
2089		-74.218750
2090		-68.359375
2091		-74.218750
2092		-66.406250
2093		-72.265625
2094		-66.406250
2095		-70.312500
2096		-66.406250
2097		-68.359375
2098		-64.453125
2099		-70.312500
2100		-62.500000
2101		-68.359375
2102		-60.546875
2103		-66.406250
2104		-58.593750
2105		-64.453125
2106		-56.640625
2107		-62.500000
2108		-56.640625
2109		-62.500000
2110		-54.687500
2111		-60.546875
2112		-52.734375
2113		-56.640625
2114		-52.734375
2115		-54.687500
2116		-48.828125
2117		-54.687500
2118		-46.875000
2119		-52.734375
2120		-44.921875
2121		-50.781250
2122		-42.968750
2123		-48.828125
2124		-41.015625
2125		-46.875000
2126		-39.062500
2127		-44.921875
2128		-37.109375
2129		-41.015625
2130		-37.109375
2131		-39.062500
2132		-35.156250
2133		-39.062500
2134		-31.250000
2135		-37.109375
2136		-27.343750
2137		-33.203125
2138		-27.343750
2139		-31.250000
2140		-23.437500
2141		-29.296875
2142		-21.484375
2143		-27.343750
2144		-19.531250
2145		-25.390625
2146		-17.578125
2147		-21.484375
2148		-15.625000
2149		-19.531250
2150		-11.718750
2151		-17.578125
2152		-9.765625
2153		-15.625000
2154		-7.812500
2155		-13.671875
2156		-5.859375
2157		-9.765625
2158		-1.953125
2159		-7.812500
2160		0.000000
2161		-3.906250
2162		0.000000
2163		0.000000
2164		3.906250
2165		1.953125
2166		7.812500
2167		1.953125
2168		9.765625
2169		5.859375
2170		13.671875
2171		7.812500
2172		13.671875
2173		9.765625
2174		17.578125
2175		11.718750
2176		19.531250
2177		13.671875
2178		21.484375
2179		19.531250
2180		23.437500
2181		21.484375
2182		25.390625
2183		21.484375
2184		29.296875
2185		23.437500
2186		31.250000
2187		27.343750
2188		35.156250
2189		29.296875
2190		37.109375
2191		29.296875
2192		39.062500
2193		33.203125
2194		41.015625
2195		35.156250
2196		42.968750
2197		41.015625
2198		44.921875
2199		41.015625
2200		48.828125
2201		42.968750
2202		50.781250
2203		44.921875
2204		52.734375
2205		48.828125
2206		54.687500
2207		50.781250
2208		56.640625
2209		50.781250
2210		58.593750
2211		52.734375
2212		60.546875
2213		58.593750
2214		60.546875
2215		60.546875
2216		64.453125
2217		60.546875
2218		68.359375
2219		62.500000
2220		70.312500
2221		62.500000
2222		70.312500
2223		66.406250
2224		72.265625
2225		68.359375
2226		74.218750
2227		68.359375
2228		76.171875
2229		70.312500
2230		76.171875
2231		74.218750
2232		78.125000
2233		74.218750
2234		82.031250
2235		76.171875
2236		82.031250
2237		76.171875
2238		83.984375
2239		78.125000
2240		85.937500
2241		80.078125
2242		87.890625
2243		82.031250
2244		87.890625
2245		83.984375
2246		89.843750
2247		85.937500
2248		89.843750
2249		85.937500
2250		93.750000
2251		87.890625
2252		93.750000
2253		87.890625
2254		95.703125
2255		89.843750
2256		95.703125
2257		89.843750
2258		97.656250
2259		91.796875
2260		99.609375
2261		93.750000
2262		99.609375
2263		95.703125
2264		99.609375
2265		95.703125
2266		99.609375
2267		95.703125
2268		101.562500
2269		95.703125
2270		103.515625
2271		97.656250
2272		103.515625
2273		97.656250
2274		103.515625
2275		97.656250
2276		105.468750
2277		99.609375
2278		105.468750
2279		99.609375
2280		105.468750
2281		101.562500
2282		103.515625
2283		99.609375
2284		107.421875
2285		101.562500
2286		107.421875
2287		99.609375
2288		107.421875
2289		99.609375
2290		107.421875
2291		101.562500
2292		107.421875
2293		101.562500
2294		107.421875
2295		101.562500
2296		107.421875
2297		103.515625
2298		107.421875
2299		103.515625
2300		105.468750
2301		101.562500
2302		107.421875
2303		99.609375
2304		107.421875
2305		99.609375
2306		107.421875
2307		101.562500
2308		107.421875
2309		99.609375
2310		107.421875
2311		99.609375
2312		107.421875
2313		99.609375
2314		105.468750
2315		101.562500
2316		103.515625
2317		99.609375
2318		105.468750
2319		97.656250
2320		105.468750
2321		97.656250
2322		103.515625
2323		95.703125
2324		103.515625
2325		95.703125
2326		101.562500
2327		95.703125
2328		101.562500
2329		93.750000
2330		101.562500
2331		95.703125
2332		97.656250
2333		91.796875
2334		97.656250
2335		89.843750
2336		97.656250
2337		89.843750
2338		95.703125
2339		87.890625
2340		95.703125
2341		87.890625
2342		93.750000
2343		85.937500
2344		93.750000
2345		83.984375
2346		91.796875
2347		85.937500
2348		89.843750
2349		83.984375
2350		87.890625
2351		80.078125
2352		87.890625
2353		78.125000
2354		85.937500
2355		78.125000
2356		83.984375
2357		76.171875
2358		82.031250
2359		74.218750
2360		82.031250
2361		72.265625
2362		80.078125
2363		72.265625
2364		78.125000
2365		70.312500
2366		74.218750
2367		66.406250
2368		74.218750
2369		64.453125
2370		72.265625
2371		62.500000
2372		70.312500
2373		62.500000
2374		68.359375
2375		60.546875
2376		66.406250
2377		56.640625
2378		64.453125
2379		56.640625
2380		62.500000
2381		54.687500
2382		58.593750
2383		52.734375
2384		56.640625
2385		48.828125
2386		56.640625
2387		46.875000
2388		54.687500
2389		42.968750
2390		52.734375
2391		42.968750
2392		48.828125
2393		39.062500
2394		46.875000
2395		37.109375
2396		44.921875
2397		37.109375
2398		42.968750
2399		35.156250
2400		39.062500
2401		29.296875
2402		37.109375
2403		27.343750
2404		35.156250
2405		25.390625
2406		33.203125
2407		23.437500
2408		31.250000
2409		21.484375
2410		29.296875
2411		17.578125
2412		27.343750
2413		17.578125
2414		23.437500
2415		13.671875
2416		19.531250
2417		11.718750
2418		17.578125
2419		7.812500
2420		17.578125
2421		5.859375
2422		13.671875
2423		1.953125
2424		11.718750
2425		0.000000
2426		7.812500
2427		-1.953125
2428		5.859375
2429		-3.906250
2430		3.906250
2431		-3.906250
2432		0.000000
2433		-7.812500
2434		-3.906250
2435		-11.718750
2436		-3.906250
2437		-13.671875
2438		-5.859375
2439		-15.625000
2440		-7.812500
2441		-19.531250
2442		-9.765625
2443		-21.484375
2444		-13.671875
2445		-23.437500
2446		-15.625000
2447		-25.390625
2448		-19.531250
2449		-27.343750
2450		-23.437500
2451		-31.250000
2452		-25.390625
2453		-33.203125
2454		-25.390625
2455		-35.156250
2456		-27.343750
2457		-39.062500
2458		-29.296875
2459		-39.062500
2460		-31.250000
2461		-42.968750
2462		-33.203125
2463		-42.968750
2464		-37.109375
2465		-42.968750
2466		-41.015625
2467		-46.875000
2468		-42.968750
2469		-50.781250
2470		-42.968750
2471		-50.781250
2472		-44.921875
2473		-52.734375
2474		-46.875000
2475		-54.687500
2476		-48.828125
2477		-58.593750
2478		-50.781250
2479		-58.593750
2480		-50.781250
2481		-58.593750
2482		-54.687500
2483		-60.546875
2484		-56.640625
2485		-64.453125
2486		-56.640625
2487		-66.406250
2488		-58.593750
2489		-66.406250
2490		-58.593750
2491		-68.359375
2492		-60.546875
2493		-68.359375
2494		-62.500000
2495		-70.312500
2496		-64.453125
2497		-72.265625
2498		-64.453125
2499		-70.312500
2500		-68.359375
2501		-72.265625
2502		-68.359375
2503		-74.218750
2504		-68.359375
2505		-76.171875
2506		-70.312500
2507		-76.171875
2508		-70.312500
2509		-78.125000
2510		-70.312500
2511		-78.125000
2512		-72.265625
2513		-80.078125
2514		-72.265625
2515		-78.125000
2516		-74.218750
2517		-78.125000
2518		-76.171875
2519		-80.078125
2520		-74.218750
2521		-80.078125
2522		-74.218750
2523		-82.031250
2524		-74.218750
2525		-82.031250
2526		-76.171875
2527		-82.031250
2528		-76.171875
2529		-82.031250
2530		-76.171875
2531		-82.031250
2532		-76.171875
2533		-80.078125
2534		-76.171875
2535		-82.031250
2536		-76.171875
2537		-82.031250
2538		-74.218750
2539		-82.031250
2540		-74.218750
2541		-82.031250
2542		-74.218750
2543		-82.031250
2544		-74.218750
2545		-80.078125
2546		-74.218750
2547		-80.078125
2548		-74.218750
2549		-76.171875
2550		-74.218750
2551		-76.171875
2552		-74.218750
2553		-78.125000
2554		-70.312500
2555		-78.125000
2556		-70.312500
2557		-76.171875
2558		-68.359375
2559		-76.171875
2560		-68.359375
2561		-74.218750
2562		-66.406250
2563		-74.218750
2564		-66.406250
2565		-72.265625
2566		-66.406250
2567		-68.359375
2568		-66.406250
2569		-70.312500
2570		-62.500000
2571		-68.359375
2572		-60.546875
2573		-66.406250
2574		-60.546875
2575		-66.406250
2576		-58.593750
2577		-64.453125
2578		-56.640625
2579		-62.500000
2580		-54.687500
2581		-60.546875
2582		-54.687500
2583		-56.640625
2584		-52.734375
2585		-54.687500
2586		-50.781250
2587		-54.687500
2588		-46.875000
2589		-52.734375
2590		-46.875000
2591		-50.781250
2592		-44.921875
2593		-50.781250
2594		-42.968750
2595		-48.828125
2596		-41.015625
2597		-46.875000
2598		-39.062500
2599		-41.015625
2600		-37.109375
2601		-39.062500
2602		-35.156250
2603		-39.062500
2604		-31.250000
2605		-37.109375
2606		-29.296875
2607		-35.156250
2608		-27.343750
2609		-33.203125
2610		-25.390625
2611		-29.296875
2612		-23.437500
2613		-27.343750
2614		-19.531250
2615		-25.390625
2616		-19.531250
2617		-21.484375
2618		-17.578125
2619		-19.531250
2620		-13.671875
2621		-19.531250
2622		-11.718750
2623		-15.625000
2624		-7.812500
2625		-13.671875
2626		-5.859375
2627		-11.718750
2628		-3.906250
2629		-9.765625
2630		-1.953125
2631		-7.812500
2632		1.953125
2633		-1.953125
2634		1.953125
2635		0.000000
2636		3.906250
2637		1.953125
2638		7.812500
2639		3.906250
2640		11.718750
2641		5.859375
2642		13.671875
2643		7.812500
2644		17.578125
2645		11.718750
2646		19.531250
2647		13.671875
2648		21.484375
2649		17.578125
2650		21.484375
2651		19.531250
2652		23.437500
2653		21.484375
2654		27.343750
2655		23.437500
2656		31.250000
2657		25.390625
2658		33.203125
2659		27.343750
2660		35.156250
2661		31.250000
2662		39.062500
2663		33.203125
2664		41.015625
2665		35.156250
2666		41.015625
2667		39.062500
2668		42.968750
2669		41.015625
2670		44.921875
2671		41.015625
2672		48.828125
2673		44.921875
2674		52.734375
2675		46.875000
2676		52.734375
2677		48.828125
2678		56.640625
2679		50.781250
2680		58.593750
2681		52.734375
2682		60.546875
2683		56.640625
2684		60.546875
2685		58.593750
2686		62.500000
2687		58.593750
2688		66.406250
2689		62.500000
2690		68.359375
2691		62.500000
2692		70.312500
2693		64.453125
2694		72.265625
2695		66.406250
2696		74.218750
2697		68.359375
2698		76.171875
2699		70.312500
2700		76.171875
2701		74.218750
2702		78.125000
2703		76.171875
2704		80.078125
2705		74.218750
2706		82.031250
2707		78.125000
2708		83.984375
2709		78.125000
2710		85.937500
2711		80.078125
2712		87.890625
2713		82.031250
2714		87.890625
2715		83.984375
2716		89.843750
2717		85.937500
2718		89.843750
2719		87.890625
2720		91.796875
2721		87.890625
2722		93.750000
2723		87.890625
2724		95.703125
2725		89.843750
2726		95.703125
2727		89.843750
2728		97.656250
2729		91.796875
2730		97.656250
2731		93.750000
2732		99.609375
2733		93.750000
2734		99.609375
2735		97.656250
2736		99.609375
2737		95.703125
2738		101.562500
2739		95.703125
2740		103.515625
2741		95.703125
2742		103.515625
2743		97.656250
2744		105.468750
2745		97.656250
2746		105.468750
2747		99.609375
2748		105.468750
2749		99.609375
2750		105.468750
2751		101.562500
2752		105.468750
2753		103.515625
2754		105.468750
2755		101.562500
2756		107.421875
2757		101.562500
2758		107.421875
2759		101.562500
2760		107.421875
2761		101.562500
2762		109.375000
2763		101.562500
2764		109.375000
2765		101.562500
2766		109.375000
2767		103.515625
2768		107.421875
2769		105.468750
2770		107.421875
2771		101.562500
2772		107.421875
2773		101.562500
2774		109.375000
2775		101.562500
2776		109.375000
2777		101.562500
2778		107.421875
2779		101.562500
2780		107.421875
2781		101.562500
2782		107.421875
2783		101.562500
2784		107.421875
2785		101.562500
2786		105.468750
2787		99.609375
2788		105.468750
2789		99.609375
2790		105.468750
2791		97.656250
2792		105.468750
2793		97.656250
2794		105.468750
2795		97.656250
2796		103.515625
2797		95.703125
2798		103.515625
2799		95.703125
2800		103.515625
2801		95.703125
2802		99.609375
2803		95.703125
2804		99.609375
2805		93.750000
2806		99.609375
2807		91.796875
2808		97.656250
2809		89.843750
2810		97.656250
2811		89.843750
2812		95.703125
2813		87.890625
2814		95.703125
2815		87.890625
2816		93.750000
2817		85.937500
2818		93.750000
2819		85.937500
2820		89.843750
2821		82.031250
2822		89.843750
2823		82.031250
2824		87.890625
2825		80.078125
2826		85.937500
2827		78.125000
2828		85.937500
2829		76.171875
2830		83.984375
2831		76.171875
2832		82.031250
2833		74.218750
2834		80.078125
2835		74.218750
2836		76.171875
2837		72.265625
2838		74.218750
2839		68.359375
2840		74.218750
2841		66.406250
2842		72.265625
2843		64.453125
2844		72.265625
2845		60.546875
2846		70.312500
2847		60.546875
2848		68.359375
2849		58.593750
2850		64.453125
2851		56.640625
2852		64.453125
2853		54.687500
2854		60.546875
2855		50.781250
2856		56.640625
2857		48.828125
2858		56.640625
2859		46.875000
2860		54.687500
2861		44.921875
2862		52.734375
2863		42.968750
2864		50.781250
2865		39.062500
2866		46.875000
2867		39.062500
2868		44.921875
2869		37.109375
2870		41.015625
2871		33.203125
2872		39.062500
2873		31.250000
2874		39.062500
2875		27.343750
2876		37.109375
2877		25.390625
2878		35.156250
2879		23.437500
2880		31.250000
2881		21.484375
2882		29.296875
2883		17.578125
2884		27.343750
2885		17.578125
2886		23.437500
2887		15.625000
2888		19.531250
2889		11.718750
2890		17.578125
2891		7.812500
2892		15.625000
2893		5.859375
2894		13.671875
2895		3.906250
2896		11.718750
2897		1.953125
2898		7.812500
2899		-1.953125
2900		5.859375
2901		-1.953125
2902		3.906250
2903		-3.906250
2904		0.000000
2905		-9.765625
2906		-1.953125
2907		-11.718750
2908		-3.906250
2909		-13.671875
2910		-5.859375
2911		-15.625000
2912		-9.765625
2913		-19.531250
2914		-9.765625
2915		-21.484375
2916		-11.718750
2917		-21.484375
2918		-15.625000
2919		-23.437500
2920		-19.531250
2921		-25.390625
2922		-21.484375
2923		-29.296875
2924		-21.484375
2925		-33.203125
2926		-25.390625
2927		-33.203125
2928		-25.390625
2929		-37.109375
2930		-27.343750
2931		-39.062500
2932		-31.250000
2933		-41.015625
2934		-33.203125
2935		-41.015625
2936		-35.156250
2937		-42.968750
2938		-39.062500
2939		-46.875000
2940		-41.015625
2941		-48.828125
2942		-41.015625
2943		-50.781250
2944		-42.968750
2945		-52.734375
2946		-44.921875
2947		-54.687500
2948		-46.875000
2949		-56.640625
2950		-48.828125
2951		-56.640625
2952		-50.781250
2953		-58.593750
2954		-54.687500
2955		-60.546875
2956		-56.640625
2957		-64.453125
2958		-56.640625
2959		-64.453125
2960		-56.640625
2961		-66.406250
2962		-58.593750
2963		-66.406250
2964		-58.593750
2965		-68.359375
2966		-60.546875
2967		-70.312500
2968		-62.500000
2969		-68.359375
2970		-66.406250
2971		-70.312500
2972		-66.406250
2973		-72.265625
2974		-66.406250
2975		-74.218750
2976		-68.359375
2977		-76.171875
2978		-68.359375
2979		-76.171875
2980		-68.359375
2981		-76.171875
2982		-70.312500
2983		-78.125000
2984		-70.312500
2985		-78.125000
2986		-72.265625
2987		-76.171875
2988		-74.218750
2989		-78.125000
2990		-74.218750
2991		-80.078125
2992		-72.265625
2993		-80.078125
2994		-74.218750
2995		-82.031250
2996		-74.218750
2997		-80.078125
2998		-74.218750
2999		-80.078125
3000		-74.218750
3001		-80.078125
3002		-74.218750
3003		-78.125000
3004		-76.171875
3005		-78.125000
3006		-76.171875
3007		-80.078125
3008		-74.218750
3009		-80.078125
3010		-74.218750
3011		-80.078125
3012		-74.218750
3013		-80.078125
3014		-74.218750
3015		-80.078125
3016		-72.265625
3017		-80.078125
3018		-72.265625
3019		-78.125000
3020		-72.265625
3021		-76.171875
3022		-74.218750
3023		-78.125000
3024		-70.312500
3025		-76.171875
3026		-70.312500
3027		-76.171875
3028		-68.359375
3029		-76.171875
3030		-68.359375
3031		-74.218750
3032		-68.359375
3033		-72.265625
3034		-66.406250
3035		-70.312500
3036		-66.406250
3037		-68.359375
3038		-66.406250
3039		-68.359375
3040		-62.500000
3041		-68.359375
3042		-60.546875
3043		-66.406250
3044		-60.546875
3045		-64.453125
3046		-58.593750
3047		-64.453125
3048		-56.640625
3049		-62.500000
3050		-54.687500
3051		-60.546875
3052		-52.734375
3053		-56.640625
3054		-52.734375
3055		-54.687500
3056		-52.734375
3057		-54.687500
3058		-48.828125
3059		-54.687500
3060		-46.875000
3061		-52.734375
3062		-44.921875
3063		-50.781250
3064		-42.968750
3065		-48.828125
3066		-41.015625
3067		-46.875000
3068		-39.062500
3069		-44.921875
3070		-37.109375
3071		-41.015625
3072		-37.109375
3073		-39.062500
3074		-33.203125
3075		-39.062500
3076		-31.250000
3077		-35.156250
3078		-27.343750
3079		-33.203125
3080		-25.390625
3081		-31.250000
3082		-23.437500
3083		-29.296875
3084		-21.484375
3085		-27.343750
3086		-19.531250
3087		-23.437500
3088		-17.578125
3089		-19.531250
3090		-15.625000
3091		-19.531250
3092		-11.718750
3093		-17.578125
3094		-9.765625
3095		-15.625000
3096		-7.812500
3097		-13.671875
3098		-3.906250
3099		-9.765625
3100		-1.953125
3101		-7.812500
3102		0.000000
3103		-5.859375
3104		1.953125
3105		0.000000
3106		3.906250
3107		1.953125
3108		7.812500
3109		3.906250
3110		9.765625
3111		3.906250
3112		11.718750
3113		7.812500
3114		15.625000
3115		9.765625
3116		17.578125
3117		11.718750
3118		19.531250
3119		15.625000
3120		21.484375
3121		19.531250
3122		23.437500
3123		21.484375
3124		27.343750
3125		23.437500
3126		29.296875
3127		23.437500
3128		31.250000
3129		27.343750
3130		35.156250
3131		29.296875
3132		37.109375
3133		31.250000
3134		39.062500
3135		35.156250
3136		41.015625
3137		39.062500
3138		42.968750
3139		41.015625
3140		44.921875
3141		41.015625
3142		48.828125
3143		42.968750
3144		50.781250
3145		44.921875
3146		52.734375
3147		48.828125
3148		54.687500
3149		48.828125
3150		56.640625
3151		52.734375
3152		58.593750
3153		54.687500
3154		60.546875
3155		58.593750
3156		62.500000
3157		60.546875
3158		64.453125
3159		60.546875
3160		68.359375
3161		62.500000
3162		68.359375
3163		64.453125
3164		72.265625
3165		64.453125
3166		72.265625
3167		68.359375
3168		76.171875
3169		70.312500
3170		76.171875
3171		74.218750
3172		76.171875
3173		74.218750
3174		78.125000
3175		74.218750
3176		82.031250
3177		76.171875
3178		83.984375
3179		78.125000
3180		85.937500
3181		80.078125
3182		87.890625
3183		80.078125
3184		89.843750
3185		82.031250
3186		89.843750
3187		83.984375
3188		89.843750
3189		87.890625
3190		89.843750
3191		87.890625
3192		93.750000
3193		87.890625
3194		95.703125
3195		89.843750
3196		95.703125
3197		89.843750
3198		97.656250
3199		91.796875
3200		99.609375
3201		93.750000
3202		99.609375
3203		93.750000
3204		101.562500
3205		95.703125
3206		99.609375
3207		95.703125
3208		101.562500
3209		95.703125
3210		103.515625
3211		97.656250
3212		105.468750
3213		97.656250
3214		103.515625
3215		97.656250
3216		105.468750
3217		99.609375
3218		105.468750
3219		99.609375
3220		107.421875
3221		101.562500
3222		105.468750
3223		103.515625
3224		105.468750
3225		101.562500
3226		107.421875
3227		101.562500
3228		107.421875
3229		101.562500
3230		109.375000
3231		101.562500
3232		109.375000
3233		101.562500
3234		109.375000
3235		103.515625
3236		109.375000
3237		103.515625
3238		109.375000
3239		105.468750
3240		107.421875
3241		103.515625
3242		107.421875
3243		101.562500
3244		109.375000
3245		101.562500
3246		109.375000
3247		101.562500
3248		109.375000
3249		101.562500
3250		109.375000
3251		101.562500
3252		109.375000
3253		101.562500
3254		107.421875
3255		103.515625
3256		105.468750
3257		103.515625
3258		105.468750
3259		99.609375
3260		105.468750
3261		99.609375
3262		105.468750
3263		99.609375
3264		105.468750
3265		97.656250
3266		105.468750
3267		97.656250
3268		103.515625
3269		95.703125
3270		103.515625
3271		95.703125
3272		103.515625
3273		97.656250
3274		99.609375
3275		93.750000
3276		99.609375
3277		91.796875
3278		99.609375
3279		91.796875
3280		99.609375
3281		89.843750
3282		97.656250
3283		89.843750
3284		95.703125
3285		89.843750
3286		95.703125
3287		87.890625
3288		93.750000
3289		87.890625
3290		91.796875
3291		85.937500
3292		89.843750
3293		83.984375
3294		89.843750
3295		80.078125
3296		87.890625
3297		80.078125
3298		87.890625
3299		78.125000
3300		85.937500
3301		76.171875
3302		83.984375
3303		74.218750
3304		82.031250
3305		74.218750
3306		78.125000
3307		74.218750
3308		76.171875
3309		70.312500
3310		76.171875
3311		68.359375
3312		74.218750
3313		66.406250
3314		74.218750
3315		64.453125
3316		72.265625
3317		62.500000
3318		70.312500
3319		60.546875
3320		66.406250
3321		58.593750
3322		64.453125
3323		56.640625
3324		60.546875
3325		54.687500
3326		58.593750
3327		50.781250
3328		58.593750
3329		48.828125
3330		56.640625
3331		46.875000
3332		54.687500
3333		42.968750
3334		52.734375
3335		42.968750
3336		50.781250
3337		41.015625
3338		46.875000
3339		39.062500
3340		42.968750
3341		37.109375
3342		41.015625
3343		33.203125
3344		39.062500
3345		31.250000
3346		39.062500
3347		29.296875
3348		35.156250
3349		25.390625
3350		33.203125
3351		23.437500
3352		31.250000
3353		21.484375
3354		29.296875
3355		19.531250
3356		27.343750
3357		17.578125
3358		21.484375
3359		13.671875
3360		19.531250
3361		11.718750
3362		17.578125
3363		7.812500
3364		17.578125
3365		5.859375
3366		13.671875
3367		3.906250
3368		11.718750
3369		1.953125
3370		7.812500
3371		0.000000
3372		5.859375
3373		-1.953125
3374		1.953125
3375		-3.906250
3376		0.000000
3377		-7.812500
3378		-1.953125
3379		-11.718750
3380		-3.906250
3381		-13.671875
3382		-5.859375
3383		-15.625000
3384		-7.812500
3385		-17.578125
3386		-11.718750
3387		-21.484375
3388		-13.671875
3389		-21.484375
3390		-17.578125
3391		-23.437500
3392		-19.531250
3393		-27.343750
3394		-21.484375
3395		-29.296875
3396		-23.437500
3397		-31.250000
3398		-25.390625
3399		-33.203125
3400		-27.343750
3401		-35.156250
3402		-29.296875
3403		-37.109375
3404		-33.203125
3405		-39.062500
3406		-35.156250
3407		-41.015625
3408		-37.109375
3409		-42.968750
3410		-39.062500
3411		-46.875000
3412		-39.062500
3413		-48.828125
3414		-41.015625
3415		-52.734375
3416		-42.968750
3417		-52.734375
3418		-44.921875
3419		-54.687500
3420		-46.875000
3421		-56.640625
3422		-48.828125
3423		-56.640625
3424		-52.734375
3425		-58.593750
3426		-54.687500
3427		-60.546875
3428		-54.687500
3429		-62.500000
3430		-54.687500
3431		-64.453125
3432		-56.640625
3433		-66.406250
3434		-58.593750
3435		-68.359375
3436		-60.546875
3437		-68.359375
3438		-62.500000
3439		-68.359375
3440		-62.500000
3441		-70.312500
3442		-66.406250
3443		-72.265625
3444		-66.406250
3445		-74.218750
3446		-66.406250
3447		-74.218750
3448		-68.359375
3449		-76.171875
3450		-68.359375
3451		-76.171875
3452		-70.312500
3453		-78.125000
3454		-70.312500
3455		-78.125000
3456		-70.312500
3457		-76.171875
3458		-74.218750
3459		-76.171875
3460		-74.218750
3461		-80.078125
3462		-72.265625
3463		-80.078125
3464		-74.218750
3465		-80.078125
3466		-74.218750
3467		-80.078125
3468		-74.218750
3469		-82.031250
3470		-74.218750
3471		-80.078125
3472		-74.218750
3473		-80.078125
3474		-76.171875
3475		-80.078125
3476		-76.171875
3477		-82.031250
3478		-74.218750
3479		-82.031250
3480		-74.218750
3481		-82.031250
3482		-74.218750
3483		-82.031250
3484		-74.218750
3485		-80.078125
3486		-74.218750
3487		-80.078125
3488		-74.218750
3489		-80.078125
3490		-72.265625
3491		-78.125000
3492		-74.218750
3493		-76.171875
3494		-72.265625
3495		-78.125000
3496		-72.265625
3497		-78.125000
3498		-70.312500
3499		-76.171875
3500		-68.359375
3501		-76.171875
3502		-68.359375
3503		-74.218750
3504		-68.359375
3505		-72.265625
3506		-66.406250
3507		-70.312500
3508		-66.406250
3509		-68.359375
3510		-66.406250
3511		-70.312500
3512		-62.500000
3513		-68.359375
3514		-60.546875
3515		-66.406250
3516		-60.546875
3517		-66.406250
3518		-58.593750
3519		-64.453125
3520		-56.640625
3521		-62.500000
3522		-54.687500
3523		-60.546875
3524		-54.687500
3525		-56.640625
3526		-52.734375
3527		-54.687500
3528		-48.828125
3529		-54.687500
3530		-48.828125
3531		-54.687500
3532		-46.875000
3533		-52.734375
3534		-44.921875
3535		-50.781250
3536		-42.968750
3537		-48.828125
3538		-41.015625
3539		-44.921875
3540		-39.062500
3541		-42.968750
3542		-39.062500
3543		-41.015625
3544		-37.109375
3545		-39.062500
3546		-31.250000
3547		-37.109375
3548		-31.250000
3549		-35.156250
3550		-27.343750
3551		-33.203125
3552		-25.390625
3553		-31.250000
3554		-23.437500
3555		-29.296875
3556		-21.484375
3557		-27.343750
3558		-21.484375
3559		-23.437500
3560		-17.578125
3561		-19.531250
3562		-13.671875
3563		-19.531250
3564		-11.718750
3565		-17.578125
3566		-9.765625
3567		-13.671875
3568		-5.859375
3569		-11.718750
3570		-3.906250
3571		-9.765625
3572		-1.953125
3573		-7.812500
3574		0.000000
3575		-1.953125
3576		1.953125
3577		0.000000
3578		3.906250
3579		0.000000
3580		7.812500
3581		1.953125
3582		9.765625
3583		3.906250
3584		13.671875
3585		7.812500
3586		15.625000
3587		9.765625
3588		17.578125
3589		11.718750
3590		19.531250
3591		17.578125
3592		21.484375
3593		19.531250
3594		23.437500
3595		21.484375
3596		27.343750
3597		21.484375
3598		29.296875
3599		23.437500
3600		33.203125
3601		27.343750
3602		35.156250
3603		29.296875
3604		37.109375
3605		33.203125
3606		39.062500
3607		33.203125
3608		41.015625
3609		39.062500
3610		42.968750
3611		41.015625
3612		44.921875
3613		41.015625
3614		48.828125
3615		42.968750
3616		50.781250
3617		46.875000
3618		54.687500
3619		46.875000
3620		54.687500
3621		50.781250
3622		58.593750
3623		50.781250
3624		58.593750
3625		56.640625
3626		60.546875
3627		58.593750
3628		62.500000
3629		58.593750
3630		66.406250
3631		60.546875
3632		68.359375
3633		62.500000
3634		70.312500
3635		62.500000
3636		72.265625
3637		64.453125
3638		74.218750
3639		68.359375
3640		76.171875
3641		70.312500
3642		76.171875
3643		74.218750
3644		76.171875
3645		74.218750
3646		80.078125
3647		74.218750
3648		82.031250
3649		76.171875
3650		83.984375
3651		78.125000
3652		85.937500
3653		80.078125
3654		87.890625
3655		82.031250
3656		87.890625
3657		82.031250
3658		89.843750
3659		85.937500
3660		89.843750
3661		87.890625
3662		91.796875
3663		87.890625
3664		93.750000
3665		87.890625
3666		95.703125
3667		89.843750
3668		95.703125
3669		89.843750
3670		97.656250
3671		91.796875
3672		97.656250
3673		91.796875
3674		99.609375
3675		95.703125
3676		97.656250
3677		95.703125
3678		99.609375
3679		95.703125
3680		101.562500
3681		95.703125
3682		101.562500
3683		95.703125
3684		103.515625
3685		97.656250
3686		103.515625
3687		97.656250
3688		105.468750
3689		97.656250
3690		105.468750
3691		99.609375
3692		105.468750
3693		101.562500
3694		105.468750
3695		101.562500
3696		105.468750
3697		101.562500
3698		107.421875
3699		101.562500
3700		107.421875
3701		101.562500
3702		107.421875
3703		101.562500
3704		109.375000
3705		101.562500
3706		109.375000
3707		101.562500
3708		109.375000
3709		103.515625
3710		107.421875
3711		103.515625
3712		107.421875
3713		103.515625
3714		109.375000
3715		103.515625
3716		109.375000
3717		101.562500
3718		109.375000
3719		101.562500
3720		109.375000
3721		101.562500
3722		107.421875
3723		101.562500
3724		107.421875
3725		101.562500
3726		107.421875
3727		103.515625
3728		105.468750
3729		99.609375
3730		105.468750
3731		99.609375
3732		105.468750
3733		99.609375
3734		105.468750
3735		97.656250
3736		105.468750
3737		97.656250
3738		105.468750
3739		95.703125
3740		103.515625
3741		95.703125
3742		103.515625
3743		97.656250
3744		99.609375
3745		95.703125
3746		99.609375
3747		93.750000
3748		99.609375
3749		93.750000
3750		99.609375
3751		89.843750
3752		97.656250
3753		89.843750
3754		97.656250
3755		87.890625
3756		95.703125
3757		87.890625
3758		93.750000
3759		87.890625
3760		91.796875
3761		85.937500
3762		89.843750
3763		83.984375
3764		89.843750
3765		82.031250
3766		89.843750
3767		80.078125
3768		87.890625
3769		78.125000
3770		85.937500
3771		78.125000
3772		83.984375
3773		76.171875
3774		83.984375
3775		74.218750
3776		82.031250
3777		74.218750
3778		78.125000
3779		70.312500
3780		76.171875
3781		68.359375
3782		76.171875
3783		66.406250
3784		74.218750
3785		64.453125
3786		72.265625
3787		62.500000
3788		70.312500
3789		60.546875
3790		68.359375
3791		58.593750
3792		66.406250
3793		56.640625
3794		62.500000
3795		56.640625
3796		60.546875
3797		52.734375
3798		58.593750
3799		50.781250
3800		58.593750
3801		48.828125
3802		56.640625
3803		44.921875
3804		54.687500
3805		42.968750
3806		50.781250
3807		42.968750
3808		48.828125
3809		41.015625
3810		46.875000
3811		39.062500
3812		42.968750
3813		33.203125
3814		41.015625
3815		33.203125
3816		39.062500
3817		29.296875
3818		37.109375
3819		27.343750
3820		35.156250
3821		25.390625
3822		33.203125
3823		21.484375
3824		29.296875
3825		21.484375
3826		27.343750
3827		19.531250
3828		23.437500
3829		17.578125
3830		21.484375
3831		11.718750
3832		19.531250
3833		9.765625
3834		17.578125
3835		5.859375
3836		15.625000
3837		5.859375
3838		11.718750
3839		1.953125
3840		9.765625
3841		0.000000
3842		7.812500
3843		0.000000
3844		3.906250
3845		-3.906250
3846		0.000000
3847		-7.812500
3848		0.000000
3849		-9.765625
3850		-1.953125
3851		-13.671875
3852		-3.906250
3853		-15.625000
3854		-7.812500
3855		-17.578125
3856		-9.765625
3857		-19.531250
3858		-11.718750
3859		-21.484375
3860		-15.625000
3861		-21.484375
3862		-17.578125
3863		-25.390625
3864		-21.484375
3865		-29.296875
3866		-19.531250
3867		-31.250000
3868		-25.390625
3869		-33.203125
3870		-25.390625
3871		-35.156250
3872		-29.296875
3873		-39.062500
3874		-29.296875
3875		-39.062500
3876		-33.203125
3877		-41.015625
3878		-37.109375
3879		-42.968750
3880		-39.062500
3881		-46.875000
3882		-41.015625
3883		-46.875000
3884		-41.015625
3885		-50.781250
3886		-42.968750
3887		-52.734375
3888		-44.921875
3889		-52.734375
3890		-46.875000
3891		-56.640625
3892		-48.828125
3893		-56.640625
3894		-50.781250
3895		-56.640625
3896		-54.687500
3897		-60.546875
3898		-54.687500
3899		-62.500000
3900		-56.640625
3901		-64.453125
3902		-56.640625
3903		-66.406250
3904		-58.593750
3905		-66.406250
3906		-60.546875
3907		-68.359375
3908		-62.500000
3909		-68.359375
3910		-62.500000
3911		-68.359375
3912		-66.406250
3913		-70.312500
3914		-66.406250
3915		-74.218750
3916		-66.406250
3917		-74.218750
3918		-66.406250
3919		-74.218750
3920		-68.359375
3921		-76.171875
3922		-70.312500
3923		-78.125000
3924		-70.312500
3925		-78.125000
3926		-70.312500
3927		-76.171875
3928		-72.265625
3929		-78.125000
3930		-74.218750
3931		-80.078125
3932		-72.265625
3933		-80.078125
3934		-72.265625
3935		-80.078125
3936		-74.218750
3937		-82.031250
3938		-74.218750
3939		-80.078125
3940		-74.218750
3941		-82.031250
3942		-74.218750
3943		-80.078125
3944		-76.171875
3945		-80.078125
3946		-76.171875
3947		-80.078125
3948		-76.171875
3949		-80.078125
3950		-76.171875
3951		-82.031250
3952		-74.218750
3953		-82.031250
3954		-74.218750
3955		-80.078125
3956		-74.218750
3957		-80.078125
3958		-74.218750
3959		-78.125000
3960		-74.218750
3961		-78.125000
3962		-74.218750
3963		-76.171875
3964		-74.218750
3965		-76.171875
3966		-72.265625
3967		-76.171875
3968		-70.312500
3969		-76.171875
3970		-70.312500
3971		-76.171875
3972		-70.312500
3973		-74.218750
3974		-68.359375
3975		-72.265625
3976		-68.359375
3977		-72.265625
3978		-68.359375
3979		-70.312500
3980		-66.406250
3981		-68.359375
3982		-64.453125
3983		-68.359375
3984		-64.453125
3985		-68.359375
3986		-60.546875
3987		-66.406250
3988		-60.546875
3989		-64.453125
3990		-58.593750
3991		-64.453125
3992		-58.593750
3993		-60.546875
3994		-56.640625
3995		-58.593750
3996		-54.687500
3997		-56.640625
3998		-52.734375
3999		-56.640625
4000		-50.781250
4001		-54.687500
4002		-48.828125
4003		-52.734375
4004		-46.875000
4005		-50.781250
4006		-44.921875
4007		-48.828125
4008		-44.921875
4009		-46.875000
4010		-41.015625
4011		-44.921875
4012		-39.062500
4013		-42.968750
4014		-37.109375
4015		-41.015625
4016		-35.156250
4017		-39.062500
4018		-33.203125
4019		-35.156250
4020		-31.250000
4021		-33.203125
4022		-29.296875
4023		-31.250000
4024		-27.343750
4025		-29.296875
4026		-25.390625
4027		-27.343750
4028		-23.437500
4029		-23.437500
4030		-19.531250
4031		-21.484375
4032		-17.578125
4033		-19.531250
4034		-15.625000
4035		-17.578125
4036		-13.671875
4037		-15.625000
4038		-9.765625
4039		-11.718750
4040		-7.812500
4041		-9.765625
4042		-5.859375
4043		-7.812500
4044		-1.953125
4045		-5.859375
4046		0.000000
4047		-1.953125
4048		1.953125
4049		0.000000
4050		5.859375
4051		1.953125
4052		5.859375
4053		5.859375
4054		9.765625
4055		7.812500
4056		11.718750
4057		9.765625
4058		13.671875
4059		11.718750
4060		15.625000
4061		13.671875
4062		19.531250
4063		17.578125
4064		21.484375
4065		19.531250
4066		23.437500
4067		21.484375
4068		27.343750
4069		23.437500
4070		29.296875
4071		27.343750
4072		31.250000
4073		29.296875
4074		33.203125
4075		31.250000
4076		35.156250
4077		33.203125
4078		39.062500
4079		37.109375
4080		41.015625
4081		39.062500
4082		42.968750
4083		41.015625
4084		44.921875
4085		42.968750
4086		48.828125
4087		44.921875
4088		48.828125
4089		46.875000
4090		52.734375
4091		50.781250
4092		54.687500
4093		52.734375
4094		56.640625
4095		52.734375
4096		58.593750
4097		56.640625
4098		60.546875
4099		58.593750
4100		62.500000
4101		60.546875
4102		64.453125
4103		62.500000
4104		66.406250
4105		64.453125
4106		68.359375
4107		66.406250
4108		70.312500
4109		68.359375
4110		72.265625
4111		70.312500
4112		74.218750
4113		72.265625
4114		76.171875
4115		72.265625
4116		78.125000
4117		74.218750
4118		78.125000
4119		76.171875
4120		80.078125
4121		78.125000
4122		82.031250
4123		80.078125
4124		83.984375
4125		82.031250
4126		85.937500
4127		82.031250
4128		87.890625
4129		83.984375
4130		87.890625
4131		85.937500
4132		89.843750
4133		85.937500
4134		91.796875
4135		87.890625
4136		91.796875
4137		89.843750
4138		93.750000
4139		91.796875
4140		93.750000
4141		91.796875
4142		95.703125
4143		93.750000
4144		97.656250
4145		93.750000
4146		97.656250
4147		95.703125
4148		97.656250
4149		95.703125
4150		99.609375
4151		97.656250
4152		99.609375
4153		97.656250
4154		101.562500
4155		99.609375
4156		101.562500
4157		99.609375
4158		103.515625
4159		99.609375
4160		103.515625
4161		99.609375
4162		105.468750
4163		101.562500
4164		103.515625
4165		101.562500
4166		105.468750
4167		101.562500
4168		105.468750
4169		103.515625
4170		105.468750
4171		103.515625
4172		105.468750
4173		103.515625
4174		105.468750
4175		103.515625
4176		107.421875
4177		103.515625
4178		107.421875
4179		103.515625
4180		107.421875
4181		103.515625
4182		107.421875
4183		103.515625
4184		107.421875
4185		103.515625
4186		107.421875
4187		103.515625
4188		107.421875
4189		103.515625
4190		107.421875
4191		103.515625
4192		105.468750
4193		101.562500
4194		105.468750
4195		101.562500
4196		105.468750
4197		101.562500
4198		105.468750
4199		99.609375
4200		105.468750
4201		101.562500
4202		105.468750
4203		101.562500
4204		103.515625
4205		99.609375
4206		103.515625
4207		99.609375
4208		103.515625
4209		99.609375
4210		101.562500
4211		97.656250
4212		101.562500
4213		97.656250
4214		99.609375
4215		95.703125
4216		99.609375
4217		93.750000
4218		97.656250
4219		93.750000
4220		97.656250
4221		93.750000
4222		95.703125
4223		91.796875
4224		95.703125
4225		89.843750
4226		93.750000
4227		89.843750
4228		93.750000
4229		87.890625
4230		91.796875
4231		85.937500
4232		89.843750
4233		85.937500
4234		87.890625
4235		83.984375
4236		87.890625
4237		82.031250
4238		85.937500
4239		80.078125
4240		83.984375
4241		80.078125
4242		83.984375
4243		78.125000
4244		82.031250
4245		76.171875
4246		80.078125
4247		74.218750
4248		78.125000
4249		72.265625
4250		76.171875
4251		70.312500
4252		76.171875
4253		68.359375
4254		72.265625
4255		66.406250
4256		70.312500
4257		64.453125
4258		68.359375
4259		64.453125
4260		66.406250
4261		60.546875
4262		66.406250
4263		58.593750
4264		64.453125
4265		56.640625
4266		60.546875
4267		54.687500
4268		58.593750
4269		52.734375
4270		56.640625
4271		50.781250
4272		54.687500
4273		48.828125
4274		52.734375
4275		46.875000
4276		50.781250
4277		42.968750
4278		48.828125
4279		41.015625
4280		46.875000
4281		39.062500
4282		42.968750
4283		35.156250
4284		41.015625
4285		35.156250
4286		39.062500
4287		31.250000
4288		37.109375
4289		29.296875
4290		33.203125
4291		27.343750
4292		31.250000
4293		23.437500
4294		29.296875
4295		21.484375
4296		27.343750
4297		19.531250
4298		23.437500
4299		17.578125
4300		21.484375
4301		15.625000
4302		19.531250
4303		11.718750
4304		17.578125
4305		9.765625
4306		15.625000
4307		7.812500
4308		11.718750
4309		3.906250
4310		9.765625
4311		1.953125
4312		5.859375
4313		0.000000
4314		5.859375
4315		-1.953125
4316		1.953125
4317		-5.859375
4318		0.000000
4319		-7.812500
4320		-1.953125
4321		-9.765625
4322		-5.859375
4323		-11.718750
4324		-7.812500
4325		-15.625000
4326		-9.765625
4327		-17.578125
4328		-13.671875
4329		-19.531250
4330		-15.625000
4331		-21.484375
4332		-17.578125
4333		-23.437500
4334		-19.531250
4335		-27.343750
4336		-21.484375
4337		-29.296875
4338		-23.437500
4339		-31.250000
4340		-27.343750
4341		-33.203125
4342		-29.296875
4343		-35.156250
4344		-31.250000
4345		-37.109375
4346		-33.203125
4347		-39.062500
4348		-35.156250
4349		-42.968750
4350		-37.109375
4351		-44.921875
4352		-39.062500
4353		-46.875000
4354		-41.015625
4355		-48.828125
4356		-42.968750
4357		-50.781250
4358		-44.921875
4359		-52.734375
4360		-48.828125
4361		-54.687500
4362		-48.828125
4363		-56.640625
4364		-50.781250
4365		-56.640625
4366		-52.734375
4367		-58.593750
4368		-54.687500
4369		-60.546875
4370		-56.640625
4371		-62.500000
4372		-56.640625
4373		-62.500000
4374		-60.546875
4375		-64.453125
4376		-62.500000
4377		-66.406250
4378		-62.500000
4379		-68.359375
4380		-64.453125
4381		-68.359375
4382		-64.453125
4383		-70.312500
4384		-66.406250
4385		-72.265625
4386		-68.359375
4387		-72.265625
4388		-68.359375
4389		-74.218750
4390		-70.312500
4391		-74.218750
4392		-70.312500
4393		-76.171875
4394		-72.265625
4395		-76.171875
4396		-72.265625
4397		-76.171875
4398		-74.218750
4399		-78.125000
4400		-74.218750
4401		-78.125000
4402		-76.171875
4403		-78.125000
4404		-76.171875
4405		-80.078125
4406		-76.171875
4407		-80.078125
4408		-76.171875
4409		-80.078125
4410		-76.171875
4411		-80.078125
4412		-78.125000
4413		-80.078125
4414		-78.125000
4415		-80.078125
4416		-78.125000
4417		-80.078125
4418		-78.125000
4419		-82.031250
4420		-76.171875
4421		-80.078125
4422		-76.171875
4423		-80.078125
4424		-76.171875
4425		-80.078125
4426		-76.171875
4427		-80.078125
4428		-76.171875
4429		-80.078125
4430		-76.171875
4431		-80.078125
4432		-76.171875
4433		-78.125000
4434		-76.171875
4435		-78.125000
4436		-74.218750
4437		-78.125000
4438		-74.218750
4439		-76.171875
4440		-72.265625
4441		-74.218750
4442		-72.265625
4443		-76.171875
4444		-72.265625
4445		-74.218750
4446		-70.312500
4447		-72.265625
4448		-68.359375
4449		-70.312500
4450		-68.359375
4451		-70.312500
4452		-66.406250
4453		-68.359375
4454		-66.406250
4455		-68.359375
4456		-64.453125
4457		-66.406250
4458		-62.500000
4459		-64.453125
4460		-60.546875
4461		-64.453125
4462		-58.593750
4463		-62.500000
4464		-56.640625
4465		-60.546875
4466		-56.640625
4467		-58.593750
4468		-54.687500
4469		-56.640625
4470		-52.734375
4471		-54.687500
4472		-50.781250
4473		-52.734375
4474		-48.828125
4475		-52.734375
4476		-48.828125
4477		-48.828125
4478		-44.921875
4479		-48.828125
4480		-44.921875
4481		-44.921875
4482		-42.968750
4483		-42.968750
4484		-39.062500
4485		-42.968750
4486		-37.109375
4487		-41.015625
4488		-35.156250
4489		-37.109375
4490		-33.203125
4491		-35.156250
4492		-31.250000
4493		-33.203125
4494		-29.296875
4495		-31.250000
4496		-27.343750
4497		-29.296875
4498		-23.437500
4499		-27.343750
4500		-21.484375
4501		-23.437500
4502		-19.531250
4503		-21.484375
4504		-17.578125
4505		-19.531250
4506		-15.625000
4507		-17.578125
4508		-11.718750
4509		-13.671875
4510		-9.765625
4511		-11.718750
4512		-7.812500
4513		-9.765625
4514		-3.906250
4515		-7.812500
4516		-1.953125
4517		-3.906250
4518		0.000000
4519		-1.953125
4520		1.953125
4521		0.000000
4522		3.906250
4523		1.953125
4524		7.812500
4525		3.906250
4526		9.765625
4527		7.812500
4528		11.718750
4529		9.765625
4530		15.625000
4531		11.718750
4532		17.578125
4533		15.625000
4534		19.531250
4535		17.578125
4536		21.484375
4537		19.531250
4538		23.437500
4539		21.484375
4540		27.343750
4541		25.390625
4542		29.296875
4543		27.343750
4544		31.250000
4545		29.296875
4546		33.203125
4547		31.250000
4548		37.109375
4549		35.156250
4550		39.062500
4551		37.109375
4552		41.015625
4553		39.062500
4554		42.968750
4555		41.015625
4556		46.875000
4557		42.968750
4558		48.828125
4559		44.921875
4560		50.781250
4561		48.828125
4562		52.734375
4563		50.781250
4564		54.687500
4565		50.781250
4566		56.640625
4567		54.687500
4568		58.593750
4569		56.640625
4570		60.546875
4571		58.593750
4572		62.500000
4573		60.546875
4574		64.453125
4575		62.500000
4576		68.359375
4577		64.453125
4578		68.359375
4579		66.406250
4580		70.312500
4581		68.359375
4582		72.265625
4583		70.312500
4584		74.218750
4585		72.265625
4586		76.171875
4587		74.218750
4588		78.125000
4589		74.218750
4590		80.078125
4591		76.171875
4592		80.078125
4593		78.125000
4594		82.031250
4595		80.078125
4596		83.984375
4597		82.031250
4598		85.937500
4599		82.031250
4600		85.937500
4601		83.984375
4602		87.890625
4603		85.937500
4604		89.843750
4605		87.890625
4606		91.796875
4607		87.890625
4608		91.796875
4609		89.843750
4610		93.750000
4611		91.796875
4612		93.750000
4613		91.796875
4614		95.703125
4615		91.796875
4616		97.656250
4617		93.750000
4618		97.656250
4619		95.703125
4620		97.656250
4621		95.703125
4622		99.609375
4623		97.656250
4624		99.609375
4625		97.656250
4626		101.562500
4627		99.609375
4628		101.562500
4629		99.609375
4630		101.562500
4631		99.609375
4632		103.515625
4633		99.609375
4634		103.515625
4635		101.562500
4636		103.515625
4637		101.562500
4638		105.468750
4639		101.562500
4640		105.468750
4641		101.562500
4642		105.468750
4643		103.515625
4644		105.468750
4645		103.515625
4646		105.468750
4647		103.515625
4648		107.421875
4649		103.515625
4650		107.421875
4651		103.515625
4652		105.468750
4653		103.515625
4654		107.421875
4655		103.515625
4656		105.468750
4657		103.515625
4658		105.468750
4659		103.515625
4660		105.468750
4661		103.515625
4662		105.468750
4663		101.562500
4664		105.468750
4665		101.562500
4666		105.468750
4667		101.562500
4668		105.468750
4669		101.562500
4670		105.468750
4671		99.609375
4672		105.468750
4673		101.562500
4674		103.515625
4675		99.609375
4676		103.515625
4677		99.609375
4678		101.562500
4679		97.656250
4680		101.562500
4681		97.656250
4682		101.562500
4683		97.656250
4684		101.562500
4685		95.703125
4686		99.609375
4687		93.750000
4688		99.609375
4689		93.750000
4690		97.656250
4691		93.750000
4692		97.656250
4693		91.796875
4694		95.703125
4695		91.796875
4696		93.750000
4697		89.843750
4698		93.750000
4699		87.890625
4700		93.750000
4701		87.890625
4702		89.843750
4703		85.937500
4704		89.843750
4705		83.984375
4706		89.843750
4707		83.984375
4708		87.890625
4709		82.031250
4710		85.937500
4711		80.078125
4712		83.984375
4713		78.125000
4714		83.984375
4715		76.171875
4716		82.031250
4717		76.171875
4718		80.078125
4719		74.218750
4720		78.125000
4721		72.265625
4722		76.171875
4723		70.312500
4724		74.218750
4725		68.359375
4726		72.265625
4727		66.406250
4728		70.312500
4729		64.453125
4730		68.359375
4731		62.500000
4732		66.406250
4733		60.546875
4734		64.453125
4735		58.593750
4736		62.500000
4737		54.687500
4738		60.546875
4739		54.687500
4740		58.593750
4741		52.734375
4742		56.640625
4743		48.828125
4744		54.687500
4745		46.875000
4746		52.734375
4747		44.921875
4748		50.781250
4749		42.968750
4750		46.875000
4751		41.015625
4752		44.921875
4753		39.062500
4754		42.968750
4755		35.156250
4756		41.015625
4757		33.203125
4758		37.109375
4759		29.296875
4760		35.156250
4761		29.296875
4762		33.203125
4763		27.343750
4764		31.250000
4765		23.437500
4766		27.343750
4767		21.484375
4768		27.343750
4769		19.531250
4770		23.437500
4771		15.625000
4772		21.484375
4773		13.671875
4774		19.531250
4775		11.718750
4776		17.578125
4777		9.765625
4778		13.671875
4779		5.859375
4780		11.718750
4781		3.906250
4782		7.812500
4783		1.953125
4784		5.859375
4785		0.000000
4786		3.906250
4787		-3.906250
4788		0.000000
4789		-5.859375
4790		0.000000
4791		-9.765625
4792		-3.906250
4793		-9.765625
4794		-5.859375
4795		-13.671875
4796		-9.765625
4797		-15.625000
4798		-11.718750
4799		-17.578125
4800		-13.671875
4801		-19.531250
4802		-15.625000
4803		-21.484375
4804		-17.578125
4805		-25.390625
4806		-21.484375
4807		-27.343750
4808		-23.437500
4809		-29.296875
4810		-25.390625
4811		-31.250000
4812		-27.343750
4813		-33.203125
4814		-29.296875
4815		-37.109375
4816		-31.250000
4817		-39.062500
4818		-33.203125
4819		-41.015625
4820		-37.109375
4821		-44.921875
4822		-39.062500
4823		-44.921875
4824		-41.015625
4825		-46.875000
4826		-42.968750
4827		-48.828125
4828		-44.921875
4829		-50.781250
4830		-46.875000
4831		-52.734375
4832		-46.875000
4833		-54.687500
4834		-48.828125
4835		-56.640625
4836		-52.734375
4837		-56.640625
4838		-54.687500
4839		-58.593750
4840		-54.687500
4841		-60.546875
4842		-56.640625
4843		-62.500000
4844		-58.593750
4845		-64.453125
4846		-60.546875
4847		-66.406250
4848		-62.500000
4849		-66.406250
4850		-62.500000
4851		-68.359375
4852		-64.453125
4853		-68.359375
4854		-66.406250
4855		-70.312500
4856		-66.406250
4857		-72.265625
4858		-68.359375
4859		-72.265625
4860		-68.359375
4861		-74.218750
4862		-70.312500
4863		-74.218750
4864		-70.312500
4865		-76.171875
4866		-72.265625
4867		-76.171875
4868		-72.265625
4869		-76.171875
4870		-74.218750
4871		-76.171875
4872		-74.218750
4873		-78.125000
4874		-74.218750
4875		-78.125000
4876		-74.218750
4877		-78.125000
4878		-76.171875
4879		-80.078125
4880		-76.171875
4881		-80.078125
4882		-76.171875
4883		-80.078125
4884		-76.171875
4885		-80.078125
4886		-76.171875
4887		-80.078125
4888		-78.125000
4889		-82.031250
4890		-76.171875
4891		-80.078125
4892		-76.171875
4893		-80.078125
4894		-76.171875
4895		-80.078125
4896		-76.171875
4897		-80.078125
4898		-76.171875
4899		-80.078125
4900		-76.171875
4901		-78.125000
4902		-76.171875
4903		-78.125000
4904		-76.171875
4905		-78.125000
4906		-74.218750
4907		-76.171875
4908		-74.218750
4909		-76.171875
4910		-72.265625
4911		-76.171875
4912		-70.312500
4913		-74.218750
4914		-72.265625
4915		-74.218750
4916		-70.312500
4917		-72.265625
4918		-68.359375
4919		-72.265625
4920		-68.359375
4921		-70.312500
4922		-66.406250
4923		-68.359375
4924		-66.406250
4925		-68.359375
4926		-64.453125
4927		-66.406250
4928		-64.453125
4929		-66.406250
4930		-60.546875
4931		-64.453125
4932		-60.546875
4933		-62.500000
4934		-58.593750
4935		-62.500000
4936		-56.640625
4937		-58.593750
4938		-56.640625
4939		-58.593750
4940		-52.734375
4941		-56.640625
4942		-52.734375
4943		-54.687500
4944		-48.828125
4945		-54.687500
4946		-48.828125
4947		-50.781250
4948		-46.875000
4949		-48.828125
4950		-44.921875
4951		-46.875000
4952		-42.968750
4953		-44.921875
4954		-41.015625
4955		-42.968750
4956		-39.062500
4957		-41.015625
4958		-37.109375
4959		-39.062500
4960		-35.156250
4961		-37.109375
4962		-31.250000
4963		-35.156250
4964		-29.296875
4965		-33.203125
4966		-27.343750
4967		-29.296875
4968		-25.390625
4969		-27.343750
4970		-23.437500
4971		-25.390625
4972		-21.484375
4973		-23.437500
4974		-17.578125
4975		-21.484375
4976		-15.625000
4977		-17.578125
4978		-13.671875
4979		-15.625000
4980		-11.718750
4981		-13.671875
4982		-9.765625
4983		-11.718750
4984		-5.859375
4985		-7.812500
4986		-3.906250
4987		-5.859375
4988		-1.953125
4989		-3.906250
4990		1.953125
4991		-1.953125
4992		3.906250
4993		0.000000
4994		5.859375
4995		3.906250
4996		7.812500
4997		5.859375
4998		11.718750
4999		9.765625
5000		13.671875
5001		11.718750
5002		15.625000
5003		13.671875
5004		17.578125
5005		15.625000
5006		21.484375
5007		19.531250
5008		23.437500
5009		21.484375
5010		25.390625
5011		23.437500
5012		27.343750
5013		25.390625
5014		31.250000
5015		27.343750
5016		33.203125
5017		31.250000
5018		35.156250
5019		33.203125
5020		37.109375
5021		35.156250
5022		39.062500
5023		37.109375
5024		42.968750
5025		39.062500
5026		44.921875
5027		42.968750
5028		46.875000
5029		44.921875
5030		48.828125
5031		46.875000
5032		50.781250
5033		48.828125
5034		54.687500
5035		50.781250
5036		56.640625
5037		52.734375
5038		56.640625
5039		54.687500
5040		58.593750
5041		56.640625
5042		62.500000
5043		60.546875
5044		62.500000
5045		60.546875
5046		66.406250
5047		64.453125
5048		68.359375
5049		66.406250
5050		70.312500
5051		68.359375
5052		72.265625
5053		68.359375
5054		72.265625
5055		70.312500
5056		74.218750
5057		72.265625
5058		76.171875
5059		74.218750
5060		78.125000
5061		76.171875
5062		80.078125
5063		78.125000
5064		82.031250
5065		80.078125
5066		83.984375
5067		80.078125
5068		85.937500
5069		82.031250
5070		87.890625
5071		83.984375
5072		87.890625
5073		85.937500
5074		89.843750
5075		85.937500
5076		89.843750
5077		87.890625
5078		91.796875
5079		89.843750
5080		91.796875
5081		89.843750
5082		93.750000
5083		91.796875
5084		95.703125
5085		91.796875
5086		95.703125
5087		93.750000
5088		97.656250
5089		95.703125
5090		97.656250
5091		95.703125
5092		99.609375
5093		95.703125
5094		99.609375
5095		97.656250
5096		101.562500
5097		97.656250
5098		101.562500
5099		99.609375
5100		101.562500
5101		99.609375
5102		103.515625
5103		99.609375
5104		103.515625
5105		101.562500
5106		103.515625
5107		101.562500
5108		105.468750
5109		101.562500
5110		105.468750
5111		101.562500
5112		105.468750
5113		101.562500
5114		105.468750
5115		103.515625
5116		105.468750
5117		103.515625
5118		105.468750
5119		101.562500
5120		107.421875
5121		103.515625
5122		107.421875
5123		103.515625
5124		105.468750
5125		103.515625
5126		107.421875
5127		103.515625
5128		107.421875
5129		103.515625
5130		107.421875
5131		103.515625
5132		105.468750
5133		103.515625
5134		105.468750
5135		103.515625
5136		105.468750
5137		101.562500
5138		105.468750
5139		101.562500
5140		105.468750
5141		101.562500
5142		105.468750
5143		101.562500
5144		103.515625
5145		99.609375
5146		103.515625
5147		99.609375
5148		103.515625
5149		99.609375
5150		103.515625
5151		97.656250
5152		101.562500
5153		97.656250
5154		101.562500
5155		97.656250
5156		99.609375
5157		95.703125
5158		99.609375
5159		95.703125
5160		99.609375
5161		93.750000
5162		97.656250
5163		93.750000
5164		97.656250
5165		91.796875
5166		95.703125
5167		91.796875
5168		93.750000
5169		89.843750
5170		93.750000
5171		89.843750
5172		91.796875
5173		87.890625
5174		89.843750
5175		85.937500
5176		89.843750
5177		83.984375
5178		87.890625
5179		83.984375
5180		85.937500
5181		82.031250
5182		85.937500
5183		80.078125
5184		83.984375
5185		78.125000
5186		82.031250
5187		76.171875
5188		80.078125
5189		74.218750
5190		78.125000
5191		72.265625
5192		76.171875
5193		72.265625
5194		76.171875
5195		68.359375
5196		74.218750
5197		68.359375
5198		72.265625
5199		66.406250
5200		70.312500
5201		64.453125
5202		68.359375
5203		60.546875
5204		66.406250
5205		60.546875
5206		64.453125
5207		58.593750
5208		62.500000
5209		54.687500
5210		60.546875
5211		52.734375
5212		56.640625
5213		50.781250
5214		54.687500
5215		48.828125
5216		52.734375
5217		46.875000
5218		50.781250
5219		44.921875
5220		48.828125
5221		42.968750
5222		46.875000
5223		39.062500
5224		44.921875
5225		37.109375
5226		41.015625
5227		35.156250
5228		39.062500
5229		33.203125
5230		37.109375
5231		31.250000
5232		35.156250
5233		27.343750
5234		33.203125
5235		25.390625
5236		31.250000
5237		23.437500
5238		27.343750
5239		21.484375
5240		25.390625
5241		17.578125
5242		21.484375
5243		15.625000
5244		21.484375
5245		13.671875
5246		17.578125
5247		9.765625
5248		15.625000
5249		7.812500
5250		13.671875
5251		5.859375
5252		9.765625
5253		3.906250
5254		7.812500
5255		0.000000
5256		5.859375
5257		-1.953125
5258		1.953125
5259		-3.906250
5260		0.000000
5261		-5.859375
5262		-1.953125
5263		-9.765625
5264		-3.906250
5265		-11.718750
5266		-5.859375
5267		-13.671875
5268		-9.765625
5269		-15.625000
5270		-11.718750
5271		-19.531250
5272		-13.671875
5273		-21.484375
5274		-17.578125
5275		-23.437500
5276		-19.531250
5277		-25.390625
5278		-21.484375
5279		-27.343750
5280		-23.437500
5281		-29.296875
5282		-25.390625
5283		-33.203125
5284		-29.296875
5285		-35.156250
5286		-31.250000
5287		-37.109375
5288		-31.250000
5289		-39.062500
5290		-35.156250
5291		-41.015625
5292		-37.109375
5293		-42.968750
5294		-39.062500
5295		-44.921875
5296		-41.015625
5297		-46.875000
5298		-42.968750
5299		-48.828125
5300		-44.921875
5301		-50.781250
5302		-46.875000
5303		-52.734375
5304		-48.828125
5305		-54.687500
5306		-50.781250
5307		-56.640625
5308		-52.734375
5309		-58.593750
5310		-54.687500
5311		-60.546875
5312		-56.640625
5313		-60.546875
5314		-56.640625
5315		-62.500000
5316		-58.593750
5317		-64.453125
5318		-60.546875
5319		-66.406250
5320		-62.500000
5321		-68.359375
5322		-62.500000
5323		-68.359375
5324		-64.453125
5325		-70.312500
5326		-66.406250
5327		-70.312500
5328		-66.406250
5329		-72.265625
5330		-68.359375
5331		-72.265625
5332		-70.312500
5333		-74.218750
5334		-70.312500
5335		-74.218750
5336		-72.265625
5337		-76.171875
5338		-72.265625
5339		-76.171875
5340		-74.218750
5341		-76.171875
5342		-74.218750
5343		-78.125000
5344		-74.218750
5345		-78.125000
5346		-76.171875
5347		-78.125000
5348		-76.171875
5349		-80.078125
5350		-76.171875
5351		-80.078125
5352		-76.171875
5353		-80.078125
5354		-76.171875
5355		-80.078125
5356		-76.171875
5357		-80.078125
5358		-78.125000
5359		-82.031250
5360		-76.171875
5361		-80.078125
5362		-78.125000
5363		-80.078125
5364		-76.171875
5365		-80.078125
5366		-76.171875
5367		-80.078125
5368		-76.171875
5369		-80.078125
5370		-76.171875
5371		-80.078125
5372		-76.171875
5373		-78.125000
5374		-76.171875
5375		-78.125000
5376		-76.171875
5377		-78.125000
5378		-74.218750
5379		-78.125000
5380		-74.218750
5381		-76.171875
5382		-74.218750
5383		-76.171875
5384		-72.265625
5385		-74.218750
5386		-70.312500
5387		-74.218750
5388		-70.312500
5389		-74.218750
5390		-68.359375
5391		-72.265625
5392		-68.359375
5393		-70.312500
5394		-66.406250
5395		-70.312500
5396		-66.406250
5397		-68.359375
5398		-64.453125
5399		-66.406250
5400		-62.500000
5401		-66.406250
5402		-60.546875
5403		-64.453125
5404		-60.546875
5405		-62.500000
5406		-58.593750
5407		-60.546875
5408		-56.640625
5409		-58.593750
5410		-56.640625
5411		-58.593750
5412		-52.734375
5413		-56.640625
5414		-50.781250
5415		-54.687500
5416		-50.781250
5417		-52.734375
5418		-48.828125
5419		-50.781250
5420		-46.875000
5421		-48.828125
5422		-44.921875
5423		-46.875000
5424		-42.968750
5425		-44.921875
5426		-41.015625
5427		-42.968750
5428		-39.062500
5429		-41.015625
5430		-35.156250
5431		-37.109375
5432		-35.156250
5433		-37.109375
5434		-31.250000
5435		-33.203125
5436		-29.296875
5437		-31.250000
5438		-27.343750
5439		-29.296875
5440		-25.390625
5441		-27.343750
5442		-23.437500
5443		-25.390625
5444		-19.531250
5445		-21.484375
5446		-17.578125
5447		-21.484375
5448		-15.625000
5449		-17.578125
5450		-13.671875
5451		-15.625000
5452		-11.718750
5453		-13.671875
5454		-7.812500
5455		-9.765625
5456		-5.859375
5457		-7.812500
5458		-3.906250
5459		-5.859375
5460		-1.953125
5461		-3.906250
5462		1.953125
5463		-1.953125
5464		3.906250
5465		1.953125
5466		5.859375
5467		3.906250
5468		9.765625
5469		5.859375
5470		11.718750
5471		9.765625
5472		13.671875
5473		11.718750
5474		15.625000
5475		13.671875
5476		19.531250
5477		17.578125
5478		21.484375
5479		19.531250
5480		23.437500
5481		21.484375
5482		27.343750
5483		23.437500
5484		27.343750
5485		25.390625
5486		31.250000
5487		29.296875
5488		33.203125
5489		31.250000
5490		35.156250
5491		33.203125
5492		37.109375
5493		35.156250
5494		39.062500
5495		39.062500
5496		42.968750
5497		41.015625
5498		44.921875
5499		42.968750
5500		46.875000
5501		44.921875
5502		48.828125
5503		46.875000
5504		50.781250
5505		48.828125
5506		52.734375
5507		50.781250
5508		54.687500
5509		54.687500
5510		56.640625
5511		56.640625
5512		60.546875
5513		58.593750
5514		62.500000
5515		58.593750
5516		64.453125
5517		62.500000
5518		66.406250
5519		64.453125
5520		68.359375
5521		66.406250
5522		70.312500
5523		68.359375
5524		70.312500
5525		70.312500
5526		72.265625
5527		70.312500
5528		76.171875
5529		72.265625
5530		76.171875
5531		74.218750
5532		78.125000
5533		76.171875
5534		80.078125
5535		78.125000
5536		82.031250
5537		80.078125
5538		83.984375
5539		82.031250
5540		85.937500
5541		82.031250
5542		85.937500
5543		83.984375
5544		87.890625
5545		85.937500
5546		87.890625
5547		85.937500
5548		89.843750
5549		87.890625
5550		91.796875
5551		89.843750
5552		93.750000
5553		89.843750
5554		93.750000
5555		91.796875
5556		95.703125
5557		91.796875
5558		95.703125
5559		93.750000
5560		97.656250
5561		95.703125
5562		99.609375
5563		95.703125
5564		99.609375
5565		97.656250
5566		99.609375
5567		97.656250
5568		99.609375
5569		97.656250
5570		101.562500
5571		97.656250
5572		101.562500
5573		99.609375
5574		103.515625
5575		99.609375
5576		103.515625
5577		101.562500
5578		103.515625
5579		101.562500
5580		103.515625
5581		101.562500
5582		105.468750
5583		101.562500
5584		105.468750
5585		101.562500
5586		105.468750
5587		101.562500
5588		105.468750
5589		101.562500
5590		107.421875
5591		103.515625
5592		105.468750
5593		103.515625
5594		105.468750
5595		103.515625
5596		107.421875
5597		103.515625
5598		105.468750
5599		103.515625
5600		105.468750
5601		103.515625
5602		107.421875
5603		103.515625
5604		105.468750
5605		103.515625
5606		105.468750
5607		101.562500
5608		105.468750
5609		101.562500
5610		105.468750
5611		101.562500
5612		103.515625
5613		99.609375
5614		105.468750
5615		99.609375
5616		103.515625
5617		99.609375
5618		103.515625
5619		99.609375
5620		103.515625
5621		97.656250
5622		101.562500
5623		97.656250
5624		101.562500
5625		97.656250
5626		99.609375
5627		95.703125
5628		99.609375
5629		95.703125
5630		97.656250
5631		93.750000
5632		97.656250
5633		93.750000
5634		97.656250
5635		91.796875
5636		95.703125
5637		91.796875
5638		93.750000
5639		89.843750
5640		93.750000
5641		87.890625
5642		93.750000
5643		87.890625
5644		89.843750
5645		85.937500
5646		89.843750
5647		83.984375
5648		87.890625
5649		83.984375
5650		85.937500
5651		82.031250
5652		85.937500
5653		80.078125
5654		83.984375
5655		78.125000
5656		82.031250
5657		76.171875
5658		80.078125
5659		76.171875
5660		78.125000
5661		74.218750
5662		76.171875
5663		72.265625
5664		76.171875
5665		70.312500
5666		74.218750
5667		68.359375
5668		72.265625
5669		66.406250
5670		70.312500
5671		64.453125
5672		68.359375
5673		60.546875
5674		66.406250
5675		60.546875
5676		64.453125
5677		58.593750
5678		62.500000
5679		56.640625
5680		60.546875
5681		54.687500
5682		58.593750
5683		50.781250
5684		56.640625
5685		48.828125
5686		54.687500
5687		46.875000
5688		52.734375
5689		44.921875
5690		48.828125
5691		42.968750
5692		46.875000
5693		41.015625
5694		44.921875
5695		37.109375
5696		42.968750
5697		35.156250
5698		41.015625
5699		33.203125
5700		39.062500
5701		31.250000
5702		35.156250
5703		29.296875
5704		33.203125
5705		25.390625
5706		31.250000
5707		23.437500
5708		27.343750
5709		21.484375
5710		25.390625
5711		19.531250
5712		23.437500
5713		15.625000
5714		21.484375
5715		13.671875
5716		17.578125
5717		11.718750
5718		15.625000
5719		7.812500
5720		13.671875
5721		5.859375
5722		9.765625
5723		3.906250
5724		7.812500
5725		1.953125
5726		5.859375
5727		-1.953125
5728		3.906250
5729		-3.906250
5730		0.000000
5731		-5.859375
5732		-1.953125
5733		-7.812500
5734		-3.906250
5735		-11.718750
5736		-7.812500
5737		-13.671875
5738		-9.765625
5739		-15.625000
5740		-11.718750
5741		-19.531250
5742		-13.671875
5743		-21.484375
5744		-15.625000
5745		-23.437500
5746		-17.578125
5747		-25.390625
5748		-21.484375
5749		-27.343750
5750		-23.437500
5751		-29.296875
5752		-25.390625
5753		-33.203125
5754		-27.343750
5755		-35.156250
5756		-29.296875
5757		-37.109375
5758		-33.203125
5759		-39.062500
5760		-35.156250
5761		-41.015625
5762		-37.109375
5763		-42.968750
5764		-39.062500
5765		-44.921875
5766		-41.015625
5767		-46.875000
5768		-42.968750
5769		-48.828125
5770		-44.921875
5771		-50.781250
5772		-46.875000
5773		-52.734375
5774		-48.828125
5775		-54.687500
5776		-50.781250
5777		-56.640625
5778		-52.734375
5779		-58.593750
5780		-54.687500
5781		-60.546875
5782		-54.687500
5783		-60.546875
5784		-56.640625
5785		-62.500000
5786		-58.593750
5787		-64.453125
5788		-60.546875
5789		-66.406250
5790		-62.500000
5791		-66.406250
5792		-64.453125
5793		-68.359375
5794		-64.453125
5795		-70.312500
5796		-66.406250
5797		-72.265625
5798		-68.359375
5799		-72.265625
5800		-68.359375
5801		-74.218750
5802		-70.312500
5803		-74.218750
5804		-70.312500
5805		-76.171875
5806		-70.312500
5807		-78.125000
5808		-72.265625
5809		-78.125000
5810		-74.218750
5811		-78.125000
5812		-74.218750
5813		-80.078125
5814		-74.218750
5815		-80.078125
5816		-76.171875
5817		-80.078125
5818		-76.171875
5819		-82.031250
5820		-76.171875
5821		-80.078125
5822		-76.171875
5823		-80.078125
5824		-76.171875
5825		-82.031250
5826		-78.125000
5827		-82.031250
5828		-78.125000
5829		-82.031250
5830		-78.125000
5831		-82.031250
5832		-78.125000
5833		-82.031250
5834		-78.125000
5835		-82.031250
5836		-78.125000
5837		-82.031250
5838		-76.171875
5839		-82.031250
5840		-76.171875
5841		-80.078125
5842		-78.125000
5843		-80.078125
5844		-76.171875
5845		-80.078125
5846		-76.171875
5847		-80.078125
5848		-76.171875
5849		-80.078125
5850		-74.218750
5851		-78.125000
5852		-74.218750
5853		-78.125000
5854		-72.265625
5855		-78.125000
5856		-72.265625
5857		-76.171875
5858		-70.312500
5859		-74.218750
5860		-70.312500
5861		-74.218750
5862		-70.312500
5863		-72.265625
5864		-68.359375
5865		-72.265625
5866		-66.406250
5867		-70.312500
5868		-66.406250
5869		-68.359375
5870		-64.453125
5871		-68.359375
5872		-62.500000
5873		-66.406250
5874		-60.546875
5875		-66.406250
5876		-58.593750
5877		-62.500000
5878		-58.593750
5879		-60.546875
5880		-56.640625
5881		-60.546875
5882		-54.687500
5883		-58.593750
5884		-52.734375
5885		-56.640625
5886		-52.734375
5887		-54.687500
5888		-48.828125
5889		-52.734375
5890		-46.875000
5891		-50.781250
5892		-46.875000
5893		-48.828125
5894		-44.921875
5895		-46.875000
5896		-42.968750
5897		-44.921875
5898		-41.015625
5899		-44.921875
5900		-37.109375
5901		-41.015625
5902		-35.156250
5903		-39.062500
5904		-33.203125
5905		-37.109375
5906		-31.250000
5907		-35.156250
5908		-29.296875
5909		-33.203125
5910		-27.343750
5911		-29.296875
5912		-25.390625
5913		-27.343750
5914		-23.437500
5915		-25.390625
5916		-21.484375
5917		-21.484375
5918		-17.578125
5919		-19.531250
5920		-15.625000
5921		-17.578125
5922		-13.671875
5923		-15.625000
5924		-11.718750
5925		-11.718750
5926		-7.812500
5927		-9.765625
5928		-5.859375
5929		-7.812500
5930		-3.906250
5931		-5.859375
5932		0.000000
5933		-1.953125
5934		1.953125
5935		0.000000
5936		3.906250
5937		1.953125
5938		5.859375
5939		3.906250
5940		7.812500
5941		7.812500
5942		11.718750
5943		9.765625
5944		13.671875
5945		11.718750
5946		15.625000
5947		13.671875
5948		17.578125
5949		17.578125
5950		21.484375
5951		19.531250
5952		23.437500
5953		21.484375
5954		25.390625
5955		23.437500
5956		29.296875
5957		27.343750
5958		31.250000
5959		29.296875
5960		33.203125
5961		31.250000
5962		35.156250
5963		33.203125
5964		39.062500
5965		35.156250
5966		41.015625
5967		39.062500
5968		42.968750
5969		41.015625
5970		44.921875
5971		42.968750
5972		46.875000
5973		44.921875
5974		48.828125
5975		46.875000
5976		50.781250
5977		48.828125
5978		52.734375
5979		52.734375
5980		54.687500
5981		54.687500
5982		56.640625
5983		56.640625
5984		60.546875
5985		58.593750
5986		62.500000
5987		60.546875
5988		64.453125
5989		62.500000
5990		64.453125
5991		64.453125
5992		68.359375
5993		66.406250
5994		70.312500
5995		68.359375
5996		72.265625
5997		70.312500
5998		72.265625
5999		72.265625
6000		74.218750
6001		72.265625
6002		76.171875
6003		74.218750
6004		78.125000
6005		76.171875
6006		80.078125
6007		78.125000
6008		82.031250
6009		80.078125
6010		83.984375
6011		82.031250
6012		83.984375
6013		82.031250
6014		85.937500
6015		82.031250
6016		89.843750
6017		82.031250
6018		91.796875
6019		83.984375
6020		91.796875
6021		85.937500
6022		93.750000
6023		89.843750
6024		91.796875
6025		89.843750
6026		93.750000
6027		91.796875
6028		93.750000
6029		91.796875
6030		95.703125
6031		93.750000
6032		95.703125
6033		91.796875
6034		99.609375
6035		91.796875
6036		101.562500
6037		93.750000
6038		101.562500
6039		97.656250
6040		99.609375
6041		97.656250
6042		99.609375
6043		97.656250
6044		101.562500
6045		99.609375
6046		101.562500
6047		99.609375
6048		101.562500
6049		97.656250
6050		105.468750
6051		97.656250
6052		105.468750
6053		97.656250
6054		107.421875
6055		101.562500
6056		103.515625
6057		101.562500
6058		103.515625
6059		101.562500
6060		105.468750
6061		101.562500
6062		105.468750
6063		101.562500
6064		105.468750
6065		99.609375
6066		107.421875
6067		99.609375
6068		109.375000
6069		99.609375
6070		109.375000
6071		99.609375
6072		109.375000
6073		101.562500
6074		105.468750
6075		101.562500
6076		103.515625
6077		101.562500
6078		103.515625
6079		101.562500
6080		103.515625
6081		101.562500
6082		103.515625
6083		97.656250
6084		107.421875
6085		97.656250
6086		105.468750
6087		95.703125
6088		105.468750
6089		99.609375
6090		101.562500
6091		97.656250
6092		101.562500
6093		97.656250
6094		99.609375
6095		97.656250
6096		99.609375
6097		95.703125
6098		99.609375
6099		91.796875
6100		101.562500
6101		91.796875
6102		101.562500
6103		89.843750
6104		99.609375
6105		89.843750
6106		97.656250
6107		91.796875
6108		93.750000
6109		89.843750
6110		93.750000
6111		87.890625
6112		91.796875
6113		87.890625
6114		89.843750
6115		85.937500
6116		89.843750
6117		82.031250
6118		91.796875
6119		80.078125
6120		89.843750
6121		80.078125
6122		89.843750
6123		80.078125
6124		83.984375
6125		78.125000
6126		82.031250
6127		78.125000
6128		80.078125
6129		76.171875
6130		80.078125
6131		74.218750
6132		78.125000
6133		68.359375
6134		78.125000
6135		66.406250
6136		76.171875
6137		64.453125
6138		74.218750
6139		66.406250
6140		70.312500
6141		64.453125
6142		68.359375
6143		62.500000
6144		66.406250
6145		60.546875
6146		64.453125
6147		58.593750
6148		62.500000
6149		56.640625
6150		60.546875
6151		50.781250
6152		62.500000
6153		48.828125
6154		60.546875
6155		48.828125
6156		56.640625
6157		48.828125
6158		52.734375
6159		44.921875
6160		48.828125
6161		42.968750
6162		46.875000
6163		41.015625
6164		44.921875
6165		39.062500
6166		42.968750
6167		33.203125
6168		42.968750
6169		31.250000
6170		41.015625
6171		29.296875
6172		39.062500
6173		29.296875
6174		33.203125
6175		27.343750
6176		31.250000
6177		25.390625
6178		29.296875
6179		21.484375
6180		25.390625
6181		19.531250
6182		23.437500
6183		15.625000
6184		21.484375
6185		11.718750
6186		23.437500
6187		7.812500
6188		19.531250
6189		7.812500
6190		17.578125
6191		7.812500
6192		11.718750
6193		3.906250
6194		9.765625
6195		1.953125
6196		5.859375
6197		0.000000
6198		3.906250
6199		-1.953125
6200		1.953125
6201		-5.859375
6202		-1.953125
6203		-9.765625
6204		0.000000
6205		-9.765625
6206		-3.906250
6207		-13.671875
6208		-7.812500
6209		-15.625000
6210		-11.718750
6211		-17.578125
6212		-13.671875
6213		-19.531250
6214		-15.625000
6215		-23.437500
6216		-17.578125
6217		-25.390625
6218		-19.531250
6219		-27.343750
6220		-21.484375
6221		-29.296875
6222		-23.437500
6223		-31.250000
6224		-27.343750
6225		-33.203125
6226		-29.296875
6227		-35.156250
6228		-31.250000
6229		-39.062500
6230		-35.156250
6231		-41.015625
6232		-37.109375
6233		-42.968750
6234		-39.062500
6235		-46.875000
6236		-39.062500
6237		-46.875000
6238		-41.015625
6239		-48.828125
6240		-42.968750
6241		-50.781250
6242		-46.875000
6243		-52.734375
6244		-48.828125
6245		-54.687500
6246		-50.781250
6247		-56.640625
6248		-52.734375
6249		-58.593750
6250		-54.687500
6251		-58.593750
6252		-56.640625
6253		-60.546875
6254		-56.640625
6255		-62.500000
6256		-58.593750
6257		-64.453125
6258		-60.546875
6259		-66.406250
6260		-62.500000
6261		-68.359375
6262		-64.453125
6263		-68.359375
6264		-64.453125
6265		-70.312500
6266		-66.406250
6267		-70.312500
6268		-68.359375
6269		-72.265625
6270		-70.312500
6271		-74.218750
6272		-70.312500
6273		-74.218750
6274		-72.265625
6275		-76.171875
6276		-72.265625
6277		-76.171875
6278		-74.218750
6279		-78.125000
6280		-74.218750
6281		-78.125000
6282		-76.171875
6283		-78.125000
6284		-76.171875
6285		-80.078125
6286		-76.171875
6287		-80.078125
6288		-76.171875
6289		-80.078125
6290		-78.125000
6291		-80.078125
6292		-78.125000
6293		-82.031250
6294		-78.125000
6295		-82.031250
6296		-78.125000
6297		-82.031250
6298		-78.125000
6299		-82.031250
6300		-80.078125
6301		-82.031250
6302		-78.125000
6303		-82.031250
6304		-78.125000
6305		-82.031250
6306		-80.078125
6307		-82.031250
6308		-78.125000
6309		-82.031250
6310		-78.125000
6311		-80.078125
6312		-78.125000
6313		-80.078125
6314		-78.125000
6315		-80.078125
6316		-78.125000
6317		-80.078125
6318		-76.171875
6319		-80.078125
6320		-76.171875
6321		-78.125000
6322		-76.171875
6323		-78.125000
6324		-76.171875
6325		-78.125000
6326		-74.218750
6327		-76.171875
6328		-74.218750
6329		-76.171875
6330		-72.265625
6331		-74.218750
6332		-72.265625
6333		-74.218750
6334		-70.312500
6335		-72.265625
6336		-68.359375
6337		-72.265625
6338		-68.359375
6339		-70.312500
6340		-66.406250
6341		-68.359375
6342		-64.453125
6343		-68.359375
6344		-64.453125
6345		-66.406250
6346		-62.500000
6347		-64.453125
6348		-60.546875
6349		-62.500000
6350		-58.593750
6351		-60.546875
6352		-56.640625
6353		-60.546875
6354		-54.687500
6355		-58.593750
6356		-54.687500
6357		-56.640625
6358		-52.734375
6359		-54.687500
6360		-48.828125
6361		-52.734375
6362		-48.828125
6363		-50.781250
6364		-46.875000
6365		-48.828125
6366		-44.921875
6367		-46.875000
6368		-42.968750
6369		-46.875000
6370		-41.015625
6371		-42.968750
6372		-39.062500
6373		-41.015625
6374		-37.109375
6375		-39.062500
6376		-33.203125
6377		-37.109375
6378		-31.250000
6379		-33.203125
6380		-29.296875
6381		-31.250000
6382		-27.343750
6383		-29.296875
6384		-25.390625
6385		-27.343750
6386		-21.484375
6387		-25.390625
6388		-19.531250
6389		-21.484375
6390		-17.578125
6391		-19.531250
6392		-15.625000
6393		-17.578125
6394		-13.671875
6395		-13.671875
6396		-9.765625
6397		-11.718750
6398		-7.812500
6399		-9.765625
6400		-5.859375
6401		-7.812500
6402		-1.953125
6403		-5.859375
6404		0.000000
6405		-3.906250
6406		1.953125
6407		0.000000
6408		3.906250
6409		1.953125
6410		7.812500
6411		3.906250
6412		9.765625
6413		7.812500
6414		11.718750
6415		9.765625
6416		13.671875
6417		11.718750
6418		15.625000
6419		15.625000
6420		19.531250
6421		17.578125
6422		21.484375
6423		19.531250
6424		23.437500
6425		21.484375
6426		27.343750
6427		25.390625
6428		29.296875
6429		27.343750
6430		31.250000
6431		29.296875
6432		33.203125
6433		31.250000
6434		35.156250
6435		33.203125
6436		41.015625
6437		35.156250
6438		41.015625
6439		37.109375
6440		42.968750
6441		41.015625
6442		44.921875
6443		42.968750
6444		46.875000
6445		44.921875
6446		48.828125
6447		46.875000
6448		52.734375
6449		50.781250
6450		54.687500
6451		52.734375
6452		56.640625
6453		52.734375
6454		58.593750
6455		56.640625
6456		60.546875
6457		58.593750
6458		62.500000
6459		60.546875
6460		66.406250
6461		62.500000
6462		66.406250
6463		64.453125
6464		68.359375
6465		66.406250
6466		70.312500
6467		68.359375
6468		72.265625
6469		70.312500
6470		74.218750
6471		70.312500
6472		76.171875
6473		74.218750
6474		76.171875
6475		74.218750
6476		78.125000
6477		76.171875
6478		80.078125
6479		78.125000
6480		82.031250
6481		80.078125
6482		83.984375
6483		82.031250
6484		83.984375
6485		82.031250
6486		85.937500
6487		83.984375
6488		87.890625
6489		85.937500
6490		87.890625
6491		85.937500
6492		89.843750
6493		87.890625
6494		91.796875
6495		89.843750
6496		91.796875
6497		89.843750
6498		93.750000
6499		91.796875
6500		93.750000
6501		93.750000
6502		95.703125
6503		93.750000
6504		97.656250
6505		93.750000
6506		97.656250
6507		95.703125
6508		97.656250
6509		95.703125
6510		99.609375
6511		97.656250
6512		99.609375
6513		97.656250
6514		99.609375
6515		97.656250
6516		101.562500
6517		99.609375
6518		101.562500
6519		99.609375
6520		103.515625
6521		99.609375
6522		103.515625
6523		99.609375
6524		103.515625
6525		101.562500
6526		103.515625
6527		101.562500
6528		103.515625
6529		101.562500
6530		105.468750
6531		101.562500
6532		103.515625
6533		101.562500
6534		105.468750
6535		101.562500
6536		105.468750
6537		101.562500
6538		103.515625
6539		101.562500
6540		103.515625
6541		101.562500
6542		105.468750
6543		101.562500
6544		103.515625
6545		101.562500
6546		103.515625
6547		101.562500
6548		103.515625
6549		101.562500
6550		103.515625
6551		99.609375
6552		103.515625
6553		101.562500
6554		103.515625
6555		99.609375
6556		103.515625
6557		99.609375
6558		101.562500
6559		99.609375
6560		101.562500
6561		97.656250
6562		101.562500
6563		97.656250
6564		101.562500
6565		97.656250
6566		99.609375
6567		95.703125
6568		99.609375
6569		95.703125
6570		97.656250
6571		93.750000
6572		97.656250
6573		93.750000
6574		95.703125
6575		91.796875
6576		95.703125
6577		91.796875
6578		93.750000
6579		89.843750
6580		93.750000
6581		89.843750
6582		91.796875
6583		87.890625
6584		91.796875
6585		85.937500
6586		89.843750
6587		85.937500
6588		87.890625
6589		83.984375
6590		87.890625
6591		82.031250
6592		85.937500
6593		82.031250
6594		83.984375
6595		80.078125
6596		83.984375
6597		78.125000
6598		82.031250
6599		76.171875
6600		80.078125
6601		74.218750
6602		78.125000
6603		72.265625
6604		76.171875
6605		70.312500
6606		74.218750
6607		70.312500
6608		72.265625
6609		68.359375
6610		70.312500
6611		64.453125
6612		70.312500
6613		64.453125
6614		66.406250
6615		62.500000
6616		66.406250
6617		58.593750
6618		64.453125
6619		58.593750
6620		60.546875
6621		54.687500
6622		60.546875
6623		52.734375
6624		56.640625
6625		50.781250
6626		54.687500
6627		48.828125
6628		52.734375
6629		46.875000
6630		50.781250
6631		44.921875
6632		48.828125
6633		42.968750
6634		46.875000
6635		41.015625
6636		44.921875
6637		37.109375
6638		41.015625
6639		35.156250
6640		41.015625
6641		33.203125
6642		37.109375
6643		29.296875
6644		35.156250
6645		27.343750
6646		33.203125
6647		25.390625
6648		29.296875
6649		23.437500
6650		27.343750
6651		21.484375
6652		25.390625
6653		17.578125
6654		21.484375
6655		15.625000
6656		21.484375
6657		13.671875
6658		19.531250
6659		11.718750
6660		15.625000
6661		7.812500
6662		11.718750
6663		5.859375
6664		9.765625
6665		3.906250
6666		7.812500
6667		0.000000
6668		5.859375
6669		-1.953125
6670		1.953125
6671		-5.859375
6672		0.000000
6673		-5.859375
6674		-1.953125
6675		-9.765625
6676		-5.859375
6677		-11.718750
6678		-7.812500
6679		-13.671875
6680		-9.765625
6681		-15.625000
6682		-11.718750
6683		-19.531250
6684		-15.625000
6685		-21.484375
6686		-17.578125
6687		-25.390625
6688		-19.531250
6689		-27.343750
6690		-19.531250
6691		-27.343750
6692		-23.437500
6693		-31.250000
6694		-27.343750
6695		-33.203125
6696		-29.296875
6697		-35.156250
6698		-31.250000
6699		-37.109375
6700		-33.203125
6701		-39.062500
6702		-35.156250
6703		-42.968750
6704		-37.109375
6705		-44.921875
6706		-37.109375
6707		-46.875000
6708		-41.015625
6709		-46.875000
6710		-44.921875
6711		-48.828125
6712		-46.875000
6713		-50.781250
6714		-48.828125
6715		-52.734375
6716		-50.781250
6717		-54.687500
6718		-52.734375
6719		-56.640625
6720		-52.734375
6721		-60.546875
6722		-54.687500
6723		-62.500000
6724		-54.687500
6725		-62.500000
6726		-58.593750
6727		-64.453125
6728		-60.546875
6729		-64.453125
6730		-62.500000
6731		-66.406250
6732		-62.500000
6733		-68.359375
6734		-64.453125
6735		-68.359375
6736		-66.406250
6737		-70.312500
6738		-68.359375
6739		-74.218750
6740		-66.406250
6741		-74.218750
6742		-68.359375
6743		-74.218750
6744		-70.312500
6745		-74.218750
6746		-72.265625
6747		-76.171875
6748		-72.265625
6749		-78.125000
6750		-74.218750
6751		-78.125000
6752		-74.218750
6753		-78.125000
6754		-76.171875
6755		-80.078125
6756		-74.218750
6757		-80.078125
6758		-76.171875
6759		-80.078125
6760		-78.125000
6761		-82.031250
6762		-78.125000
6763		-82.031250
6764		-78.125000
6765		-82.031250
6766		-80.078125
6767		-82.031250
6768		-80.078125
6769		-82.031250
6770		-80.078125
6771		-83.984375
6772		-78.125000
6773		-83.984375
6774		-78.125000
6775		-83.984375
6776		-78.125000
6777		-82.031250
6778		-80.078125
6779		-82.031250
6780		-80.078125
6781		-82.031250
6782		-78.125000
6783		-82.031250
6784		-78.125000
6785		-82.031250
6786		-78.125000
6787		-80.078125
6788		-78.125000
6789		-82.031250
6790		-76.171875
6791		-80.078125
6792		-76.171875
6793		-78.125000
6794		-76.171875
6795		-78.125000
6796		-74.218750
6797		-78.125000
6798		-74.218750
6799		-76.171875
6800		-74.218750
6801		-76.171875
6802		-72.265625
6803		-74.218750
6804		-72.265625
6805		-74.218750
6806		-68.359375
6807		-74.218750
6808		-66.406250
6809		-70.312500
6810		-68.359375
6811		-70.312500
6812		-66.406250
6813		-68.359375
6814		-64.453125
6815		-66.406250
6816		-64.453125
6817		-66.406250
6818		-62.500000
6819		-64.453125
6820		-60.546875
6821		-62.500000
6822		-58.593750
6823		-60.546875
6824		-56.640625
6825		-58.593750
6826		-56.640625
6827		-56.640625
6828		-52.734375
6829		-54.687500
6830		-52.734375
6831		-52.734375
6832		-50.781250
6833		-52.734375
6834		-48.828125
6835		-50.781250
6836		-46.875000
6837		-46.875000
6838		-44.921875
6839		-46.875000
6840		-41.015625
6841		-44.921875
6842		-41.015625
6843		-41.015625
6844		-37.109375
6845		-39.062500
6846		-35.156250
6847		-37.109375
6848		-33.203125
6849		-35.156250
6850		-31.250000
6851		-33.203125
6852		-27.343750
6853		-31.250000
6854		-27.343750
6855		-29.296875
6856		-23.437500
6857		-27.343750
6858		-21.484375
6859		-23.437500
6860		-19.531250
6861		-21.484375
6862		-17.578125
6863		-19.531250
6864		-15.625000
6865		-15.625000
6866		-11.718750
6867		-13.671875
6868		-9.765625
6869		-11.718750
6870		-7.812500
6871		-9.765625
6872		-5.859375
6873		-5.859375
6874		-1.953125
6875		-3.906250
6876		0.000000
6877		-1.953125
6878		1.953125
6879		0.000000
6880		3.906250
6881		3.906250
6882		7.812500
6883		5.859375
6884		9.765625
6885		7.812500
6886		13.671875
6887		9.765625
6888		15.625000
6889		13.671875
6890		17.578125
6891		15.625000
6892		19.531250
6893		17.578125
6894		21.484375
6895		19.531250
6896		25.390625
6897		23.437500
6898		27.343750
6899		25.390625
6900		29.296875
6901		27.343750
6902		33.203125
6903		29.296875
6904		35.156250
6905		33.203125
6906		37.109375
6907		35.156250
6908		39.062500
6909		37.109375
6910		41.015625
6911		39.062500
6912		42.968750
6913		41.015625
6914		44.921875
6915		42.968750
6916		48.828125
6917		46.875000
6918		50.781250
6919		48.828125
6920		52.734375
6921		50.781250
6922		54.687500
6923		52.734375
6924		56.640625
6925		54.687500
6926		58.593750
6927		56.640625
6928		60.546875
6929		58.593750
6930		62.500000
6931		60.546875
6932		64.453125
6933		62.500000
6934		66.406250
6935		64.453125
6936		68.359375
6937		66.406250
6938		70.312500
6939		68.359375
6940		72.265625
6941		70.312500
6942		74.218750
6943		72.265625
6944		76.171875
6945		74.218750
6946		78.125000
6947		76.171875
6948		78.125000
6949		78.125000
6950		80.078125
6951		78.125000
6952		82.031250
6953		80.078125
6954		83.984375
6955		82.031250
6956		83.984375
6957		83.984375
6958		85.937500
6959		83.984375
6960		87.890625
6961		85.937500
6962		89.843750
6963		87.890625
6964		89.843750
6965		87.890625
6966		91.796875
6967		89.843750
6968		91.796875
6969		89.843750
6970		93.750000
6971		91.796875
6972		95.703125
6973		91.796875
6974		95.703125
6975		93.750000
6976		97.656250
6977		93.750000
6978		97.656250
6979		95.703125
6980		97.656250
6981		95.703125
6982		99.609375
6983		97.656250
6984		99.609375
6985		97.656250
6986		101.562500
6987		97.656250
6988		101.562500
6989		99.609375
6990		101.562500
6991		99.609375
6992		101.562500
6993		99.609375
6994		103.515625
6995		99.609375
6996		103.515625
6997		101.562500
6998		103.515625
6999		101.562500
7000		103.515625
7001		101.562500
7002		103.515625
7003		101.562500
7004		103.515625
7005		101.562500
7006		103.515625
7007		101.562500
7008		103.515625
7009		101.562500
7010		105.468750
7011		101.562500
7012		103.515625
7013		101.562500
7014		105.468750
7015		101.562500
7016		103.515625
7017		101.562500
7018		103.515625
7019		101.562500
7020		103.515625
7021		101.562500
7022		103.515625
7023		99.609375
7024		103.515625
7025		99.609375
7026		103.515625
7027		99.609375
7028		101.562500
7029		99.609375
7030		101.562500
7031		99.609375
7032		101.562500
7033		97.656250
7034		101.562500
7035		97.656250
7036		99.609375
7037		95.703125
7038		99.609375
7039		95.703125
7040		97.656250
7041		95.703125
7042		97.656250
7043		93.750000
7044		97.656250
7045		93.750000
7046		95.703125
7047		91.796875
7048		95.703125
7049		91.796875
7050		93.750000
7051		89.843750
7052		93.750000
7053		87.890625
7054		91.796875
7055		87.890625
7056		89.843750
7057		85.937500
7058		89.843750
7059		83.984375
7060		87.890625
7061		83.984375
7062		85.937500
7063		82.031250
7064		85.937500
7065		80.078125
7066		83.984375
7067		78.125000
7068		82.031250
7069		76.171875
7070		80.078125
7071		76.171875
7072		80.078125
7073		74.218750
7074		78.125000
7075		72.265625
7076		76.171875
7077		70.312500
7078		74.218750
7079		68.359375
7080		72.265625
7081		66.406250
7082		70.312500
7083		64.453125
7084		68.359375
7085		62.500000
7086		66.406250
7087		60.546875
7088		64.453125
7089		58.593750
7090		62.500000
7091		56.640625
7092		60.546875
7093		54.687500
7094		58.593750
7095		52.734375
7096		56.640625
7097		50.781250
7098		54.687500
7099		46.875000
7100		52.734375
7101		44.921875
7102		50.781250
7103		42.968750
7104		46.875000
7105		41.015625
7106		44.921875
7107		39.062500
7108		42.968750
7109		37.109375
7110		41.015625
7111		33.203125
7112		39.062500
7113		31.250000
7114		35.156250
7115		29.296875
7116		33.203125
7117		27.343750
7118		31.250000
7119		25.390625
7120		29.296875
7121		21.484375
7122		25.390625
7123		19.531250
7124		25.390625
7125		17.578125
7126		21.484375
7127		15.625000
7128		19.531250
7129		11.718750
7130		15.625000
7131		9.765625
7132		13.671875
7133		7.812500
7134		11.718750
7135		3.906250
7136		9.765625
7137		1.953125
7138		5.859375
7139		0.000000
7140		3.906250
7141		-3.906250
7142		1.953125
7143		-5.859375
7144		-1.953125
7145		-7.812500
7146		-3.906250
7147		-9.765625
7148		-5.859375
7149		-13.671875
7150		-7.812500
7151		-15.625000
7152		-11.718750
7153		-17.578125
7154		-13.671875
7155		-19.531250
7156		-15.625000
7157		-23.437500
7158		-17.578125
7159		-25.390625
7160		-21.484375
7161		-27.343750
7162		-23.437500
7163		-29.296875
7164		-25.390625
7165		-31.250000
7166		-27.343750
7167		-35.156250
7168		-29.296875
7169		-37.109375
7170		-33.203125
7171		-39.062500
7172		-35.156250
7173		-41.015625
7174		-37.109375
7175		-42.968750
7176		-39.062500
7177		-44.921875
7178		-41.015625
7179		-46.875000
7180		-42.968750
7181		-48.828125
7182		-44.921875
7183		-50.781250
7184		-46.875000
7185		-52.734375
7186		-48.828125
7187		-54.687500
7188		-50.781250
7189		-56.640625
7190		-52.734375
7191		-58.593750
7192		-54.687500
7193		-60.546875
7194		-56.640625
7195		-60.546875
7196		-58.593750
7197		-62.500000
7198		-60.546875
7199		-64.453125
7200		-60.546875
7201		-66.406250
7202		-62.500000
7203		-66.406250
7204		-64.453125
7205		-68.359375
7206		-66.406250
7207		-70.312500
7208		-66.406250
7209		-70.312500
7210		-68.359375
7211		-72.265625
7212		-70.312500
7213		-74.218750
7214		-70.312500
7215		-74.218750
7216		-72.265625
7217		-76.171875
7218		-72.265625
7219		-76.171875
7220		-74.218750
7221		-78.125000
7222		-74.218750
7223		-78.125000
7224		-76.171875
7225		-78.125000
7226		-76.171875
7227		-80.078125
7228		-76.171875
7229		-80.078125
7230		-78.125000
7231		-80.078125
7232		-78.125000
7233		-82.031250
7234		-78.125000
7235		-82.031250
7236		-78.125000
7237		-82.031250
7238		-78.125000
7239		-82.031250
7240		-80.078125
7241		-82.031250
7242		-80.078125
7243		-82.031250
7244		-80.078125
7245		-82.031250
7246		-80.078125
7247		-82.031250
7248		-80.078125
7249		-82.031250
7250		-80.078125
7251		-82.031250
7252		-80.078125
7253		-82.031250
7254		-80.078125
7255		-82.031250
7256		-78.125000
7257		-82.031250
7258		-78.125000
7259		-82.031250
7260		-78.125000
7261		-80.078125
7262		-78.125000
7263		-80.078125
7264		-76.171875
7265		-78.125000
7266		-76.171875
7267		-78.125000
7268		-74.218750
7269		-78.125000
7270		-74.218750
7271		-76.171875
7272		-74.218750
7273		-74.218750
7274		-72.265625
7275		-74.218750
7276		-70.312500
7277		-72.265625
7278		-70.312500
7279		-72.265625
7280		-68.359375
7281		-70.312500
7282		-68.359375
7283		-70.312500
7284		-66.406250
7285		-68.359375
7286		-64.453125
7287		-66.406250
7288		-62.500000
7289		-64.453125
7290		-60.546875
7291		-64.453125
7292		-60.546875
7293		-62.500000
7294		-58.593750
7295		-60.546875
7296		-56.640625
7297		-58.593750
7298		-54.687500
7299		-56.640625
7300		-52.734375
7301		-54.687500
7302		-50.781250
7303		-52.734375
7304		-48.828125
7305		-50.781250
7306		-46.875000
7307		-48.828125
7308		-44.921875
7309		-46.875000
7310		-42.968750
7311		-44.921875
7312		-41.015625
7313		-42.968750
7314		-39.062500
7315		-41.015625
7316		-37.109375
7317		-39.062500
7318		-35.156250
7319		-37.109375
7320		-33.203125
7321		-35.156250
7322		-31.250000
7323		-33.203125
7324		-27.343750
7325		-29.296875
7326		-25.390625
7327		-27.343750
7328		-23.437500
7329		-25.390625
7330		-21.484375
7331		-23.437500
7332		-19.531250
7333		-21.484375
7334		-15.625000
7335		-17.578125
7336		-13.671875
7337		-15.625000
7338		-11.718750
7339		-13.671875
7340		-9.765625
7341		-9.765625
7342		-5.859375
7343		-7.812500
7344		-3.906250
7345		-5.859375
7346		-1.953125
7347		-3.906250
7348		0.000000
7349		0.000000
7350		3.906250
7351		1.953125
7352		5.859375
7353		3.906250
7354		7.812500
7355		5.859375
7356		11.718750
7357		9.765625
7358		13.671875
7359		11.718750
7360		15.625000
7361		13.671875
7362		17.578125
7363		15.625000
7364		19.531250
7365		19.531250
7366		23.437500
7367		21.484375
7368		25.390625
7369		23.437500
7370		27.343750
7371		25.390625
7372		29.296875
7373		27.343750
7374		33.203125
7375		31.250000
7376		35.156250
7377		33.203125
7378		37.109375
7379		35.156250
7380		39.062500
7381		37.109375
7382		41.015625
7383		41.015625
7384		42.968750
7385		42.968750
7386		46.875000
7387		44.921875
7388		48.828125
7389		46.875000
7390		50.781250
7391		48.828125
7392		52.734375
7393		50.781250
7394		54.687500
7395		52.734375
7396		56.640625
7397		54.687500
7398		58.593750
7399		56.640625
7400		60.546875
7401		58.593750
7402		62.500000
7403		60.546875
7404		64.453125
7405		64.453125
7406		66.406250
7407		64.453125
7408		68.359375
7409		66.406250
7410		70.312500
7411		68.359375
7412		72.265625
7413		70.312500
7414		74.218750
7415		72.265625
7416		76.171875
7417		74.218750
7418		78.125000
7419		76.171875
7420		80.078125
7421		76.171875
7422		82.031250
7423		78.125000
7424		82.031250
7425		80.078125
7426		83.984375
7427		82.031250
7428		85.937500
7429		83.984375
7430		85.937500
7431		83.984375
7432		87.890625
7433		85.937500
7434		89.843750
7435		87.890625
7436		89.843750
7437		87.890625
7438		91.796875
7439		89.843750
7440		91.796875
7441		89.843750
7442		93.750000
7443		91.796875
7444		95.703125
7445		93.750000
7446		95.703125
7447		93.750000
7448		95.703125
7449		95.703125
7450		97.656250
7451		95.703125
7452		97.656250
7453		95.703125
7454		99.609375
7455		97.656250
7456		99.609375
7457		97.656250
7458		101.562500
7459		97.656250
7460		101.562500
7461		99.609375
7462		101.562500
7463		99.609375
7464		101.562500
7465		99.609375
7466		103.515625
7467		99.609375
7468		103.515625
7469		101.562500
7470		103.515625
7471		101.562500
7472		103.515625
7473		101.562500
7474		103.515625
7475		101.562500
7476		103.515625
7477		101.562500
7478		103.515625
7479		101.562500
7480		103.515625
7481		101.562500
7482		103.515625
7483		101.562500
7484		103.515625
7485		101.562500
7486		103.515625
7487		101.562500
7488		103.515625
7489		101.562500
7490		103.515625
7491		101.562500
7492		103.515625
7493		101.562500
7494		103.515625
7495		99.609375
7496		103.515625
7497		99.609375
7498		103.515625
7499		99.609375
7500		101.562500
7501		99.609375
7502		101.562500
7503		97.656250
7504		101.562500
7505		97.656250
7506		101.562500
7507		95.703125
7508		99.609375
7509		95.703125
7510		99.609375
7511		95.703125
7512		99.609375
7513		93.750000
7514		97.656250
7515		93.750000
7516		97.656250
7517		91.796875
7518		95.703125
7519		91.796875
7520		95.703125
7521		89.843750
7522		93.750000
7523		89.843750
7524		91.796875
7525		87.890625
7526		91.796875
7527		87.890625
7528		89.843750
7529		85.937500
7530		87.890625
7531		83.984375
7532		87.890625
7533		82.031250
7534		85.937500
7535		82.031250
7536		83.984375
7537		80.078125
7538		83.984375
7539		78.125000
7540		82.031250
7541		76.171875
7542		80.078125
7543		74.218750
7544		78.125000
7545		74.218750
7546		76.171875
7547		72.265625
7548		74.218750
7549		70.312500
7550		74.218750
7551		68.359375
7552		72.265625
7553		66.406250
7554		70.312500
7555		64.453125
7556		68.359375
7557		62.500000
7558		66.406250
7559		60.546875
7560		64.453125
7561		56.640625
7562		62.500000
7563		54.687500
7564		60.546875
7565		52.734375
7566		56.640625
7567		50.781250
7568		56.640625
7569		48.828125
7570		52.734375
7571		46.875000
7572		50.781250
7573		44.921875
7574		48.828125
7575		42.968750
7576		46.875000
7577		41.015625
7578		44.921875
7579		37.109375
7580		42.968750
7581		35.156250
7582		39.062500
7583		33.203125
7584		37.109375
7585		31.250000
7586		35.156250
7587		29.296875
7588		33.203125
7589		25.390625
7590		29.296875
7591		23.437500
7592		27.343750
7593		21.484375
7594		25.390625
7595		17.578125
7596		23.437500
7597		15.625000
7598		21.484375
7599		13.671875
7600		17.578125
7601		11.718750
7602		15.625000
7603		7.812500
7604		13.671875
7605		5.859375
7606		9.765625
7607		3.906250
7608		7.812500
7609		1.953125
7610		5.859375
7611		-1.953125
7612		3.906250
7613		-3.906250
7614		0.000000
7615		-5.859375
7616		-1.953125
7617		-9.765625
7618		-3.906250
7619		-11.718750
7620		-7.812500
7621		-13.671875
7622		-9.765625
7623		-15.625000
7624		-11.718750
7625		-19.531250
7626		-13.671875
7627		-21.484375
7628		-17.578125
7629		-23.437500
7630		-19.531250
7631		-25.390625
7632		-21.484375
7633		-27.343750
7634		-23.437500
7635		-31.250000
7636		-25.390625
7637		-33.203125
7638		-29.296875
7639		-35.156250
7640		-31.250000
7641		-37.109375
7642		-33.203125
7643		-39.062500
7644		-35.156250
7645		-41.015625
7646		-37.109375
7647		-42.968750
7648		-39.062500
7649		-44.921875
7650		-41.015625
7651		-46.875000
7652		-42.968750
7653		-48.828125
7654		-44.921875
7655		-50.781250
7656		-46.875000
7657		-52.734375
7658		-48.828125
7659		-54.687500
7660		-52.734375
7661		-56.640625
7662		-52.734375
7663		-58.593750
7664		-54.687500
7665		-60.546875
7666		-56.640625
7667		-64.453125
7668		-58.593750
7669		-64.453125
7670		-60.546875
7671		-66.406250
7672		-60.546875
7673		-66.406250
7674		-62.500000
7675		-68.359375
7676		-64.453125
7677		-70.312500
7678		-66.406250
7679		-70.312500
7680		-68.359375
7681		-72.265625
7682		-68.359375
7683		-76.171875
7684		-68.359375
7685		-74.218750
7686		-70.312500
7687		-76.171875
7688		-72.265625
7689		-78.125000
7690		-72.265625
7691		-80.078125
7692		-72.265625
7693		-78.125000
7694		-74.218750
7695		-78.125000
7696		-76.171875
7697		-80.078125
7698		-76.171875
7699		-80.078125
7700		-78.125000
7701		-82.031250
7702		-76.171875
7703		-82.031250
7704		-78.125000
7705		-83.984375
7706		-78.125000
7707		-82.031250
7708		-80.078125
7709		-85.937500
7710		-76.171875
7711		-82.031250
7712		-80.078125
7713		-83.984375
7714		-80.078125
7715		-83.984375
7716		-78.125000
7717		-83.984375
7718		-80.078125
7719		-83.984375
7720		-80.078125
7721		-83.984375
7722		-78.125000
7723		-82.031250
7724		-80.078125
7725		-83.984375
7726		-76.171875
7727		-82.031250
7728		-78.125000
7729		-82.031250
7730		-78.125000
7731		-82.031250
7732		-76.171875
7733		-83.984375
7734		-76.171875
7735		-80.078125
7736		-76.171875
7737		-80.078125
7738		-74.218750
7739		-78.125000
7740		-74.218750
7741		-78.125000
7742		-72.265625
7743		-76.171875
7744		-74.218750
7745		-74.218750
7746		-72.265625
7747		-76.171875
7748		-70.312500
7749		-76.171875
7750		-68.359375
7751		-74.218750
7752		-66.406250
7753		-72.265625
7754		-68.359375
7755		-72.265625
7756		-62.500000
7757		-70.312500
7758		-62.500000
7759		-70.312500
7760		-60.546875
7761		-64.453125
7762		-62.500000
7763		-64.453125
7764		-58.593750
7765		-62.500000
7766		-54.687500
7767		-60.546875
7768		-54.687500
7769		-58.593750
7770		-52.734375
7771		-56.640625
7772		-52.734375
7773		-56.640625
7774		-48.828125
7775		-56.640625
7776		-46.875000
7777		-50.781250
7778		-46.875000
7779		-48.828125
7780		-44.921875
7781		-48.828125
7782		-41.015625
7783		-46.875000
7784		-39.062500
7785		-44.921875
7786		-37.109375
7787		-41.015625
7788		-37.109375
7789		-39.062500
7790		-31.250000
7791		-37.109375
7792		-33.203125
7793		-37.109375
7794		-29.296875
7795		-31.250000
7796		-27.343750
7797		-29.296875
7798		-25.390625
7799		-29.296875
7800		-19.531250
7801		-25.390625
7802		-19.531250
7803		-21.484375
7804		-17.578125
7805		-21.484375
7806		-13.671875
7807		-19.531250
7808		-11.718750
7809		-17.578125
7810		-9.765625
7811		-13.671875
7812		-7.812500
7813		-9.765625
7814		-5.859375
7815		-9.765625
7816		-1.953125
7817		-7.812500
7818		0.000000
7819		-3.906250
7820		1.953125
7821		0.000000
7822		3.906250
7823		0.000000
7824		9.765625
7825		3.906250
7826		11.718750
7827		7.812500
7828		11.718750
7829		9.765625
7830		13.671875
7831		11.718750
7832		17.578125
7833		13.671875
7834		21.484375
7835		15.625000
7836		21.484375
7837		19.531250
7838		23.437500
7839		19.531250
7840		29.296875
7841		21.484375
7842		29.296875
7843		23.437500
7844		31.250000
7845		29.296875
7846		33.203125
7847		31.250000
7848		35.156250
7849		33.203125
7850		39.062500
7851		33.203125
7852		42.968750
7853		37.109375
7854		42.968750
7855		41.015625
7856		44.921875
7857		41.015625
7858		50.781250
7859		42.968750
7860		52.734375
7861		46.875000
7862		50.781250
7863		48.828125
7864		54.687500
7865		50.781250
7866		56.640625
7867		50.781250
7868		60.546875
7869		54.687500
7870		58.593750
7871		56.640625
7872		62.500000
7873		58.593750
7874		66.406250
7875		58.593750
7876		66.406250
7877		62.500000
7878		68.359375
7879		66.406250
7880		68.359375
7881		68.359375
7882		72.265625
7883		66.406250
7884		76.171875
7885		70.312500
7886		76.171875
7887		72.265625
7888		76.171875
7889		74.218750
7890		80.078125
7891		72.265625
7892		82.031250
7893		76.171875
7894		82.031250
7895		80.078125
7896		82.031250
7897		80.078125
7898		83.984375
7899		82.031250
7900		85.937500
7901		80.078125
7902		89.843750
7903		83.984375
7904		87.890625
7905		85.937500
7906		89.843750
7907		85.937500
7908		93.750000
7909		87.890625
7910		95.703125
7911		89.843750
7912		91.796875
7913		91.796875
7914		93.750000
7915		91.796875
7916		95.703125
7917		91.796875
7918		97.656250
7919		93.750000
7920		99.609375
7921		95.703125
7922		97.656250
7923		93.750000
7924		101.562500
7925		93.750000
7926		101.562500
7927		95.703125
7928		103.515625
7929		97.656250
7930		99.609375
7931		97.656250
7932		101.562500
7933		97.656250
7934		103.515625
7935		97.656250
7936		105.468750
7937		99.609375
7938		103.515625
7939		99.609375
7940		103.515625
7941		99.609375
7942		103.515625
7943		99.609375
7944		105.468750
7945		101.562500
7946		103.515625
7947		101.562500
7948		103.515625
7949		101.562500
7950		103.515625
7951		97.656250
7952		105.468750
7953		99.609375
7954		105.468750
7955		101.562500
7956		103.515625
7957		99.609375
7958		105.468750
7959		101.562500
7960		103.515625
7961		101.562500
7962		103.515625
7963		101.562500
7964		103.515625
7965		99.609375
7966		103.515625
7967		99.609375
7968		103.515625
7969		97.656250
7970		103.515625
7971		99.609375
7972		101.562500
7973		95.703125
7974		101.562500
7975		97.656250
7976		101.562500
7977		97.656250
7978		99.609375
7979		95.703125
7980		99.609375
7981		95.703125
7982		97.656250
7983		93.750000
7984		97.656250
7985		93.750000
7986		97.656250
7987		91.796875
7988		95.703125
7989		91.796875
7990		95.703125
7991		91.796875
7992		93.750000
7993		89.843750
7994		93.750000
7995		87.890625
7996		91.796875
7997		87.890625
7998		89.843750
7999		85.937500
8000		89.843750
8001		83.984375
8002		87.890625
8003		83.984375
8004		85.937500
8005		82.031250
8006		85.937500
8007		80.078125
8008		83.984375
8009		78.125000
8010		82.031250
8011		76.171875
8012		80.078125
8013		76.171875
8014		80.078125
8015		74.218750
8016		78.125000
8017		72.265625
8018		76.171875
8019		70.312500
8020		74.218750
8021		66.406250
8022		74.218750
8023		66.406250
8024		72.265625
8025		64.453125
8026		70.312500
8027		62.500000
8028		68.359375
8029		60.546875
8030		64.453125
8031		58.593750
8032		62.500000
8033		56.640625
8034		60.546875
8035		54.687500
8036		60.546875
8037		52.734375
8038		56.640625
8039		48.828125
8040		56.640625
8041		46.875000
8042		52.734375
8043		44.921875
8044		50.781250
8045		42.968750
8046		48.828125
8047		41.015625
8048		44.921875
8049		39.062500
8050		42.968750
8051		37.109375
8052		41.015625
8053		33.203125
8054		39.062500
8055		29.296875
8056		37.109375
8057		29.296875
8058		35.156250
8059		27.343750
8060		33.203125
8061		23.437500
8062		29.296875
8063		21.484375
8064		27.343750
8065		19.531250
8066		23.437500
8067		15.625000
8068		21.484375
8069		13.671875
8070		19.531250
8071		11.718750
8072		17.578125
8073		7.812500
8074		15.625000
8075		5.859375
8076		11.718750
8077		3.906250
8078		11.718750
8079		1.953125
8080		7.812500
8081		0.000000
8082		3.906250
8083		-3.906250
8084		1.953125
8085		-5.859375
8086		0.000000
8087		-7.812500
8088		-1.953125
8089		-11.718750
8090		-5.859375
8091		-11.718750
8092		-7.812500
8093		-15.625000
8094		-9.765625
8095		-17.578125
8096		-13.671875
8097		-19.531250
8098		-15.625000
8099		-21.484375
8100		-17.578125
8101		-23.437500
8102		-19.531250
8103		-27.343750
8104		-21.484375
8105		-29.296875
8106		-23.437500
8107		-31.250000
8108		-25.390625
8109		-33.203125
8110		-29.296875
8111		-37.109375
8112		-31.250000
8113		-37.109375
8114		-33.203125
8115		-41.015625
8116		-37.109375
8117		-42.968750
8118		-39.062500
8119		-44.921875
8120		-39.062500
8121		-46.875000
8122		-41.015625
8123		-48.828125
8124		-42.968750
8125		-50.781250
8126		-46.875000
8127		-52.734375
8128		-48.828125
8129		-54.687500
8130		-50.781250
8131		-56.640625
8132		-52.734375
8133		-58.593750
8134		-54.687500
8135		-60.546875
8136		-56.640625
8137		-60.546875
8138		-56.640625
8139		-64.453125
8140		-58.593750
8141		-64.453125
8142		-60.546875
8143		-66.406250
8144		-62.500000
8145		-68.359375
8146		-64.453125
8147		-68.359375
8148		-66.406250
8149		-70.312500
8150		-66.406250
8151		-72.265625
8152		-68.359375
8153		-72.265625
8154		-68.359375
8155		-74.218750
8156		-70.312500
8157		-76.171875
8158		-70.312500
8159		-76.171875
8160		-72.265625
8161		-78.125000
8162		-74.218750
8163		-78.125000
8164		-74.218750
8165		-78.125000
8166		-76.171875
8167		-80.078125
8168		-76.171875
8169		-80.078125
8170		-78.125000
8171		-80.078125
8172		-76.171875
8173		-83.984375
8174		-76.171875
8175		-82.031250
8176		-78.125000
8177		-82.031250
8178		-80.078125
8179		-83.984375
8180		-80.078125
8181		-82.031250
8182		-80.078125
8183		-82.031250
8184		-80.078125
8185		-83.984375
8186		-80.078125
8187		-83.984375
8188		-80.078125
8189		-83.984375
8190		-80.078125
8191		-83.984375
8192		-78.125000
8193		-83.984375
8194		-80.078125
8195		-83.984375
8196		-80.078125
8197		-82.031250
8198		-80.078125
8199		-82.031250
8200		-80.078125
8201		-82.031250
8202		-78.125000
8203		-80.078125
8204		-76.171875
8205		-80.078125
8206		-78.125000
8207		-80.078125
8208		-76.171875
8209		-80.078125
8210		-76.171875
8211		-78.125000
8212		-76.171875
8213		-78.125000
8214		-74.218750
8215		-76.171875
8216		-74.218750
8217		-76.171875
8218		-72.265625
8219		-74.218750
8220		-70.312500
8221		-72.265625
8222		-70.312500
8223		-72.265625
8224		-66.406250
8225		-70.312500
8226		-66.406250
8227		-70.312500
8228		-66.406250
8229		-68.359375
8230		-64.453125
8231		-66.406250
8232		-62.500000
8233		-64.453125
8234		-60.546875
8235		-64.453125
8236		-60.546875
8237		-62.500000
8238		-58.593750
8239		-60.546875
8240		-56.640625
8241		-58.593750
8242		-54.687500
8243		-56.640625
8244		-52.734375
8245		-54.687500
8246		-50.781250
8247		-52.734375
8248		-48.828125
8249		-50.781250
8250		-46.875000
8251		-48.828125
8252		-44.921875
8253		-46.875000
8254		-42.968750
8255		-44.921875
8256		-41.015625
8257		-44.921875
8258		-39.062500
8259		-41.015625
8260		-37.109375
8261		-39.062500
8262		-35.156250
8263		-37.109375
8264		-31.250000
8265		-33.203125
8266		-29.296875
8267		-31.250000
8268		-27.343750
8269		-29.296875
8270		-25.390625
8271		-27.343750
8272		-21.484375
8273		-25.390625
8274		-19.531250
8275		-21.484375
8276		-17.578125
8277		-19.531250
8278		-15.625000
8279		-17.578125
8280		-13.671875
8281		-15.625000
8282		-9.765625
8283		-11.718750
8284		-7.812500
8285		-9.765625
8286		-5.859375
8287		-7.812500
8288		-1.953125
8289		-5.859375
8290		0.000000
8291		-1.953125
8292		1.953125
8293		0.000000
8294		3.906250
8295		1.953125
8296		7.812500
8297		5.859375
8298		9.765625
8299		7.812500
8300		11.718750
8301		9.765625
8302		15.625000
8303		11.718750
8304		17.578125
8305		15.625000
8306		19.531250
8307		17.578125
8308		21.484375
8309		19.531250
8310		23.437500
8311		21.484375
8312		27.343750
8313		23.437500
8314		29.296875
8315		27.343750
8316		31.250000
8317		29.296875
8318		33.203125
8319		31.250000
8320		37.109375
8321		33.203125
8322		39.062500
8323		35.156250
8324		41.015625
8325		39.062500
8326		42.968750
8327		41.015625
8328		44.921875
8329		42.968750
8330		46.875000
8331		44.921875
8332		48.828125
8333		48.828125
8334		50.781250
8335		48.828125
8336		54.687500
8337		52.734375
8338		56.640625
8339		54.687500
8340		58.593750
8341		56.640625
8342		60.546875
8343		56.640625
8344		62.500000
8345		60.546875
8346		64.453125
8347		62.500000
8348		66.406250
8349		64.453125
8350		68.359375
8351		66.406250
8352		70.312500
8353		66.406250
8354		72.265625
8355		68.359375
8356		74.218750
8357		70.312500
8358		74.218750
8359		72.265625
8360		76.171875
8361		74.218750
8362		78.125000
8363		76.171875
8364		80.078125
8365		78.125000
8366		82.031250
8367		80.078125
8368		82.031250
8369		80.078125
8370		83.984375
8371		82.031250
8372		85.937500
8373		83.984375
8374		87.890625
8375		83.984375
8376		87.890625
8377		85.937500
8378		89.843750
8379		85.937500
8380		91.796875
8381		87.890625
8382		91.796875
8383		89.843750
8384		93.750000
8385		91.796875
8386		95.703125
8387		91.796875
8388		95.703125
8389		93.750000
8390		95.703125
8391		93.750000
8392		97.656250
8393		95.703125
8394		97.656250
8395		95.703125
8396		97.656250
8397		95.703125
8398		99.609375
8399		97.656250
8400		99.609375
8401		97.656250
8402		99.609375
8403		97.656250
8404		101.562500
8405		99.609375
8406		101.562500
8407		99.609375
8408		103.515625
8409		99.609375
8410		103.515625
8411		99.609375
8412		103.515625
8413		99.609375
8414		103.515625
8415		99.609375
8416		103.515625
8417		101.562500
8418		103.515625
8419		99.609375
8420		103.515625
8421		101.562500
8422		103.515625
8423		101.562500
8424		103.515625
8425		101.562500
8426		103.515625
8427		101.562500
8428		103.515625
8429		101.562500
8430		103.515625
8431		99.609375
8432		103.515625
8433		99.609375
8434		103.515625
8435		99.609375
8436		103.515625
8437		99.609375
8438		103.515625
8439		99.609375
8440		103.515625
8441		99.609375
8442		101.562500
8443		97.656250
8444		101.562500
8445		97.656250
8446		101.562500
8447		97.656250
8448		101.562500
8449		95.703125
8450		99.609375
8451		95.703125
8452		99.609375
8453		95.703125
8454		97.656250
8455		93.750000
8456		97.656250
8457		93.750000
8458		95.703125
8459		91.796875
8460		95.703125
8461		91.796875
8462		93.750000
8463		89.843750
8464		93.750000
8465		87.890625
8466		91.796875
8467		87.890625
8468		91.796875
8469		85.937500
8470		89.843750
8471		85.937500
8472		87.890625
8473		83.984375
8474		87.890625
8475		82.031250
8476		85.937500
8477		82.031250
8478		83.984375
8479		80.078125
8480		83.984375
8481		76.171875
8482		82.031250
8483		76.171875
8484		80.078125
8485		74.218750
8486		78.125000
8487		72.265625
8488		78.125000
8489		72.265625
8490		76.171875
8491		68.359375
8492		74.218750
8493		68.359375
8494		72.265625
8495		66.406250
8496		70.312500
8497		64.453125
8498		68.359375
8499		62.500000
8500		68.359375
8501		60.546875
8502		64.453125
8503		56.640625
8504		62.500000
8505		56.640625
8506		60.546875
8507		52.734375
8508		58.593750
8509		50.781250
8510		56.640625
8511		48.828125
8512		52.734375
8513		46.875000
8514		50.781250
8515		44.921875
8516		48.828125
8517		42.968750
8518		46.875000
8519		41.015625
8520		44.921875
8521		39.062500
8522		42.968750
8523		35.156250
8524		41.015625
8525		33.203125
8526		39.062500
8527		31.250000
8528		37.109375
8529		29.296875
8530		33.203125
8531		25.390625
8532		31.250000
8533		23.437500
8534		29.296875
8535		21.484375
8536		25.390625
8537		19.531250
8538		23.437500
8539		15.625000
8540		21.484375
8541		13.671875
8542		17.578125
8543		9.765625
8544		15.625000
8545		9.765625
8546		13.671875
8547		5.859375
8548		11.718750
8549		3.906250
8550		7.812500
8551		1.953125
8552		5.859375
8553		0.000000
8554		3.906250
8555		-3.906250
8556		1.953125
8557		-5.859375
8558		-1.953125
8559		-7.812500
8560		-3.906250
8561		-11.718750
8562		-5.859375
8563		-13.671875
8564		-7.812500
8565		-15.625000
8566		-11.718750
8567		-17.578125
8568		-13.671875
8569		-19.531250
8570		-15.625000
8571		-23.437500
8572		-17.578125
8573		-25.390625
8574		-21.484375
8575		-27.343750
8576		-23.437500
8577		-29.296875
8578		-25.390625
8579		-31.250000
8580		-27.343750
8581		-35.156250
8582		-29.296875
8583		-37.109375
8584		-31.250000
8585		-39.062500
8586		-35.156250
8587		-41.015625
8588		-37.109375
8589		-42.968750
8590		-39.062500
8591		-44.921875
8592		-41.015625
8593		-46.875000
8594		-42.968750
8595		-48.828125
8596		-44.921875
8597		-50.781250
8598		-46.875000
8599		-54.687500
8600		-48.828125
8601		-54.687500
8602		-50.781250
8603		-56.640625
8604		-52.734375
8605		-58.593750
8606		-54.687500
8607		-60.546875
8608		-56.640625
8609		-62.500000
8610		-58.593750
8611		-64.453125
8612		-58.593750
8613		-64.453125
8614		-62.500000
8615		-66.406250
8616		-62.500000
8617		-68.359375
8618		-64.453125
8619		-68.359375
8620		-66.406250
8621		-70.312500
8622		-66.406250
8623		-72.265625
8624		-68.359375
8625		-74.218750
8626		-70.312500
8627		-74.218750
8628		-70.312500
8629		-74.218750
8630		-72.265625
8631		-76.171875
8632		-72.265625
8633		-78.125000
8634		-72.265625
8635		-78.125000
8636		-76.171875
8637		-78.125000
8638		-76.171875
8639		-80.078125
8640		-76.171875
8641		-80.078125
8642		-76.171875
8643		-80.078125
8644		-78.125000
8645		-82.031250
8646		-78.125000
8647		-82.031250
8648		-78.125000
8649		-82.031250
8650		-78.125000
8651		-82.031250
8652		-80.078125
8653		-82.031250
8654		-80.078125
8655		-83.984375
8656		-78.125000
8657		-83.984375
8658		-80.078125
8659		-83.984375
8660		-80.078125
8661		-83.984375
8662		-80.078125
8663		-82.031250
8664		-80.078125
8665		-82.031250
8666		-80.078125
8667		-82.031250
8668		-78.125000
8669		-82.031250
8670		-80.078125
8671		-82.031250
8672		-78.125000
8673		-80.078125
8674		-78.125000
8675		-80.078125
8676		-78.125000
8677		-80.078125
8678		-76.171875
8679		-80.078125
8680		-76.171875
8681		-78.125000
8682		-76.171875
8683		-78.125000
8684		-74.218750
8685		-76.171875
8686		-74.218750
8687		-76.171875
8688		-72.265625
8689		-76.171875
8690		-70.312500
8691		-74.218750
8692		-70.312500
8693		-72.265625
8694		-68.359375
8695		-70.312500
8696		-66.406250
8697		-70.312500
8698		-66.406250
8699		-68.359375
8700		-64.453125
8701		-66.406250
8702		-62.500000
8703		-64.453125
8704		-60.546875
8705		-64.453125
8706		-60.546875
8707		-62.500000
8708		-58.593750
8709		-60.546875
8710		-56.640625
8711		-60.546875
8712		-54.687500
8713		-58.593750
8714		-52.734375
8715		-56.640625
8716		-50.781250
8717		-52.734375
8718		-48.828125
8719		-50.781250
8720		-46.875000
8721		-48.828125
8722		-46.875000
8723		-48.828125
8724		-42.968750
8725		-44.921875
8726		-41.015625
8727		-42.968750
8728		-39.062500
8729		-41.015625
8730		-37.109375
8731		-39.062500
8732		-35.156250
8733		-37.109375
8734		-33.203125
8735		-37.109375
8736		-31.250000
8737		-33.203125
8738		-29.296875
8739		-29.296875
8740		-27.343750
8741		-29.296875
8742		-23.437500
8743		-25.390625
8744		-21.484375
8745		-23.437500
8746		-19.531250
8747		-21.484375
8748		-15.625000
8749		-19.531250
8750		-13.671875
8751		-17.578125
8752		-11.718750
8753		-13.671875
8754		-9.765625
8755		-11.718750
8756		-5.859375
8757		-7.812500
8758		-3.906250
8759		-5.859375
8760		-1.953125
8761		-3.906250
8762		0.000000
8763		-1.953125
8764		3.906250
8765		0.000000
8766		5.859375
8767		3.906250
8768		9.765625
8769		5.859375
8770		9.765625
8771		7.812500
8772		13.671875
8773		9.765625
8774		15.625000
8775		13.671875
8776		17.578125
8777		15.625000
8778		21.484375
8779		19.531250
8780		23.437500
8781		19.531250
8782		25.390625
8783		23.437500
8784		27.343750
8785		25.390625
8786		29.296875
8787		29.296875
8788		33.203125
8789		31.250000
8790		35.156250
8791		33.203125
8792		37.109375
8793		35.156250
8794		41.015625
8795		37.109375
8796		41.015625
8797		39.062500
8798		44.921875
8799		42.968750
8800		46.875000
8801		44.921875
8802		48.828125
8803		46.875000
8804		50.781250
8805		48.828125
8806		52.734375
8807		50.781250
8808		54.687500
8809		52.734375
8810		56.640625
8811		54.687500
8812		58.593750
8813		56.640625
8814		60.546875
8815		58.593750
8816		62.500000
8817		60.546875
8818		64.453125
8819		62.500000
8820		66.406250
8821		64.453125
8822		68.359375
8823		66.406250
8824		70.312500
8825		68.359375
8826		72.265625
8827		70.312500
8828		74.218750
8829		72.265625
8830		76.171875
8831		74.218750
8832		78.125000
8833		74.218750
8834		80.078125
8835		76.171875
8836		82.031250
8837		78.125000
8838		82.031250
8839		80.078125
8840		83.984375
8841		82.031250
8842		85.937500
8843		82.031250
8844		85.937500
8845		83.984375
8846		87.890625
8847		85.937500
8848		89.843750
8849		85.937500
8850		89.843750
8851		87.890625
8852		91.796875
8853		87.890625
8854		91.796875
8855		89.843750
8856		93.750000
8857		91.796875
8858		95.703125
8859		91.796875
8860		95.703125
8861		93.750000
8862		95.703125
8863		93.750000
8864		97.656250
8865		95.703125
8866		97.656250
8867		95.703125
8868		99.609375
8869		95.703125
8870		99.609375
8871		97.656250
8872		99.609375
8873		97.656250
8874		101.562500
8875		97.656250
8876		101.562500
8877		99.609375
8878		101.562500
8879		99.609375
8880		103.515625
8881		99.609375
8882		103.515625
8883		99.609375
8884		103.515625
8885		99.609375
8886		105.468750
8887		101.562500
8888		103.515625
8889		101.562500
8890		103.515625
8891		101.562500
8892		105.468750
8893		101.562500
8894		103.515625
8895		101.562500
8896		105.468750
8897		101.562500
8898		105.468750
8899		101.562500
8900		103.515625
8901		101.562500
8902		103.515625
8903		99.609375
8904		103.515625
8905		101.562500
8906		103.515625
8907		99.609375
8908		103.515625
8909		99.609375
8910		103.515625
8911		99.609375
8912		103.515625
8913		99.609375
8914		101.562500
8915		99.609375
8916		101.562500
8917		97.656250
8918		101.562500
8919		97.656250
8920		101.562500
8921		97.656250
8922		99.609375
8923		93.750000
8924		99.609375
8925		95.703125
8926		97.656250
8927		93.750000
8928		97.656250
8929		93.750000
8930		97.656250
8931		91.796875
8932		95.703125
8933		91.796875
8934		93.750000
8935		89.843750
8936		93.750000
8937		89.843750
8938		91.796875
8939		87.890625
8940		91.796875
8941		85.937500
8942		89.843750
8943		85.937500
8944		87.890625
8945		83.984375
8946		87.890625
8947		82.031250
8948		85.937500
8949		82.031250
8950		83.984375
8951		80.078125
8952		83.984375
8953		78.125000
8954		82.031250
8955		76.171875
8956		80.078125
8957		74.218750
8958		78.125000
8959		72.265625
8960		76.171875
8961		70.312500
8962		74.218750
8963		70.312500
8964		72.265625
8965		68.359375
8966		72.265625
8967		66.406250
8968		70.312500
8969		64.453125
8970		68.359375
8971		62.500000
8972		66.406250
8973		60.546875
8974		64.453125
8975		56.640625
8976		62.500000
8977		56.640625
8978		60.546875
8979		52.734375
8980		58.593750
8981		50.781250
8982		54.687500
8983		48.828125
8984		52.734375
8985		46.875000
8986		52.734375
8987		44.921875
8988		50.781250
8989		42.968750
8990		46.875000
8991		39.062500
8992		44.921875
8993		37.109375
8994		42.968750
8995		35.156250
8996		39.062500
8997		33.203125
8998		37.109375
8999		31.250000
9000		35.156250
9001		27.343750
9002		33.203125
9003		25.390625
9004		29.296875
9005		23.437500
9006		27.343750
9007		19.531250
9008		25.390625
9009		17.578125
9010		23.437500
9011		15.625000
9012		19.531250
9013		13.671875
9014		17.578125
9015		11.718750
9016		15.625000
9017		7.812500
9018		13.671875
9019		5.859375
9020		9.765625
9021		3.906250
9022		7.812500
9023		1.953125
9024		5.859375
9025		-1.953125
9026		1.953125
9027		-3.906250
9028		0.000000
9029		-7.812500
9030		-1.953125
9031		-9.765625
9032		-3.906250
9033		-11.718750
9034		-5.859375
9035		-13.671875
9036		-9.765625
9037		-15.625000
9038		-11.718750
9039		-19.531250
9040		-13.671875
9041		-21.484375
9042		-17.578125
9043		-23.437500
9044		-19.531250
9045		-25.390625
9046		-21.484375
9047		-27.343750
9048		-23.437500
9049		-31.250000
9050		-25.390625
9051		-33.203125
9052		-27.343750
9053		-35.156250
9054		-31.250000
9055		-37.109375
9056		-33.203125
9057		-39.062500
9058		-35.156250
9059		-41.015625
9060		-37.109375
9061		-42.968750
9062		-39.062500
9063		-44.921875
9064		-41.015625
9065		-46.875000
9066		-42.968750
9067		-48.828125
9068		-44.921875
9069		-50.781250
9070		-46.875000
9071		-52.734375
9072		-48.828125
9073		-54.687500
9074		-50.781250
9075		-56.640625
9076		-52.734375
9077		-58.593750
9078		-54.687500
9079		-60.546875
9080		-56.640625
9081		-62.500000
9082		-58.593750
9083		-64.453125
9084		-60.546875
9085		-66.406250
9086		-62.500000
9087		-68.359375
9088		-62.500000
9089		-68.359375
9090		-64.453125
9091		-70.312500
9092		-66.406250
9093		-70.312500
9094		-68.359375
9095		-72.265625
9096		-68.359375
9097		-72.265625
9098		-70.312500
9099		-74.218750
9100		-70.312500
9101		-76.171875
9102		-72.265625
9103		-78.125000
9104		-74.218750
9105		-78.125000
9106		-74.218750
9107		-78.125000
9108		-74.218750
9109		-80.078125
9110		-76.171875
9111		-80.078125
9112		-76.171875
9113		-80.078125
9114		-76.171875
9115		-80.078125
9116		-78.125000
9117		-82.031250
9118		-78.125000
9119		-82.031250
9120		-78.125000
9121		-82.031250
9122		-78.125000
9123		-82.031250
9124		-80.078125
9125		-83.984375
9126		-78.125000
9127		-82.031250
9128		-80.078125
9129		-82.031250
9130		-80.078125
9131		-82.031250
9132		-80.078125
9133		-82.031250
9134		-80.078125
9135		-82.031250
9136		-80.078125
9137		-82.031250
9138		-80.078125
9139		-82.031250
9140		-80.078125
9141		-82.031250
9142		-78.125000
9143		-82.031250
9144		-78.125000
9145		-80.078125
9146		-76.171875
9147		-80.078125
9148		-76.171875
9149		-80.078125
9150		-76.171875
9151		-78.125000
9152		-76.171875
9153		-78.125000
9154		-74.218750
9155		-78.125000
9156		-74.218750
9157		-76.171875
9158		-72.265625
9159		-74.218750
9160		-72.265625
9161		-74.218750
9162		-70.312500
9163		-72.265625
9164		-70.312500
9165		-72.265625
9166		-68.359375
9167		-70.312500
9168		-66.406250
9169		-70.312500
9170		-66.406250
9171		-68.359375
9172		-64.453125
9173		-66.406250
9174		-62.500000
9175		-64.453125
9176		-60.546875
9177		-62.500000
9178		-58.593750
9179		-62.500000
9180		-58.593750
9181		-60.546875
9182		-56.640625
9183		-58.593750
9184		-54.687500
9185		-56.640625
9186		-52.734375
9187		-54.687500
9188		-50.781250
9189		-52.734375
9190		-48.828125
9191		-50.781250
9192		-46.875000
9193		-48.828125
9194		-44.921875
9195		-46.875000
9196		-42.968750
9197		-44.921875
9198		-41.015625
9199		-42.968750
9200		-39.062500
9201		-41.015625
9202		-37.109375
9203		-39.062500
9204		-33.203125
9205		-37.109375
9206		-33.203125
9207		-33.203125
9208		-29.296875
9209		-31.250000
9210		-27.343750
9211		-29.296875
9212		-25.390625
9213		-27.343750
9214		-23.437500
9215		-25.390625
9216		-19.531250
9217		-23.437500
9218		-17.578125
9219		-19.531250
9220		-15.625000
9221		-17.578125
9222		-11.718750
9223		-15.625000
9224		-11.718750
9225		-11.718750
9226		-7.812500
9227		-9.765625
9228		-5.859375
9229		-7.812500
9230		-3.906250
9231		-5.859375
9232		-1.953125
9233		-1.953125
9234		1.953125
9235		0.000000
9236		3.906250
9237		1.953125
9238		7.812500
9239		3.906250
9240		9.765625
9241		7.812500
9242		11.718750
9243		9.765625
9244		13.671875
9245		11.718750
9246		15.625000
9247		15.625000
9248		19.531250
9249		17.578125
9250		21.484375
9251		19.531250
9252		23.437500
9253		21.484375
9254		25.390625
9255		25.390625
9256		29.296875
9257		27.343750
9258		31.250000
9259		29.296875
9260		33.203125
9261		29.296875
9262		35.156250
9263		33.203125
9264		39.062500
9265		37.109375
9266		41.015625
9267		39.062500
9268		42.968750
9269		41.015625
9270		44.921875
9271		42.968750
9272		46.875000
9273		44.921875
9274		48.828125
9275		46.875000
9276		50.781250
9277		48.828125
9278		54.687500
9279		50.781250
9280		56.640625
9281		52.734375
9282		58.593750
9283		56.640625
9284		60.546875
9285		58.593750
9286		62.500000
9287		60.546875
9288		64.453125
9289		62.500000
9290		66.406250
9291		64.453125
9292		68.359375
9293		66.406250
9294		70.312500
9295		68.359375
9296		72.265625
9297		70.312500
9298		74.218750
9299		70.312500
9300		74.218750
9301		72.265625
9302		78.125000
9303		74.218750
9304		78.125000
9305		76.171875
9306		80.078125
9307		78.125000
9308		82.031250
9309		80.078125
9310		83.984375
9311		82.031250
9312		85.937500
9313		82.031250
9314		85.937500
9315		83.984375
9316		87.890625
9317		85.937500
9318		89.843750
9319		87.890625
9320		89.843750
9321		87.890625
9322		91.796875
9323		87.890625
9324		91.796875
9325		89.843750
9326		93.750000
9327		91.796875
9328		95.703125
9329		91.796875
9330		97.656250
9331		93.750000
9332		97.656250
9333		93.750000
9334		97.656250
9335		95.703125
9336		99.609375
9337		95.703125
9338		99.609375
9339		97.656250
9340		99.609375
9341		97.656250
9342		99.609375
9343		99.609375
9344		101.562500
9345		97.656250
9346		101.562500
9347		99.609375
9348		103.515625
9349		99.609375
9350		103.515625
9351		99.609375
9352		103.515625
9353		99.609375
9354		103.515625
9355		101.562500
9356		105.468750
9357		101.562500
9358		105.468750
9359		101.562500
9360		105.468750
9361		101.562500
9362		105.468750
9363		101.562500
9364		105.468750
9365		101.562500
9366		105.468750
9367		101.562500
9368		105.468750
9369		101.562500
9370		105.468750
9371		101.562500
9372		105.468750
9373		101.562500
9374		105.468750
9375		101.562500
9376		103.515625
9377		101.562500
9378		103.515625
9379		101.562500
9380		105.468750
9381		101.562500
9382		103.515625
9383		99.609375
9384		103.515625
9385		99.609375
9386		103.515625
9387		99.609375
9388		101.562500
9389		99.609375
9390		103.515625
9391		97.656250
9392		101.562500
9393		97.656250
9394		99.609375
9395		95.703125
9396		99.609375
9397		95.703125
9398		99.609375
9399		95.703125
9400		97.656250
9401		93.750000
9402		97.656250
9403		93.750000
9404		97.656250
9405		91.796875
9406		95.703125
9407		91.796875
9408		95.703125
9409		89.843750
9410		93.750000
9411		87.890625
9412		91.796875
9413		87.890625
9414		89.843750
9415		85.937500
9416		89.843750
9417		83.984375
9418		87.890625
9419		83.984375
9420		85.937500
9421		82.031250
9422		85.937500
9423		80.078125
9424		83.984375
9425		78.125000
9426		82.031250
9427		78.125000
9428		80.078125
9429		76.171875
9430		80.078125
9431		74.218750
9432		78.125000
9433		72.265625
9434		76.171875
9435		70.312500
9436		74.218750
9437		68.359375
9438		72.265625
9439		66.406250
9440		70.312500
9441		64.453125
9442		68.359375
9443		62.500000
9444		66.406250
9445		60.546875
9446		64.453125
9447		58.593750
9448		62.500000
9449		56.640625
9450		60.546875
9451		54.687500
9452		58.593750
9453		52.734375
9454		56.640625
9455		50.781250
9456		54.687500
9457		46.875000
9458		52.734375
9459		44.921875
9460		48.828125
9461		42.968750
9462		46.875000
9463		41.015625
9464		44.921875
9465		39.062500
9466		42.968750
9467		37.109375
9468		41.015625
9469		33.203125
9470		39.062500
9471		31.250000
9472		35.156250
9473		29.296875
9474		33.203125
9475		27.343750
9476		31.250000
9477		23.437500
9478		27.343750
9479		21.484375
9480		27.343750
9481		19.531250
9482		23.437500
9483		17.578125
9484		21.484375
9485		13.671875
9486		17.578125
9487		11.718750
9488		15.625000
9489		9.765625
9490		13.671875
9491		5.859375
9492		11.718750
9493		3.906250
9494		7.812500
9495		1.953125
9496		5.859375
9497		0.000000
9498		3.906250
9499		-3.906250
9500		1.953125
9501		-5.859375
9502		-1.953125
9503		-7.812500
9504		-3.906250
9505		-9.765625
9506		-5.859375
9507		-13.671875
9508		-7.812500
9509		-15.625000
9510		-11.718750
9511		-17.578125
9512		-13.671875
9513		-21.484375
9514		-15.625000
9515		-23.437500
9516		-17.578125
9517		-25.390625
9518		-21.484375
9519		-27.343750
9520		-23.437500
9521		-29.296875
9522		-25.390625
9523		-33.203125
9524		-27.343750
9525		-35.156250
9526		-29.296875
9527		-37.109375
9528		-33.203125
9529		-39.062500
9530		-35.156250
9531		-41.015625
9532		-37.109375
9533		-42.968750
9534		-39.062500
9535		-44.921875
9536		-41.015625
9537		-46.875000
9538		-42.968750
9539		-50.781250
9540		-44.921875
9541		-50.781250
9542		-46.875000
9543		-52.734375
9544		-48.828125
9545		-56.640625
9546		-50.781250
9547		-56.640625
9548		-52.734375
9549		-58.593750
9550		-54.687500
9551		-60.546875
9552		-56.640625
9553		-62.500000
9554		-58.593750
9555		-64.453125
9556		-58.593750
9557		-64.453125
9558		-58.593750
9559		-66.406250
9560		-62.500000
9561		-68.359375
9562		-64.453125
9563		-70.312500
9564		-64.453125
9565		-70.312500
9566		-66.406250
9567		-72.265625
9568		-68.359375
9569		-74.218750
9570		-70.312500
9571		-74.218750
9572		-70.312500
9573		-78.125000
9574		-70.312500
9575		-76.171875
9576		-72.265625
9577		-76.171875
9578		-74.218750
9579		-80.078125
9580		-74.218750
9581		-80.078125
9582		-74.218750
9583		-80.078125
9584		-76.171875
9585		-80.078125
9586		-76.171875
9587		-80.078125
9588		-78.125000
9589		-83.984375
9590		-78.125000
9591		-83.984375
9592		-78.125000
9593		-82.031250
9594		-80.078125
9595		-82.031250
9596		-80.078125
9597		-83.984375
9598		-78.125000
9599		-83.984375
9600		-78.125000
9601		-83.984375
9602		-78.125000
9603		-83.984375
9604		-78.125000
9605		-82.031250
9606		-80.078125
9607		-83.984375
9608		-78.125000
9609		-82.031250
9610		-80.078125
9611		-82.031250
9612		-80.078125
9613		-82.031250
9614		-76.171875
9615		-83.984375
9616		-76.171875
9617		-82.031250
9618		-76.171875
9619		-80.078125
9620		-76.171875
9621		-82.031250
9622		-76.171875
9623		-80.078125
9624		-74.218750
9625		-80.078125
9626		-74.218750
9627		-78.125000
9628		-74.218750
9629		-76.171875
9630		-72.265625
9631		-76.171875
9632		-70.312500
9633		-76.171875
9634		-70.312500
9635		-74.218750
9636		-66.406250
9637		-72.265625
9638		-66.406250
9639		-72.265625
9640		-66.406250
9641		-70.312500
9642		-64.453125
9643		-68.359375
9644		-64.453125
9645		-66.406250
9646		-62.500000
9647		-66.406250
9648		-60.546875
9649		-64.453125
9650		-58.593750
9651		-62.500000
9652		-56.640625
9653		-62.500000
9654		-54.687500
9655		-60.546875
9656		-52.734375
9657		-58.593750
9658		-50.781250
9659		-54.687500
9660		-50.781250
9661		-52.734375
9662		-48.828125
9663		-50.781250
9664		-46.875000
9665		-48.828125
9666		-42.968750
9667		-48.828125
9668		-41.015625
9669		-46.875000
9670		-39.062500
9671		-44.921875
9672		-37.109375
9673		-42.968750
9674		-35.156250
9675		-41.015625
9676		-33.203125
9677		-35.156250
9678		-31.250000
9679		-33.203125
9680		-29.296875
9681		-33.203125
9682		-25.390625
9683		-31.250000
9684		-23.437500
9685		-29.296875
9686		-19.531250
9687		-25.390625
9688		-17.578125
9689		-23.437500
9690		-15.625000
9691		-21.484375
9692		-13.671875
9693		-17.578125
9694		-13.671875
9695		-13.671875
9696		-9.765625
9697		-11.718750
9698		-5.859375
9699		-11.718750
9700		-5.859375
9701		-7.812500
9702		-1.953125
9703		-5.859375
9704		0.000000
9705		-3.906250
9706		1.953125
9707		-1.953125
9708		5.859375
9709		1.953125
9710		7.812500
9711		5.859375
9712		9.765625
9713		7.812500
9714		13.671875
9715		7.812500
9716		15.625000
9717		11.718750
9718		17.578125
9719		13.671875
9720		19.531250
9721		15.625000
9722		23.437500
9723		17.578125
9724		25.390625
9725		21.484375
9726		27.343750
9727		25.390625
9728		29.296875
9729		27.343750
9730		31.250000
9731		29.296875
9732		37.109375
9733		31.250000
9734		37.109375
9735		31.250000
9736		41.015625
9737		35.156250
9738		42.968750
9739		37.109375
9740		44.921875
9741		39.062500
9742		46.875000
9743		41.015625
9744		46.875000
9745		44.921875
9746		48.828125
9747		46.875000
9748		54.687500
9749		48.828125
9750		56.640625
9751		50.781250
9752		58.593750
9753		52.734375
9754		60.546875
9755		54.687500
9756		62.500000
9757		56.640625
9758		64.453125
9759		58.593750
9760		64.453125
9761		62.500000
9762		66.406250
9763		64.453125
9764		68.359375
9765		64.453125
9766		72.265625
9767		66.406250
9768		72.265625
9769		66.406250
9770		74.218750
9771		70.312500
9772		76.171875
9773		70.312500
9774		78.125000
9775		72.265625
9776		80.078125
9777		76.171875
9778		80.078125
9779		78.125000
9780		82.031250
9781		78.125000
9782		83.984375
9783		78.125000
9784		85.937500
9785		80.078125
9786		87.890625
9787		82.031250
9788		89.843750
9789		82.031250
9790		89.843750
9791		83.984375
9792		91.796875
9793		85.937500
9794		91.796875
9795		89.843750
9796		91.796875
9797		89.843750
9798		93.750000
9799		89.843750
9800		95.703125
9801		89.843750
9802		97.656250
9803		89.843750
9804		97.656250
9805		91.796875
9806		99.609375
9807		93.750000
9808		99.609375
9809		93.750000
9810		101.562500
9811		95.703125
9812		99.609375
9813		97.656250
9814		101.562500
9815		95.703125
9816		103.515625
9817		97.656250
9818		103.515625
9819		97.656250
9820		103.515625
9821		97.656250
9822		105.468750
9823		97.656250
9824		105.468750
9825		99.609375
9826		105.468750
9827		99.609375
9828		105.468750
9829		101.562500
9830		103.515625
9831		99.609375
9832		105.468750
9833		99.609375
9834		105.468750
9835		99.609375
9836		107.421875
9837		99.609375
9838		105.468750
9839		99.609375
9840		107.421875
9841		99.609375
9842		105.468750
9843		99.609375
9844		105.468750
9845		101.562500
9846		103.515625
9847		101.562500
9848		103.515625
9849		99.609375
9850		105.468750
9851		99.609375
9852		105.468750
9853		97.656250
9854		105.468750
9855		97.656250
9856		103.515625
9857		97.656250
9858		103.515625
9859		95.703125
9860		103.515625
9861		97.656250
9862		101.562500
9863		97.656250
9864		99.609375
9865		95.703125
9866		101.562500
9867		93.750000
9868		99.609375
9869		91.796875
9870		99.609375
9871		91.796875
9872		99.609375
9873		89.843750
9874		97.656250
9875		89.843750
9876		97.656250
9877		89.843750
9878		95.703125
9879		89.843750
9880		91.796875
9881		87.890625
9882		91.796875
9883		85.937500
9884		91.796875
9885		83.984375
9886		89.843750
9887		82.031250
9888		89.843750
9889		80.078125
9890		87.890625
9891		80.078125
9892		85.937500
9893		78.125000
9894		85.937500
9895		78.125000
9896		82.031250
9897		78.125000
9898		80.078125
9899		72.265625
9900		80.078125
9901		72.265625
9902		78.125000
9903		70.312500
9904		78.125000
9905		68.359375
9906		76.171875
9907		66.406250
9908		74.218750
9909		64.453125
9910		72.265625
9911		64.453125
9912		70.312500
9913		62.500000
9914		66.406250
9915		58.593750
9916		64.453125
9917		56.640625
9918		64.453125
9919		54.687500
9920		62.500000
9921		52.734375
9922		60.546875
9923		50.781250
9924		58.593750
9925		48.828125
9926		56.640625
9927		46.875000
9928		52.734375
9929		44.921875
9930		48.828125
9931		42.968750
9932		46.875000
9933		39.062500
9934		46.875000
9935		37.109375
9936		44.921875
9937		35.156250
9938		42.968750
9939		33.203125
9940		39.062500
9941		29.296875
9942		37.109375
9943		25.390625
9944		35.156250
9945		27.343750
9946		31.250000
9947		23.437500
9948		29.296875
9949		19.531250
9950		27.343750
9951		17.578125
9952		25.390625
9953		15.625000
9954		23.437500
9955		13.671875
9956		21.484375
9957		11.718750
9958		17.578125
9959		7.812500
9960		15.625000
9961		5.859375
9962		11.718750
9963		3.906250
9964		7.812500
9965		1.953125
9966		5.859375
9967		-1.953125
9968		5.859375
9969		-5.859375
9970		3.906250
9971		-7.812500
9972		0.000000
9973		-9.765625
9974		-1.953125
9975		-11.718750
9976		-3.906250
9977		-13.671875
9978		-5.859375
9979		-15.625000
9980		-9.765625
9981		-17.578125
9982		-13.671875
9983		-21.484375
9984		-15.625000
9985		-23.437500
9986		-17.578125
9987		-27.343750
9988		-17.578125
9989		-29.296875
9990		-21.484375
9991		-31.250000
9992		-23.437500
9993		-33.203125
9994		-25.390625
9995		-35.156250
9996		-27.343750
9997		-35.156250
9998		-31.250000
9999		-39.062500
10000		-35.156250
