Channel              :		CH1
Frequency            :		1.060kHz
Period               :		0.944ms
PK-PK                :		130.9mV
Probe attenuation    :		1X
Voltage per ADC value:		0.122070mV
Time interval        :		2.00000us

index		CH1_Voltage(mV)
1		31.250000
2		31.250000
3		35.156250
4		29.296875
5		33.203125
6		29.296875
7		33.203125
8		27.343750
9		31.250000
10		25.390625
11		29.296875
12		23.437500
13		27.343750
14		23.437500
15		25.390625
16		21.484375
17		25.390625
18		19.531250
19		23.437500
20		17.578125
21		21.484375
22		17.578125
23		19.531250
24		15.625000
25		17.578125
26		13.671875
27		17.578125
28		11.718750
29		15.625000
30		9.765625
31		13.671875
32		7.812500
33		11.718750
34		7.812500
35		9.765625
36		5.859375
37		7.812500
38		3.906250
39		7.812500
40		1.953125
41		5.859375
42		0.000000
43		3.906250
44		-1.953125
45		1.953125
46		-1.953125
47		1.953125
48		-3.906250
49		0.000000
50		-5.859375
51		-1.953125
52		-7.812500
53		-3.906250
54		-9.765625
55		-5.859375
56		-11.718750
57		-7.812500
58		-11.718750
59		-9.765625
60		-13.671875
61		-9.765625
62		-15.625000
63		-11.718750
64		-17.578125
65		-13.671875
66		-19.531250
67		-15.625000
68		-21.484375
69		-17.578125
70		-21.484375
71		-19.531250
72		-23.437500
73		-19.531250
74		-25.390625
75		-21.484375
76		-27.343750
77		-23.437500
78		-27.343750
79		-25.390625
80		-29.296875
81		-25.390625
82		-31.250000
83		-27.343750
84		-33.203125
85		-27.343750
86		-33.203125
87		-31.250000
88		-35.156250
89		-31.250000
90		-37.109375
91		-33.203125
92		-37.109375
93		-33.203125
94		-39.062500
95		-35.156250
96		-41.015625
97		-37.109375
98		-41.015625
99		-39.062500
100		-42.968750
101		-39.062500
102		-42.968750
103		-41.015625
104		-44.921875
105		-41.015625
106		-46.875000
107		-42.968750
108		-46.875000
109		-42.968750
110		-48.828125
111		-44.921875
112		-48.828125
113		-44.921875
114		-50.781250
115		-46.875000
116		-52.734375
117		-48.828125
118		-50.781250
119		-48.828125
120		-52.734375
121		-48.828125
122		-54.687500
123		-50.781250
124		-54.687500
125		-50.781250
126		-54.687500
127		-50.781250
128		-54.687500
129		-52.734375
130		-56.640625
131		-52.734375
132		-56.640625
133		-54.687500
134		-56.640625
135		-52.734375
136		-56.640625
137		-54.687500
138		-58.593750
139		-54.687500
140		-58.593750
141		-56.640625
142		-58.593750
143		-54.687500
144		-58.593750
145		-56.640625
146		-60.546875
147		-56.640625
148		-60.546875
149		-56.640625
150		-60.546875
151		-56.640625
152		-58.593750
153		-56.640625
154		-58.593750
155		-56.640625
156		-60.546875
157		-56.640625
158		-60.546875
159		-56.640625
160		-60.546875
161		-56.640625
162		-58.593750
163		-56.640625
164		-60.546875
165		-56.640625
166		-58.593750
167		-56.640625
168		-60.546875
169		-56.640625
170		-58.593750
171		-56.640625
172		-58.593750
173		-54.687500
174		-58.593750
175		-54.687500
176		-56.640625
177		-54.687500
178		-56.640625
179		-52.734375
180		-56.640625
181		-52.734375
182		-54.687500
183		-52.734375
184		-54.687500
185		-50.781250
186		-54.687500
187		-50.781250
188		-54.687500
189		-50.781250
190		-52.734375
191		-48.828125
192		-52.734375
193		-48.828125
194		-50.781250
195		-46.875000
196		-50.781250
197		-46.875000
198		-48.828125
199		-44.921875
200		-48.828125
201		-44.921875
202		-46.875000
203		-44.921875
204		-44.921875
205		-42.968750
206		-46.875000
207		-41.015625
208		-44.921875
209		-41.015625
210		-42.968750
211		-39.062500
212		-41.015625
213		-39.062500
214		-41.015625
215		-37.109375
216		-39.062500
217		-37.109375
218		-39.062500
219		-35.156250
220		-37.109375
221		-33.203125
222		-35.156250
223		-31.250000
224		-33.203125
225		-29.296875
226		-33.203125
227		-29.296875
228		-31.250000
229		-27.343750
230		-31.250000
231		-25.390625
232		-29.296875
233		-25.390625
234		-27.343750
235		-23.437500
236		-25.390625
237		-21.484375
238		-23.437500
239		-21.484375
240		-23.437500
241		-19.531250
242		-21.484375
243		-17.578125
244		-19.531250
245		-15.625000
246		-17.578125
247		-13.671875
248		-15.625000
249		-11.718750
250		-15.625000
251		-11.718750
252		-15.625000
253		-9.765625
254		-11.718750
255		-7.812500
256		-9.765625
257		-5.859375
258		-7.812500
259		-3.906250
260		-5.859375
261		-3.906250
262		-5.859375
263		-1.953125
264		-3.906250
265		0.000000
266		-1.953125
267		1.953125
268		0.000000
269		3.906250
270		1.953125
271		3.906250
272		1.953125
273		7.812500
274		3.906250
275		7.812500
276		5.859375
277		9.765625
278		7.812500
279		11.718750
280		9.765625
281		13.671875
282		9.765625
283		15.625000
284		11.718750
285		15.625000
286		15.625000
287		17.578125
288		15.625000
289		19.531250
290		15.625000
291		21.484375
292		19.531250
293		21.484375
294		19.531250
295		23.437500
296		21.484375
297		25.390625
298		23.437500
299		27.343750
300		25.390625
301		27.343750
302		25.390625
303		29.296875
304		27.343750
305		31.250000
306		29.296875
307		33.203125
308		31.250000
309		35.156250
310		31.250000
311		35.156250
312		33.203125
313		37.109375
314		35.156250
315		37.109375
316		35.156250
317		39.062500
318		37.109375
319		41.015625
320		39.062500
321		41.015625
322		39.062500
323		42.968750
324		39.062500
325		44.921875
326		42.968750
327		44.921875
328		42.968750
329		46.875000
330		44.921875
331		46.875000
332		44.921875
333		48.828125
334		46.875000
335		50.781250
336		46.875000
337		50.781250
338		48.828125
339		50.781250
340		48.828125
341		52.734375
342		50.781250
343		54.687500
344		50.781250
345		54.687500
346		52.734375
347		56.640625
348		52.734375
349		56.640625
350		52.734375
351		56.640625
352		54.687500
353		56.640625
354		56.640625
355		58.593750
356		56.640625
357		60.546875
358		56.640625
359		60.546875
360		56.640625
361		60.546875
362		58.593750
363		62.500000
364		58.593750
365		60.546875
366		58.593750
367		62.500000
368		60.546875
369		62.500000
370		60.546875
371		62.500000
372		60.546875
373		62.500000
374		60.546875
375		64.453125
376		60.546875
377		64.453125
378		60.546875
379		64.453125
380		62.500000
381		64.453125
382		62.500000
383		64.453125
384		62.500000
385		64.453125
386		62.500000
387		66.406250
388		62.500000
389		64.453125
390		62.500000
391		66.406250
392		62.500000
393		66.406250
394		62.500000
395		66.406250
396		62.500000
397		64.453125
398		62.500000
399		64.453125
400		62.500000
401		64.453125
402		62.500000
403		66.406250
404		62.500000
405		64.453125
406		62.500000
407		64.453125
408		60.546875
409		64.453125
410		60.546875
411		64.453125
412		60.546875
413		62.500000
414		60.546875
415		62.500000
416		60.546875
417		62.500000
418		58.593750
419		62.500000
420		58.593750
421		62.500000
422		58.593750
423		60.546875
424		56.640625
425		60.546875
426		56.640625
427		60.546875
428		56.640625
429		58.593750
430		54.687500
431		58.593750
432		54.687500
433		58.593750
434		54.687500
435		56.640625
436		52.734375
437		56.640625
438		52.734375
439		54.687500
440		50.781250
441		54.687500
442		50.781250
443		54.687500
444		48.828125
445		52.734375
446		48.828125
447		52.734375
448		46.875000
449		50.781250
450		44.921875
451		48.828125
452		44.921875
453		48.828125
454		44.921875
455		46.875000
456		42.968750
457		46.875000
458		41.015625
459		44.921875
460		41.015625
461		44.921875
462		39.062500
463		42.968750
464		37.109375
465		41.015625
466		37.109375
467		41.015625
468		35.156250
469		39.062500
470		35.156250
471		39.062500
472		33.203125
473		37.109375
474		31.250000
475		35.156250
476		29.296875
477		33.203125
478		29.296875
479		33.203125
480		27.343750
481		31.250000
482		25.390625
483		29.296875
484		23.437500
485		27.343750
486		23.437500
487		27.343750
488		21.484375
489		25.390625
490		19.531250
491		23.437500
492		17.578125
493		21.484375
494		17.578125
495		19.531250
496		15.625000
497		19.531250
498		13.671875
499		17.578125
500		11.718750
501		15.625000
502		9.765625
503		13.671875
504		7.812500
505		11.718750
506		7.812500
507		9.765625
508		5.859375
509		9.765625
510		3.906250
511		7.812500
512		1.953125
513		5.859375
514		0.000000
515		3.906250
516		-1.953125
517		1.953125
518		-3.906250
519		1.953125
520		-3.906250
521		0.000000
522		-5.859375
523		-1.953125
524		-7.812500
525		-3.906250
526		-9.765625
527		-5.859375
528		-11.718750
529		-5.859375
530		-11.718750
531		-9.765625
532		-15.625000
533		-9.765625
534		-15.625000
535		-11.718750
536		-19.531250
537		-13.671875
538		-19.531250
539		-15.625000
540		-19.531250
541		-17.578125
542		-21.484375
543		-19.531250
544		-23.437500
545		-19.531250
546		-25.390625
547		-21.484375
548		-27.343750
549		-23.437500
550		-27.343750
551		-25.390625
552		-29.296875
553		-25.390625
554		-31.250000
555		-27.343750
556		-31.250000
557		-29.296875
558		-35.156250
559		-31.250000
560		-35.156250
561		-31.250000
562		-37.109375
563		-33.203125
564		-37.109375
565		-35.156250
566		-39.062500
567		-35.156250
568		-41.015625
569		-37.109375
570		-42.968750
571		-39.062500
572		-42.968750
573		-39.062500
574		-42.968750
575		-41.015625
576		-44.921875
577		-41.015625
578		-46.875000
579		-42.968750
580		-46.875000
581		-42.968750
582		-48.828125
583		-44.921875
584		-48.828125
585		-44.921875
586		-50.781250
587		-46.875000
588		-50.781250
589		-46.875000
590		-50.781250
591		-48.828125
592		-52.734375
593		-48.828125
594		-52.734375
595		-50.781250
596		-54.687500
597		-50.781250
598		-54.687500
599		-50.781250
600		-54.687500
601		-52.734375
602		-56.640625
603		-52.734375
604		-56.640625
605		-52.734375
606		-56.640625
607		-54.687500
608		-56.640625
609		-54.687500
610		-58.593750
611		-54.687500
612		-58.593750
613		-54.687500
614		-58.593750
615		-54.687500
616		-58.593750
617		-54.687500
618		-58.593750
619		-54.687500
620		-58.593750
621		-56.640625
622		-58.593750
623		-56.640625
624		-58.593750
625		-56.640625
626		-60.546875
627		-54.687500
628		-58.593750
629		-56.640625
630		-58.593750
631		-56.640625
632		-58.593750
633		-56.640625
634		-58.593750
635		-56.640625
636		-58.593750
637		-56.640625
638		-60.546875
639		-54.687500
640		-58.593750
641		-54.687500
642		-58.593750
643		-54.687500
644		-58.593750
645		-54.687500
646		-56.640625
647		-54.687500
648		-56.640625
649		-52.734375
650		-56.640625
651		-52.734375
652		-54.687500
653		-52.734375
654		-54.687500
655		-50.781250
656		-54.687500
657		-50.781250
658		-52.734375
659		-50.781250
660		-52.734375
661		-50.781250
662		-52.734375
663		-48.828125
664		-50.781250
665		-48.828125
666		-50.781250
667		-46.875000
668		-48.828125
669		-46.875000
670		-48.828125
671		-44.921875
672		-48.828125
673		-42.968750
674		-46.875000
675		-42.968750
676		-44.921875
677		-41.015625
678		-44.921875
679		-41.015625
680		-44.921875
681		-39.062500
682		-42.968750
683		-39.062500
684		-41.015625
685		-37.109375
686		-39.062500
687		-35.156250
688		-39.062500
689		-35.156250
690		-37.109375
691		-33.203125
692		-37.109375
693		-33.203125
694		-35.156250
695		-31.250000
696		-33.203125
697		-29.296875
698		-31.250000
699		-29.296875
700		-31.250000
701		-27.343750
702		-29.296875
703		-25.390625
704		-27.343750
705		-23.437500
706		-27.343750
707		-23.437500
708		-23.437500
709		-21.484375
710		-23.437500
711		-19.531250
712		-21.484375
713		-17.578125
714		-19.531250
715		-17.578125
716		-17.578125
717		-15.625000
718		-17.578125
719		-13.671875
720		-15.625000
721		-11.718750
722		-13.671875
723		-9.765625
724		-11.718750
725		-9.765625
726		-9.765625
727		-5.859375
728		-9.765625
729		-5.859375
730		-7.812500
731		-3.906250
732		-5.859375
733		-1.953125
734		-3.906250
735		0.000000
736		-1.953125
737		1.953125
738		0.000000
739		3.906250
740		0.000000
741		3.906250
742		1.953125
743		5.859375
744		3.906250
745		7.812500
746		5.859375
747		9.765625
748		7.812500
749		11.718750
750		9.765625
751		11.718750
752		9.765625
753		13.671875
754		11.718750
755		15.625000
756		13.671875
757		17.578125
758		15.625000
759		17.578125
760		15.625000
761		21.484375
762		17.578125
763		21.484375
764		19.531250
765		23.437500
766		21.484375
767		25.390625
768		23.437500
769		27.343750
770		23.437500
771		27.343750
772		25.390625
773		29.296875
774		27.343750
775		29.296875
776		29.296875
777		31.250000
778		29.296875
779		33.203125
780		31.250000
781		35.156250
782		33.203125
783		35.156250
784		33.203125
785		37.109375
786		35.156250
787		39.062500
788		37.109375
789		41.015625
790		37.109375
791		41.015625
792		39.062500
793		42.968750
794		41.015625
795		42.968750
796		41.015625
797		44.921875
798		42.968750
799		44.921875
800		42.968750
801		46.875000
802		44.921875
803		48.828125
804		46.875000
805		48.828125
806		46.875000
807		50.781250
808		48.828125
809		50.781250
810		48.828125
811		52.734375
812		48.828125
813		54.687500
814		50.781250
815		54.687500
816		50.781250
817		54.687500
818		52.734375
819		54.687500
820		52.734375
821		56.640625
822		54.687500
823		58.593750
824		54.687500
825		58.593750
826		56.640625
827		58.593750
828		56.640625
829		60.546875
830		56.640625
831		60.546875
832		56.640625
833		60.546875
834		58.593750
835		60.546875
836		58.593750
837		62.500000
838		60.546875
839		62.500000
840		58.593750
841		62.500000
842		60.546875
843		62.500000
844		60.546875
845		64.453125
846		60.546875
847		64.453125
848		60.546875
849		64.453125
850		62.500000
851		64.453125
852		60.546875
853		64.453125
854		62.500000
855		64.453125
856		60.546875
857		66.406250
858		62.500000
859		64.453125
860		62.500000
861		64.453125
862		62.500000
863		66.406250
864		62.500000
865		64.453125
866		62.500000
867		64.453125
868		62.500000
869		64.453125
870		62.500000
871		64.453125
872		62.500000
873		64.453125
874		60.546875
875		64.453125
876		62.500000
877		64.453125
878		60.546875
879		64.453125
880		60.546875
881		64.453125
882		60.546875
883		64.453125
884		60.546875
885		64.453125
886		60.546875
887		62.500000
888		58.593750
889		62.500000
890		58.593750
891		62.500000
892		58.593750
893		60.546875
894		56.640625
895		60.546875
896		56.640625
897		60.546875
898		56.640625
899		60.546875
900		56.640625
901		58.593750
902		56.640625
903		58.593750
904		54.687500
905		58.593750
906		52.734375
907		56.640625
908		52.734375
909		56.640625
910		52.734375
911		54.687500
912		50.781250
913		56.640625
914		50.781250
915		52.734375
916		48.828125
917		52.734375
918		48.828125
919		50.781250
920		46.875000
921		50.781250
922		46.875000
923		50.781250
924		44.921875
925		48.828125
926		44.921875
927		46.875000
928		42.968750
929		46.875000
930		41.015625
931		44.921875
932		41.015625
933		44.921875
934		39.062500
935		42.968750
936		39.062500
937		41.015625
938		37.109375
939		41.015625
940		35.156250
941		39.062500
942		33.203125
943		37.109375
944		33.203125
945		37.109375
946		31.250000
947		35.156250
948		29.296875
949		33.203125
950		29.296875
951		31.250000
952		27.343750
953		31.250000
954		25.390625
955		29.296875
956		25.390625
957		27.343750
958		23.437500
959		27.343750
960		21.484375
961		25.390625
962		19.531250
963		23.437500
964		17.578125
965		21.484375
966		17.578125
967		19.531250
968		15.625000
969		19.531250
970		13.671875
971		17.578125
972		11.718750
973		15.625000
974		9.765625
975		13.671875
976		7.812500
977		11.718750
978		5.859375
979		9.765625
980		5.859375
981		9.765625
982		3.906250
983		7.812500
984		1.953125
985		5.859375
986		-1.953125
987		3.906250
988		-1.953125
989		1.953125
990		-3.906250
991		0.000000
992		-3.906250
993		-1.953125
994		-5.859375
995		-3.906250
996		-7.812500
997		-3.906250
998		-9.765625
999		-5.859375
1000		-11.718750
1001		-7.812500
1002		-13.671875
1003		-9.765625
1004		-15.625000
1005		-9.765625
1006		-15.625000
1007		-13.671875
1008		-17.578125
1009		-13.671875
1010		-19.531250
1011		-15.625000
1012		-21.484375
1013		-17.578125
1014		-23.437500
1015		-19.531250
1016		-23.437500
1017		-19.531250
1018		-25.390625
1019		-21.484375
1020		-27.343750
1021		-23.437500
1022		-29.296875
1023		-25.390625
1024		-29.296875
1025		-25.390625
1026		-31.250000
1027		-27.343750
1028		-31.250000
1029		-29.296875
1030		-35.156250
1031		-29.296875
1032		-35.156250
1033		-31.250000
1034		-37.109375
1035		-33.203125
1036		-37.109375
1037		-33.203125
1038		-39.062500
1039		-35.156250
1040		-41.015625
1041		-37.109375
1042		-41.015625
1043		-37.109375
1044		-42.968750
1045		-39.062500
1046		-44.921875
1047		-41.015625
1048		-44.921875
1049		-41.015625
1050		-46.875000
1051		-42.968750
1052		-46.875000
1053		-42.968750
1054		-48.828125
1055		-44.921875
1056		-48.828125
1057		-46.875000
1058		-50.781250
1059		-46.875000
1060		-50.781250
1061		-48.828125
1062		-52.734375
1063		-48.828125
1064		-52.734375
1065		-48.828125
1066		-52.734375
1067		-48.828125
1068		-52.734375
1069		-50.781250
1070		-54.687500
1071		-50.781250
1072		-54.687500
1073		-52.734375
1074		-56.640625
1075		-52.734375
1076		-56.640625
1077		-52.734375
1078		-56.640625
1079		-54.687500
1080		-56.640625
1081		-54.687500
1082		-56.640625
1083		-54.687500
1084		-58.593750
1085		-54.687500
1086		-58.593750
1087		-54.687500
1088		-58.593750
1089		-54.687500
1090		-58.593750
1091		-56.640625
1092		-58.593750
1093		-54.687500
1094		-58.593750
1095		-56.640625
1096		-58.593750
1097		-54.687500
1098		-58.593750
1099		-56.640625
1100		-58.593750
1101		-56.640625
1102		-58.593750
1103		-56.640625
1104		-58.593750
1105		-54.687500
1106		-58.593750
1107		-56.640625
1108		-58.593750
1109		-54.687500
1110		-56.640625
1111		-54.687500
1112		-56.640625
1113		-54.687500
1114		-58.593750
1115		-54.687500
1116		-56.640625
1117		-54.687500
1118		-56.640625
1119		-52.734375
1120		-56.640625
1121		-52.734375
1122		-54.687500
1123		-52.734375
1124		-54.687500
1125		-50.781250
1126		-54.687500
1127		-50.781250
1128		-52.734375
1129		-50.781250
1130		-52.734375
1131		-48.828125
1132		-52.734375
1133		-48.828125
1134		-50.781250
1135		-48.828125
1136		-50.781250
1137		-46.875000
1138		-48.828125
1139		-46.875000
1140		-48.828125
1141		-46.875000
1142		-48.828125
1143		-44.921875
1144		-46.875000
1145		-44.921875
1146		-46.875000
1147		-42.968750
1148		-44.921875
1149		-41.015625
1150		-44.921875
1151		-41.015625
1152		-42.968750
1153		-39.062500
1154		-42.968750
1155		-39.062500
1156		-41.015625
1157		-37.109375
1158		-39.062500
1159		-35.156250
1160		-37.109375
1161		-35.156250
1162		-37.109375
1163		-33.203125
1164		-37.109375
1165		-31.250000
1166		-33.203125
1167		-31.250000
1168		-33.203125
1169		-29.296875
1170		-31.250000
1171		-27.343750
1172		-29.296875
1173		-25.390625
1174		-29.296875
1175		-25.390625
1176		-27.343750
1177		-23.437500
1178		-25.390625
1179		-21.484375
1180		-23.437500
1181		-19.531250
1182		-23.437500
1183		-19.531250
1184		-21.484375
1185		-17.578125
1186		-19.531250
1187		-15.625000
1188		-19.531250
1189		-13.671875
1190		-15.625000
1191		-11.718750
1192		-15.625000
1193		-11.718750
1194		-13.671875
1195		-9.765625
1196		-11.718750
1197		-7.812500
1198		-9.765625
1199		-5.859375
1200		-7.812500
1201		-3.906250
1202		-7.812500
1203		-3.906250
1204		-5.859375
1205		-1.953125
1206		-3.906250
1207		0.000000
1208		-1.953125
1209		1.953125
1210		0.000000
1211		3.906250
1212		1.953125
1213		3.906250
1214		3.906250
1215		7.812500
1216		3.906250
1217		7.812500
1218		5.859375
1219		9.765625
1220		7.812500
1221		11.718750
1222		7.812500
1223		13.671875
1224		11.718750
1225		15.625000
1226		11.718750
1227		15.625000
1228		13.671875
1229		17.578125
1230		15.625000
1231		19.531250
1232		15.625000
1233		21.484375
1234		19.531250
1235		23.437500
1236		19.531250
1237		23.437500
1238		21.484375
1239		25.390625
1240		23.437500
1241		27.343750
1242		25.390625
1243		29.296875
1244		27.343750
1245		29.296875
1246		27.343750
1247		31.250000
1248		29.296875
1249		33.203125
1250		31.250000
1251		35.156250
1252		31.250000
1253		35.156250
1254		33.203125
1255		37.109375
1256		35.156250
1257		39.062500
1258		37.109375
1259		39.062500
1260		37.109375
1261		41.015625
1262		39.062500
1263		41.015625
1264		41.015625
1265		42.968750
1266		41.015625
1267		44.921875
1268		42.968750
1269		44.921875
1270		42.968750
1271		46.875000
1272		44.921875
1273		46.875000
1274		44.921875
1275		48.828125
1276		46.875000
1277		50.781250
1278		46.875000
1279		50.781250
1280		48.828125
1281		50.781250
1282		48.828125
1283		52.734375
1284		50.781250
1285		54.687500
1286		50.781250
1287		54.687500
1288		52.734375
1289		56.640625
1290		52.734375
1291		56.640625
1292		54.687500
1293		56.640625
1294		54.687500
1295		58.593750
1296		56.640625
1297		58.593750
1298		56.640625
1299		60.546875
1300		56.640625
1301		60.546875
1302		56.640625
1303		60.546875
1304		58.593750
1305		60.546875
1306		58.593750
1307		62.500000
1308		58.593750
1309		62.500000
1310		60.546875
1311		64.453125
1312		60.546875
1313		62.500000
1314		60.546875
1315		62.500000
1316		60.546875
1317		64.453125
1318		60.546875
1319		64.453125
1320		62.500000
1321		64.453125
1322		62.500000
1323		64.453125
1324		62.500000
1325		66.406250
1326		62.500000
1327		64.453125
1328		62.500000
1329		64.453125
1330		62.500000
1331		64.453125
1332		62.500000
1333		66.406250
1334		62.500000
1335		66.406250
1336		62.500000
1337		66.406250
1338		62.500000
1339		66.406250
1340		62.500000
1341		66.406250
1342		62.500000
1343		66.406250
1344		62.500000
1345		66.406250
1346		62.500000
1347		64.453125
1348		62.500000
1349		66.406250
1350		60.546875
1351		64.453125
1352		62.500000
1353		64.453125
1354		60.546875
1355		64.453125
1356		60.546875
1357		64.453125
1358		60.546875
1359		62.500000
1360		58.593750
1361		62.500000
1362		60.546875
1363		62.500000
1364		58.593750
1365		60.546875
1366		56.640625
1367		62.500000
1368		56.640625
1369		60.546875
1370		56.640625
1371		60.546875
1372		56.640625
1373		60.546875
1374		54.687500
1375		58.593750
1376		54.687500
1377		58.593750
1378		54.687500
1379		56.640625
1380		52.734375
1381		56.640625
1382		50.781250
1383		56.640625
1384		48.828125
1385		54.687500
1386		48.828125
1387		52.734375
1388		48.828125
1389		52.734375
1390		46.875000
1391		52.734375
1392		46.875000
1393		50.781250
1394		44.921875
1395		50.781250
1396		44.921875
1397		48.828125
1398		44.921875
1399		46.875000
1400		41.015625
1401		48.828125
1402		41.015625
1403		44.921875
1404		41.015625
1405		42.968750
1406		37.109375
1407		42.968750
1408		37.109375
1409		42.968750
1410		35.156250
1411		41.015625
1412		35.156250
1413		39.062500
1414		35.156250
1415		37.109375
1416		31.250000
1417		37.109375
1418		29.296875
1419		37.109375
1420		29.296875
1421		35.156250
1422		27.343750
1423		33.203125
1424		25.390625
1425		31.250000
1426		23.437500
1427		31.250000
1428		23.437500
1429		29.296875
1430		21.484375
1431		25.390625
1432		19.531250
1433		23.437500
1434		17.578125
1435		25.390625
1436		17.578125
1437		23.437500
1438		15.625000
1439		19.531250
1440		11.718750
1441		19.531250
1442		11.718750
1443		17.578125
1444		9.765625
1445		15.625000
1446		9.765625
1447		13.671875
1448		7.812500
1449		11.718750
1450		5.859375
1451		11.718750
1452		3.906250
1453		9.765625
1454		0.000000
1455		7.812500
1456		0.000000
1457		5.859375
1458		-1.953125
1459		5.859375
1460		-3.906250
1461		3.906250
1462		-3.906250
1463		0.000000
1464		-3.906250
1465		-1.953125
1466		-7.812500
1467		-1.953125
1468		-9.765625
1469		-3.906250
1470		-11.718750
1471		-5.859375
1472		-13.671875
1473		-5.859375
1474		-15.625000
1475		-7.812500
1476		-15.625000
1477		-9.765625
1478		-17.578125
1479		-11.718750
1480		-17.578125
1481		-13.671875
1482		-19.531250
1483		-15.625000
1484		-23.437500
1485		-15.625000
1486		-23.437500
1487		-17.578125
1488		-25.390625
1489		-19.531250
1490		-27.343750
1491		-19.531250
1492		-29.296875
1493		-21.484375
1494		-29.296875
1495		-23.437500
1496		-29.296875
1497		-25.390625
1498		-31.250000
1499		-27.343750
1500		-33.203125
1501		-29.296875
1502		-35.156250
1503		-29.296875
1504		-37.109375
1505		-29.296875
1506		-39.062500
1507		-33.203125
1508		-39.062500
1509		-33.203125
1510		-41.015625
1511		-33.203125
1512		-41.015625
1513		-35.156250
1514		-41.015625
1515		-39.062500
1516		-42.968750
1517		-39.062500
1518		-44.921875
1519		-39.062500
1520		-46.875000
1521		-39.062500
1522		-48.828125
1523		-41.015625
1524		-48.828125
1525		-42.968750
1526		-50.781250
1527		-42.968750
1528		-50.781250
1529		-44.921875
1530		-50.781250
1531		-46.875000
1532		-50.781250
1533		-46.875000
1534		-54.687500
1535		-46.875000
1536		-54.687500
1537		-46.875000
1538		-54.687500
1539		-48.828125
1540		-56.640625
1541		-48.828125
1542		-56.640625
1543		-48.828125
1544		-56.640625
1545		-50.781250
1546		-56.640625
1547		-50.781250
1548		-56.640625
1549		-52.734375
1550		-58.593750
1551		-52.734375
1552		-58.593750
1553		-52.734375
1554		-58.593750
1555		-52.734375
1556		-60.546875
1557		-52.734375
1558		-60.546875
1559		-52.734375
1560		-60.546875
1561		-52.734375
1562		-60.546875
1563		-54.687500
1564		-58.593750
1565		-56.640625
1566		-58.593750
1567		-56.640625
1568		-60.546875
1569		-52.734375
1570		-60.546875
1571		-54.687500
1572		-60.546875
1573		-54.687500
1574		-60.546875
1575		-52.734375
1576		-60.546875
1577		-52.734375
1578		-60.546875
1579		-54.687500
1580		-58.593750
1581		-54.687500
1582		-56.640625
1583		-54.687500
1584		-58.593750
1585		-52.734375
1586		-58.593750
1587		-52.734375
1588		-58.593750
1589		-52.734375
1590		-58.593750
1591		-50.781250
1592		-56.640625
1593		-50.781250
1594		-56.640625
1595		-50.781250
1596		-56.640625
1597		-50.781250
1598		-52.734375
1599		-50.781250
1600		-54.687500
1601		-48.828125
1602		-54.687500
1603		-46.875000
1604		-52.734375
1605		-46.875000
1606		-52.734375
1607		-46.875000
1608		-52.734375
1609		-44.921875
1610		-50.781250
1611		-44.921875
1612		-50.781250
1613		-42.968750
1614		-46.875000
1615		-44.921875
1616		-46.875000
1617		-42.968750
1618		-46.875000
1619		-41.015625
1620		-46.875000
1621		-39.062500
1622		-44.921875
1623		-39.062500
1624		-44.921875
1625		-37.109375
1626		-42.968750
1627		-35.156250
1628		-41.015625
1629		-35.156250
1630		-39.062500
1631		-35.156250
1632		-37.109375
1633		-33.203125
1634		-37.109375
1635		-31.250000
1636		-37.109375
1637		-29.296875
1638		-35.156250
1639		-27.343750
1640		-33.203125
1641		-27.343750
1642		-31.250000
1643		-25.390625
1644		-31.250000
1645		-23.437500
1646		-29.296875
1647		-23.437500
1648		-25.390625
1649		-23.437500
1650		-23.437500
1651		-21.484375
1652		-23.437500
1653		-17.578125
1654		-23.437500
1655		-15.625000
1656		-21.484375
1657		-15.625000
1658		-21.484375
1659		-13.671875
1660		-19.531250
1661		-11.718750
1662		-17.578125
1663		-9.765625
1664		-13.671875
1665		-9.765625
1666		-11.718750
1667		-9.765625
1668		-11.718750
1669		-5.859375
1670		-11.718750
1671		-3.906250
1672		-7.812500
1673		-1.953125
1674		-7.812500
1675		0.000000
1676		-5.859375
1677		0.000000
1678		-3.906250
1679		1.953125
1680		-1.953125
1681		3.906250
1682		0.000000
1683		3.906250
1684		1.953125
1685		5.859375
1686		1.953125
1687		9.765625
1688		3.906250
1689		9.765625
1690		5.859375
1691		11.718750
1692		5.859375
1693		13.671875
1694		7.812500
1695		15.625000
1696		9.765625
1697		17.578125
1698		13.671875
1699		17.578125
1700		15.625000
1701		17.578125
1702		15.625000
1703		21.484375
1704		17.578125
1705		23.437500
1706		19.531250
1707		23.437500
1708		19.531250
1709		25.390625
1710		21.484375
1711		27.343750
1712		23.437500
1713		27.343750
1714		23.437500
1715		29.296875
1716		27.343750
1717		31.250000
1718		29.296875
1719		33.203125
1720		27.343750
1721		35.156250
1722		29.296875
1723		37.109375
1724		31.250000
1725		37.109375
1726		33.203125
1727		39.062500
1728		33.203125
1729		41.015625
1730		35.156250
1731		41.015625
1732		39.062500
1733		41.015625
1734		39.062500
1735		42.968750
1736		39.062500
1737		44.921875
1738		39.062500
1739		46.875000
1740		41.015625
1741		48.828125
1742		41.015625
1743		48.828125
1744		42.968750
1745		48.828125
1746		44.921875
1747		50.781250
1748		46.875000
1749		50.781250
1750		48.828125
1751		50.781250
1752		46.875000
1753		54.687500
1754		48.828125
1755		56.640625
1756		48.828125
1757		56.640625
1758		50.781250
1759		56.640625
1760		50.781250
1761		58.593750
1762		52.734375
1763		58.593750
1764		52.734375
1765		58.593750
1766		54.687500
1767		58.593750
1768		56.640625
1769		58.593750
1770		54.687500
1771		62.500000
1772		56.640625
1773		62.500000
1774		56.640625
1775		62.500000
1776		56.640625
1777		64.453125
1778		56.640625
1779		64.453125
1780		58.593750
1781		64.453125
1782		60.546875
1783		62.500000
1784		60.546875
1785		62.500000
1786		58.593750
1787		66.406250
1788		60.546875
1789		66.406250
1790		60.546875
1791		66.406250
1792		60.546875
1793		66.406250
1794		60.546875
1795		66.406250
1796		60.546875
1797		66.406250
1798		60.546875
1799		66.406250
1800		62.500000
1801		66.406250
1802		62.500000
1803		68.359375
1804		60.546875
1805		68.359375
1806		60.546875
1807		68.359375
1808		60.546875
1809		68.359375
1810		60.546875
1811		68.359375
1812		62.500000
1813		68.359375
1814		60.546875
1815		68.359375
1816		64.453125
1817		66.406250
1818		62.500000
1819		64.453125
1820		60.546875
1821		66.406250
1822		60.546875
1823		66.406250
1824		60.546875
1825		66.406250
1826		60.546875
1827		66.406250
1828		58.593750
1829		66.406250
1830		58.593750
1831		66.406250
1832		58.593750
1833		64.453125
1834		60.546875
1835		62.500000
1836		56.640625
1837		62.500000
1838		56.640625
1839		64.453125
1840		56.640625
1841		62.500000
1842		54.687500
1843		62.500000
1844		54.687500
1845		62.500000
1846		52.734375
1847		60.546875
1848		54.687500
1849		60.546875
1850		54.687500
1851		56.640625
1852		54.687500
1853		56.640625
1854		50.781250
1855		56.640625
1856		50.781250
1857		56.640625
1858		48.828125
1859		56.640625
1860		46.875000
1861		54.687500
1862		46.875000
1863		54.687500
1864		46.875000
1865		52.734375
1866		46.875000
1867		50.781250
1868		44.921875
1869		48.828125
1870		41.015625
1871		48.828125
1872		41.015625
1873		48.828125
1874		41.015625
1875		46.875000
1876		39.062500
1877		46.875000
1878		37.109375
1879		44.921875
1880		37.109375
1881		42.968750
1882		37.109375
1883		42.968750
1884		35.156250
1885		39.062500
1886		33.203125
1887		39.062500
1888		31.250000
1889		39.062500
1890		29.296875
1891		37.109375
1892		29.296875
1893		35.156250
1894		27.343750
1895		35.156250
1896		25.390625
1897		33.203125
1898		23.437500
1899		31.250000
1900		25.390625
1901		27.343750
1902		23.437500
1903		25.390625
1904		19.531250
1905		25.390625
1906		17.578125
1907		25.390625
1908		15.625000
1909		23.437500
1910		15.625000
1911		21.484375
1912		13.671875
1913		21.484375
1914		11.718750
1915		19.531250
1916		9.765625
1917		15.625000
1918		9.765625
1919		13.671875
1920		5.859375
1921		13.671875
1922		5.859375
1923		11.718750
1924		1.953125
1925		9.765625
1926		1.953125
1927		9.765625
1928		0.000000
1929		7.812500
1930		-1.953125
1931		5.859375
1932		-1.953125
1933		3.906250
1934		-1.953125
1935		0.000000
1936		-3.906250
1937		-1.953125
1938		-7.812500
1939		0.000000
1940		-9.765625
1941		-1.953125
1942		-11.718750
1943		-3.906250
1944		-13.671875
1945		-5.859375
1946		-15.625000
1947		-7.812500
1948		-15.625000
1949		-9.765625
1950		-15.625000
1951		-9.765625
1952		-17.578125
1953		-13.671875
1954		-21.484375
1955		-13.671875
1956		-21.484375
1957		-15.625000
1958		-23.437500
1959		-15.625000
1960		-25.390625
1961		-17.578125
1962		-27.343750
1963		-19.531250
1964		-27.343750
1965		-21.484375
1966		-29.296875
1967		-23.437500
1968		-29.296875
1969		-25.390625
1970		-33.203125
1971		-25.390625
1972		-33.203125
1973		-27.343750
1974		-35.156250
1975		-27.343750
1976		-37.109375
1977		-29.296875
1978		-39.062500
1979		-31.250000
1980		-39.062500
1981		-31.250000
1982		-41.015625
1983		-33.203125
1984		-39.062500
1985		-37.109375
1986		-41.015625
1987		-37.109375
1988		-44.921875
1989		-37.109375
1990		-44.921875
1991		-37.109375
1992		-46.875000
1993		-39.062500
1994		-46.875000
1995		-41.015625
1996		-48.828125
1997		-41.015625
1998		-48.828125
1999		-42.968750
2000		-48.828125
2001		-42.968750
2002		-48.828125
2003		-46.875000
2004		-52.734375
2005		-44.921875
2006		-52.734375
2007		-44.921875
2008		-52.734375
2009		-46.875000
2010		-54.687500
2011		-46.875000
2012		-54.687500
2013		-46.875000
2014		-54.687500
2015		-48.828125
2016		-56.640625
2017		-48.828125
2018		-54.687500
2019		-52.734375
2020		-54.687500
2021		-52.734375
2022		-58.593750
2023		-50.781250
2024		-58.593750
2025		-50.781250
2026		-58.593750
2027		-50.781250
2028		-58.593750
2029		-52.734375
2030		-58.593750
2031		-52.734375
2032		-58.593750
2033		-52.734375
2034		-56.640625
2035		-54.687500
2036		-56.640625
2037		-54.687500
2038		-58.593750
2039		-52.734375
2040		-60.546875
2041		-52.734375
2042		-58.593750
2043		-52.734375
2044		-58.593750
2045		-52.734375
2046		-58.593750
2047		-52.734375
2048		-58.593750
2049		-52.734375
2050		-58.593750
2051		-52.734375
2052		-56.640625
2053		-54.687500
2054		-56.640625
2055		-52.734375
2056		-58.593750
2057		-50.781250
2058		-58.593750
2059		-50.781250
2060		-56.640625
2061		-50.781250
2062		-56.640625
2063		-50.781250
2064		-56.640625
2065		-48.828125
2066		-56.640625
2067		-48.828125
2068		-52.734375
2069		-50.781250
2070		-52.734375
2071		-50.781250
2072		-54.687500
2073		-46.875000
2074		-52.734375
2075		-46.875000
2076		-52.734375
2077		-46.875000
2078		-52.734375
2079		-44.921875
2080		-50.781250
2081		-44.921875
2082		-50.781250
2083		-42.968750
2084		-48.828125
2085		-42.968750
2086		-46.875000
2087		-42.968750
2088		-44.921875
2089		-41.015625
2090		-44.921875
2091		-39.062500
2092		-44.921875
2093		-39.062500
2094		-44.921875
2095		-37.109375
2096		-42.968750
2097		-35.156250
2098		-41.015625
2099		-33.203125
2100		-41.015625
2101		-33.203125
2102		-37.109375
2103		-33.203125
2104		-35.156250
2105		-33.203125
2106		-37.109375
2107		-29.296875
2108		-35.156250
2109		-29.296875
2110		-33.203125
2111		-27.343750
2112		-33.203125
2113		-25.390625
2114		-31.250000
2115		-23.437500
2116		-29.296875
2117		-23.437500
2118		-29.296875
2119		-23.437500
2120		-25.390625
2121		-21.484375
2122		-25.390625
2123		-17.578125
2124		-23.437500
2125		-17.578125
2126		-21.484375
2127		-15.625000
2128		-21.484375
2129		-13.671875
2130		-19.531250
2131		-11.718750
2132		-17.578125
2133		-9.765625
2134		-15.625000
2135		-9.765625
2136		-11.718750
2137		-9.765625
2138		-11.718750
2139		-5.859375
2140		-11.718750
2141		-3.906250
2142		-9.765625
2143		-1.953125
2144		-7.812500
2145		-1.953125
2146		-5.859375
2147		0.000000
2148		-5.859375
2149		1.953125
2150		-3.906250
2151		3.906250
2152		-1.953125
2153		3.906250
2154		1.953125
2155		5.859375
2156		1.953125
2157		7.812500
2158		3.906250
2159		9.765625
2160		3.906250
2161		11.718750
2162		5.859375
2163		13.671875
2164		7.812500
2165		13.671875
2166		9.765625
2167		15.625000
2168		11.718750
2169		17.578125
2170		15.625000
2171		17.578125
2172		15.625000
2173		21.484375
2174		15.625000
2175		23.437500
2176		17.578125
2177		25.390625
2178		19.531250
2179		25.390625
2180		21.484375
2181		27.343750
2182		21.484375
2183		29.296875
2184		23.437500
2185		31.250000
2186		27.343750
2187		29.296875
2188		29.296875
2189		31.250000
2190		27.343750
2191		35.156250
2192		29.296875
2193		35.156250
2194		29.296875
2195		37.109375
2196		31.250000
2197		39.062500
2198		33.203125
2199		41.015625
2200		33.203125
2201		41.015625
2202		35.156250
2203		41.015625
2204		39.062500
2205		41.015625
2206		39.062500
2207		44.921875
2208		39.062500
2209		46.875000
2210		41.015625
2211		46.875000
2212		41.015625
2213		48.828125
2214		42.968750
2215		50.781250
2216		42.968750
2217		50.781250
2218		44.921875
2219		50.781250
2220		48.828125
2221		50.781250
2222		48.828125
2223		52.734375
2224		48.828125
2225		54.687500
2226		48.828125
2227		56.640625
2228		50.781250
2229		56.640625
2230		50.781250
2231		56.640625
2232		52.734375
2233		58.593750
2234		52.734375
2235		58.593750
2236		54.687500
2237		58.593750
2238		56.640625
2239		58.593750
2240		54.687500
2241		62.500000
2242		56.640625
2243		62.500000
2244		56.640625
2245		62.500000
2246		56.640625
2247		62.500000
2248		58.593750
2249		64.453125
2250		58.593750
2251		64.453125
2252		58.593750
2253		64.453125
2254		60.546875
2255		64.453125
2256		58.593750
2257		66.406250
2258		60.546875
2259		66.406250
2260		60.546875
2261		66.406250
2262		60.546875
2263		66.406250
2264		60.546875
2265		68.359375
2266		60.546875
2267		68.359375
2268		60.546875
2269		68.359375
2270		62.500000
2271		66.406250
2272		64.453125
2273		66.406250
2274		62.500000
2275		68.359375
2276		62.500000
2277		68.359375
2278		62.500000
2279		68.359375
2280		62.500000
2281		68.359375
2282		62.500000
2283		68.359375
2284		62.500000
2285		68.359375
2286		62.500000
2287		68.359375
2288		64.453125
2289		66.406250
2290		60.546875
2291		68.359375
2292		60.546875
2293		68.359375
2294		60.546875
2295		68.359375
2296		60.546875
2297		66.406250
2298		60.546875
2299		66.406250
2300		60.546875
2301		66.406250
2302		60.546875
2303		66.406250
2304		60.546875
2305		62.500000
2306		60.546875
2307		62.500000
2308		58.593750
2309		64.453125
2310		56.640625
2311		64.453125
2312		56.640625
2313		62.500000
2314		54.687500
2315		62.500000
2316		54.687500
2317		62.500000
2318		54.687500
2319		60.546875
2320		54.687500
2321		58.593750
2322		54.687500
2323		56.640625
2324		50.781250
2325		58.593750
2326		50.781250
2327		58.593750
2328		50.781250
2329		56.640625
2330		48.828125
2331		56.640625
2332		48.828125
2333		54.687500
2334		46.875000
2335		52.734375
2336		46.875000
2337		52.734375
2338		46.875000
2339		48.828125
2340		42.968750
2341		48.828125
2342		42.968750
2343		48.828125
2344		41.015625
2345		48.828125
2346		41.015625
2347		46.875000
2348		39.062500
2349		46.875000
2350		37.109375
2351		44.921875
2352		37.109375
2353		42.968750
2354		37.109375
2355		41.015625
2356		35.156250
2357		39.062500
2358		31.250000
2359		39.062500
2360		31.250000
2361		37.109375
2362		29.296875
2363		37.109375
2364		27.343750
2365		35.156250
2366		27.343750
2367		33.203125
2368		25.390625
2369		33.203125
2370		25.390625
2371		31.250000
2372		25.390625
2373		27.343750
2374		21.484375
2375		27.343750
2376		19.531250
2377		27.343750
2378		17.578125
2379		25.390625
2380		15.625000
2381		23.437500
2382		15.625000
2383		21.484375
2384		13.671875
2385		19.531250
2386		11.718750
2387		19.531250
2388		11.718750
2389		15.625000
2390		9.765625
2391		13.671875
2392		5.859375
2393		13.671875
2394		3.906250
2395		11.718750
2396		3.906250
2397		9.765625
2398		1.953125
2399		7.812500
2400		0.000000
2401		7.812500
2402		-1.953125
2403		5.859375
2404		-1.953125
2405		1.953125
2406		-1.953125
2407		0.000000
2408		-5.859375
2409		0.000000
2410		-7.812500
2411		-1.953125
2412		-9.765625
2413		-1.953125
2414		-11.718750
2415		-3.906250
2416		-13.671875
2417		-5.859375
2418		-15.625000
2419		-7.812500
2420		-15.625000
2421		-9.765625
2422		-15.625000
2423		-13.671875
2424		-19.531250
2425		-13.671875
2426		-21.484375
2427		-13.671875
2428		-21.484375
2429		-15.625000
2430		-23.437500
2431		-17.578125
2432		-25.390625
2433		-17.578125
2434		-27.343750
2435		-19.531250
2436		-29.296875
2437		-21.484375
2438		-27.343750
2439		-25.390625
2440		-29.296875
2441		-25.390625
2442		-33.203125
2443		-25.390625
2444		-33.203125
2445		-27.343750
2446		-35.156250
2447		-27.343750
2448		-37.109375
2449		-29.296875
2450		-39.062500
2451		-31.250000
2452		-39.062500
2453		-31.250000
2454		-39.062500
2455		-33.203125
2456		-39.062500
2457		-37.109375
2458		-42.968750
2459		-37.109375
2460		-44.921875
2461		-37.109375
2462		-44.921875
2463		-39.062500
2464		-46.875000
2465		-39.062500
2466		-46.875000
2467		-41.015625
2468		-46.875000
2469		-41.015625
2470		-48.828125
2471		-42.968750
2472		-48.828125
2473		-44.921875
2474		-48.828125
2475		-46.875000
2476		-50.781250
2477		-44.921875
2478		-52.734375
2479		-46.875000
2480		-52.734375
2481		-46.875000
2482		-52.734375
2483		-46.875000
2484		-54.687500
2485		-48.828125
2486		-54.687500
2487		-48.828125
2488		-52.734375
2489		-50.781250
2490		-54.687500
2491		-50.781250
2492		-56.640625
2493		-50.781250
2494		-56.640625
2495		-50.781250
2496		-56.640625
2497		-50.781250
2498		-58.593750
2499		-50.781250
2500		-58.593750
2501		-50.781250
2502		-58.593750
2503		-52.734375
2504		-58.593750
2505		-52.734375
2506		-56.640625
2507		-54.687500
2508		-58.593750
2509		-52.734375
2510		-58.593750
2511		-52.734375
2512		-58.593750
2513		-52.734375
2514		-58.593750
2515		-52.734375
2516		-58.593750
2517		-52.734375
2518		-58.593750
2519		-52.734375
2520		-58.593750
2521		-52.734375
2522		-56.640625
2523		-54.687500
2524		-56.640625
2525		-52.734375
2526		-58.593750
2527		-50.781250
2528		-58.593750
2529		-50.781250
2530		-56.640625
2531		-50.781250
2532		-56.640625
2533		-50.781250
2534		-56.640625
2535		-48.828125
2536		-56.640625
2537		-48.828125
2538		-54.687500
2539		-48.828125
2540		-52.734375
2541		-48.828125
2542		-52.734375
2543		-46.875000
2544		-52.734375
2545		-46.875000
2546		-52.734375
2547		-44.921875
2548		-50.781250
2549		-44.921875
2550		-50.781250
2551		-42.968750
2552		-48.828125
2553		-42.968750
2554		-48.828125
2555		-42.968750
2556		-46.875000
2557		-42.968750
2558		-44.921875
2559		-42.968750
2560		-46.875000
2561		-39.062500
2562		-44.921875
2563		-37.109375
2564		-42.968750
2565		-37.109375
2566		-42.968750
2567		-37.109375
2568		-41.015625
2569		-35.156250
2570		-41.015625
2571		-33.203125
2572		-39.062500
2573		-33.203125
2574		-35.156250
2575		-33.203125
2576		-35.156250
2577		-31.250000
2578		-35.156250
2579		-27.343750
2580		-33.203125
2581		-27.343750
2582		-33.203125
2583		-25.390625
2584		-31.250000
2585		-23.437500
2586		-29.296875
2587		-23.437500
2588		-29.296875
2589		-21.484375
2590		-25.390625
2591		-21.484375
2592		-23.437500
2593		-19.531250
2594		-25.390625
2595		-17.578125
2596		-23.437500
2597		-15.625000
2598		-21.484375
2599		-13.671875
2600		-19.531250
2601		-11.718750
2602		-17.578125
2603		-9.765625
2604		-17.578125
2605		-9.765625
2606		-13.671875
2607		-9.765625
2608		-11.718750
2609		-7.812500
2610		-11.718750
2611		-5.859375
2612		-9.765625
2613		-1.953125
2614		-9.765625
2615		-1.953125
2616		-7.812500
2617		0.000000
2618		-5.859375
2619		1.953125
2620		-3.906250
2621		3.906250
2622		-1.953125
2623		3.906250
2624		1.953125
2625		3.906250
2626		3.906250
2627		7.812500
2628		1.953125
2629		9.765625
2630		3.906250
2631		11.718750
2632		5.859375
2633		13.671875
2634		7.812500
2635		15.625000
2636		9.765625
2637		17.578125
2638		11.718750
2639		17.578125
2640		13.671875
2641		17.578125
2642		15.625000
2643		19.531250
2644		15.625000
2645		21.484375
2646		17.578125
2647		25.390625
2648		17.578125
2649		25.390625
2650		19.531250
2651		27.343750
2652		21.484375
2653		29.296875
2654		23.437500
2655		31.250000
2656		23.437500
2657		29.296875
2658		27.343750
2659		31.250000
2660		27.343750
2661		33.203125
2662		29.296875
2663		35.156250
2664		29.296875
2665		37.109375
2666		31.250000
2667		39.062500
2668		33.203125
2669		39.062500
2670		33.203125
2671		41.015625
2672		35.156250
2673		41.015625
2674		39.062500
2675		41.015625
2676		39.062500
2677		42.968750
2678		39.062500
2679		46.875000
2680		41.015625
2681		46.875000
2682		41.015625
2683		48.828125
2684		42.968750
2685		50.781250
2686		44.921875
2687		50.781250
2688		44.921875
2689		52.734375
2690		48.828125
2691		50.781250
2692		48.828125
2693		52.734375
2694		48.828125
2695		54.687500
2696		48.828125
2697		56.640625
2698		48.828125
2699		56.640625
2700		50.781250
2701		56.640625
2702		52.734375
2703		58.593750
2704		52.734375
2705		58.593750
2706		52.734375
2707		60.546875
2708		56.640625
2709		58.593750
2710		54.687500
2711		60.546875
2712		54.687500
2713		62.500000
2714		56.640625
2715		62.500000
2716		56.640625
2717		64.453125
2718		58.593750
2719		64.453125
2720		58.593750
2721		64.453125
2722		58.593750
2723		64.453125
2724		60.546875
2725		64.453125
2726		62.500000
2727		64.453125
2728		60.546875
2729		66.406250
2730		60.546875
2731		66.406250
2732		60.546875
2733		66.406250
2734		60.546875
2735		68.359375
2736		60.546875
2737		68.359375
2738		60.546875
2739		68.359375
2740		62.500000
2741		68.359375
2742		64.453125
2743		66.406250
2744		62.500000
2745		68.359375
2746		62.500000
2747		68.359375
2748		62.500000
2749		68.359375
2750		62.500000
2751		68.359375
2752		62.500000
2753		68.359375
2754		62.500000
2755		68.359375
2756		62.500000
2757		68.359375
2758		64.453125
2759		66.406250
2760		62.500000
2761		66.406250
2762		62.500000
2763		68.359375
2764		60.546875
2765		68.359375
2766		60.546875
2767		66.406250
2768		60.546875
2769		66.406250
2770		60.546875
2771		66.406250
2772		60.546875
2773		66.406250
2774		60.546875
2775		64.453125
2776		60.546875
2777		64.453125
2778		58.593750
2779		64.453125
2780		56.640625
2781		64.453125
2782		56.640625
2783		64.453125
2784		56.640625
2785		62.500000
2786		56.640625
2787		62.500000
2788		54.687500
2789		62.500000
2790		54.687500
2791		60.546875
2792		56.640625
2793		58.593750
2794		52.734375
2795		58.593750
2796		52.734375
2797		58.593750
2798		50.781250
2799		58.593750
2800		50.781250
2801		56.640625
2802		48.828125
2803		56.640625
2804		46.875000
2805		54.687500
2806		46.875000
2807		52.734375
2808		48.828125
2809		50.781250
2810		46.875000
2811		48.828125
2812		42.968750
2813		50.781250
2814		42.968750
2815		48.828125
2816		41.015625
2817		48.828125
2818		39.062500
2819		46.875000
2820		39.062500
2821		46.875000
2822		37.109375
2823		44.921875
2824		39.062500
2825		42.968750
2826		37.109375
2827		41.015625
2828		33.203125
2829		39.062500
2830		31.250000
2831		39.062500
2832		31.250000
2833		39.062500
2834		29.296875
2835		37.109375
2836		27.343750
2837		35.156250
2838		27.343750
2839		33.203125
2840		25.390625
2841		33.203125
2842		25.390625
2843		29.296875
2844		23.437500
2845		27.343750
2846		19.531250
2847		27.343750
2848		19.531250
2849		27.343750
2850		17.578125
2851		25.390625
2852		15.625000
2853		23.437500
2854		13.671875
2855		21.484375
2856		11.718750
2857		19.531250
2858		13.671875
2859		15.625000
2860		11.718750
2861		15.625000
2862		7.812500
2863		13.671875
2864		5.859375
2865		13.671875
2866		3.906250
2867		11.718750
2868		3.906250
2869		9.765625
2870		1.953125
2871		7.812500
2872		0.000000
2873		7.812500
2874		-1.953125
2875		5.859375
2876		-1.953125
2877		1.953125
2878		-3.906250
2879		0.000000
2880		-5.859375
2881		0.000000
2882		-7.812500
2883		-1.953125
2884		-9.765625
2885		-1.953125
2886		-11.718750
2887		-3.906250
2888		-13.671875
2889		-5.859375
2890		-13.671875
2891		-7.812500
2892		-13.671875
2893		-11.718750
2894		-15.625000
2895		-13.671875
2896		-19.531250
2897		-13.671875
2898		-21.484375
2899		-13.671875
2900		-23.437500
2901		-15.625000
2902		-23.437500
2903		-17.578125
2904		-25.390625
2905		-17.578125
2906		-27.343750
2907		-21.484375
2908		-27.343750
2909		-21.484375
2910		-27.343750
2911		-25.390625
2912		-31.250000
2913		-25.390625
2914		-33.203125
2915		-25.390625
2916		-35.156250
2917		-27.343750
2918		-35.156250
2919		-27.343750
2920		-37.109375
2921		-31.250000
2922		-39.062500
2923		-31.250000
2924		-39.062500
2925		-33.203125
2926		-39.062500
2927		-35.156250
2928		-39.062500
2929		-37.109375
2930		-42.968750
2931		-35.156250
2932		-44.921875
2933		-37.109375
2934		-44.921875
2935		-39.062500
2936		-46.875000
2937		-39.062500
2938		-46.875000
2939		-41.015625
2940		-48.828125
2941		-41.015625
2942		-46.875000
2943		-44.921875
2944		-46.875000
2945		-44.921875
2946		-50.781250
2947		-44.921875
2948		-50.781250
2949		-44.921875
2950		-52.734375
2951		-44.921875
2952		-52.734375
2953		-46.875000
2954		-54.687500
2955		-46.875000
2956		-54.687500
2957		-46.875000
2958		-54.687500
2959		-48.828125
2960		-52.734375
2961		-50.781250
2962		-54.687500
2963		-50.781250
2964		-56.640625
2965		-50.781250
2966		-56.640625
2967		-50.781250
2968		-58.593750
2969		-50.781250
2970		-58.593750
2971		-50.781250
2972		-58.593750
2973		-50.781250
2974		-58.593750
2975		-50.781250
2976		-56.640625
2977		-52.734375
2978		-56.640625
2979		-54.687500
2980		-58.593750
2981		-52.734375
2982		-58.593750
2983		-52.734375
2984		-58.593750
2985		-52.734375
2986		-58.593750
2987		-52.734375
2988		-58.593750
2989		-50.781250
2990		-58.593750
2991		-52.734375
2992		-58.593750
2993		-52.734375
2994		-56.640625
2995		-54.687500
2996		-56.640625
2997		-50.781250
2998		-56.640625
2999		-50.781250
3000		-58.593750
3001		-50.781250
3002		-56.640625
3003		-48.828125
3004		-56.640625
3005		-48.828125
3006		-56.640625
3007		-48.828125
3008		-54.687500
3009		-48.828125
3010		-52.734375
3011		-50.781250
3012		-50.781250
3013		-48.828125
3014		-54.687500
3015		-46.875000
3016		-52.734375
3017		-46.875000
3018		-52.734375
3019		-44.921875
3020		-50.781250
3021		-44.921875
3022		-50.781250
3023		-42.968750
3024		-50.781250
3025		-42.968750
3026		-46.875000
3027		-42.968750
3028		-44.921875
3029		-42.968750
3030		-46.875000
3031		-39.062500
3032		-46.875000
3033		-39.062500
3034		-44.921875
3035		-37.109375
3036		-42.968750
3037		-37.109375
3038		-42.968750
3039		-35.156250
3040		-41.015625
3041		-33.203125
3042		-41.015625
3043		-33.203125
3044		-37.109375
3045		-33.203125
3046		-35.156250
3047		-31.250000
3048		-37.109375
3049		-29.296875
3050		-35.156250
3051		-27.343750
3052		-33.203125
3053		-27.343750
3054		-31.250000
3055		-25.390625
3056		-31.250000
3057		-23.437500
3058		-29.296875
3059		-23.437500
3060		-25.390625
3061		-23.437500
3062		-25.390625
3063		-21.484375
3064		-25.390625
3065		-17.578125
3066		-23.437500
3067		-17.578125
3068		-23.437500
3069		-15.625000
3070		-21.484375
3071		-13.671875
3072		-17.578125
3073		-11.718750
3074		-17.578125
3075		-9.765625
3076		-15.625000
3077		-9.765625
3078		-11.718750
3079		-9.765625
3080		-11.718750
3081		-5.859375
3082		-11.718750
3083		-3.906250
3084		-9.765625
3085		-3.906250
3086		-7.812500
3087		-1.953125
3088		-5.859375
3089		0.000000
3090		-3.906250
3091		3.906250
3092		-3.906250
3093		3.906250
3094		0.000000
3095		3.906250
3096		1.953125
3097		7.812500
3098		1.953125
3099		9.765625
3100		3.906250
3101		9.765625
3102		3.906250
3103		11.718750
3104		5.859375
3105		13.671875
3106		7.812500
3107		15.625000
3108		9.765625
3109		17.578125
3110		13.671875
3111		15.625000
3112		15.625000
3113		19.531250
3114		15.625000
3115		21.484375
3116		15.625000
3117		23.437500
3118		17.578125
3119		23.437500
3120		19.531250
3121		25.390625
3122		21.484375
3123		27.343750
3124		21.484375
3125		29.296875
3126		25.390625
3127		29.296875
3128		27.343750
3129		29.296875
3130		27.343750
3131		33.203125
3132		29.296875
3133		35.156250
3134		29.296875
3135		37.109375
3136		31.250000
3137		37.109375
3138		31.250000
3139		39.062500
3140		33.203125
3141		41.015625
3142		35.156250
3143		41.015625
3144		39.062500
3145		41.015625
3146		39.062500
3147		42.968750
3148		39.062500
3149		44.921875
3150		39.062500
3151		46.875000
3152		41.015625
3153		48.828125
3154		42.968750
3155		48.828125
3156		42.968750
3157		50.781250
3158		44.921875
3159		50.781250
3160		44.921875
3161		50.781250
3162		48.828125
3163		50.781250
3164		48.828125
3165		54.687500
3166		48.828125
3167		54.687500
3168		48.828125
3169		56.640625
3170		50.781250
3171		56.640625
3172		50.781250
3173		58.593750
3174		52.734375
3175		58.593750
3176		52.734375
3177		58.593750
3178		56.640625
3179		58.593750
3180		56.640625
3181		60.546875
3182		54.687500
3183		62.500000
3184		56.640625
3185		62.500000
3186		56.640625
3187		62.500000
3188		56.640625
3189		64.453125
3190		58.593750
3191		64.453125
3192		58.593750
3193		64.453125
3194		60.546875
3195		64.453125
3196		62.500000
3197		64.453125
3198		60.546875
3199		66.406250
3200		60.546875
3201		66.406250
3202		60.546875
3203		66.406250
3204		60.546875
3205		68.359375
3206		60.546875
3207		68.359375
3208		62.500000
3209		68.359375
3210		62.500000
3211		68.359375
3212		64.453125
3213		66.406250
3214		64.453125
3215		68.359375
3216		62.500000
3217		68.359375
3218		62.500000
3219		68.359375
3220		62.500000
3221		68.359375
3222		62.500000
3223		68.359375
3224		62.500000
3225		68.359375
3226		62.500000
3227		68.359375
3228		64.453125
3229		66.406250
3230		64.453125
3231		66.406250
3232		62.500000
3233		68.359375
3234		60.546875
3235		68.359375
3236		60.546875
3237		68.359375
3238		60.546875
3239		68.359375
3240		60.546875
3241		66.406250
3242		60.546875
3243		66.406250
3244		60.546875
3245		66.406250
3246		60.546875
3247		64.453125
3248		58.593750
3249		64.453125
3250		58.593750
3251		64.453125
3252		56.640625
3253		64.453125
3254		56.640625
3255		64.453125
3256		56.640625
3257		62.500000
3258		56.640625
3259		62.500000
3260		54.687500
3261		62.500000
3262		54.687500
3263		58.593750
3264		54.687500
3265		58.593750
3266		52.734375
3267		58.593750
3268		50.781250
3269		58.593750
3270		50.781250
3271		56.640625
3272		50.781250
3273		56.640625
3274		48.828125
3275		56.640625
3276		48.828125
3277		54.687500
3278		48.828125
3279		52.734375
3280		48.828125
3281		50.781250
3282		44.921875
3283		50.781250
3284		42.968750
3285		50.781250
3286		42.968750
3287		48.828125
3288		41.015625
3289		48.828125
3290		39.062500
3291		46.875000
3292		39.062500
3293		44.921875
3294		37.109375
3295		44.921875
3296		39.062500
3297		41.015625
3298		35.156250
3299		41.015625
3300		33.203125
3301		41.015625
3302		33.203125
3303		39.062500
3304		31.250000
3305		39.062500
3306		29.296875
3307		37.109375
3308		27.343750
3309		35.156250
3310		25.390625
3311		33.203125
3312		27.343750
3313		29.296875
3314		25.390625
3315		29.296875
3316		21.484375
3317		29.296875
3318		21.484375
3319		27.343750
3320		19.531250
3321		25.390625
3322		17.578125
3323		25.390625
3324		15.625000
3325		23.437500
3326		13.671875
3327		21.484375
3328		13.671875
3329		19.531250
3330		13.671875
3331		15.625000
3332		9.765625
3333		15.625000
3334		7.812500
3335		15.625000
3336		5.859375
3337		13.671875
3338		3.906250
3339		11.718750
3340		3.906250
3341		9.765625
3342		1.953125
3343		7.812500
3344		0.000000
3345		7.812500
3346		0.000000
3347		3.906250
3348		-1.953125
3349		1.953125
3350		-5.859375
3351		1.953125
3352		-7.812500
3353		0.000000
3354		-7.812500
3355		-1.953125
3356		-11.718750
3357		-3.906250
3358		-11.718750
3359		-3.906250
3360		-13.671875
3361		-5.859375
3362		-13.671875
3363		-7.812500
3364		-13.671875
3365		-11.718750
3366		-17.578125
3367		-11.718750
3368		-19.531250
3369		-11.718750
3370		-21.484375
3371		-13.671875
3372		-23.437500
3373		-15.625000
3374		-23.437500
3375		-17.578125
3376		-27.343750
3377		-19.531250
3378		-27.343750
3379		-19.531250
3380		-27.343750
3381		-23.437500
3382		-29.296875
3383		-25.390625
3384		-31.250000
3385		-25.390625
3386		-31.250000
3387		-27.343750
3388		-33.203125
3389		-27.343750
3390		-35.156250
3391		-29.296875
3392		-37.109375
3393		-31.250000
3394		-37.109375
3395		-31.250000
3396		-37.109375
3397		-35.156250
3398		-39.062500
3399		-35.156250
3400		-42.968750
3401		-35.156250
3402		-42.968750
3403		-35.156250
3404		-44.921875
3405		-37.109375
3406		-44.921875
3407		-37.109375
3408		-46.875000
3409		-39.062500
3410		-46.875000
3411		-41.015625
3412		-48.828125
3413		-41.015625
3414		-46.875000
3415		-44.921875
3416		-48.828125
3417		-44.921875
3418		-50.781250
3419		-44.921875
3420		-50.781250
3421		-44.921875
3422		-52.734375
3423		-44.921875
3424		-52.734375
3425		-46.875000
3426		-54.687500
3427		-46.875000
3428		-54.687500
3429		-48.828125
3430		-52.734375
3431		-50.781250
3432		-54.687500
3433		-50.781250
3434		-56.640625
3435		-48.828125
3436		-56.640625
3437		-50.781250
3438		-56.640625
3439		-50.781250
3440		-58.593750
3441		-50.781250
3442		-58.593750
3443		-50.781250
3444		-56.640625
3445		-52.734375
3446		-56.640625
3447		-52.734375
3448		-56.640625
3449		-54.687500
3450		-58.593750
3451		-50.781250
3452		-58.593750
3453		-52.734375
3454		-58.593750
3455		-52.734375
3456		-58.593750
3457		-52.734375
3458		-58.593750
3459		-52.734375
3460		-58.593750
3461		-52.734375
3462		-58.593750
3463		-52.734375
3464		-56.640625
3465		-52.734375
3466		-56.640625
3467		-52.734375
3468		-58.593750
3469		-50.781250
3470		-58.593750
3471		-50.781250
3472		-56.640625
3473		-50.781250
3474		-56.640625
3475		-50.781250
3476		-56.640625
3477		-50.781250
3478		-56.640625
3479		-48.828125
3480		-52.734375
3481		-50.781250
3482		-52.734375
3483		-50.781250
3484		-54.687500
3485		-46.875000
3486		-52.734375
3487		-46.875000
3488		-52.734375
3489		-44.921875
3490		-50.781250
3491		-44.921875
3492		-50.781250
3493		-44.921875
3494		-50.781250
3495		-42.968750
3496		-48.828125
3497		-42.968750
3498		-46.875000
3499		-42.968750
3500		-44.921875
3501		-42.968750
3502		-46.875000
3503		-41.015625
3504		-44.921875
3505		-39.062500
3506		-44.921875
3507		-39.062500
3508		-42.968750
3509		-37.109375
3510		-42.968750
3511		-35.156250
3512		-41.015625
3513		-35.156250
3514		-37.109375
3515		-35.156250
3516		-37.109375
3517		-33.203125
3518		-37.109375
3519		-31.250000
3520		-37.109375
3521		-29.296875
3522		-35.156250
3523		-29.296875
3524		-33.203125
3525		-27.343750
3526		-31.250000
3527		-25.390625
3528		-31.250000
3529		-23.437500
3530		-27.343750
3531		-23.437500
3532		-25.390625
3533		-23.437500
3534		-25.390625
3535		-19.531250
3536		-25.390625
3537		-17.578125
3538		-23.437500
3539		-17.578125
3540		-21.484375
3541		-15.625000
3542		-19.531250
3543		-13.671875
3544		-17.578125
3545		-11.718750
3546		-15.625000
3547		-11.718750
3548		-13.671875
3549		-11.718750
3550		-11.718750
3551		-9.765625
3552		-11.718750
3553		-5.859375
3554		-9.765625
3555		-3.906250
3556		-9.765625
3557		-1.953125
3558		-7.812500
3559		0.000000
3560		-3.906250
3561		0.000000
3562		-3.906250
3563		1.953125
3564		-1.953125
3565		1.953125
3566		0.000000
3567		3.906250
3568		1.953125
3569		5.859375
3570		1.953125
3571		9.765625
3572		3.906250
3573		9.765625
3574		5.859375
3575		9.765625
3576		7.812500
3577		11.718750
3578		9.765625
3579		13.671875
3580		11.718750
3581		15.625000
3582		13.671875
3583		15.625000
3584		15.625000
3585		19.531250
3586		15.625000
3587		21.484375
3588		15.625000
3589		23.437500
3590		19.531250
3591		23.437500
3592		21.484375
3593		25.390625
3594		21.484375
3595		25.390625
3596		23.437500
3597		27.343750
3598		25.390625
3599		29.296875
3600		27.343750
3601		31.250000
3602		27.343750
3603		31.250000
3604		29.296875
3605		33.203125
3606		31.250000
3607		35.156250
3608		33.203125
3609		37.109375
3610		33.203125
3611		37.109375
3612		35.156250
3613		39.062500
3614		37.109375
3615		39.062500
3616		37.109375
3617		41.015625
3618		39.062500
3619		42.968750
3620		41.015625
3621		42.968750
3622		41.015625
3623		44.921875
3624		42.968750
3625		46.875000
3626		42.968750
3627		46.875000
3628		44.921875
3629		48.828125
3630		44.921875
3631		50.781250
3632		46.875000
3633		50.781250
3634		48.828125
3635		50.781250
3636		48.828125
3637		52.734375
3638		50.781250
3639		52.734375
3640		50.781250
3641		54.687500
3642		52.734375
3643		54.687500
3644		52.734375
3645		56.640625
3646		54.687500
3647		58.593750
3648		52.734375
3649		56.640625
3650		56.640625
3651		58.593750
3652		56.640625
3653		58.593750
3654		56.640625
3655		60.546875
3656		58.593750
3657		60.546875
3658		56.640625
3659		62.500000
3660		58.593750
3661		62.500000
3662		58.593750
3663		62.500000
3664		60.546875
3665		62.500000
3666		60.546875
3667		62.500000
3668		60.546875
3669		64.453125
3670		62.500000
3671		64.453125
3672		62.500000
3673		64.453125
3674		62.500000
3675		66.406250
3676		62.500000
3677		66.406250
3678		62.500000
3679		66.406250
3680		62.500000
3681		66.406250
3682		64.453125
3683		66.406250
3684		64.453125
3685		66.406250
3686		62.500000
3687		66.406250
3688		64.453125
3689		66.406250
3690		64.453125
3691		66.406250
3692		64.453125
3693		66.406250
3694		64.453125
3695		66.406250
3696		64.453125
3697		66.406250
3698		62.500000
3699		66.406250
3700		64.453125
3701		66.406250
3702		64.453125
3703		66.406250
3704		62.500000
3705		66.406250
3706		62.500000
3707		66.406250
3708		62.500000
3709		64.453125
3710		62.500000
3711		66.406250
3712		62.500000
3713		64.453125
3714		60.546875
3715		64.453125
3716		60.546875
3717		64.453125
3718		60.546875
3719		64.453125
3720		60.546875
3721		62.500000
3722		58.593750
3723		62.500000
3724		58.593750
3725		62.500000
3726		58.593750
3727		62.500000
3728		58.593750
3729		60.546875
3730		56.640625
3731		60.546875
3732		56.640625
3733		60.546875
3734		54.687500
3735		58.593750
3736		54.687500
3737		58.593750
3738		52.734375
3739		56.640625
3740		52.734375
3741		56.640625
3742		52.734375
3743		56.640625
3744		50.781250
3745		54.687500
3746		50.781250
3747		52.734375
3748		48.828125
3749		52.734375
3750		46.875000
3751		50.781250
3752		44.921875
3753		50.781250
3754		44.921875
3755		48.828125
3756		44.921875
3757		48.828125
3758		42.968750
3759		46.875000
3760		42.968750
3761		44.921875
3762		41.015625
3763		44.921875
3764		39.062500
3765		42.968750
3766		39.062500
3767		41.015625
3768		37.109375
3769		41.015625
3770		35.156250
3771		39.062500
3772		35.156250
3773		39.062500
3774		33.203125
3775		37.109375
3776		31.250000
3777		35.156250
3778		29.296875
3779		33.203125
3780		29.296875
3781		33.203125
3782		27.343750
3783		31.250000
3784		25.390625
3785		29.296875
3786		25.390625
3787		27.343750
3788		23.437500
3789		25.390625
3790		21.484375
3791		25.390625
3792		19.531250
3793		23.437500
3794		19.531250
3795		21.484375
3796		17.578125
3797		19.531250
3798		13.671875
3799		19.531250
3800		13.671875
3801		17.578125
3802		11.718750
3803		15.625000
3804		9.765625
3805		13.671875
3806		7.812500
3807		11.718750
3808		7.812500
3809		9.765625
3810		5.859375
3811		9.765625
3812		3.906250
3813		7.812500
3814		1.953125
3815		5.859375
3816		0.000000
3817		3.906250
3818		0.000000
3819		1.953125
3820		-3.906250
3821		0.000000
3822		-3.906250
3823		0.000000
3824		-5.859375
3825		-1.953125
3826		-7.812500
3827		-3.906250
3828		-9.765625
3829		-5.859375
3830		-11.718750
3831		-7.812500
3832		-13.671875
3833		-7.812500
3834		-13.671875
3835		-9.765625
3836		-15.625000
3837		-11.718750
3838		-17.578125
3839		-13.671875
3840		-19.531250
3841		-15.625000
3842		-19.531250
3843		-17.578125
3844		-21.484375
3845		-17.578125
3846		-23.437500
3847		-19.531250
3848		-25.390625
3849		-21.484375
3850		-25.390625
3851		-23.437500
3852		-27.343750
3853		-25.390625
3854		-29.296875
3855		-25.390625
3856		-31.250000
3857		-27.343750
3858		-31.250000
3859		-29.296875
3860		-33.203125
3861		-29.296875
3862		-35.156250
3863		-31.250000
3864		-35.156250
3865		-33.203125
3866		-37.109375
3867		-33.203125
3868		-39.062500
3869		-35.156250
3870		-41.015625
3871		-37.109375
3872		-41.015625
3873		-37.109375
3874		-42.968750
3875		-39.062500
3876		-42.968750
3877		-39.062500
3878		-44.921875
3879		-41.015625
3880		-44.921875
3881		-42.968750
3882		-46.875000
3883		-42.968750
3884		-46.875000
3885		-44.921875
3886		-46.875000
3887		-44.921875
3888		-48.828125
3889		-44.921875
3890		-48.828125
3891		-46.875000
3892		-50.781250
3893		-46.875000
3894		-52.734375
3895		-46.875000
3896		-52.734375
3897		-48.828125
3898		-52.734375
3899		-48.828125
3900		-52.734375
3901		-48.828125
3902		-54.687500
3903		-50.781250
3904		-54.687500
3905		-50.781250
3906		-54.687500
3907		-52.734375
3908		-54.687500
3909		-52.734375
3910		-56.640625
3911		-52.734375
3912		-56.640625
3913		-52.734375
3914		-56.640625
3915		-52.734375
3916		-56.640625
3917		-52.734375
3918		-56.640625
3919		-54.687500
3920		-56.640625
3921		-54.687500
3922		-56.640625
3923		-54.687500
3924		-56.640625
3925		-54.687500
3926		-56.640625
3927		-54.687500
3928		-58.593750
3929		-54.687500
3930		-56.640625
3931		-54.687500
3932		-56.640625
3933		-54.687500
3934		-56.640625
3935		-54.687500
3936		-56.640625
3937		-54.687500
3938		-58.593750
3939		-52.734375
3940		-56.640625
3941		-52.734375
3942		-56.640625
3943		-52.734375
3944		-54.687500
3945		-52.734375
3946		-54.687500
3947		-52.734375
3948		-54.687500
3949		-50.781250
3950		-54.687500
3951		-50.781250
3952		-52.734375
3953		-50.781250
3954		-54.687500
3955		-48.828125
3956		-52.734375
3957		-48.828125
3958		-52.734375
3959		-48.828125
3960		-50.781250
3961		-48.828125
3962		-50.781250
3963		-46.875000
3964		-50.781250
3965		-46.875000
3966		-48.828125
3967		-44.921875
3968		-46.875000
3969		-44.921875
3970		-46.875000
3971		-42.968750
3972		-46.875000
3973		-42.968750
3974		-44.921875
3975		-41.015625
3976		-42.968750
3977		-41.015625
3978		-42.968750
3979		-39.062500
3980		-41.015625
3981		-39.062500
3982		-41.015625
3983		-37.109375
3984		-41.015625
3985		-37.109375
3986		-37.109375
3987		-35.156250
3988		-37.109375
3989		-33.203125
3990		-35.156250
3991		-33.203125
3992		-35.156250
3993		-31.250000
3994		-33.203125
3995		-29.296875
3996		-31.250000
3997		-29.296875
3998		-31.250000
3999		-27.343750
4000		-29.296875
4001		-25.390625
4002		-27.343750
4003		-23.437500
4004		-25.390625
4005		-21.484375
4006		-25.390625
4007		-19.531250
4008		-23.437500
4009		-19.531250
4010		-21.484375
4011		-17.578125
4012		-19.531250
4013		-15.625000
4014		-19.531250
4015		-13.671875
4016		-17.578125
4017		-13.671875
4018		-15.625000
4019		-11.718750
4020		-13.671875
4021		-11.718750
4022		-13.671875
4023		-9.765625
4024		-11.718750
4025		-7.812500
4026		-9.765625
4027		-5.859375
4028		-7.812500
4029		-3.906250
4030		-5.859375
4031		-1.953125
4032		-3.906250
4033		0.000000
4034		-3.906250
4035		0.000000
4036		0.000000
4037		1.953125
4038		0.000000
4039		3.906250
4040		1.953125
4041		5.859375
4042		3.906250
4043		7.812500
4044		5.859375
4045		7.812500
4046		7.812500
4047		11.718750
4048		7.812500
4049		11.718750
4050		9.765625
4051		13.671875
4052		11.718750
4053		15.625000
4054		13.671875
4055		17.578125
4056		13.671875
4057		19.531250
4058		15.625000
4059		21.484375
4060		17.578125
4061		21.484375
4062		19.531250
4063		23.437500
4064		21.484375
4065		25.390625
4066		21.484375
4067		25.390625
4068		23.437500
4069		27.343750
4070		25.390625
4071		29.296875
4072		27.343750
4073		31.250000
4074		29.296875
4075		33.203125
4076		29.296875
4077		33.203125
4078		31.250000
4079		35.156250
4080		33.203125
4081		37.109375
4082		35.156250
4083		37.109375
4084		35.156250
4085		39.062500
4086		37.109375
4087		41.015625
4088		39.062500
4089		42.968750
4090		39.062500
4091		42.968750
4092		41.015625
4093		44.921875
4094		41.015625
4095		44.921875
4096		42.968750
4097		46.875000
4098		42.968750
4099		48.828125
4100		44.921875
4101		48.828125
4102		46.875000
4103		48.828125
4104		46.875000
4105		50.781250
4106		48.828125
4107		52.734375
4108		48.828125
4109		52.734375
4110		50.781250
4111		54.687500
4112		50.781250
4113		54.687500
4114		52.734375
4115		56.640625
4116		52.734375
4117		56.640625
4118		52.734375
4119		58.593750
4120		54.687500
4121		56.640625
4122		56.640625
4123		58.593750
4124		56.640625
4125		58.593750
4126		56.640625
4127		60.546875
4128		58.593750
4129		60.546875
4130		58.593750
4131		62.500000
4132		58.593750
4133		62.500000
4134		58.593750
4135		62.500000
4136		60.546875
4137		62.500000
4138		60.546875
4139		62.500000
4140		60.546875
4141		64.453125
4142		62.500000
4143		64.453125
4144		60.546875
4145		64.453125
4146		62.500000
4147		66.406250
4148		62.500000
4149		64.453125
4150		62.500000
4151		66.406250
4152		62.500000
4153		66.406250
4154		64.453125
4155		66.406250
4156		62.500000
4157		66.406250
4158		64.453125
4159		66.406250
4160		64.453125
4161		66.406250
4162		64.453125
4163		66.406250
4164		64.453125
4165		66.406250
4166		64.453125
4167		66.406250
4168		62.500000
4169		66.406250
4170		64.453125
4171		66.406250
4172		64.453125
4173		66.406250
4174		62.500000
4175		66.406250
4176		62.500000
4177		66.406250
4178		62.500000
4179		66.406250
4180		62.500000
4181		66.406250
4182		62.500000
4183		66.406250
4184		60.546875
4185		64.453125
4186		62.500000
4187		64.453125
4188		60.546875
4189		64.453125
4190		60.546875
4191		64.453125
4192		60.546875
4193		62.500000
4194		60.546875
4195		62.500000
4196		58.593750
4197		62.500000
4198		58.593750
4199		62.500000
4200		58.593750
4201		60.546875
4202		56.640625
4203		60.546875
4204		56.640625
4205		58.593750
4206		54.687500
4207		58.593750
4208		54.687500
4209		58.593750
4210		52.734375
4211		56.640625
4212		52.734375
4213		56.640625
4214		50.781250
4215		54.687500
4216		50.781250
4217		54.687500
4218		48.828125
4219		52.734375
4220		48.828125
4221		52.734375
4222		48.828125
4223		50.781250
4224		46.875000
4225		50.781250
4226		46.875000
4227		48.828125
4228		44.921875
4229		46.875000
4230		42.968750
4231		46.875000
4232		41.015625
4233		44.921875
4234		41.015625
4235		44.921875
4236		39.062500
4237		42.968750
4238		39.062500
4239		41.015625
4240		35.156250
4241		39.062500
4242		35.156250
4243		39.062500
4244		35.156250
4245		37.109375
4246		33.203125
4247		37.109375
4248		31.250000
4249		35.156250
4250		29.296875
4251		33.203125
4252		27.343750
4253		31.250000
4254		27.343750
4255		29.296875
4256		25.390625
4257		29.296875
4258		23.437500
4259		29.296875
4260		21.484375
4261		25.390625
4262		21.484375
4263		23.437500
4264		19.531250
4265		23.437500
4266		17.578125
4267		21.484375
4268		15.625000
4269		19.531250
4270		13.671875
4271		19.531250
4272		13.671875
4273		15.625000
4274		11.718750
4275		15.625000
4276		9.765625
4277		13.671875
4278		7.812500
4279		11.718750
4280		5.859375
4281		9.765625
4282		3.906250
4283		7.812500
4284		3.906250
4285		5.859375
4286		1.953125
4287		5.859375
4288		0.000000
4289		3.906250
4290		-1.953125
4291		1.953125
4292		-3.906250
4293		0.000000
4294		-5.859375
4295		-1.953125
4296		-5.859375
4297		-3.906250
4298		-7.812500
4299		-3.906250
4300		-9.765625
4301		-5.859375
4302		-11.718750
4303		-7.812500
4304		-13.671875
4305		-9.765625
4306		-13.671875
4307		-11.718750
4308		-15.625000
4309		-11.718750
4310		-17.578125
4311		-13.671875
4312		-19.531250
4313		-15.625000
4314		-21.484375
4315		-17.578125
4316		-23.437500
4317		-19.531250
4318		-23.437500
4319		-19.531250
4320		-25.390625
4321		-21.484375
4322		-27.343750
4323		-23.437500
4324		-29.296875
4325		-25.390625
4326		-29.296875
4327		-25.390625
4328		-31.250000
4329		-27.343750
4330		-31.250000
4331		-29.296875
4332		-33.203125
4333		-29.296875
4334		-35.156250
4335		-31.250000
4336		-37.109375
4337		-33.203125
4338		-37.109375
4339		-35.156250
4340		-39.062500
4341		-35.156250
4342		-41.015625
4343		-37.109375
4344		-41.015625
4345		-37.109375
4346		-42.968750
4347		-39.062500
4348		-42.968750
4349		-41.015625
4350		-44.921875
4351		-41.015625
4352		-44.921875
4353		-41.015625
4354		-46.875000
4355		-42.968750
4356		-46.875000
4357		-44.921875
4358		-48.828125
4359		-44.921875
4360		-48.828125
4361		-44.921875
4362		-50.781250
4363		-46.875000
4364		-50.781250
4365		-46.875000
4366		-52.734375
4367		-48.828125
4368		-52.734375
4369		-48.828125
4370		-52.734375
4371		-48.828125
4372		-52.734375
4373		-50.781250
4374		-54.687500
4375		-50.781250
4376		-54.687500
4377		-50.781250
4378		-54.687500
4379		-52.734375
4380		-54.687500
4381		-52.734375
4382		-56.640625
4383		-52.734375
4384		-56.640625
4385		-52.734375
4386		-56.640625
4387		-52.734375
4388		-56.640625
4389		-54.687500
4390		-56.640625
4391		-54.687500
4392		-58.593750
4393		-52.734375
4394		-56.640625
4395		-54.687500
4396		-56.640625
4397		-54.687500
4398		-58.593750
4399		-54.687500
4400		-58.593750
4401		-54.687500
4402		-58.593750
4403		-54.687500
4404		-58.593750
4405		-52.734375
4406		-56.640625
4407		-54.687500
4408		-56.640625
4409		-52.734375
4410		-56.640625
4411		-52.734375
4412		-56.640625
4413		-52.734375
4414		-56.640625
4415		-52.734375
4416		-56.640625
4417		-52.734375
4418		-54.687500
4419		-52.734375
4420		-54.687500
4421		-50.781250
4422		-54.687500
4423		-50.781250
4424		-52.734375
4425		-50.781250
4426		-52.734375
4427		-48.828125
4428		-52.734375
4429		-48.828125
4430		-50.781250
4431		-48.828125
4432		-50.781250
4433		-46.875000
4434		-50.781250
4435		-46.875000
4436		-48.828125
4437		-46.875000
4438		-48.828125
4439		-44.921875
4440		-46.875000
4441		-44.921875
4442		-46.875000
4443		-42.968750
4444		-46.875000
4445		-42.968750
4446		-44.921875
4447		-41.015625
4448		-42.968750
4449		-39.062500
4450		-42.968750
4451		-39.062500
4452		-41.015625
4453		-39.062500
4454		-41.015625
4455		-37.109375
4456		-39.062500
4457		-35.156250
4458		-39.062500
4459		-33.203125
4460		-37.109375
4461		-33.203125
4462		-35.156250
4463		-31.250000
4464		-35.156250
4465		-31.250000
4466		-33.203125
4467		-29.296875
4468		-31.250000
4469		-27.343750
4470		-29.296875
4471		-25.390625
4472		-27.343750
4473		-25.390625
4474		-27.343750
4475		-23.437500
4476		-25.390625
4477		-21.484375
4478		-23.437500
4479		-21.484375
4480		-23.437500
4481		-19.531250
4482		-21.484375
4483		-17.578125
4484		-21.484375
4485		-15.625000
4486		-17.578125
4487		-13.671875
4488		-17.578125
4489		-13.671875
4490		-15.625000
4491		-11.718750
4492		-13.671875
4493		-9.765625
4494		-11.718750
4495		-7.812500
4496		-9.765625
4497		-5.859375
4498		-9.765625
4499		-5.859375
4500		-7.812500
4501		-3.906250
4502		-5.859375
4503		-1.953125
4504		-3.906250
4505		0.000000
4506		-1.953125
4507		1.953125
4508		0.000000
4509		1.953125
4510		0.000000
4511		3.906250
4512		1.953125
4513		5.859375
4514		3.906250
4515		7.812500
4516		5.859375
4517		9.765625
4518		7.812500
4519		11.718750
4520		7.812500
4521		13.671875
4522		9.765625
4523		13.671875
4524		11.718750
4525		15.625000
4526		13.671875
4527		17.578125
4528		15.625000
4529		19.531250
4530		17.578125
4531		19.531250
4532		19.531250
4533		21.484375
4534		19.531250
4535		23.437500
4536		21.484375
4537		25.390625
4538		23.437500
4539		27.343750
4540		25.390625
4541		27.343750
4542		25.390625
4543		29.296875
4544		27.343750
4545		31.250000
4546		29.296875
4547		31.250000
4548		29.296875
4549		33.203125
4550		31.250000
4551		35.156250
4552		33.203125
4553		37.109375
4554		33.203125
4555		39.062500
4556		35.156250
4557		39.062500
4558		37.109375
4559		39.062500
4560		37.109375
4561		41.015625
4562		39.062500
4563		42.968750
4564		41.015625
4565		44.921875
4566		41.015625
4567		44.921875
4568		42.968750
4569		46.875000
4570		44.921875
4571		46.875000
4572		44.921875
4573		48.828125
4574		46.875000
4575		48.828125
4576		46.875000
4577		50.781250
4578		48.828125
4579		50.781250
4580		48.828125
4581		52.734375
4582		50.781250
4583		52.734375
4584		50.781250
4585		54.687500
4586		52.734375
4587		54.687500
4588		52.734375
4589		56.640625
4590		54.687500
4591		56.640625
4592		54.687500
4593		58.593750
4594		54.687500
4595		58.593750
4596		56.640625
4597		60.546875
4598		56.640625
4599		60.546875
4600		56.640625
4601		60.546875
4602		58.593750
4603		62.500000
4604		58.593750
4605		62.500000
4606		58.593750
4607		62.500000
4608		60.546875
4609		62.500000
4610		60.546875
4611		64.453125
4612		60.546875
4613		64.453125
4614		62.500000
4615		64.453125
4616		62.500000
4617		64.453125
4618		62.500000
4619		66.406250
4620		62.500000
4621		66.406250
4622		60.546875
4623		66.406250
4624		64.453125
4625		64.453125
4626		62.500000
4627		66.406250
4628		64.453125
4629		66.406250
4630		64.453125
4631		66.406250
4632		64.453125
4633		66.406250
4634		62.500000
4635		66.406250
4636		62.500000
4637		66.406250
4638		62.500000
4639		66.406250
4640		64.453125
4641		66.406250
4642		64.453125
4643		66.406250
4644		62.500000
4645		66.406250
4646		62.500000
4647		66.406250
4648		62.500000
4649		66.406250
4650		62.500000
4651		64.453125
4652		62.500000
4653		66.406250
4654		62.500000
4655		64.453125
4656		60.546875
4657		64.453125
4658		60.546875
4659		64.453125
4660		60.546875
4661		64.453125
4662		60.546875
4663		64.453125
4664		58.593750
4665		62.500000
4666		58.593750
4667		62.500000
4668		58.593750
4669		60.546875
4670		56.640625
4671		60.546875
4672		56.640625
4673		60.546875
4674		56.640625
4675		58.593750
4676		56.640625
4677		58.593750
4678		54.687500
4679		58.593750
4680		52.734375
4681		56.640625
4682		52.734375
4683		56.640625
4684		52.734375
4685		54.687500
4686		50.781250
4687		54.687500
4688		48.828125
4689		52.734375
4690		48.828125
4691		52.734375
4692		48.828125
4693		50.781250
4694		46.875000
4695		50.781250
4696		46.875000
4697		48.828125
4698		44.921875
4699		48.828125
4700		42.968750
4701		46.875000
4702		42.968750
4703		44.921875
4704		41.015625
4705		44.921875
4706		41.015625
4707		42.968750
4708		39.062500
4709		41.015625
4710		37.109375
4711		41.015625
4712		35.156250
4713		41.015625
4714		35.156250
4715		39.062500
4716		33.203125
4717		37.109375
4718		31.250000
4719		35.156250
4720		31.250000
4721		35.156250
4722		29.296875
4723		33.203125
4724		27.343750
4725		31.250000
4726		25.390625
4727		29.296875
4728		23.437500
4729		29.296875
4730		23.437500
4731		27.343750
4732		21.484375
4733		25.390625
4734		19.531250
4735		23.437500
4736		17.578125
4737		21.484375
4738		17.578125
4739		19.531250
4740		15.625000
4741		19.531250
4742		13.671875
4743		17.578125
4744		11.718750
4745		15.625000
4746		9.765625
4747		13.671875
4748		9.765625
4749		13.671875
4750		7.812500
4751		11.718750
4752		5.859375
4753		9.765625
4754		3.906250
4755		7.812500
4756		1.953125
4757		5.859375
4758		0.000000
4759		3.906250
4760		0.000000
4761		1.953125
4762		-1.953125
4763		1.953125
4764		-3.906250
4765		0.000000
4766		-5.859375
4767		-1.953125
4768		-7.812500
4769		-3.906250
4770		-9.765625
4771		-5.859375
4772		-11.718750
4773		-7.812500
4774		-11.718750
4775		-7.812500
4776		-13.671875
4777		-9.765625
4778		-15.625000
4779		-11.718750
4780		-17.578125
4781		-13.671875
4782		-17.578125
4783		-15.625000
4784		-19.531250
4785		-15.625000
4786		-21.484375
4787		-17.578125
4788		-23.437500
4789		-19.531250
4790		-25.390625
4791		-21.484375
4792		-25.390625
4793		-23.437500
4794		-27.343750
4795		-23.437500
4796		-29.296875
4797		-25.390625
4798		-31.250000
4799		-27.343750
4800		-31.250000
4801		-27.343750
4802		-33.203125
4803		-29.296875
4804		-35.156250
4805		-31.250000
4806		-37.109375
4807		-33.203125
4808		-37.109375
4809		-33.203125
4810		-37.109375
4811		-35.156250
4812		-39.062500
4813		-35.156250
4814		-41.015625
4815		-37.109375
4816		-42.968750
4817		-39.062500
4818		-42.968750
4819		-39.062500
4820		-44.921875
4821		-41.015625
4822		-44.921875
4823		-41.015625
4824		-46.875000
4825		-42.968750
4826		-46.875000
4827		-44.921875
4828		-48.828125
4829		-44.921875
4830		-48.828125
4831		-44.921875
4832		-50.781250
4833		-46.875000
4834		-50.781250
4835		-46.875000
4836		-50.781250
4837		-48.828125
4838		-52.734375
4839		-48.828125
4840		-52.734375
4841		-48.828125
4842		-52.734375
4843		-50.781250
4844		-52.734375
4845		-50.781250
4846		-54.687500
4847		-50.781250
4848		-54.687500
4849		-52.734375
4850		-54.687500
4851		-52.734375
4852		-56.640625
4853		-52.734375
4854		-56.640625
4855		-52.734375
4856		-56.640625
4857		-52.734375
4858		-56.640625
4859		-52.734375
4860		-56.640625
4861		-54.687500
4862		-58.593750
4863		-54.687500
4864		-56.640625
4865		-54.687500
4866		-56.640625
4867		-54.687500
4868		-58.593750
4869		-54.687500
4870		-58.593750
4871		-54.687500
4872		-58.593750
4873		-54.687500
4874		-58.593750
4875		-54.687500
4876		-56.640625
4877		-54.687500
4878		-56.640625
4879		-54.687500
4880		-56.640625
4881		-52.734375
4882		-56.640625
4883		-54.687500
4884		-56.640625
4885		-54.687500
4886		-56.640625
4887		-52.734375
4888		-56.640625
4889		-52.734375
4890		-54.687500
4891		-50.781250
4892		-54.687500
4893		-52.734375
4894		-54.687500
4895		-52.734375
4896		-54.687500
4897		-50.781250
4898		-54.687500
4899		-50.781250
4900		-52.734375
4901		-48.828125
4902		-52.734375
4903		-48.828125
4904		-50.781250
4905		-46.875000
4906		-50.781250
4907		-46.875000
4908		-50.781250
4909		-46.875000
4910		-48.828125
4911		-44.921875
4912		-48.828125
4913		-42.968750
4914		-46.875000
4915		-42.968750
4916		-46.875000
4917		-42.968750
4918		-44.921875
4919		-41.015625
4920		-42.968750
4921		-41.015625
4922		-42.968750
4923		-39.062500
4924		-41.015625
4925		-37.109375
4926		-39.062500
4927		-37.109375
4928		-39.062500
4929		-35.156250
4930		-39.062500
4931		-35.156250
4932		-37.109375
4933		-33.203125
4934		-35.156250
4935		-31.250000
4936		-33.203125
4937		-31.250000
4938		-33.203125
4939		-29.296875
4940		-31.250000
4941		-27.343750
4942		-31.250000
4943		-27.343750
4944		-29.296875
4945		-25.390625
4946		-27.343750
4947		-23.437500
4948		-25.390625
4949		-21.484375
4950		-25.390625
4951		-19.531250
4952		-21.484375
4953		-19.531250
4954		-21.484375
4955		-17.578125
4956		-19.531250
4957		-15.625000
4958		-17.578125
4959		-15.625000
4960		-15.625000
4961		-13.671875
4962		-15.625000
4963		-11.718750
4964		-13.671875
4965		-9.765625
4966		-11.718750
4967		-7.812500
4968		-9.765625
4969		-7.812500
4970		-7.812500
4971		-5.859375
4972		-7.812500
4973		-3.906250
4974		-5.859375
4975		-1.953125
4976		-3.906250
4977		0.000000
4978		-1.953125
4979		1.953125
4980		-1.953125
4981		1.953125
4982		0.000000
4983		3.906250
4984		1.953125
4985		5.859375
4986		3.906250
4987		7.812500
4988		5.859375
4989		9.765625
4990		7.812500
4991		11.718750
4992		7.812500
4993		11.718750
4994		11.718750
4995		13.671875
4996		11.718750
4997		15.625000
4998		13.671875
4999		17.578125
5000		15.625000
5001		19.531250
5002		17.578125
5003		21.484375
5004		19.531250
5005		21.484375
5006		19.531250
5007		23.437500
5008		21.484375
5009		25.390625
5010		23.437500
5011		27.343750
5012		25.390625
5013		27.343750
5014		25.390625
5015		29.296875
5016		27.343750
5017		31.250000
5018		29.296875
5019		33.203125
5020		31.250000
5021		35.156250
5022		31.250000
5023		35.156250
5024		33.203125
5025		37.109375
5026		33.203125
5027		39.062500
5028		35.156250
5029		39.062500
5030		37.109375
5031		41.015625
5032		39.062500
5033		41.015625
5034		39.062500
5035		42.968750
5036		41.015625
5037		44.921875
5038		41.015625
5039		44.921875
5040		42.968750
5041		46.875000
5042		42.968750
5043		46.875000
5044		44.921875
5045		48.828125
5046		46.875000
5047		48.828125
5048		46.875000
5049		50.781250
5050		48.828125
5051		50.781250
5052		48.828125
5053		52.734375
5054		50.781250
5055		54.687500
5056		50.781250
5057		54.687500
5058		52.734375
5059		54.687500
5060		52.734375
5061		56.640625
5062		54.687500
5063		56.640625
5064		54.687500
5065		58.593750
5066		56.640625
5067		58.593750
5068		56.640625
5069		58.593750
5070		56.640625
5071		60.546875
5072		58.593750
5073		60.546875
5074		58.593750
5075		60.546875
5076		58.593750
5077		62.500000
5078		58.593750
5079		62.500000
5080		60.546875
5081		64.453125
5082		60.546875
5083		64.453125
5084		60.546875
5085		64.453125
5086		60.546875
5087		64.453125
5088		62.500000
5089		64.453125
5090		62.500000
5091		64.453125
5092		62.500000
5093		66.406250
5094		62.500000
5095		64.453125
5096		62.500000
5097		64.453125
5098		62.500000
5099		66.406250
5100		62.500000
5101		66.406250
5102		62.500000
5103		66.406250
5104		62.500000
5105		66.406250
5106		62.500000
5107		66.406250
5108		62.500000
5109		66.406250
5110		62.500000
5111		66.406250
5112		64.453125
5113		64.453125
5114		62.500000
5115		66.406250
5116		62.500000
5117		66.406250
5118		62.500000
5119		66.406250
5120		62.500000
5121		64.453125
5122		62.500000
5123		66.406250
5124		62.500000
5125		64.453125
5126		62.500000
5127		64.453125
5128		60.546875
5129		64.453125
5130		60.546875
5131		62.500000
5132		60.546875
5133		64.453125
5134		58.593750
5135		62.500000
5136		58.593750
5137		62.500000
5138		58.593750
5139		60.546875
5140		56.640625
5141		60.546875
5142		56.640625
5143		60.546875
5144		56.640625
5145		58.593750
5146		56.640625
5147		58.593750
5148		54.687500
5149		58.593750
5150		54.687500
5151		56.640625
5152		52.734375
5153		56.640625
5154		52.734375
5155		54.687500
5156		50.781250
5157		54.687500
5158		50.781250
5159		54.687500
5160		48.828125
5161		52.734375
5162		48.828125
5163		52.734375
5164		46.875000
5165		50.781250
5166		44.921875
5167		48.828125
5168		44.921875
5169		48.828125
5170		44.921875
5171		48.828125
5172		42.968750
5173		46.875000
5174		41.015625
5175		44.921875
5176		39.062500
5177		44.921875
5178		39.062500
5179		42.968750
5180		39.062500
5181		41.015625
5182		37.109375
5183		41.015625
5184		35.156250
5185		39.062500
5186		33.203125
5187		37.109375
5188		33.203125
5189		37.109375
5190		31.250000
5191		35.156250
5192		29.296875
5193		33.203125
5194		29.296875
5195		33.203125
5196		27.343750
5197		29.296875
5198		25.390625
5199		29.296875
5200		23.437500
5201		27.343750
5202		23.437500
5203		25.390625
5204		21.484375
5205		23.437500
5206		19.531250
5207		23.437500
5208		17.578125
5209		21.484375
5210		15.625000
5211		19.531250
5212		15.625000
5213		17.578125
5214		13.671875
5215		15.625000
5216		11.718750
5217		15.625000
5218		9.765625
5219		13.671875
5220		7.812500
5221		11.718750
5222		5.859375
5223		9.765625
5224		3.906250
5225		7.812500
5226		1.953125
5227		7.812500
5228		1.953125
5229		5.859375
5230		0.000000
5231		3.906250
5232		-1.953125
5233		1.953125
5234		-3.906250
5235		0.000000
5236		-5.859375
5237		-1.953125
5238		-7.812500
5239		-3.906250
5240		-7.812500
5241		-5.859375
5242		-9.765625
5243		-5.859375
5244		-11.718750
5245		-7.812500
5246		-13.671875
5247		-9.765625
5248		-15.625000
5249		-11.718750
5250		-17.578125
5251		-11.718750
5252		-17.578125
5253		-13.671875
5254		-19.531250
5255		-15.625000
5256		-21.484375
5257		-17.578125
5258		-23.437500
5259		-19.531250
5260		-25.390625
5261		-21.484375
5262		-25.390625
5263		-21.484375
5264		-27.343750
5265		-23.437500
5266		-29.296875
5267		-25.390625
5268		-29.296875
5269		-25.390625
5270		-33.203125
5271		-27.343750
5272		-33.203125
5273		-29.296875
5274		-35.156250
5275		-29.296875
5276		-35.156250
5277		-33.203125
5278		-37.109375
5279		-33.203125
5280		-37.109375
5281		-35.156250
5282		-39.062500
5283		-35.156250
5284		-41.015625
5285		-37.109375
5286		-42.968750
5287		-39.062500
5288		-42.968750
5289		-39.062500
5290		-44.921875
5291		-41.015625
5292		-44.921875
5293		-41.015625
5294		-46.875000
5295		-42.968750
5296		-46.875000
5297		-44.921875
5298		-48.828125
5299		-44.921875
5300		-48.828125
5301		-44.921875
5302		-50.781250
5303		-46.875000
5304		-50.781250
5305		-46.875000
5306		-50.781250
5307		-48.828125
5308		-52.734375
5309		-48.828125
5310		-54.687500
5311		-48.828125
5312		-54.687500
5313		-50.781250
5314		-54.687500
5315		-50.781250
5316		-54.687500
5317		-50.781250
5318		-56.640625
5319		-52.734375
5320		-56.640625
5321		-52.734375
5322		-56.640625
5323		-52.734375
5324		-56.640625
5325		-52.734375
5326		-56.640625
5327		-54.687500
5328		-58.593750
5329		-54.687500
5330		-56.640625
5331		-54.687500
5332		-58.593750
5333		-54.687500
5334		-58.593750
5335		-54.687500
5336		-58.593750
5337		-54.687500
5338		-58.593750
5339		-56.640625
5340		-58.593750
5341		-56.640625
5342		-58.593750
5343		-54.687500
5344		-58.593750
5345		-54.687500
5346		-58.593750
5347		-54.687500
5348		-58.593750
5349		-56.640625
5350		-58.593750
5351		-54.687500
5352		-58.593750
5353		-54.687500
5354		-58.593750
5355		-54.687500
5356		-56.640625
5357		-54.687500
5358		-56.640625
5359		-54.687500
5360		-56.640625
5361		-52.734375
5362		-56.640625
5363		-52.734375
5364		-54.687500
5365		-52.734375
5366		-54.687500
5367		-50.781250
5368		-54.687500
5369		-50.781250
5370		-54.687500
5371		-50.781250
5372		-52.734375
5373		-50.781250
5374		-52.734375
5375		-48.828125
5376		-50.781250
5377		-48.828125
5378		-50.781250
5379		-46.875000
5380		-48.828125
5381		-46.875000
5382		-48.828125
5383		-44.921875
5384		-48.828125
5385		-44.921875
5386		-46.875000
5387		-42.968750
5388		-46.875000
5389		-42.968750
5390		-44.921875
5391		-41.015625
5392		-42.968750
5393		-41.015625
5394		-42.968750
5395		-39.062500
5396		-41.015625
5397		-39.062500
5398		-41.015625
5399		-37.109375
5400		-39.062500
5401		-35.156250
5402		-37.109375
5403		-35.156250
5404		-37.109375
5405		-33.203125
5406		-35.156250
5407		-31.250000
5408		-33.203125
5409		-31.250000
5410		-33.203125
5411		-29.296875
5412		-33.203125
5413		-27.343750
5414		-29.296875
5415		-27.343750
5416		-29.296875
5417		-25.390625
5418		-29.296875
5419		-23.437500
5420		-25.390625
5421		-21.484375
5422		-23.437500
5423		-21.484375
5424		-23.437500
5425		-19.531250
5426		-21.484375
5427		-17.578125
5428		-19.531250
5429		-15.625000
5430		-17.578125
5431		-15.625000
5432		-15.625000
5433		-13.671875
5434		-15.625000
5435		-11.718750
5436		-13.671875
5437		-9.765625
5438		-13.671875
5439		-7.812500
5440		-9.765625
5441		-5.859375
5442		-7.812500
5443		-5.859375
5444		-7.812500
5445		-3.906250
5446		-5.859375
5447		-1.953125
5448		-3.906250
5449		0.000000
5450		-1.953125
5451		1.953125
5452		0.000000
5453		3.906250
5454		0.000000
5455		3.906250
5456		1.953125
5457		5.859375
5458		3.906250
5459		7.812500
5460		5.859375
5461		9.765625
5462		7.812500
5463		11.718750
5464		9.765625
5465		11.718750
5466		11.718750
5467		13.671875
5468		11.718750
5469		15.625000
5470		13.671875
5471		17.578125
5472		15.625000
5473		19.531250
5474		17.578125
5475		19.531250
5476		17.578125
5477		21.484375
5478		19.531250
5479		23.437500
5480		21.484375
5481		25.390625
5482		23.437500
5483		25.390625
5484		23.437500
5485		27.343750
5486		25.390625
5487		29.296875
5488		27.343750
5489		31.250000
5490		29.296875
5491		31.250000
5492		29.296875
5493		33.203125
5494		31.250000
5495		35.156250
5496		33.203125
5497		35.156250
5498		35.156250
5499		37.109375
5500		35.156250
5501		39.062500
5502		35.156250
5503		39.062500
5504		39.062500
5505		41.015625
5506		39.062500
5507		42.968750
5508		41.015625
5509		42.968750
5510		41.015625
5511		44.921875
5512		42.968750
5513		46.875000
5514		42.968750
5515		46.875000
5516		44.921875
5517		48.828125
5518		46.875000
5519		48.828125
5520		46.875000
5521		50.781250
5522		48.828125
5523		50.781250
5524		48.828125
5525		52.734375
5526		50.781250
5527		54.687500
5528		50.781250
5529		54.687500
5530		50.781250
5531		54.687500
5532		52.734375
5533		54.687500
5534		52.734375
5535		56.640625
5536		54.687500
5537		56.640625
5538		54.687500
5539		58.593750
5540		56.640625
5541		58.593750
5542		56.640625
5543		60.546875
5544		56.640625
5545		60.546875
5546		56.640625
5547		60.546875
5548		58.593750
5549		60.546875
5550		60.546875
5551		62.500000
5552		58.593750
5553		62.500000
5554		60.546875
5555		62.500000
5556		60.546875
5557		64.453125
5558		60.546875
5559		64.453125
5560		60.546875
5561		64.453125
5562		62.500000
5563		64.453125
5564		60.546875
5565		64.453125
5566		62.500000
5567		64.453125
5568		60.546875
5569		66.406250
5570		62.500000
5571		64.453125
5572		62.500000
5573		64.453125
5574		62.500000
5575		66.406250
5576		62.500000
5577		66.406250
5578		62.500000
5579		66.406250
5580		62.500000
5581		64.453125
5582		62.500000
5583		64.453125
5584		62.500000
5585		64.453125
5586		62.500000
5587		64.453125
5588		62.500000
5589		64.453125
5590		62.500000
5591		64.453125
5592		60.546875
5593		64.453125
5594		60.546875
5595		64.453125
5596		60.546875
5597		64.453125
5598		60.546875
5599		64.453125
5600		60.546875
5601		62.500000
5602		58.593750
5603		62.500000
5604		58.593750
5605		62.500000
5606		58.593750
5607		62.500000
5608		58.593750
5609		60.546875
5610		56.640625
5611		60.546875
5612		56.640625
5613		60.546875
5614		56.640625
5615		58.593750
5616		56.640625
5617		58.593750
5618		54.687500
5619		58.593750
5620		54.687500
5621		56.640625
5622		52.734375
5623		56.640625
5624		52.734375
5625		56.640625
5626		50.781250
5627		54.687500
5628		50.781250
5629		54.687500
5630		48.828125
5631		52.734375
5632		48.828125
5633		50.781250
5634		46.875000
5635		50.781250
5636		46.875000
5637		50.781250
5638		44.921875
5639		48.828125
5640		44.921875
5641		48.828125
5642		42.968750
5643		46.875000
5644		41.015625
5645		44.921875
5646		41.015625
5647		42.968750
5648		39.062500
5649		42.968750
5650		39.062500
5651		41.015625
5652		37.109375
5653		39.062500
5654		35.156250
5655		39.062500
5656		33.203125
5657		37.109375
5658		33.203125
5659		35.156250
5660		31.250000
5661		35.156250
5662		29.296875
5663		33.203125
5664		29.296875
5665		33.203125
5666		27.343750
5667		31.250000
5668		25.390625
5669		29.296875
5670		23.437500
5671		27.343750
5672		21.484375
5673		27.343750
5674		21.484375
5675		23.437500
5676		19.531250
5677		23.437500
5678		17.578125
5679		21.484375
5680		15.625000
5681		19.531250
5682		15.625000
5683		19.531250
5684		13.671875
5685		15.625000
5686		11.718750
5687		15.625000
5688		9.765625
5689		13.671875
5690		7.812500
5691		11.718750
5692		7.812500
5693		9.765625
5694		3.906250
5695		7.812500
5696		1.953125
5697		7.812500
5698		1.953125
5699		5.859375
5700		0.000000
5701		3.906250
5702		-3.906250
5703		1.953125
5704		-3.906250
5705		0.000000
5706		-5.859375
5707		-1.953125
5708		-5.859375
5709		-1.953125
5710		-7.812500
5711		-3.906250
5712		-9.765625
5713		-5.859375
5714		-11.718750
5715		-7.812500
5716		-13.671875
5717		-9.765625
5718		-15.625000
5719		-11.718750
5720		-17.578125
5721		-11.718750
5722		-17.578125
5723		-13.671875
5724		-19.531250
5725		-15.625000
5726		-21.484375
5727		-17.578125
5728		-23.437500
5729		-19.531250
5730		-23.437500
5731		-19.531250
5732		-25.390625
5733		-21.484375
5734		-27.343750
5735		-23.437500
5736		-29.296875
5737		-25.390625
5738		-29.296875
5739		-27.343750
5740		-31.250000
5741		-27.343750
5742		-33.203125
5743		-29.296875
5744		-35.156250
5745		-31.250000
5746		-35.156250
5747		-31.250000
5748		-37.109375
5749		-33.203125
5750		-37.109375
5751		-35.156250
5752		-39.062500
5753		-35.156250
5754		-41.015625
5755		-37.109375
5756		-41.015625
5757		-39.062500
5758		-42.968750
5759		-39.062500
5760		-44.921875
5761		-41.015625
5762		-44.921875
5763		-41.015625
5764		-46.875000
5765		-42.968750
5766		-46.875000
5767		-42.968750
5768		-48.828125
5769		-44.921875
5770		-48.828125
5771		-44.921875
5772		-50.781250
5773		-46.875000
5774		-50.781250
5775		-46.875000
5776		-52.734375
5777		-48.828125
5778		-52.734375
5779		-48.828125
5780		-52.734375
5781		-50.781250
5782		-54.687500
5783		-50.781250
5784		-54.687500
5785		-52.734375
5786		-54.687500
5787		-52.734375
5788		-56.640625
5789		-52.734375
5790		-56.640625
5791		-52.734375
5792		-56.640625
5793		-52.734375
5794		-56.640625
5795		-52.734375
5796		-58.593750
5797		-54.687500
5798		-58.593750
5799		-54.687500
5800		-58.593750
5801		-56.640625
5802		-58.593750
5803		-56.640625
5804		-58.593750
5805		-54.687500
5806		-60.546875
5807		-54.687500
5808		-58.593750
5809		-54.687500
5810		-58.593750
5811		-54.687500
5812		-58.593750
5813		-54.687500
5814		-60.546875
5815		-54.687500
5816		-58.593750
5817		-56.640625
5818		-58.593750
5819		-56.640625
5820		-58.593750
5821		-54.687500
5822		-58.593750
5823		-54.687500
5824		-58.593750
5825		-54.687500
5826		-58.593750
5827		-54.687500
5828		-58.593750
5829		-52.734375
5830		-56.640625
5831		-54.687500
5832		-56.640625
5833		-52.734375
5834		-56.640625
5835		-52.734375
5836		-56.640625
5837		-52.734375
5838		-56.640625
5839		-50.781250
5840		-54.687500
5841		-50.781250
5842		-54.687500
5843		-48.828125
5844		-54.687500
5845		-48.828125
5846		-52.734375
5847		-48.828125
5848		-52.734375
5849		-46.875000
5850		-50.781250
5851		-46.875000
5852		-48.828125
5853		-46.875000
5854		-48.828125
5855		-44.921875
5856		-48.828125
5857		-44.921875
5858		-46.875000
5859		-42.968750
5860		-46.875000
5861		-41.015625
5862		-46.875000
5863		-41.015625
5864		-44.921875
5865		-41.015625
5866		-42.968750
5867		-39.062500
5868		-41.015625
5869		-39.062500
5870		-41.015625
5871		-37.109375
5872		-39.062500
5873		-35.156250
5874		-39.062500
5875		-33.203125
5876		-39.062500
5877		-33.203125
5878		-37.109375
5879		-31.250000
5880		-35.156250
5881		-29.296875
5882		-33.203125
5883		-29.296875
5884		-31.250000
5885		-27.343750
5886		-29.296875
5887		-27.343750
5888		-29.296875
5889		-25.390625
5890		-27.343750
5891		-23.437500
5892		-27.343750
5893		-21.484375
5894		-25.390625
5895		-19.531250
5896		-23.437500
5897		-19.531250
5898		-21.484375
5899		-15.625000
5900		-21.484375
5901		-15.625000
5902		-17.578125
5903		-15.625000
5904		-17.578125
5905		-11.718750
5906		-15.625000
5907		-11.718750
5908		-13.671875
5909		-9.765625
5910		-11.718750
5911		-7.812500
5912		-9.765625
5913		-7.812500
5914		-7.812500
5915		-5.859375
5916		-7.812500
5917		-3.906250
5918		-5.859375
5919		-1.953125
5920		-3.906250
5921		0.000000
5922		-1.953125
5923		1.953125
5924		0.000000
5925		1.953125
5926		1.953125
5927		3.906250
5928		1.953125
5929		5.859375
5930		3.906250
5931		7.812500
5932		5.859375
5933		9.765625
5934		5.859375
5935		9.765625
5936		9.765625
5937		11.718750
5938		9.765625
5939		13.671875
5940		11.718750
5941		15.625000
5942		13.671875
5943		17.578125
5944		15.625000
5945		19.531250
5946		17.578125
5947		19.531250
5948		17.578125
5949		21.484375
5950		19.531250
5951		23.437500
5952		21.484375
5953		25.390625
5954		23.437500
5955		27.343750
5956		25.390625
5957		27.343750
5958		25.390625
5959		29.296875
5960		27.343750
5961		31.250000
5962		29.296875
5963		31.250000
5964		31.250000
5965		33.203125
5966		31.250000
5967		35.156250
5968		33.203125
5969		35.156250
5970		35.156250
5971		37.109375
5972		35.156250
5973		39.062500
5974		37.109375
5975		39.062500
5976		39.062500
5977		41.015625
5978		39.062500
5979		42.968750
5980		41.015625
5981		42.968750
5982		41.015625
5983		44.921875
5984		42.968750
5985		44.921875
5986		44.921875
5987		46.875000
5988		44.921875
5989		48.828125
5990		46.875000
5991		48.828125
5992		46.875000
5993		50.781250
5994		48.828125
5995		50.781250
5996		48.828125
5997		52.734375
5998		50.781250
5999		52.734375
6000		50.781250
6001		54.687500
6002		52.734375
6003		54.687500
6004		52.734375
6005		54.687500
6006		50.781250
6007		58.593750
6008		50.781250
6009		60.546875
6010		52.734375
6011		60.546875
6012		56.640625
6013		58.593750
6014		56.640625
6015		58.593750
6016		58.593750
6017		60.546875
6018		58.593750
6019		60.546875
6020		58.593750
6021		60.546875
6022		54.687500
6023		64.453125
6024		56.640625
6025		66.406250
6026		56.640625
6027		66.406250
6028		60.546875
6029		62.500000
6030		60.546875
6031		62.500000
6032		60.546875
6033		64.453125
6034		62.500000
6035		64.453125
6036		60.546875
6037		64.453125
6038		62.500000
6039		64.453125
6040		58.593750
6041		68.359375
6042		58.593750
6043		68.359375
6044		60.546875
6045		68.359375
6046		62.500000
6047		64.453125
6048		62.500000
6049		64.453125
6050		62.500000
6051		64.453125
6052		62.500000
6053		64.453125
6054		62.500000
6055		64.453125
6056		58.593750
6057		68.359375
6058		58.593750
6059		66.406250
6060		58.593750
6061		68.359375
6062		62.500000
6063		64.453125
6064		60.546875
6065		64.453125
6066		60.546875
6067		62.500000
6068		60.546875
6069		62.500000
6070		60.546875
6071		62.500000
6072		56.640625
6073		64.453125
6074		56.640625
6075		64.453125
6076		56.640625
6077		64.453125
6078		54.687500
6079		64.453125
6080		58.593750
6081		60.546875
6082		56.640625
6083		58.593750
6084		56.640625
6085		58.593750
6086		56.640625
6087		58.593750
6088		54.687500
6089		58.593750
6090		50.781250
6091		60.546875
6092		50.781250
6093		58.593750
6094		48.828125
6095		58.593750
6096		52.734375
6097		54.687500
6098		50.781250
6099		52.734375
6100		50.781250
6101		52.734375
6102		48.828125
6103		52.734375
6104		48.828125
6105		50.781250
6106		44.921875
6107		52.734375
6108		42.968750
6109		50.781250
6110		41.015625
6111		50.781250
6112		41.015625
6113		48.828125
6114		42.968750
6115		44.921875
6116		41.015625
6117		44.921875
6118		39.062500
6119		42.968750
6120		39.062500
6121		41.015625
6122		37.109375
6123		41.015625
6124		33.203125
6125		42.968750
6126		31.250000
6127		41.015625
6128		31.250000
6129		41.015625
6130		31.250000
6131		35.156250
6132		31.250000
6133		33.203125
6134		29.296875
6135		33.203125
6136		27.343750
6137		31.250000
6138		25.390625
6139		29.296875
6140		21.484375
6141		31.250000
6142		19.531250
6143		29.296875
6144		17.578125
6145		27.343750
6146		19.531250
6147		23.437500
6148		19.531250
6149		21.484375
6150		17.578125
6151		21.484375
6152		15.625000
6153		19.531250
6154		13.671875
6155		17.578125
6156		9.765625
6157		17.578125
6158		7.812500
6159		17.578125
6160		5.859375
6161		15.625000
6162		5.859375
6163		13.671875
6164		5.859375
6165		9.765625
6166		3.906250
6167		7.812500
6168		1.953125
6169		5.859375
6170		0.000000
6171		3.906250
6172		0.000000
6173		1.953125
6174		-3.906250
6175		3.906250
6176		-7.812500
6177		1.953125
6178		-7.812500
6179		0.000000
6180		-7.812500
6181		-3.906250
6182		-7.812500
6183		-5.859375
6184		-9.765625
6185		-7.812500
6186		-11.718750
6187		-7.812500
6188		-13.671875
6189		-9.765625
6190		-15.625000
6191		-11.718750
6192		-17.578125
6193		-13.671875
6194		-21.484375
6195		-11.718750
6196		-19.531250
6197		-17.578125
6198		-21.484375
6199		-17.578125
6200		-23.437500
6201		-19.531250
6202		-25.390625
6203		-21.484375
6204		-25.390625
6205		-23.437500
6206		-27.343750
6207		-25.390625
6208		-29.296875
6209		-25.390625
6210		-33.203125
6211		-25.390625
6212		-33.203125
6213		-25.390625
6214		-33.203125
6215		-31.250000
6216		-35.156250
6217		-31.250000
6218		-35.156250
6219		-33.203125
6220		-37.109375
6221		-35.156250
6222		-39.062500
6223		-35.156250
6224		-41.015625
6225		-37.109375
6226		-42.968750
6227		-37.109375
6228		-42.968750
6229		-39.062500
6230		-42.968750
6231		-41.015625
6232		-44.921875
6233		-41.015625
6234		-44.921875
6235		-42.968750
6236		-46.875000
6237		-44.921875
6238		-46.875000
6239		-44.921875
6240		-48.828125
6241		-44.921875
6242		-48.828125
6243		-46.875000
6244		-50.781250
6245		-46.875000
6246		-50.781250
6247		-48.828125
6248		-52.734375
6249		-50.781250
6250		-52.734375
6251		-50.781250
6252		-52.734375
6253		-50.781250
6254		-54.687500
6255		-50.781250
6256		-54.687500
6257		-52.734375
6258		-54.687500
6259		-52.734375
6260		-56.640625
6261		-52.734375
6262		-56.640625
6263		-54.687500
6264		-56.640625
6265		-54.687500
6266		-56.640625
6267		-54.687500
6268		-58.593750
6269		-56.640625
6270		-58.593750
6271		-56.640625
6272		-58.593750
6273		-56.640625
6274		-58.593750
6275		-56.640625
6276		-58.593750
6277		-56.640625
6278		-58.593750
6279		-56.640625
6280		-58.593750
6281		-56.640625
6282		-60.546875
6283		-56.640625
6284		-58.593750
6285		-56.640625
6286		-58.593750
6287		-56.640625
6288		-58.593750
6289		-56.640625
6290		-58.593750
6291		-56.640625
6292		-58.593750
6293		-56.640625
6294		-60.546875
6295		-54.687500
6296		-58.593750
6297		-56.640625
6298		-58.593750
6299		-54.687500
6300		-58.593750
6301		-54.687500
6302		-56.640625
6303		-54.687500
6304		-56.640625
6305		-54.687500
6306		-56.640625
6307		-54.687500
6308		-56.640625
6309		-52.734375
6310		-56.640625
6311		-52.734375
6312		-54.687500
6313		-52.734375
6314		-54.687500
6315		-50.781250
6316		-54.687500
6317		-50.781250
6318		-52.734375
6319		-50.781250
6320		-52.734375
6321		-48.828125
6322		-50.781250
6323		-48.828125
6324		-50.781250
6325		-46.875000
6326		-50.781250
6327		-46.875000
6328		-48.828125
6329		-44.921875
6330		-46.875000
6331		-44.921875
6332		-46.875000
6333		-42.968750
6334		-46.875000
6335		-42.968750
6336		-44.921875
6337		-41.015625
6338		-42.968750
6339		-41.015625
6340		-41.015625
6341		-39.062500
6342		-42.968750
6343		-37.109375
6344		-41.015625
6345		-37.109375
6346		-39.062500
6347		-35.156250
6348		-37.109375
6349		-33.203125
6350		-37.109375
6351		-33.203125
6352		-35.156250
6353		-31.250000
6354		-33.203125
6355		-29.296875
6356		-31.250000
6357		-29.296875
6358		-31.250000
6359		-25.390625
6360		-29.296875
6361		-25.390625
6362		-27.343750
6363		-25.390625
6364		-25.390625
6365		-21.484375
6366		-25.390625
6367		-19.531250
6368		-23.437500
6369		-19.531250
6370		-21.484375
6371		-17.578125
6372		-19.531250
6373		-17.578125
6374		-17.578125
6375		-15.625000
6376		-17.578125
6377		-11.718750
6378		-15.625000
6379		-11.718750
6380		-13.671875
6381		-9.765625
6382		-11.718750
6383		-7.812500
6384		-11.718750
6385		-7.812500
6386		-7.812500
6387		-5.859375
6388		-7.812500
6389		-3.906250
6390		-5.859375
6391		-1.953125
6392		-5.859375
6393		0.000000
6394		-1.953125
6395		1.953125
6396		0.000000
6397		1.953125
6398		0.000000
6399		3.906250
6400		1.953125
6401		5.859375
6402		3.906250
6403		7.812500
6404		5.859375
6405		9.765625
6406		7.812500
6407		9.765625
6408		7.812500
6409		13.671875
6410		9.765625
6411		15.625000
6412		11.718750
6413		15.625000
6414		13.671875
6415		15.625000
6416		13.671875
6417		19.531250
6418		15.625000
6419		19.531250
6420		17.578125
6421		21.484375
6422		19.531250
6423		23.437500
6424		21.484375
6425		23.437500
6426		21.484375
6427		25.390625
6428		23.437500
6429		27.343750
6430		25.390625
6431		29.296875
6432		27.343750
6433		31.250000
6434		27.343750
6435		31.250000
6436		29.296875
6437		33.203125
6438		31.250000
6439		35.156250
6440		33.203125
6441		35.156250
6442		33.203125
6443		39.062500
6444		35.156250
6445		39.062500
6446		37.109375
6447		39.062500
6448		37.109375
6449		41.015625
6450		39.062500
6451		42.968750
6452		39.062500
6453		42.968750
6454		41.015625
6455		44.921875
6456		42.968750
6457		46.875000
6458		42.968750
6459		46.875000
6460		42.968750
6461		48.828125
6462		44.921875
6463		48.828125
6464		46.875000
6465		48.828125
6466		46.875000
6467		50.781250
6468		46.875000
6469		52.734375
6470		50.781250
6471		52.734375
6472		50.781250
6473		52.734375
6474		52.734375
6475		54.687500
6476		52.734375
6477		54.687500
6478		52.734375
6479		56.640625
6480		54.687500
6481		56.640625
6482		54.687500
6483		56.640625
6484		56.640625
6485		58.593750
6486		56.640625
6487		58.593750
6488		56.640625
6489		58.593750
6490		56.640625
6491		60.546875
6492		58.593750
6493		60.546875
6494		58.593750
6495		60.546875
6496		58.593750
6497		60.546875
6498		60.546875
6499		62.500000
6500		58.593750
6501		62.500000
6502		60.546875
6503		62.500000
6504		60.546875
6505		62.500000
6506		60.546875
6507		62.500000
6508		60.546875
6509		62.500000
6510		60.546875
6511		64.453125
6512		60.546875
6513		64.453125
6514		62.500000
6515		64.453125
6516		62.500000
6517		64.453125
6518		62.500000
6519		64.453125
6520		62.500000
6521		64.453125
6522		62.500000
6523		64.453125
6524		62.500000
6525		64.453125
6526		62.500000
6527		64.453125
6528		62.500000
6529		64.453125
6530		62.500000
6531		64.453125
6532		62.500000
6533		62.500000
6534		60.546875
6535		64.453125
6536		60.546875
6537		62.500000
6538		60.546875
6539		62.500000
6540		60.546875
6541		62.500000
6542		60.546875
6543		62.500000
6544		58.593750
6545		62.500000
6546		58.593750
6547		60.546875
6548		58.593750
6549		60.546875
6550		58.593750
6551		60.546875
6552		56.640625
6553		58.593750
6554		56.640625
6555		58.593750
6556		54.687500
6557		58.593750
6558		54.687500
6559		58.593750
6560		54.687500
6561		56.640625
6562		54.687500
6563		56.640625
6564		52.734375
6565		54.687500
6566		50.781250
6567		54.687500
6568		50.781250
6569		54.687500
6570		50.781250
6571		52.734375
6572		48.828125
6573		52.734375
6574		48.828125
6575		50.781250
6576		46.875000
6577		50.781250
6578		44.921875
6579		48.828125
6580		44.921875
6581		48.828125
6582		44.921875
6583		46.875000
6584		42.968750
6585		44.921875
6586		41.015625
6587		44.921875
6588		41.015625
6589		42.968750
6590		39.062500
6591		42.968750
6592		37.109375
6593		41.015625
6594		37.109375
6595		41.015625
6596		35.156250
6597		39.062500
6598		35.156250
6599		37.109375
6600		31.250000
6601		35.156250
6602		31.250000
6603		33.203125
6604		29.296875
6605		33.203125
6606		29.296875
6607		31.250000
6608		27.343750
6609		29.296875
6610		25.390625
6611		29.296875
6612		23.437500
6613		29.296875
6614		21.484375
6615		25.390625
6616		21.484375
6617		23.437500
6618		19.531250
6619		21.484375
6620		17.578125
6621		21.484375
6622		15.625000
6623		19.531250
6624		15.625000
6625		17.578125
6626		13.671875
6627		15.625000
6628		9.765625
6629		15.625000
6630		9.765625
6631		13.671875
6632		7.812500
6633		11.718750
6634		5.859375
6635		11.718750
6636		3.906250
6637		7.812500
6638		3.906250
6639		5.859375
6640		1.953125
6641		5.859375
6642		0.000000
6643		3.906250
6644		-1.953125
6645		1.953125
6646		-3.906250
6647		0.000000
6648		-5.859375
6649		-1.953125
6650		-5.859375
6651		-3.906250
6652		-7.812500
6653		-5.859375
6654		-9.765625
6655		-5.859375
6656		-11.718750
6657		-7.812500
6658		-13.671875
6659		-9.765625
6660		-15.625000
6661		-11.718750
6662		-17.578125
6663		-11.718750
6664		-17.578125
6665		-11.718750
6666		-19.531250
6667		-15.625000
6668		-21.484375
6669		-17.578125
6670		-21.484375
6671		-19.531250
6672		-23.437500
6673		-21.484375
6674		-25.390625
6675		-21.484375
6676		-27.343750
6677		-23.437500
6678		-29.296875
6679		-23.437500
6680		-31.250000
6681		-25.390625
6682		-31.250000
6683		-27.343750
6684		-33.203125
6685		-29.296875
6686		-33.203125
6687		-31.250000
6688		-35.156250
6689		-33.203125
6690		-37.109375
6691		-33.203125
6692		-37.109375
6693		-35.156250
6694		-41.015625
6695		-35.156250
6696		-42.968750
6697		-35.156250
6698		-41.015625
6699		-39.062500
6700		-42.968750
6701		-41.015625
6702		-42.968750
6703		-41.015625
6704		-44.921875
6705		-42.968750
6706		-46.875000
6707		-42.968750
6708		-46.875000
6709		-44.921875
6710		-48.828125
6711		-44.921875
6712		-50.781250
6713		-44.921875
6714		-50.781250
6715		-46.875000
6716		-50.781250
6717		-48.828125
6718		-52.734375
6719		-48.828125
6720		-52.734375
6721		-50.781250
6722		-52.734375
6723		-50.781250
6724		-54.687500
6725		-50.781250
6726		-54.687500
6727		-52.734375
6728		-56.640625
6729		-50.781250
6730		-58.593750
6731		-52.734375
6732		-56.640625
6733		-54.687500
6734		-56.640625
6735		-54.687500
6736		-58.593750
6737		-54.687500
6738		-58.593750
6739		-56.640625
6740		-58.593750
6741		-56.640625
6742		-58.593750
6743		-56.640625
6744		-60.546875
6745		-54.687500
6746		-60.546875
6747		-56.640625
6748		-60.546875
6749		-56.640625
6750		-58.593750
6751		-56.640625
6752		-58.593750
6753		-56.640625
6754		-60.546875
6755		-56.640625
6756		-60.546875
6757		-56.640625
6758		-58.593750
6759		-56.640625
6760		-60.546875
6761		-56.640625
6762		-62.500000
6763		-54.687500
6764		-60.546875
6765		-54.687500
6766		-58.593750
6767		-56.640625
6768		-58.593750
6769		-56.640625
6770		-58.593750
6771		-56.640625
6772		-58.593750
6773		-56.640625
6774		-56.640625
6775		-54.687500
6776		-56.640625
6777		-54.687500
6778		-58.593750
6779		-52.734375
6780		-58.593750
6781		-52.734375
6782		-56.640625
6783		-52.734375
6784		-54.687500
6785		-52.734375
6786		-54.687500
6787		-50.781250
6788		-52.734375
6789		-50.781250
6790		-52.734375
6791		-48.828125
6792		-52.734375
6793		-48.828125
6794		-50.781250
6795		-48.828125
6796		-50.781250
6797		-46.875000
6798		-50.781250
6799		-44.921875
6800		-48.828125
6801		-44.921875
6802		-46.875000
6803		-42.968750
6804		-46.875000
6805		-42.968750
6806		-44.921875
6807		-42.968750
6808		-44.921875
6809		-41.015625
6810		-42.968750
6811		-41.015625
6812		-42.968750
6813		-39.062500
6814		-41.015625
6815		-37.109375
6816		-39.062500
6817		-37.109375
6818		-39.062500
6819		-35.156250
6820		-37.109375
6821		-33.203125
6822		-35.156250
6823		-33.203125
6824		-35.156250
6825		-31.250000
6826		-33.203125
6827		-29.296875
6828		-31.250000
6829		-29.296875
6830		-31.250000
6831		-27.343750
6832		-29.296875
6833		-25.390625
6834		-27.343750
6835		-23.437500
6836		-25.390625
6837		-21.484375
6838		-23.437500
6839		-21.484375
6840		-23.437500
6841		-19.531250
6842		-21.484375
6843		-17.578125
6844		-19.531250
6845		-15.625000
6846		-17.578125
6847		-13.671875
6848		-17.578125
6849		-13.671875
6850		-15.625000
6851		-11.718750
6852		-13.671875
6853		-9.765625
6854		-11.718750
6855		-7.812500
6856		-9.765625
6857		-7.812500
6858		-7.812500
6859		-3.906250
6860		-7.812500
6861		-3.906250
6862		-5.859375
6863		-1.953125
6864		-3.906250
6865		0.000000
6866		-1.953125
6867		1.953125
6868		0.000000
6869		1.953125
6870		1.953125
6871		5.859375
6872		1.953125
6873		5.859375
6874		3.906250
6875		7.812500
6876		5.859375
6877		9.765625
6878		7.812500
6879		11.718750
6880		9.765625
6881		11.718750
6882		11.718750
6883		13.671875
6884		11.718750
6885		15.625000
6886		13.671875
6887		17.578125
6888		15.625000
6889		19.531250
6890		17.578125
6891		19.531250
6892		19.531250
6893		21.484375
6894		19.531250
6895		23.437500
6896		21.484375
6897		25.390625
6898		23.437500
6899		25.390625
6900		25.390625
6901		27.343750
6902		25.390625
6903		29.296875
6904		27.343750
6905		31.250000
6906		29.296875
6907		31.250000
6908		31.250000
6909		33.203125
6910		31.250000
6911		35.156250
6912		33.203125
6913		35.156250
6914		35.156250
6915		37.109375
6916		35.156250
6917		39.062500
6918		37.109375
6919		39.062500
6920		39.062500
6921		41.015625
6922		39.062500
6923		42.968750
6924		41.015625
6925		42.968750
6926		42.968750
6927		44.921875
6928		42.968750
6929		46.875000
6930		44.921875
6931		46.875000
6932		44.921875
6933		48.828125
6934		46.875000
6935		48.828125
6936		46.875000
6937		50.781250
6938		48.828125
6939		50.781250
6940		48.828125
6941		52.734375
6942		50.781250
6943		52.734375
6944		50.781250
6945		54.687500
6946		52.734375
6947		54.687500
6948		52.734375
6949		54.687500
6950		52.734375
6951		56.640625
6952		54.687500
6953		56.640625
6954		54.687500
6955		58.593750
6956		56.640625
6957		58.593750
6958		56.640625
6959		58.593750
6960		56.640625
6961		58.593750
6962		56.640625
6963		60.546875
6964		58.593750
6965		60.546875
6966		58.593750
6967		60.546875
6968		58.593750
6969		60.546875
6970		60.546875
6971		62.500000
6972		60.546875
6973		62.500000
6974		60.546875
6975		62.500000
6976		60.546875
6977		62.500000
6978		60.546875
6979		62.500000
6980		60.546875
6981		64.453125
6982		62.500000
6983		64.453125
6984		62.500000
6985		64.453125
6986		60.546875
6987		64.453125
6988		62.500000
6989		64.453125
6990		62.500000
6991		64.453125
6992		62.500000
6993		64.453125
6994		62.500000
6995		64.453125
6996		62.500000
6997		64.453125
6998		60.546875
6999		64.453125
7000		62.500000
7001		64.453125
7002		62.500000
7003		64.453125
7004		60.546875
7005		62.500000
7006		60.546875
7007		62.500000
7008		60.546875
7009		64.453125
7010		60.546875
7011		62.500000
7012		60.546875
7013		62.500000
7014		60.546875
7015		62.500000
7016		58.593750
7017		60.546875
7018		58.593750
7019		60.546875
7020		56.640625
7021		60.546875
7022		56.640625
7023		60.546875
7024		56.640625
7025		58.593750
7026		56.640625
7027		58.593750
7028		56.640625
7029		58.593750
7030		54.687500
7031		56.640625
7032		54.687500
7033		56.640625
7034		52.734375
7035		56.640625
7036		52.734375
7037		54.687500
7038		52.734375
7039		54.687500
7040		50.781250
7041		52.734375
7042		50.781250
7043		52.734375
7044		48.828125
7045		52.734375
7046		46.875000
7047		50.781250
7048		46.875000
7049		48.828125
7050		44.921875
7051		48.828125
7052		44.921875
7053		46.875000
7054		42.968750
7055		46.875000
7056		42.968750
7057		46.875000
7058		41.015625
7059		44.921875
7060		41.015625
7061		42.968750
7062		39.062500
7063		41.015625
7064		37.109375
7065		41.015625
7066		37.109375
7067		39.062500
7068		35.156250
7069		39.062500
7070		33.203125
7071		37.109375
7072		33.203125
7073		35.156250
7074		31.250000
7075		33.203125
7076		29.296875
7077		33.203125
7078		27.343750
7079		31.250000
7080		27.343750
7081		31.250000
7082		25.390625
7083		27.343750
7084		23.437500
7085		27.343750
7086		21.484375
7087		25.390625
7088		21.484375
7089		23.437500
7090		19.531250
7091		21.484375
7092		17.578125
7093		21.484375
7094		15.625000
7095		19.531250
7096		13.671875
7097		17.578125
7098		13.671875
7099		15.625000
7100		11.718750
7101		13.671875
7102		9.765625
7103		11.718750
7104		7.812500
7105		11.718750
7106		5.859375
7107		9.765625
7108		3.906250
7109		7.812500
7110		1.953125
7111		5.859375
7112		1.953125
7113		3.906250
7114		-1.953125
7115		1.953125
7116		-1.953125
7117		1.953125
7118		-3.906250
7119		0.000000
7120		-5.859375
7121		-1.953125
7122		-7.812500
7123		-3.906250
7124		-7.812500
7125		-5.859375
7126		-9.765625
7127		-7.812500
7128		-11.718750
7129		-7.812500
7130		-13.671875
7131		-9.765625
7132		-15.625000
7133		-11.718750
7134		-17.578125
7135		-13.671875
7136		-17.578125
7137		-15.625000
7138		-21.484375
7139		-17.578125
7140		-21.484375
7141		-19.531250
7142		-23.437500
7143		-19.531250
7144		-25.390625
7145		-21.484375
7146		-25.390625
7147		-23.437500
7148		-27.343750
7149		-25.390625
7150		-29.296875
7151		-25.390625
7152		-31.250000
7153		-27.343750
7154		-31.250000
7155		-29.296875
7156		-33.203125
7157		-31.250000
7158		-35.156250
7159		-31.250000
7160		-37.109375
7161		-33.203125
7162		-37.109375
7163		-35.156250
7164		-39.062500
7165		-35.156250
7166		-39.062500
7167		-37.109375
7168		-41.015625
7169		-39.062500
7170		-42.968750
7171		-39.062500
7172		-42.968750
7173		-41.015625
7174		-44.921875
7175		-41.015625
7176		-44.921875
7177		-42.968750
7178		-46.875000
7179		-44.921875
7180		-48.828125
7181		-44.921875
7182		-48.828125
7183		-46.875000
7184		-48.828125
7185		-46.875000
7186		-50.781250
7187		-46.875000
7188		-50.781250
7189		-48.828125
7190		-52.734375
7191		-50.781250
7192		-52.734375
7193		-50.781250
7194		-54.687500
7195		-50.781250
7196		-54.687500
7197		-52.734375
7198		-56.640625
7199		-52.734375
7200		-56.640625
7201		-52.734375
7202		-56.640625
7203		-54.687500
7204		-56.640625
7205		-54.687500
7206		-56.640625
7207		-54.687500
7208		-58.593750
7209		-56.640625
7210		-58.593750
7211		-56.640625
7212		-58.593750
7213		-56.640625
7214		-58.593750
7215		-56.640625
7216		-58.593750
7217		-56.640625
7218		-60.546875
7219		-56.640625
7220		-60.546875
7221		-58.593750
7222		-60.546875
7223		-58.593750
7224		-60.546875
7225		-58.593750
7226		-60.546875
7227		-58.593750
7228		-60.546875
7229		-58.593750
7230		-60.546875
7231		-58.593750
7232		-60.546875
7233		-58.593750
7234		-60.546875
7235		-56.640625
7236		-58.593750
7237		-56.640625
7238		-58.593750
7239		-56.640625
7240		-58.593750
7241		-56.640625
7242		-58.593750
7243		-56.640625
7244		-58.593750
7245		-56.640625
7246		-58.593750
7247		-54.687500
7248		-56.640625
7249		-54.687500
7250		-56.640625
7251		-54.687500
7252		-56.640625
7253		-54.687500
7254		-56.640625
7255		-52.734375
7256		-54.687500
7257		-52.734375
7258		-54.687500
7259		-50.781250
7260		-54.687500
7261		-50.781250
7262		-52.734375
7263		-50.781250
7264		-52.734375
7265		-48.828125
7266		-50.781250
7267		-48.828125
7268		-50.781250
7269		-48.828125
7270		-50.781250
7271		-46.875000
7272		-48.828125
7273		-46.875000
7274		-46.875000
7275		-44.921875
7276		-46.875000
7277		-42.968750
7278		-44.921875
7279		-42.968750
7280		-44.921875
7281		-41.015625
7282		-42.968750
7283		-41.015625
7284		-42.968750
7285		-39.062500
7286		-41.015625
7287		-39.062500
7288		-39.062500
7289		-37.109375
7290		-39.062500
7291		-35.156250
7292		-37.109375
7293		-33.203125
7294		-37.109375
7295		-33.203125
7296		-35.156250
7297		-31.250000
7298		-33.203125
7299		-29.296875
7300		-31.250000
7301		-29.296875
7302		-31.250000
7303		-27.343750
7304		-29.296875
7305		-25.390625
7306		-27.343750
7307		-25.390625
7308		-25.390625
7309		-23.437500
7310		-25.390625
7311		-21.484375
7312		-23.437500
7313		-19.531250
7314		-21.484375
7315		-17.578125
7316		-19.531250
7317		-17.578125
7318		-17.578125
7319		-15.625000
7320		-17.578125
7321		-13.671875
7322		-15.625000
7323		-11.718750
7324		-13.671875
7325		-9.765625
7326		-11.718750
7327		-9.765625
7328		-9.765625
7329		-7.812500
7330		-9.765625
7331		-5.859375
7332		-7.812500
7333		-3.906250
7334		-5.859375
7335		-1.953125
7336		-3.906250
7337		0.000000
7338		-1.953125
7339		0.000000
7340		0.000000
7341		1.953125
7342		0.000000
7343		3.906250
7344		1.953125
7345		5.859375
7346		3.906250
7347		7.812500
7348		5.859375
7349		9.765625
7350		7.812500
7351		9.765625
7352		9.765625
7353		11.718750
7354		9.765625
7355		13.671875
7356		11.718750
7357		15.625000
7358		13.671875
7359		17.578125
7360		15.625000
7361		17.578125
7362		17.578125
7363		19.531250
7364		17.578125
7365		21.484375
7366		19.531250
7367		23.437500
7368		21.484375
7369		25.390625
7370		23.437500
7371		25.390625
7372		25.390625
7373		27.343750
7374		25.390625
7375		29.296875
7376		27.343750
7377		29.296875
7378		29.296875
7379		31.250000
7380		29.296875
7381		33.203125
7382		31.250000
7383		35.156250
7384		33.203125
7385		35.156250
7386		33.203125
7387		37.109375
7388		35.156250
7389		39.062500
7390		35.156250
7391		39.062500
7392		37.109375
7393		41.015625
7394		39.062500
7395		41.015625
7396		41.015625
7397		42.968750
7398		41.015625
7399		44.921875
7400		42.968750
7401		44.921875
7402		42.968750
7403		46.875000
7404		44.921875
7405		46.875000
7406		46.875000
7407		48.828125
7408		46.875000
7409		48.828125
7410		48.828125
7411		50.781250
7412		48.828125
7413		50.781250
7414		48.828125
7415		52.734375
7416		50.781250
7417		52.734375
7418		50.781250
7419		54.687500
7420		52.734375
7421		54.687500
7422		52.734375
7423		54.687500
7424		54.687500
7425		56.640625
7426		54.687500
7427		56.640625
7428		54.687500
7429		58.593750
7430		56.640625
7431		58.593750
7432		56.640625
7433		58.593750
7434		56.640625
7435		58.593750
7436		58.593750
7437		60.546875
7438		58.593750
7439		60.546875
7440		58.593750
7441		60.546875
7442		58.593750
7443		60.546875
7444		60.546875
7445		62.500000
7446		60.546875
7447		62.500000
7448		60.546875
7449		62.500000
7450		60.546875
7451		62.500000
7452		60.546875
7453		62.500000
7454		60.546875
7455		62.500000
7456		60.546875
7457		62.500000
7458		60.546875
7459		62.500000
7460		60.546875
7461		64.453125
7462		62.500000
7463		64.453125
7464		60.546875
7465		64.453125
7466		62.500000
7467		62.500000
7468		60.546875
7469		62.500000
7470		60.546875
7471		62.500000
7472		60.546875
7473		64.453125
7474		60.546875
7475		62.500000
7476		60.546875
7477		62.500000
7478		60.546875
7479		62.500000
7480		60.546875
7481		62.500000
7482		60.546875
7483		62.500000
7484		58.593750
7485		62.500000
7486		58.593750
7487		60.546875
7488		58.593750
7489		60.546875
7490		58.593750
7491		60.546875
7492		58.593750
7493		60.546875
7494		56.640625
7495		58.593750
7496		56.640625
7497		58.593750
7498		54.687500
7499		58.593750
7500		54.687500
7501		56.640625
7502		54.687500
7503		56.640625
7504		52.734375
7505		56.640625
7506		52.734375
7507		54.687500
7508		50.781250
7509		54.687500
7510		50.781250
7511		52.734375
7512		50.781250
7513		52.734375
7514		48.828125
7515		52.734375
7516		46.875000
7517		50.781250
7518		46.875000
7519		48.828125
7520		46.875000
7521		48.828125
7522		44.921875
7523		46.875000
7524		44.921875
7525		46.875000
7526		42.968750
7527		44.921875
7528		41.015625
7529		44.921875
7530		39.062500
7531		42.968750
7532		39.062500
7533		42.968750
7534		37.109375
7535		41.015625
7536		37.109375
7537		39.062500
7538		35.156250
7539		39.062500
7540		33.203125
7541		37.109375
7542		31.250000
7543		35.156250
7544		31.250000
7545		35.156250
7546		29.296875
7547		33.203125
7548		29.296875
7549		31.250000
7550		27.343750
7551		29.296875
7552		25.390625
7553		29.296875
7554		23.437500
7555		27.343750
7556		23.437500
7557		25.390625
7558		21.484375
7559		23.437500
7560		19.531250
7561		23.437500
7562		17.578125
7563		21.484375
7564		15.625000
7565		19.531250
7566		15.625000
7567		17.578125
7568		13.671875
7569		15.625000
7570		11.718750
7571		15.625000
7572		9.765625
7573		13.671875
7574		7.812500
7575		11.718750
7576		7.812500
7577		9.765625
7578		5.859375
7579		7.812500
7580		3.906250
7581		5.859375
7582		1.953125
7583		5.859375
7584		0.000000
7585		3.906250
7586		-1.953125
7587		1.953125
7588		-3.906250
7589		0.000000
7590		-3.906250
7591		-1.953125
7592		-5.859375
7593		-3.906250
7594		-7.812500
7595		-3.906250
7596		-9.765625
7597		-5.859375
7598		-11.718750
7599		-7.812500
7600		-13.671875
7601		-9.765625
7602		-13.671875
7603		-11.718750
7604		-15.625000
7605		-13.671875
7606		-17.578125
7607		-13.671875
7608		-19.531250
7609		-15.625000
7610		-21.484375
7611		-17.578125
7612		-23.437500
7613		-19.531250
7614		-23.437500
7615		-21.484375
7616		-25.390625
7617		-21.484375
7618		-27.343750
7619		-23.437500
7620		-27.343750
7621		-25.390625
7622		-29.296875
7623		-27.343750
7624		-31.250000
7625		-27.343750
7626		-33.203125
7627		-29.296875
7628		-33.203125
7629		-31.250000
7630		-35.156250
7631		-33.203125
7632		-37.109375
7633		-33.203125
7634		-37.109375
7635		-35.156250
7636		-39.062500
7637		-35.156250
7638		-41.015625
7639		-37.109375
7640		-42.968750
7641		-39.062500
7642		-42.968750
7643		-41.015625
7644		-44.921875
7645		-41.015625
7646		-46.875000
7647		-42.968750
7648		-46.875000
7649		-42.968750
7650		-46.875000
7651		-44.921875
7652		-50.781250
7653		-44.921875
7654		-48.828125
7655		-46.875000
7656		-52.734375
7657		-46.875000
7658		-52.734375
7659		-46.875000
7660		-52.734375
7661		-48.828125
7662		-54.687500
7663		-48.828125
7664		-52.734375
7665		-50.781250
7666		-54.687500
7667		-52.734375
7668		-54.687500
7669		-52.734375
7670		-56.640625
7671		-52.734375
7672		-56.640625
7673		-54.687500
7674		-58.593750
7675		-52.734375
7676		-56.640625
7677		-54.687500
7678		-58.593750
7679		-52.734375
7680		-58.593750
7681		-56.640625
7682		-58.593750
7683		-52.734375
7684		-58.593750
7685		-56.640625
7686		-60.546875
7687		-56.640625
7688		-60.546875
7689		-56.640625
7690		-60.546875
7691		-56.640625
7692		-60.546875
7693		-56.640625
7694		-60.546875
7695		-56.640625
7696		-60.546875
7697		-58.593750
7698		-62.500000
7699		-54.687500
7700		-60.546875
7701		-58.593750
7702		-60.546875
7703		-58.593750
7704		-60.546875
7705		-54.687500
7706		-62.500000
7707		-56.640625
7708		-60.546875
7709		-56.640625
7710		-58.593750
7711		-56.640625
7712		-60.546875
7713		-56.640625
7714		-60.546875
7715		-54.687500
7716		-58.593750
7717		-54.687500
7718		-58.593750
7719		-54.687500
7720		-56.640625
7721		-54.687500
7722		-58.593750
7723		-50.781250
7724		-58.593750
7725		-50.781250
7726		-54.687500
7727		-52.734375
7728		-56.640625
7729		-50.781250
7730		-54.687500
7731		-50.781250
7732		-54.687500
7733		-48.828125
7734		-52.734375
7735		-50.781250
7736		-52.734375
7737		-48.828125
7738		-52.734375
7739		-46.875000
7740		-52.734375
7741		-44.921875
7742		-50.781250
7743		-46.875000
7744		-48.828125
7745		-44.921875
7746		-50.781250
7747		-42.968750
7748		-46.875000
7749		-41.015625
7750		-44.921875
7751		-41.015625
7752		-44.921875
7753		-41.015625
7754		-42.968750
7755		-39.062500
7756		-42.968750
7757		-37.109375
7758		-42.968750
7759		-37.109375
7760		-39.062500
7761		-35.156250
7762		-41.015625
7763		-31.250000
7764		-37.109375
7765		-33.203125
7766		-39.062500
7767		-31.250000
7768		-33.203125
7769		-31.250000
7770		-33.203125
7771		-29.296875
7772		-33.203125
7773		-25.390625
7774		-31.250000
7775		-25.390625
7776		-27.343750
7777		-25.390625
7778		-27.343750
7779		-23.437500
7780		-27.343750
7781		-19.531250
7782		-25.390625
7783		-15.625000
7784		-21.484375
7785		-19.531250
7786		-21.484375
7787		-17.578125
7788		-19.531250
7789		-15.625000
7790		-21.484375
7791		-11.718750
7792		-17.578125
7793		-11.718750
7794		-13.671875
7795		-11.718750
7796		-15.625000
7797		-5.859375
7798		-13.671875
7799		-5.859375
7800		-13.671875
7801		-3.906250
7802		-7.812500
7803		-3.906250
7804		-5.859375
7805		-1.953125
7806		-5.859375
7807		1.953125
7808		-3.906250
7809		1.953125
7810		-1.953125
7811		1.953125
7812		-1.953125
7813		5.859375
7814		-1.953125
7815		7.812500
7816		1.953125
7817		7.812500
7818		3.906250
7819		7.812500
7820		5.859375
7821		9.765625
7822		5.859375
7823		11.718750
7824		5.859375
7825		15.625000
7826		11.718750
7827		13.671875
7828		13.671875
7829		15.625000
7830		11.718750
7831		21.484375
7832		13.671875
7833		21.484375
7834		17.578125
7835		19.531250
7836		19.531250
7837		21.484375
7838		19.531250
7839		25.390625
7840		19.531250
7841		27.343750
7842		21.484375
7843		27.343750
7844		25.390625
7845		27.343750
7846		23.437500
7847		33.203125
7848		25.390625
7849		33.203125
7850		27.343750
7851		33.203125
7852		31.250000
7853		33.203125
7854		31.250000
7855		37.109375
7856		31.250000
7857		39.062500
7858		33.203125
7859		39.062500
7860		35.156250
7861		39.062500
7862		35.156250
7863		42.968750
7864		35.156250
7865		44.921875
7866		37.109375
7867		44.921875
7868		41.015625
7869		42.968750
7870		42.968750
7871		44.921875
7872		41.015625
7873		46.875000
7874		41.015625
7875		48.828125
7876		42.968750
7877		48.828125
7878		46.875000
7879		48.828125
7880		44.921875
7881		54.687500
7882		48.828125
7883		50.781250
7884		46.875000
7885		54.687500
7886		50.781250
7887		52.734375
7888		50.781250
7889		54.687500
7890		50.781250
7891		56.640625
7892		52.734375
7893		56.640625
7894		52.734375
7895		56.640625
7896		52.734375
7897		60.546875
7898		50.781250
7899		60.546875
7900		54.687500
7901		60.546875
7902		56.640625
7903		58.593750
7904		56.640625
7905		58.593750
7906		56.640625
7907		62.500000
7908		54.687500
7909		62.500000
7910		58.593750
7911		60.546875
7912		58.593750
7913		62.500000
7914		56.640625
7915		64.453125
7916		56.640625
7917		64.453125
7918		60.546875
7919		62.500000
7920		60.546875
7921		62.500000
7922		60.546875
7923		64.453125
7924		58.593750
7925		66.406250
7926		58.593750
7927		64.453125
7928		60.546875
7929		62.500000
7930		58.593750
7931		66.406250
7932		60.546875
7933		62.500000
7934		58.593750
7935		66.406250
7936		60.546875
7937		62.500000
7938		60.546875
7939		62.500000
7940		58.593750
7941		66.406250
7942		58.593750
7943		64.453125
7944		60.546875
7945		64.453125
7946		58.593750
7947		64.453125
7948		58.593750
7949		62.500000
7950		60.546875
7951		62.500000
7952		58.593750
7953		62.500000
7954		58.593750
7955		62.500000
7956		58.593750
7957		60.546875
7958		58.593750
7959		60.546875
7960		56.640625
7961		62.500000
7962		58.593750
7963		60.546875
7964		54.687500
7965		60.546875
7966		56.640625
7967		58.593750
7968		56.640625
7969		58.593750
7970		54.687500
7971		56.640625
7972		52.734375
7973		56.640625
7974		54.687500
7975		56.640625
7976		52.734375
7977		56.640625
7978		52.734375
7979		54.687500
7980		50.781250
7981		54.687500
7982		50.781250
7983		52.734375
7984		48.828125
7985		52.734375
7986		48.828125
7987		50.781250
7988		46.875000
7989		50.781250
7990		46.875000
7991		50.781250
7992		44.921875
7993		48.828125
7994		44.921875
7995		46.875000
7996		42.968750
7997		46.875000
7998		42.968750
7999		44.921875
8000		41.015625
8001		42.968750
8002		39.062500
8003		42.968750
8004		39.062500
8005		41.015625
8006		35.156250
8007		41.015625
8008		35.156250
8009		41.015625
8010		33.203125
8011		39.062500
8012		31.250000
8013		37.109375
8014		31.250000
8015		35.156250
8016		29.296875
8017		35.156250
8018		27.343750
8019		33.203125
8020		27.343750
8021		31.250000
8022		25.390625
8023		29.296875
8024		23.437500
8025		29.296875
8026		21.484375
8027		27.343750
8028		19.531250
8029		25.390625
8030		17.578125
8031		25.390625
8032		17.578125
8033		23.437500
8034		17.578125
8035		21.484375
8036		15.625000
8037		19.531250
8038		13.671875
8039		17.578125
8040		11.718750
8041		15.625000
8042		9.765625
8043		15.625000
8044		7.812500
8045		13.671875
8046		5.859375
8047		11.718750
8048		3.906250
8049		9.765625
8050		3.906250
8051		9.765625
8052		1.953125
8053		7.812500
8054		1.953125
8055		3.906250
8056		-1.953125
8057		1.953125
8058		-3.906250
8059		1.953125
8060		-3.906250
8061		0.000000
8062		-5.859375
8063		-1.953125
8064		-7.812500
8065		-1.953125
8066		-9.765625
8067		-3.906250
8068		-11.718750
8069		-5.859375
8070		-11.718750
8071		-9.765625
8072		-13.671875
8073		-9.765625
8074		-15.625000
8075		-9.765625
8076		-17.578125
8077		-11.718750
8078		-19.531250
8079		-15.625000
8080		-21.484375
8081		-15.625000
8082		-21.484375
8083		-17.578125
8084		-23.437500
8085		-19.531250
8086		-25.390625
8087		-19.531250
8088		-25.390625
8089		-23.437500
8090		-27.343750
8091		-25.390625
8092		-29.296875
8093		-25.390625
8094		-31.250000
8095		-27.343750
8096		-33.203125
8097		-27.343750
8098		-33.203125
8099		-29.296875
8100		-35.156250
8101		-31.250000
8102		-37.109375
8103		-33.203125
8104		-37.109375
8105		-35.156250
8106		-41.015625
8107		-35.156250
8108		-41.015625
8109		-37.109375
8110		-41.015625
8111		-37.109375
8112		-44.921875
8113		-39.062500
8114		-44.921875
8115		-39.062500
8116		-44.921875
8117		-41.015625
8118		-46.875000
8119		-42.968750
8120		-46.875000
8121		-44.921875
8122		-48.828125
8123		-44.921875
8124		-50.781250
8125		-44.921875
8126		-50.781250
8127		-46.875000
8128		-52.734375
8129		-46.875000
8130		-52.734375
8131		-46.875000
8132		-52.734375
8133		-50.781250
8134		-54.687500
8135		-50.781250
8136		-54.687500
8137		-50.781250
8138		-54.687500
8139		-52.734375
8140		-56.640625
8141		-52.734375
8142		-56.640625
8143		-52.734375
8144		-56.640625
8145		-54.687500
8146		-60.546875
8147		-52.734375
8148		-58.593750
8149		-54.687500
8150		-58.593750
8151		-54.687500
8152		-60.546875
8153		-54.687500
8154		-58.593750
8155		-56.640625
8156		-60.546875
8157		-56.640625
8158		-60.546875
8159		-56.640625
8160		-60.546875
8161		-56.640625
8162		-60.546875
8163		-56.640625
8164		-62.500000
8165		-56.640625
8166		-60.546875
8167		-58.593750
8168		-60.546875
8169		-58.593750
8170		-60.546875
8171		-58.593750
8172		-60.546875
8173		-58.593750
8174		-60.546875
8175		-56.640625
8176		-60.546875
8177		-56.640625
8178		-60.546875
8179		-56.640625
8180		-62.500000
8181		-56.640625
8182		-60.546875
8183		-56.640625
8184		-58.593750
8185		-56.640625
8186		-58.593750
8187		-56.640625
8188		-58.593750
8189		-56.640625
8190		-58.593750
8191		-54.687500
8192		-58.593750
8193		-54.687500
8194		-56.640625
8195		-54.687500
8196		-56.640625
8197		-52.734375
8198		-56.640625
8199		-52.734375
8200		-54.687500
8201		-52.734375
8202		-56.640625
8203		-50.781250
8204		-54.687500
8205		-50.781250
8206		-52.734375
8207		-50.781250
8208		-52.734375
8209		-48.828125
8210		-50.781250
8211		-48.828125
8212		-50.781250
8213		-46.875000
8214		-50.781250
8215		-44.921875
8216		-48.828125
8217		-44.921875
8218		-48.828125
8219		-44.921875
8220		-46.875000
8221		-42.968750
8222		-44.921875
8223		-42.968750
8224		-42.968750
8225		-41.015625
8226		-42.968750
8227		-39.062500
8228		-41.015625
8229		-37.109375
8230		-41.015625
8231		-37.109375
8232		-39.062500
8233		-35.156250
8234		-37.109375
8235		-35.156250
8236		-37.109375
8237		-33.203125
8238		-35.156250
8239		-33.203125
8240		-33.203125
8241		-29.296875
8242		-33.203125
8243		-29.296875
8244		-31.250000
8245		-27.343750
8246		-29.296875
8247		-25.390625
8248		-29.296875
8249		-23.437500
8250		-27.343750
8251		-23.437500
8252		-25.390625
8253		-21.484375
8254		-23.437500
8255		-21.484375
8256		-21.484375
8257		-19.531250
8258		-21.484375
8259		-15.625000
8260		-19.531250
8261		-15.625000
8262		-17.578125
8263		-13.671875
8264		-15.625000
8265		-11.718750
8266		-13.671875
8267		-9.765625
8268		-13.671875
8269		-9.765625
8270		-11.718750
8271		-7.812500
8272		-9.765625
8273		-5.859375
8274		-7.812500
8275		-3.906250
8276		-5.859375
8277		-1.953125
8278		-3.906250
8279		-1.953125
8280		-3.906250
8281		0.000000
8282		-1.953125
8283		1.953125
8284		0.000000
8285		3.906250
8286		1.953125
8287		5.859375
8288		3.906250
8289		5.859375
8290		5.859375
8291		7.812500
8292		5.859375
8293		9.765625
8294		7.812500
8295		11.718750
8296		9.765625
8297		13.671875
8298		11.718750
8299		15.625000
8300		13.671875
8301		17.578125
8302		13.671875
8303		17.578125
8304		15.625000
8305		19.531250
8306		17.578125
8307		21.484375
8308		19.531250
8309		23.437500
8310		19.531250
8311		25.390625
8312		21.484375
8313		25.390625
8314		23.437500
8315		27.343750
8316		25.390625
8317		29.296875
8318		27.343750
8319		29.296875
8320		27.343750
8321		31.250000
8322		29.296875
8323		33.203125
8324		31.250000
8325		33.203125
8326		31.250000
8327		35.156250
8328		33.203125
8329		37.109375
8330		35.156250
8331		39.062500
8332		35.156250
8333		39.062500
8334		37.109375
8335		41.015625
8336		39.062500
8337		42.968750
8338		39.062500
8339		42.968750
8340		41.015625
8341		42.968750
8342		41.015625
8343		44.921875
8344		42.968750
8345		46.875000
8346		44.921875
8347		46.875000
8348		44.921875
8349		48.828125
8350		46.875000
8351		48.828125
8352		46.875000
8353		50.781250
8354		46.875000
8355		52.734375
8356		48.828125
8357		52.734375
8358		50.781250
8359		54.687500
8360		50.781250
8361		54.687500
8362		50.781250
8363		54.687500
8364		52.734375
8365		56.640625
8366		52.734375
8367		56.640625
8368		54.687500
8369		56.640625
8370		54.687500
8371		58.593750
8372		56.640625
8373		58.593750
8374		56.640625
8375		58.593750
8376		56.640625
8377		58.593750
8378		56.640625
8379		60.546875
8380		58.593750
8381		60.546875
8382		58.593750
8383		60.546875
8384		58.593750
8385		62.500000
8386		58.593750
8387		62.500000
8388		60.546875
8389		62.500000
8390		60.546875
8391		62.500000
8392		60.546875
8393		62.500000
8394		60.546875
8395		62.500000
8396		60.546875
8397		64.453125
8398		60.546875
8399		64.453125
8400		60.546875
8401		64.453125
8402		60.546875
8403		64.453125
8404		60.546875
8405		64.453125
8406		60.546875
8407		64.453125
8408		62.500000
8409		62.500000
8410		60.546875
8411		64.453125
8412		60.546875
8413		64.453125
8414		60.546875
8415		64.453125
8416		60.546875
8417		62.500000
8418		60.546875
8419		64.453125
8420		60.546875
8421		62.500000
8422		58.593750
8423		62.500000
8424		60.546875
8425		62.500000
8426		58.593750
8427		62.500000
8428		58.593750
8429		62.500000
8430		58.593750
8431		62.500000
8432		56.640625
8433		60.546875
8434		56.640625
8435		60.546875
8436		56.640625
8437		60.546875
8438		56.640625
8439		60.546875
8440		56.640625
8441		58.593750
8442		54.687500
8443		56.640625
8444		54.687500
8445		56.640625
8446		52.734375
8447		56.640625
8448		52.734375
8449		56.640625
8450		52.734375
8451		54.687500
8452		50.781250
8453		54.687500
8454		48.828125
8455		52.734375
8456		48.828125
8457		52.734375
8458		48.828125
8459		50.781250
8460		46.875000
8461		50.781250
8462		46.875000
8463		50.781250
8464		44.921875
8465		48.828125
8466		44.921875
8467		46.875000
8468		42.968750
8469		46.875000
8470		41.015625
8471		44.921875
8472		41.015625
8473		44.921875
8474		39.062500
8475		42.968750
8476		37.109375
8477		41.015625
8478		37.109375
8479		41.015625
8480		35.156250
8481		39.062500
8482		35.156250
8483		37.109375
8484		33.203125
8485		37.109375
8486		31.250000
8487		35.156250
8488		29.296875
8489		33.203125
8490		29.296875
8491		31.250000
8492		27.343750
8493		31.250000
8494		25.390625
8495		31.250000
8496		23.437500
8497		27.343750
8498		23.437500
8499		27.343750
8500		21.484375
8501		25.390625
8502		19.531250
8503		23.437500
8504		17.578125
8505		21.484375
8506		15.625000
8507		21.484375
8508		15.625000
8509		17.578125
8510		13.671875
8511		17.578125
8512		11.718750
8513		15.625000
8514		9.765625
8515		13.671875
8516		9.765625
8517		11.718750
8518		7.812500
8519		11.718750
8520		5.859375
8521		9.765625
8522		3.906250
8523		7.812500
8524		1.953125
8525		5.859375
8526		0.000000
8527		3.906250
8528		0.000000
8529		3.906250
8530		-1.953125
8531		1.953125
8532		-3.906250
8533		0.000000
8534		-5.859375
8535		-1.953125
8536		-7.812500
8537		-3.906250
8538		-9.765625
8539		-5.859375
8540		-11.718750
8541		-5.859375
8542		-11.718750
8543		-9.765625
8544		-15.625000
8545		-9.765625
8546		-15.625000
8547		-11.718750
8548		-17.578125
8549		-13.671875
8550		-19.531250
8551		-15.625000
8552		-21.484375
8553		-17.578125
8554		-21.484375
8555		-17.578125
8556		-23.437500
8557		-19.531250
8558		-25.390625
8559		-21.484375
8560		-27.343750
8561		-23.437500
8562		-29.296875
8563		-23.437500
8564		-29.296875
8565		-25.390625
8566		-31.250000
8567		-27.343750
8568		-33.203125
8569		-29.296875
8570		-35.156250
8571		-29.296875
8572		-37.109375
8573		-31.250000
8574		-37.109375
8575		-33.203125
8576		-37.109375
8577		-33.203125
8578		-39.062500
8579		-35.156250
8580		-41.015625
8581		-37.109375
8582		-42.968750
8583		-39.062500
8584		-42.968750
8585		-39.062500
8586		-44.921875
8587		-41.015625
8588		-44.921875
8589		-41.015625
8590		-46.875000
8591		-42.968750
8592		-46.875000
8593		-44.921875
8594		-48.828125
8595		-44.921875
8596		-48.828125
8597		-46.875000
8598		-50.781250
8599		-46.875000
8600		-50.781250
8601		-48.828125
8602		-52.734375
8603		-48.828125
8604		-52.734375
8605		-50.781250
8606		-52.734375
8607		-50.781250
8608		-54.687500
8609		-50.781250
8610		-54.687500
8611		-52.734375
8612		-56.640625
8613		-50.781250
8614		-56.640625
8615		-52.734375
8616		-56.640625
8617		-54.687500
8618		-58.593750
8619		-54.687500
8620		-58.593750
8621		-54.687500
8622		-58.593750
8623		-54.687500
8624		-58.593750
8625		-56.640625
8626		-58.593750
8627		-56.640625
8628		-60.546875
8629		-56.640625
8630		-60.546875
8631		-56.640625
8632		-60.546875
8633		-56.640625
8634		-60.546875
8635		-56.640625
8636		-60.546875
8637		-56.640625
8638		-60.546875
8639		-56.640625
8640		-60.546875
8641		-56.640625
8642		-60.546875
8643		-58.593750
8644		-60.546875
8645		-56.640625
8646		-60.546875
8647		-56.640625
8648		-60.546875
8649		-56.640625
8650		-60.546875
8651		-56.640625
8652		-60.546875
8653		-56.640625
8654		-60.546875
8655		-56.640625
8656		-60.546875
8657		-56.640625
8658		-58.593750
8659		-56.640625
8660		-58.593750
8661		-54.687500
8662		-58.593750
8663		-54.687500
8664		-56.640625
8665		-54.687500
8666		-56.640625
8667		-52.734375
8668		-56.640625
8669		-52.734375
8670		-56.640625
8671		-52.734375
8672		-54.687500
8673		-50.781250
8674		-54.687500
8675		-50.781250
8676		-52.734375
8677		-50.781250
8678		-52.734375
8679		-48.828125
8680		-52.734375
8681		-48.828125
8682		-50.781250
8683		-46.875000
8684		-50.781250
8685		-46.875000
8686		-48.828125
8687		-44.921875
8688		-46.875000
8689		-44.921875
8690		-46.875000
8691		-42.968750
8692		-44.921875
8693		-42.968750
8694		-44.921875
8695		-41.015625
8696		-44.921875
8697		-39.062500
8698		-42.968750
8699		-39.062500
8700		-41.015625
8701		-37.109375
8702		-39.062500
8703		-35.156250
8704		-39.062500
8705		-35.156250
8706		-37.109375
8707		-33.203125
8708		-37.109375
8709		-33.203125
8710		-35.156250
8711		-31.250000
8712		-33.203125
8713		-29.296875
8714		-31.250000
8715		-27.343750
8716		-31.250000
8717		-27.343750
8718		-29.296875
8719		-25.390625
8720		-27.343750
8721		-23.437500
8722		-25.390625
8723		-21.484375
8724		-25.390625
8725		-19.531250
8726		-23.437500
8727		-19.531250
8728		-21.484375
8729		-17.578125
8730		-21.484375
8731		-15.625000
8732		-17.578125
8733		-13.671875
8734		-17.578125
8735		-13.671875
8736		-15.625000
8737		-11.718750
8738		-13.671875
8739		-9.765625
8740		-11.718750
8741		-7.812500
8742		-9.765625
8743		-7.812500
8744		-7.812500
8745		-5.859375
8746		-7.812500
8747		-1.953125
8748		-5.859375
8749		-1.953125
8750		-3.906250
8751		0.000000
8752		-1.953125
8753		1.953125
8754		0.000000
8755		3.906250
8756		1.953125
8757		3.906250
8758		1.953125
8759		5.859375
8760		3.906250
8761		7.812500
8762		5.859375
8763		9.765625
8764		7.812500
8765		11.718750
8766		9.765625
8767		13.671875
8768		11.718750
8769		13.671875
8770		11.718750
8771		15.625000
8772		13.671875
8773		17.578125
8774		15.625000
8775		19.531250
8776		17.578125
8777		19.531250
8778		17.578125
8779		21.484375
8780		19.531250
8781		23.437500
8782		21.484375
8783		25.390625
8784		23.437500
8785		25.390625
8786		23.437500
8787		27.343750
8788		25.390625
8789		29.296875
8790		27.343750
8791		31.250000
8792		27.343750
8793		31.250000
8794		29.296875
8795		33.203125
8796		31.250000
8797		35.156250
8798		33.203125
8799		37.109375
8800		35.156250
8801		37.109375
8802		35.156250
8803		39.062500
8804		37.109375
8805		41.015625
8806		39.062500
8807		41.015625
8808		39.062500
8809		42.968750
8810		41.015625
8811		42.968750
8812		41.015625
8813		44.921875
8814		42.968750
8815		46.875000
8816		42.968750
8817		46.875000
8818		44.921875
8819		48.828125
8820		46.875000
8821		48.828125
8822		46.875000
8823		50.781250
8824		46.875000
8825		50.781250
8826		48.828125
8827		52.734375
8828		50.781250
8829		52.734375
8830		50.781250
8831		54.687500
8832		52.734375
8833		54.687500
8834		52.734375
8835		56.640625
8836		52.734375
8837		56.640625
8838		54.687500
8839		56.640625
8840		54.687500
8841		58.593750
8842		54.687500
8843		58.593750
8844		56.640625
8845		58.593750
8846		56.640625
8847		60.546875
8848		56.640625
8849		60.546875
8850		58.593750
8851		60.546875
8852		58.593750
8853		60.546875
8854		58.593750
8855		60.546875
8856		58.593750
8857		62.500000
8858		58.593750
8859		62.500000
8860		60.546875
8861		62.500000
8862		60.546875
8863		62.500000
8864		60.546875
8865		64.453125
8866		60.546875
8867		64.453125
8868		60.546875
8869		64.453125
8870		60.546875
8871		64.453125
8872		60.546875
8873		64.453125
8874		60.546875
8875		64.453125
8876		62.500000
8877		64.453125
8878		62.500000
8879		64.453125
8880		60.546875
8881		64.453125
8882		60.546875
8883		64.453125
8884		60.546875
8885		64.453125
8886		60.546875
8887		64.453125
8888		60.546875
8889		64.453125
8890		60.546875
8891		64.453125
8892		60.546875
8893		64.453125
8894		60.546875
8895		62.500000
8896		58.593750
8897		62.500000
8898		58.593750
8899		62.500000
8900		58.593750
8901		62.500000
8902		58.593750
8903		62.500000
8904		58.593750
8905		62.500000
8906		56.640625
8907		60.546875
8908		56.640625
8909		60.546875
8910		56.640625
8911		58.593750
8912		56.640625
8913		58.593750
8914		54.687500
8915		58.593750
8916		54.687500
8917		58.593750
8918		52.734375
8919		56.640625
8920		52.734375
8921		56.640625
8922		50.781250
8923		54.687500
8924		50.781250
8925		54.687500
8926		50.781250
8927		54.687500
8928		48.828125
8929		52.734375
8930		48.828125
8931		50.781250
8932		46.875000
8933		50.781250
8934		46.875000
8935		48.828125
8936		44.921875
8937		48.828125
8938		44.921875
8939		46.875000
8940		42.968750
8941		46.875000
8942		42.968750
8943		44.921875
8944		41.015625
8945		42.968750
8946		39.062500
8947		42.968750
8948		37.109375
8949		42.968750
8950		37.109375
8951		41.015625
8952		35.156250
8953		39.062500
8954		35.156250
8955		37.109375
8956		33.203125
8957		37.109375
8958		31.250000
8959		35.156250
8960		31.250000
8961		35.156250
8962		29.296875
8963		33.203125
8964		27.343750
8965		31.250000
8966		25.390625
8967		29.296875
8968		25.390625
8969		29.296875
8970		23.437500
8971		27.343750
8972		21.484375
8973		25.390625
8974		19.531250
8975		23.437500
8976		17.578125
8977		21.484375
8978		17.578125
8979		19.531250
8980		15.625000
8981		19.531250
8982		13.671875
8983		17.578125
8984		11.718750
8985		15.625000
8986		9.765625
8987		13.671875
8988		9.765625
8989		11.718750
8990		7.812500
8991		11.718750
8992		3.906250
8993		9.765625
8994		3.906250
8995		7.812500
8996		1.953125
8997		5.859375
8998		0.000000
8999		3.906250
9000		-1.953125
9001		1.953125
9002		-3.906250
9003		0.000000
9004		-3.906250
9005		0.000000
9006		-5.859375
9007		-1.953125
9008		-7.812500
9009		-3.906250
9010		-7.812500
9011		-3.906250
9012		-9.765625
9013		-7.812500
9014		-13.671875
9015		-9.765625
9016		-13.671875
9017		-9.765625
9018		-15.625000
9019		-11.718750
9020		-17.578125
9021		-13.671875
9022		-19.531250
9023		-15.625000
9024		-19.531250
9025		-17.578125
9026		-21.484375
9027		-17.578125
9028		-23.437500
9029		-19.531250
9030		-25.390625
9031		-21.484375
9032		-27.343750
9033		-23.437500
9034		-27.343750
9035		-23.437500
9036		-29.296875
9037		-25.390625
9038		-31.250000
9039		-27.343750
9040		-33.203125
9041		-29.296875
9042		-33.203125
9043		-31.250000
9044		-35.156250
9045		-31.250000
9046		-37.109375
9047		-33.203125
9048		-37.109375
9049		-33.203125
9050		-39.062500
9051		-35.156250
9052		-41.015625
9053		-37.109375
9054		-41.015625
9055		-39.062500
9056		-42.968750
9057		-39.062500
9058		-44.921875
9059		-41.015625
9060		-46.875000
9061		-41.015625
9062		-44.921875
9063		-42.968750
9064		-46.875000
9065		-44.921875
9066		-48.828125
9067		-44.921875
9068		-48.828125
9069		-44.921875
9070		-50.781250
9071		-46.875000
9072		-50.781250
9073		-46.875000
9074		-52.734375
9075		-48.828125
9076		-54.687500
9077		-48.828125
9078		-52.734375
9079		-50.781250
9080		-54.687500
9081		-50.781250
9082		-56.640625
9083		-50.781250
9084		-54.687500
9085		-52.734375
9086		-56.640625
9087		-52.734375
9088		-56.640625
9089		-54.687500
9090		-58.593750
9091		-54.687500
9092		-58.593750
9093		-54.687500
9094		-58.593750
9095		-54.687500
9096		-58.593750
9097		-56.640625
9098		-60.546875
9099		-54.687500
9100		-58.593750
9101		-56.640625
9102		-58.593750
9103		-56.640625
9104		-58.593750
9105		-56.640625
9106		-60.546875
9107		-56.640625
9108		-60.546875
9109		-56.640625
9110		-60.546875
9111		-56.640625
9112		-58.593750
9113		-56.640625
9114		-60.546875
9115		-56.640625
9116		-60.546875
9117		-56.640625
9118		-60.546875
9119		-56.640625
9120		-60.546875
9121		-56.640625
9122		-58.593750
9123		-56.640625
9124		-58.593750
9125		-56.640625
9126		-58.593750
9127		-54.687500
9128		-58.593750
9129		-54.687500
9130		-56.640625
9131		-54.687500
9132		-56.640625
9133		-54.687500
9134		-56.640625
9135		-54.687500
9136		-56.640625
9137		-52.734375
9138		-56.640625
9139		-52.734375
9140		-54.687500
9141		-52.734375
9142		-54.687500
9143		-50.781250
9144		-54.687500
9145		-50.781250
9146		-52.734375
9147		-50.781250
9148		-52.734375
9149		-48.828125
9150		-52.734375
9151		-48.828125
9152		-50.781250
9153		-46.875000
9154		-50.781250
9155		-46.875000
9156		-48.828125
9157		-44.921875
9158		-46.875000
9159		-44.921875
9160		-46.875000
9161		-42.968750
9162		-44.921875
9163		-42.968750
9164		-44.921875
9165		-41.015625
9166		-44.921875
9167		-41.015625
9168		-42.968750
9169		-39.062500
9170		-41.015625
9171		-37.109375
9172		-39.062500
9173		-37.109375
9174		-39.062500
9175		-35.156250
9176		-37.109375
9177		-33.203125
9178		-37.109375
9179		-33.203125
9180		-35.156250
9181		-31.250000
9182		-33.203125
9183		-29.296875
9184		-33.203125
9185		-29.296875
9186		-31.250000
9187		-27.343750
9188		-29.296875
9189		-25.390625
9190		-27.343750
9191		-25.390625
9192		-27.343750
9193		-23.437500
9194		-25.390625
9195		-19.531250
9196		-23.437500
9197		-19.531250
9198		-21.484375
9199		-17.578125
9200		-21.484375
9201		-15.625000
9202		-19.531250
9203		-15.625000
9204		-17.578125
9205		-13.671875
9206		-15.625000
9207		-11.718750
9208		-13.671875
9209		-9.765625
9210		-13.671875
9211		-7.812500
9212		-11.718750
9213		-7.812500
9214		-9.765625
9215		-5.859375
9216		-7.812500
9217		-3.906250
9218		-5.859375
9219		-1.953125
9220		-3.906250
9221		0.000000
9222		-3.906250
9223		0.000000
9224		-1.953125
9225		3.906250
9226		0.000000
9227		3.906250
9228		1.953125
9229		5.859375
9230		3.906250
9231		7.812500
9232		5.859375
9233		7.812500
9234		5.859375
9235		9.765625
9236		7.812500
9237		11.718750
9238		9.765625
9239		13.671875
9240		11.718750
9241		15.625000
9242		13.671875
9243		17.578125
9244		15.625000
9245		17.578125
9246		15.625000
9247		19.531250
9248		17.578125
9249		21.484375
9250		19.531250
9251		23.437500
9252		19.531250
9253		25.390625
9254		21.484375
9255		25.390625
9256		23.437500
9257		27.343750
9258		25.390625
9259		29.296875
9260		27.343750
9261		29.296875
9262		27.343750
9263		31.250000
9264		29.296875
9265		33.203125
9266		31.250000
9267		35.156250
9268		33.203125
9269		35.156250
9270		33.203125
9271		37.109375
9272		35.156250
9273		39.062500
9274		35.156250
9275		41.015625
9276		37.109375
9277		41.015625
9278		39.062500
9279		42.968750
9280		39.062500
9281		42.968750
9282		41.015625
9283		44.921875
9284		42.968750
9285		44.921875
9286		42.968750
9287		46.875000
9288		44.921875
9289		48.828125
9290		44.921875
9291		48.828125
9292		46.875000
9293		50.781250
9294		46.875000
9295		50.781250
9296		48.828125
9297		52.734375
9298		48.828125
9299		52.734375
9300		50.781250
9301		54.687500
9302		50.781250
9303		54.687500
9304		52.734375
9305		54.687500
9306		52.734375
9307		56.640625
9308		54.687500
9309		56.640625
9310		54.687500
9311		56.640625
9312		54.687500
9313		58.593750
9314		56.640625
9315		58.593750
9316		56.640625
9317		58.593750
9318		56.640625
9319		60.546875
9320		58.593750
9321		60.546875
9322		58.593750
9323		62.500000
9324		58.593750
9325		62.500000
9326		58.593750
9327		62.500000
9328		60.546875
9329		62.500000
9330		58.593750
9331		64.453125
9332		60.546875
9333		62.500000
9334		60.546875
9335		64.453125
9336		60.546875
9337		64.453125
9338		60.546875
9339		64.453125
9340		60.546875
9341		64.453125
9342		60.546875
9343		64.453125
9344		62.500000
9345		64.453125
9346		60.546875
9347		64.453125
9348		62.500000
9349		64.453125
9350		60.546875
9351		64.453125
9352		62.500000
9353		64.453125
9354		62.500000
9355		64.453125
9356		60.546875
9357		64.453125
9358		60.546875
9359		64.453125
9360		60.546875
9361		64.453125
9362		60.546875
9363		64.453125
9364		60.546875
9365		62.500000
9366		60.546875
9367		62.500000
9368		58.593750
9369		62.500000
9370		60.546875
9371		62.500000
9372		58.593750
9373		62.500000
9374		58.593750
9375		62.500000
9376		58.593750
9377		62.500000
9378		58.593750
9379		60.546875
9380		56.640625
9381		60.546875
9382		56.640625
9383		58.593750
9384		54.687500
9385		58.593750
9386		54.687500
9387		58.593750
9388		54.687500
9389		58.593750
9390		54.687500
9391		56.640625
9392		52.734375
9393		56.640625
9394		52.734375
9395		56.640625
9396		50.781250
9397		54.687500
9398		50.781250
9399		52.734375
9400		48.828125
9401		52.734375
9402		48.828125
9403		52.734375
9404		46.875000
9405		50.781250
9406		46.875000
9407		48.828125
9408		44.921875
9409		48.828125
9410		44.921875
9411		46.875000
9412		42.968750
9413		46.875000
9414		42.968750
9415		46.875000
9416		41.015625
9417		44.921875
9418		39.062500
9419		42.968750
9420		37.109375
9421		42.968750
9422		37.109375
9423		41.015625
9424		35.156250
9425		39.062500
9426		33.203125
9427		39.062500
9428		33.203125
9429		37.109375
9430		31.250000
9431		35.156250
9432		31.250000
9433		33.203125
9434		27.343750
9435		31.250000
9436		27.343750
9437		31.250000
9438		25.390625
9439		29.296875
9440		25.390625
9441		27.343750
9442		23.437500
9443		27.343750
9444		21.484375
9445		25.390625
9446		19.531250
9447		23.437500
9448		17.578125
9449		21.484375
9450		17.578125
9451		19.531250
9452		13.671875
9453		19.531250
9454		13.671875
9455		17.578125
9456		11.718750
9457		15.625000
9458		11.718750
9459		13.671875
9460		9.765625
9461		11.718750
9462		7.812500
9463		11.718750
9464		5.859375
9465		9.765625
9466		3.906250
9467		7.812500
9468		1.953125
9469		5.859375
9470		0.000000
9471		3.906250
9472		-1.953125
9473		1.953125
9474		-1.953125
9475		0.000000
9476		-3.906250
9477		0.000000
9478		-5.859375
9479		-1.953125
9480		-7.812500
9481		-3.906250
9482		-9.765625
9483		-5.859375
9484		-9.765625
9485		-7.812500
9486		-11.718750
9487		-7.812500
9488		-13.671875
9489		-9.765625
9490		-15.625000
9491		-11.718750
9492		-17.578125
9493		-13.671875
9494		-17.578125
9495		-15.625000
9496		-19.531250
9497		-15.625000
9498		-21.484375
9499		-17.578125
9500		-23.437500
9501		-19.531250
9502		-25.390625
9503		-21.484375
9504		-27.343750
9505		-23.437500
9506		-27.343750
9507		-23.437500
9508		-29.296875
9509		-25.390625
9510		-31.250000
9511		-27.343750
9512		-33.203125
9513		-27.343750
9514		-33.203125
9515		-29.296875
9516		-35.156250
9517		-31.250000
9518		-37.109375
9519		-33.203125
9520		-37.109375
9521		-33.203125
9522		-39.062500
9523		-35.156250
9524		-41.015625
9525		-37.109375
9526		-41.015625
9527		-39.062500
9528		-42.968750
9529		-39.062500
9530		-44.921875
9531		-39.062500
9532		-44.921875
9533		-41.015625
9534		-44.921875
9535		-42.968750
9536		-46.875000
9537		-42.968750
9538		-46.875000
9539		-44.921875
9540		-48.828125
9541		-44.921875
9542		-48.828125
9543		-46.875000
9544		-50.781250
9545		-46.875000
9546		-50.781250
9547		-48.828125
9548		-52.734375
9549		-48.828125
9550		-52.734375
9551		-50.781250
9552		-54.687500
9553		-50.781250
9554		-54.687500
9555		-50.781250
9556		-56.640625
9557		-50.781250
9558		-56.640625
9559		-52.734375
9560		-56.640625
9561		-52.734375
9562		-56.640625
9563		-54.687500
9564		-56.640625
9565		-54.687500
9566		-56.640625
9567		-54.687500
9568		-58.593750
9569		-54.687500
9570		-58.593750
9571		-54.687500
9572		-58.593750
9573		-54.687500
9574		-58.593750
9575		-54.687500
9576		-58.593750
9577		-56.640625
9578		-58.593750
9579		-56.640625
9580		-58.593750
9581		-56.640625
9582		-58.593750
9583		-56.640625
9584		-58.593750
9585		-56.640625
9586		-60.546875
9587		-54.687500
9588		-58.593750
9589		-56.640625
9590		-58.593750
9591		-56.640625
9592		-58.593750
9593		-56.640625
9594		-58.593750
9595		-56.640625
9596		-58.593750
9597		-54.687500
9598		-58.593750
9599		-54.687500
9600		-56.640625
9601		-54.687500
9602		-56.640625
9603		-52.734375
9604		-56.640625
9605		-52.734375
9606		-56.640625
9607		-52.734375
9608		-54.687500
9609		-52.734375
9610		-54.687500
9611		-52.734375
9612		-54.687500
9613		-50.781250
9614		-54.687500
9615		-48.828125
9616		-52.734375
9617		-50.781250
9618		-52.734375
9619		-48.828125
9620		-50.781250
9621		-48.828125
9622		-50.781250
9623		-46.875000
9624		-48.828125
9625		-46.875000
9626		-48.828125
9627		-44.921875
9628		-46.875000
9629		-42.968750
9630		-46.875000
9631		-42.968750
9632		-46.875000
9633		-42.968750
9634		-44.921875
9635		-41.015625
9636		-42.968750
9637		-41.015625
9638		-42.968750
9639		-39.062500
9640		-41.015625
9641		-37.109375
9642		-41.015625
9643		-37.109375
9644		-39.062500
9645		-35.156250
9646		-37.109375
9647		-33.203125
9648		-37.109375
9649		-33.203125
9650		-35.156250
9651		-31.250000
9652		-33.203125
9653		-31.250000
9654		-33.203125
9655		-29.296875
9656		-31.250000
9657		-27.343750
9658		-29.296875
9659		-25.390625
9660		-27.343750
9661		-25.390625
9662		-27.343750
9663		-23.437500
9664		-25.390625
9665		-21.484375
9666		-23.437500
9667		-19.531250
9668		-21.484375
9669		-19.531250
9670		-19.531250
9671		-15.625000
9672		-19.531250
9673		-15.625000
9674		-17.578125
9675		-13.671875
9676		-15.625000
9677		-11.718750
9678		-13.671875
9679		-9.765625
9680		-13.671875
9681		-9.765625
9682		-11.718750
9683		-7.812500
9684		-9.765625
9685		-5.859375
9686		-7.812500
9687		-3.906250
9688		-5.859375
9689		-3.906250
9690		-3.906250
9691		-1.953125
9692		-1.953125
9693		0.000000
9694		-1.953125
9695		1.953125
9696		0.000000
9697		3.906250
9698		1.953125
9699		5.859375
9700		3.906250
9701		7.812500
9702		5.859375
9703		9.765625
9704		5.859375
9705		9.765625
9706		7.812500
9707		11.718750
9708		9.765625
9709		13.671875
9710		11.718750
9711		15.625000
9712		13.671875
9713		17.578125
9714		13.671875
9715		19.531250
9716		15.625000
9717		19.531250
9718		17.578125
9719		21.484375
9720		19.531250
9721		23.437500
9722		21.484375
9723		23.437500
9724		21.484375
9725		25.390625
9726		23.437500
9727		27.343750
9728		25.390625
9729		29.296875
9730		27.343750
9731		29.296875
9732		27.343750
9733		33.203125
9734		29.296875
9735		33.203125
9736		31.250000
9737		35.156250
9738		33.203125
9739		35.156250
9740		33.203125
9741		37.109375
9742		35.156250
9743		39.062500
9744		37.109375
9745		41.015625
9746		37.109375
9747		41.015625
9748		39.062500
9749		42.968750
9750		39.062500
9751		42.968750
9752		41.015625
9753		44.921875
9754		42.968750
9755		46.875000
9756		42.968750
9757		46.875000
9758		44.921875
9759		48.828125
9760		44.921875
9761		48.828125
9762		46.875000
9763		50.781250
9764		48.828125
9765		52.734375
9766		48.828125
9767		52.734375
9768		50.781250
9769		52.734375
9770		50.781250
9771		52.734375
9772		50.781250
9773		54.687500
9774		52.734375
9775		56.640625
9776		52.734375
9777		56.640625
9778		54.687500
9779		56.640625
9780		54.687500
9781		58.593750
9782		56.640625
9783		58.593750
9784		56.640625
9785		58.593750
9786		56.640625
9787		60.546875
9788		56.640625
9789		60.546875
9790		58.593750
9791		60.546875
9792		58.593750
9793		62.500000
9794		58.593750
9795		62.500000
9796		58.593750
9797		62.500000
9798		60.546875
9799		62.500000
9800		60.546875
9801		64.453125
9802		60.546875
9803		64.453125
9804		60.546875
9805		64.453125
9806		60.546875
9807		64.453125
9808		62.500000
9809		64.453125
9810		62.500000
9811		64.453125
9812		62.500000
9813		64.453125
9814		60.546875
9815		64.453125
9816		62.500000
9817		66.406250
9818		62.500000
9819		64.453125
9820		62.500000
9821		64.453125
9822		62.500000
9823		66.406250
9824		62.500000
9825		66.406250
9826		62.500000
9827		66.406250
9828		62.500000
9829		64.453125
9830		62.500000
9831		64.453125
9832		62.500000
9833		64.453125
9834		60.546875
9835		66.406250
9836		60.546875
9837		64.453125
9838		60.546875
9839		64.453125
9840		60.546875
9841		64.453125
9842		60.546875
9843		62.500000
9844		58.593750
9845		62.500000
9846		58.593750
9847		62.500000
9848		58.593750
9849		62.500000
9850		58.593750
9851		62.500000
9852		58.593750
9853		60.546875
9854		56.640625
9855		60.546875
9856		56.640625
9857		60.546875
9858		54.687500
9859		58.593750
9860		54.687500
9861		58.593750
9862		54.687500
9863		58.593750
9864		52.734375
9865		56.640625
9866		52.734375
9867		56.640625
9868		52.734375
9869		56.640625
9870		50.781250
9871		52.734375
9872		50.781250
9873		54.687500
9874		48.828125
9875		52.734375
9876		46.875000
9877		50.781250
9878		46.875000
9879		50.781250
9880		46.875000
9881		48.828125
9882		44.921875
9883		48.828125
9884		42.968750
9885		46.875000
9886		42.968750
9887		44.921875
9888		41.015625
9889		44.921875
9890		39.062500
9891		42.968750
9892		39.062500
9893		41.015625
9894		37.109375
9895		41.015625
9896		35.156250
9897		39.062500
9898		35.156250
9899		39.062500
9900		31.250000
9901		37.109375
9902		31.250000
9903		35.156250
9904		31.250000
9905		33.203125
9906		29.296875
9907		33.203125
9908		27.343750
9909		31.250000
9910		25.390625
9911		29.296875
9912		25.390625
9913		27.343750
9914		23.437500
9915		27.343750
9916		21.484375
9917		25.390625
9918		19.531250
9919		23.437500
9920		17.578125
9921		21.484375
9922		15.625000
9923		19.531250
9924		15.625000
9925		19.531250
9926		13.671875
9927		17.578125
9928		11.718750
9929		15.625000
9930		9.765625
9931		13.671875
9932		9.765625
9933		11.718750
9934		7.812500
9935		11.718750
9936		5.859375
9937		9.765625
9938		3.906250
9939		7.812500
9940		1.953125
9941		5.859375
9942		0.000000
9943		3.906250
9944		0.000000
9945		1.953125
9946		-1.953125
9947		0.000000
9948		-3.906250
9949		0.000000
9950		-5.859375
9951		-1.953125
9952		-7.812500
9953		-3.906250
9954		-9.765625
9955		-5.859375
9956		-9.765625
9957		-7.812500
9958		-11.718750
9959		-7.812500
9960		-13.671875
9961		-9.765625
9962		-15.625000
9963		-11.718750
9964		-17.578125
9965		-13.671875
9966		-17.578125
9967		-13.671875
9968		-21.484375
9969		-17.578125
9970		-21.484375
9971		-17.578125
9972		-25.390625
9973		-19.531250
9974		-25.390625
9975		-21.484375
9976		-25.390625
9977		-21.484375
9978		-27.343750
9979		-23.437500
9980		-29.296875
9981		-25.390625
9982		-31.250000
9983		-27.343750
9984		-33.203125
9985		-29.296875
9986		-33.203125
9987		-29.296875
9988		-35.156250
9989		-31.250000
9990		-37.109375
9991		-31.250000
9992		-37.109375
9993		-33.203125
9994		-39.062500
9995		-35.156250
9996		-39.062500
9997		-37.109375
9998		-41.015625
9999		-37.109375
10000		-42.968750
