Channel              :		CH1
Frequency            :		1.061kHz
Period               :		0.942ms
PK-PK                :		175.8mV
Probe attenuation    :		1X
Voltage per ADC value:		0.122070mV
Time interval        :		2.00000us

index		CH1_Voltage(mV)
1		44.921875
2		44.921875
3		52.734375
4		44.921875
5		50.781250
6		42.968750
7		48.828125
8		41.015625
9		46.875000
10		39.062500
11		44.921875
12		39.062500
13		42.968750
14		37.109375
15		39.062500
16		33.203125
17		39.062500
18		31.250000
19		37.109375
20		29.296875
21		37.109375
22		27.343750
23		33.203125
24		23.437500
25		31.250000
26		21.484375
27		29.296875
28		21.484375
29		27.343750
30		19.531250
31		23.437500
32		15.625000
33		21.484375
34		13.671875
35		21.484375
36		11.718750
37		19.531250
38		9.765625
39		15.625000
40		7.812500
41		13.671875
42		5.859375
43		11.718750
44		3.906250
45		9.765625
46		1.953125
47		5.859375
48		0.000000
49		3.906250
50		-3.906250
51		3.906250
52		-5.859375
53		1.953125
54		-9.765625
55		0.000000
56		-11.718750
57		-3.906250
58		-11.718750
59		-5.859375
60		-15.625000
61		-7.812500
62		-15.625000
63		-11.718750
64		-17.578125
65		-13.671875
66		-21.484375
67		-15.625000
68		-23.437500
69		-17.578125
70		-27.343750
71		-19.531250
72		-29.296875
73		-21.484375
74		-31.250000
75		-23.437500
76		-33.203125
77		-25.390625
78		-33.203125
79		-27.343750
80		-35.156250
81		-31.250000
82		-37.109375
83		-33.203125
84		-41.015625
85		-33.203125
86		-42.968750
87		-35.156250
88		-44.921875
89		-37.109375
90		-46.875000
91		-39.062500
92		-48.828125
93		-42.968750
94		-50.781250
95		-42.968750
96		-50.781250
97		-46.875000
98		-52.734375
99		-48.828125
100		-56.640625
101		-50.781250
102		-58.593750
103		-50.781250
104		-60.546875
105		-52.734375
106		-62.500000
107		-54.687500
108		-62.500000
109		-56.640625
110		-64.453125
111		-58.593750
112		-64.453125
113		-58.593750
114		-66.406250
115		-62.500000
116		-70.312500
117		-62.500000
118		-70.312500
119		-64.453125
120		-72.265625
121		-64.453125
122		-72.265625
123		-66.406250
124		-74.218750
125		-68.359375
126		-76.171875
127		-68.359375
128		-76.171875
129		-70.312500
130		-76.171875
131		-72.265625
132		-76.171875
133		-74.218750
134		-80.078125
135		-74.218750
136		-82.031250
137		-74.218750
138		-82.031250
139		-74.218750
140		-82.031250
141		-76.171875
142		-83.984375
143		-76.171875
144		-83.984375
145		-76.171875
146		-83.984375
147		-78.125000
148		-82.031250
149		-80.078125
150		-83.984375
151		-78.125000
152		-85.937500
153		-78.125000
154		-85.937500
155		-80.078125
156		-85.937500
157		-80.078125
158		-85.937500
159		-80.078125
160		-85.937500
161		-80.078125
162		-85.937500
163		-80.078125
164		-83.984375
165		-82.031250
166		-83.984375
167		-82.031250
168		-85.937500
169		-80.078125
170		-85.937500
171		-78.125000
172		-85.937500
173		-80.078125
174		-85.937500
175		-78.125000
176		-83.984375
177		-78.125000
178		-83.984375
179		-78.125000
180		-83.984375
181		-80.078125
182		-80.078125
183		-78.125000
184		-82.031250
185		-76.171875
186		-82.031250
187		-76.171875
188		-82.031250
189		-74.218750
190		-80.078125
191		-74.218750
192		-80.078125
193		-72.265625
194		-78.125000
195		-72.265625
196		-78.125000
197		-72.265625
198		-74.218750
199		-72.265625
200		-76.171875
201		-68.359375
202		-74.218750
203		-66.406250
204		-74.218750
205		-66.406250
206		-72.265625
207		-64.453125
208		-70.312500
209		-62.500000
210		-68.359375
211		-62.500000
212		-68.359375
213		-60.546875
214		-64.453125
215		-60.546875
216		-62.500000
217		-58.593750
218		-60.546875
219		-56.640625
220		-60.546875
221		-54.687500
222		-58.593750
223		-52.734375
224		-56.640625
225		-50.781250
226		-56.640625
227		-48.828125
228		-54.687500
229		-48.828125
230		-50.781250
231		-46.875000
232		-48.828125
233		-44.921875
234		-46.875000
235		-41.015625
236		-46.875000
237		-39.062500
238		-44.921875
239		-37.109375
240		-42.968750
241		-35.156250
242		-41.015625
243		-33.203125
244		-39.062500
245		-31.250000
246		-37.109375
247		-31.250000
248		-33.203125
249		-29.296875
250		-31.250000
251		-27.343750
252		-29.296875
253		-23.437500
254		-29.296875
255		-21.484375
256		-25.390625
257		-17.578125
258		-23.437500
259		-15.625000
260		-21.484375
261		-13.671875
262		-19.531250
263		-11.718750
264		-15.625000
265		-11.718750
266		-13.671875
267		-9.765625
268		-11.718750
269		-3.906250
270		-11.718750
271		-1.953125
272		-9.765625
273		0.000000
274		-5.859375
275		1.953125
276		-3.906250
277		3.906250
278		-1.953125
279		5.859375
280		0.000000
281		5.859375
282		5.859375
283		7.812500
284		7.812500
285		11.718750
286		7.812500
287		15.625000
288		9.765625
289		17.578125
290		11.718750
291		19.531250
292		13.671875
293		21.484375
294		15.625000
295		23.437500
296		17.578125
297		25.390625
298		21.484375
299		25.390625
300		25.390625
301		27.343750
302		25.390625
303		31.250000
304		27.343750
305		33.203125
306		27.343750
307		35.156250
308		31.250000
309		37.109375
310		33.203125
311		39.062500
312		35.156250
313		41.015625
314		37.109375
315		41.015625
316		39.062500
317		42.968750
318		41.015625
319		46.875000
320		42.968750
321		48.828125
322		44.921875
323		50.781250
324		44.921875
325		52.734375
326		46.875000
327		54.687500
328		48.828125
329		56.640625
330		50.781250
331		56.640625
332		54.687500
333		56.640625
334		56.640625
335		58.593750
336		54.687500
337		62.500000
338		56.640625
339		64.453125
340		58.593750
341		64.453125
342		58.593750
343		66.406250
344		60.546875
345		68.359375
346		62.500000
347		68.359375
348		64.453125
349		70.312500
350		66.406250
351		68.359375
352		66.406250
353		72.265625
354		66.406250
355		74.218750
356		68.359375
357		74.218750
358		70.312500
359		76.171875
360		70.312500
361		76.171875
362		70.312500
363		78.125000
364		72.265625
365		78.125000
366		74.218750
367		78.125000
368		76.171875
369		78.125000
370		74.218750
371		82.031250
372		74.218750
373		82.031250
374		76.171875
375		82.031250
376		76.171875
377		82.031250
378		76.171875
379		83.984375
380		76.171875
381		83.984375
382		80.078125
383		82.031250
384		80.078125
385		82.031250
386		78.125000
387		85.937500
388		78.125000
389		85.937500
390		80.078125
391		85.937500
392		80.078125
393		85.937500
394		80.078125
395		85.937500
396		80.078125
397		85.937500
398		80.078125
399		85.937500
400		82.031250
401		83.984375
402		80.078125
403		85.937500
404		80.078125
405		85.937500
406		78.125000
407		85.937500
408		80.078125
409		85.937500
410		78.125000
411		85.937500
412		78.125000
413		85.937500
414		78.125000
415		83.984375
416		80.078125
417		83.984375
418		80.078125
419		82.031250
420		76.171875
421		83.984375
422		76.171875
423		82.031250
424		76.171875
425		82.031250
426		74.218750
427		82.031250
428		74.218750
429		82.031250
430		74.218750
431		80.078125
432		74.218750
433		80.078125
434		74.218750
435		76.171875
436		70.312500
437		78.125000
438		70.312500
439		76.171875
440		68.359375
441		76.171875
442		68.359375
443		74.218750
444		66.406250
445		74.218750
446		66.406250
447		72.265625
448		64.453125
449		70.312500
450		64.453125
451		68.359375
452		62.500000
453		66.406250
454		60.546875
455		66.406250
456		58.593750
457		66.406250
458		58.593750
459		64.453125
460		56.640625
461		64.453125
462		54.687500
463		62.500000
464		52.734375
465		60.546875
466		52.734375
467		56.640625
468		50.781250
469		54.687500
470		48.828125
471		54.687500
472		46.875000
473		52.734375
474		44.921875
475		52.734375
476		42.968750
477		50.781250
478		41.015625
479		48.828125
480		39.062500
481		46.875000
482		39.062500
483		44.921875
484		37.109375
485		41.015625
486		33.203125
487		39.062500
488		31.250000
489		39.062500
490		29.296875
491		37.109375
492		27.343750
493		35.156250
494		25.390625
495		33.203125
496		23.437500
497		31.250000
498		21.484375
499		29.296875
500		21.484375
501		25.390625
502		19.531250
503		23.437500
504		15.625000
505		21.484375
506		13.671875
507		19.531250
508		9.765625
509		17.578125
510		7.812500
511		15.625000
512		5.859375
513		13.671875
514		3.906250
515		11.718750
516		3.906250
517		7.812500
518		1.953125
519		5.859375
520		-1.953125
521		3.906250
522		-5.859375
523		1.953125
524		-7.812500
525		1.953125
526		-9.765625
527		-1.953125
528		-11.718750
529		-3.906250
530		-13.671875
531		-5.859375
532		-15.625000
533		-9.765625
534		-15.625000
535		-13.671875
536		-17.578125
537		-15.625000
538		-23.437500
539		-15.625000
540		-25.390625
541		-17.578125
542		-25.390625
543		-19.531250
544		-29.296875
545		-21.484375
546		-31.250000
547		-23.437500
548		-33.203125
549		-25.390625
550		-33.203125
551		-29.296875
552		-35.156250
553		-31.250000
554		-39.062500
555		-33.203125
556		-42.968750
557		-35.156250
558		-42.968750
559		-37.109375
560		-44.921875
561		-37.109375
562		-46.875000
563		-41.015625
564		-50.781250
565		-41.015625
566		-50.781250
567		-44.921875
568		-50.781250
569		-46.875000
570		-54.687500
571		-48.828125
572		-56.640625
573		-48.828125
574		-58.593750
575		-52.734375
576		-60.546875
577		-52.734375
578		-62.500000
579		-54.687500
580		-64.453125
581		-56.640625
582		-64.453125
583		-58.593750
584		-64.453125
585		-62.500000
586		-66.406250
587		-62.500000
588		-70.312500
589		-62.500000
590		-72.265625
591		-62.500000
592		-72.265625
593		-66.406250
594		-74.218750
595		-66.406250
596		-74.218750
597		-68.359375
598		-76.171875
599		-70.312500
600		-76.171875
601		-70.312500
602		-76.171875
603		-72.265625
604		-78.125000
605		-72.265625
606		-80.078125
607		-74.218750
608		-80.078125
609		-74.218750
610		-82.031250
611		-74.218750
612		-82.031250
613		-76.171875
614		-83.984375
615		-76.171875
616		-83.984375
617		-76.171875
618		-82.031250
619		-80.078125
620		-82.031250
621		-80.078125
622		-85.937500
623		-78.125000
624		-85.937500
625		-78.125000
626		-85.937500
627		-78.125000
628		-85.937500
629		-80.078125
630		-85.937500
631		-80.078125
632		-85.937500
633		-78.125000
634		-85.937500
635		-80.078125
636		-83.984375
637		-82.031250
638		-85.937500
639		-80.078125
640		-85.937500
641		-80.078125
642		-85.937500
643		-80.078125
644		-85.937500
645		-78.125000
646		-85.937500
647		-78.125000
648		-83.984375
649		-78.125000
650		-83.984375
651		-78.125000
652		-82.031250
653		-78.125000
654		-82.031250
655		-76.171875
656		-82.031250
657		-76.171875
658		-82.031250
659		-74.218750
660		-82.031250
661		-74.218750
662		-80.078125
663		-72.265625
664		-78.125000
665		-72.265625
666		-78.125000
667		-72.265625
668		-74.218750
669		-72.265625
670		-74.218750
671		-70.312500
672		-74.218750
673		-68.359375
674		-74.218750
675		-66.406250
676		-72.265625
677		-66.406250
678		-70.312500
679		-64.453125
680		-70.312500
681		-62.500000
682		-68.359375
683		-60.546875
684		-66.406250
685		-60.546875
686		-62.500000
687		-60.546875
688		-62.500000
689		-56.640625
690		-62.500000
691		-54.687500
692		-60.546875
693		-52.734375
694		-58.593750
695		-50.781250
696		-56.640625
697		-50.781250
698		-54.687500
699		-48.828125
700		-54.687500
701		-46.875000
702		-48.828125
703		-46.875000
704		-48.828125
705		-42.968750
706		-48.828125
707		-41.015625
708		-46.875000
709		-37.109375
710		-44.921875
711		-37.109375
712		-41.015625
713		-33.203125
714		-39.062500
715		-33.203125
716		-37.109375
717		-31.250000
718		-37.109375
719		-29.296875
720		-31.250000
721		-27.343750
722		-31.250000
723		-23.437500
724		-29.296875
725		-21.484375
726		-27.343750
727		-19.531250
728		-25.390625
729		-17.578125
730		-23.437500
731		-15.625000
732		-19.531250
733		-11.718750
734		-19.531250
735		-11.718750
736		-13.671875
737		-9.765625
738		-11.718750
739		-5.859375
740		-11.718750
741		-3.906250
742		-9.765625
743		-1.953125
744		-7.812500
745		0.000000
746		-5.859375
747		1.953125
748		-3.906250
749		3.906250
750		0.000000
751		7.812500
752		3.906250
753		7.812500
754		5.859375
755		9.765625
756		5.859375
757		13.671875
758		7.812500
759		15.625000
760		9.765625
761		17.578125
762		11.718750
763		19.531250
764		13.671875
765		21.484375
766		17.578125
767		23.437500
768		19.531250
769		25.390625
770		23.437500
771		27.343750
772		25.390625
773		31.250000
774		25.390625
775		31.250000
776		27.343750
777		35.156250
778		29.296875
779		37.109375
780		31.250000
781		39.062500
782		33.203125
783		41.015625
784		35.156250
785		41.015625
786		39.062500
787		42.968750
788		41.015625
789		44.921875
790		41.015625
791		46.875000
792		41.015625
793		50.781250
794		44.921875
795		50.781250
796		46.875000
797		52.734375
798		46.875000
799		54.687500
800		48.828125
801		56.640625
802		50.781250
803		56.640625
804		54.687500
805		56.640625
806		54.687500
807		60.546875
808		54.687500
809		62.500000
810		56.640625
811		64.453125
812		58.593750
813		66.406250
814		60.546875
815		66.406250
816		60.546875
817		68.359375
818		62.500000
819		68.359375
820		66.406250
821		68.359375
822		66.406250
823		72.265625
824		66.406250
825		72.265625
826		68.359375
827		74.218750
828		68.359375
829		76.171875
830		70.312500
831		76.171875
832		70.312500
833		78.125000
834		70.312500
835		78.125000
836		74.218750
837		76.171875
838		76.171875
839		78.125000
840		74.218750
841		80.078125
842		74.218750
843		82.031250
844		74.218750
845		82.031250
846		76.171875
847		82.031250
848		76.171875
849		83.984375
850		76.171875
851		83.984375
852		78.125000
853		83.984375
854		80.078125
855		82.031250
856		80.078125
857		85.937500
858		78.125000
859		85.937500
860		80.078125
861		85.937500
862		80.078125
863		85.937500
864		80.078125
865		85.937500
866		80.078125
867		85.937500
868		80.078125
869		87.890625
870		82.031250
871		85.937500
872		82.031250
873		83.984375
874		80.078125
875		85.937500
876		80.078125
877		85.937500
878		80.078125
879		85.937500
880		80.078125
881		85.937500
882		80.078125
883		85.937500
884		80.078125
885		85.937500
886		80.078125
887		83.984375
888		80.078125
889		82.031250
890		78.125000
891		83.984375
892		78.125000
893		83.984375
894		76.171875
895		83.984375
896		76.171875
897		82.031250
898		74.218750
899		82.031250
900		74.218750
901		80.078125
902		74.218750
903		80.078125
904		74.218750
905		78.125000
906		72.265625
907		78.125000
908		70.312500
909		78.125000
910		70.312500
911		78.125000
912		68.359375
913		76.171875
914		68.359375
915		74.218750
916		66.406250
917		74.218750
918		66.406250
919		72.265625
920		66.406250
921		70.312500
922		66.406250
923		68.359375
924		62.500000
925		70.312500
926		60.546875
927		68.359375
928		58.593750
929		66.406250
930		58.593750
931		64.453125
932		56.640625
933		64.453125
934		54.687500
935		62.500000
936		54.687500
937		60.546875
938		54.687500
939		56.640625
940		50.781250
941		56.640625
942		48.828125
943		56.640625
944		46.875000
945		54.687500
946		44.921875
947		52.734375
948		42.968750
949		50.781250
950		41.015625
951		48.828125
952		41.015625
953		46.875000
954		39.062500
955		42.968750
956		37.109375
957		41.015625
958		35.156250
959		41.015625
960		33.203125
961		39.062500
962		29.296875
963		37.109375
964		27.343750
965		35.156250
966		25.390625
967		33.203125
968		23.437500
969		31.250000
970		23.437500
971		29.296875
972		21.484375
973		25.390625
974		15.625000
975		23.437500
976		15.625000
977		21.484375
978		13.671875
979		19.531250
980		9.765625
981		17.578125
982		7.812500
983		15.625000
984		5.859375
985		13.671875
986		3.906250
987		11.718750
988		3.906250
989		7.812500
990		0.000000
991		5.859375
992		-3.906250
993		5.859375
994		-5.859375
995		1.953125
996		-5.859375
997		0.000000
998		-7.812500
999		-1.953125
1000		-13.671875
1001		-3.906250
1002		-13.671875
1003		-5.859375
1004		-13.671875
1005		-9.765625
1006		-15.625000
1007		-13.671875
1008		-21.484375
1009		-13.671875
1010		-23.437500
1011		-15.625000
1012		-25.390625
1013		-17.578125
1014		-27.343750
1015		-19.531250
1016		-29.296875
1017		-21.484375
1018		-31.250000
1019		-23.437500
1020		-33.203125
1021		-25.390625
1022		-33.203125
1023		-29.296875
1024		-37.109375
1025		-33.203125
1026		-41.015625
1027		-31.250000
1028		-41.015625
1029		-35.156250
1030		-42.968750
1031		-37.109375
1032		-46.875000
1033		-39.062500
1034		-46.875000
1035		-41.015625
1036		-48.828125
1037		-42.968750
1038		-48.828125
1039		-46.875000
1040		-50.781250
1041		-48.828125
1042		-54.687500
1043		-48.828125
1044		-56.640625
1045		-50.781250
1046		-58.593750
1047		-50.781250
1048		-60.546875
1049		-52.734375
1050		-62.500000
1051		-54.687500
1052		-62.500000
1053		-56.640625
1054		-64.453125
1055		-58.593750
1056		-64.453125
1057		-60.546875
1058		-68.359375
1059		-62.500000
1060		-68.359375
1061		-62.500000
1062		-70.312500
1063		-64.453125
1064		-72.265625
1065		-64.453125
1066		-74.218750
1067		-66.406250
1068		-74.218750
1069		-68.359375
1070		-76.171875
1071		-70.312500
1072		-74.218750
1073		-72.265625
1074		-76.171875
1075		-72.265625
1076		-80.078125
1077		-72.265625
1078		-80.078125
1079		-72.265625
1080		-80.078125
1081		-74.218750
1082		-82.031250
1083		-74.218750
1084		-82.031250
1085		-74.218750
1086		-83.984375
1087		-76.171875
1088		-82.031250
1089		-78.125000
1090		-82.031250
1091		-80.078125
1092		-83.984375
1093		-78.125000
1094		-85.937500
1095		-78.125000
1096		-85.937500
1097		-78.125000
1098		-85.937500
1099		-78.125000
1100		-85.937500
1101		-78.125000
1102		-85.937500
1103		-78.125000
1104		-85.937500
1105		-80.078125
1106		-83.984375
1107		-82.031250
1108		-83.984375
1109		-80.078125
1110		-85.937500
1111		-80.078125
1112		-85.937500
1113		-78.125000
1114		-85.937500
1115		-78.125000
1116		-85.937500
1117		-78.125000
1118		-85.937500
1119		-78.125000
1120		-83.984375
1121		-78.125000
1122		-82.031250
1123		-78.125000
1124		-80.078125
1125		-78.125000
1126		-82.031250
1127		-76.171875
1128		-82.031250
1129		-76.171875
1130		-82.031250
1131		-74.218750
1132		-80.078125
1133		-74.218750
1134		-80.078125
1135		-72.265625
1136		-78.125000
1137		-72.265625
1138		-78.125000
1139		-72.265625
1140		-74.218750
1141		-72.265625
1142		-76.171875
1143		-68.359375
1144		-74.218750
1145		-66.406250
1146		-74.218750
1147		-66.406250
1148		-72.265625
1149		-64.453125
1150		-70.312500
1151		-64.453125
1152		-68.359375
1153		-62.500000
1154		-66.406250
1155		-60.546875
1156		-64.453125
1157		-60.546875
1158		-62.500000
1159		-58.593750
1160		-64.453125
1161		-56.640625
1162		-62.500000
1163		-54.687500
1164		-60.546875
1165		-52.734375
1166		-58.593750
1167		-50.781250
1168		-56.640625
1169		-48.828125
1170		-54.687500
1171		-46.875000
1172		-52.734375
1173		-46.875000
1174		-48.828125
1175		-44.921875
1176		-48.828125
1177		-42.968750
1178		-46.875000
1179		-39.062500
1180		-46.875000
1181		-37.109375
1182		-42.968750
1183		-35.156250
1184		-41.015625
1185		-33.203125
1186		-39.062500
1187		-31.250000
1188		-37.109375
1189		-31.250000
1190		-33.203125
1191		-29.296875
1192		-31.250000
1193		-25.390625
1194		-31.250000
1195		-23.437500
1196		-27.343750
1197		-21.484375
1198		-25.390625
1199		-19.531250
1200		-25.390625
1201		-15.625000
1202		-21.484375
1203		-13.671875
1204		-19.531250
1205		-11.718750
1206		-15.625000
1207		-11.718750
1208		-13.671875
1209		-9.765625
1210		-13.671875
1211		-5.859375
1212		-11.718750
1213		-3.906250
1214		-7.812500
1215		-1.953125
1216		-5.859375
1217		1.953125
1218		-3.906250
1219		1.953125
1220		-1.953125
1221		5.859375
1222		0.000000
1223		5.859375
1224		3.906250
1225		7.812500
1226		5.859375
1227		11.718750
1228		5.859375
1229		15.625000
1230		7.812500
1231		17.578125
1232		11.718750
1233		19.531250
1234		13.671875
1235		21.484375
1236		15.625000
1237		23.437500
1238		17.578125
1239		25.390625
1240		21.484375
1241		25.390625
1242		23.437500
1243		27.343750
1244		23.437500
1245		31.250000
1246		25.390625
1247		33.203125
1248		27.343750
1249		35.156250
1250		29.296875
1251		37.109375
1252		31.250000
1253		39.062500
1254		33.203125
1255		41.015625
1256		37.109375
1257		41.015625
1258		39.062500
1259		42.968750
1260		41.015625
1261		46.875000
1262		41.015625
1263		48.828125
1264		42.968750
1265		50.781250
1266		44.921875
1267		50.781250
1268		46.875000
1269		54.687500
1270		48.828125
1271		54.687500
1272		50.781250
1273		56.640625
1274		52.734375
1275		56.640625
1276		54.687500
1277		60.546875
1278		54.687500
1279		62.500000
1280		56.640625
1281		62.500000
1282		58.593750
1283		64.453125
1284		58.593750
1285		66.406250
1286		60.546875
1287		66.406250
1288		62.500000
1289		68.359375
1290		64.453125
1291		68.359375
1292		66.406250
1293		70.312500
1294		66.406250
1295		72.265625
1296		66.406250
1297		74.218750
1298		66.406250
1299		74.218750
1300		68.359375
1301		76.171875
1302		70.312500
1303		76.171875
1304		70.312500
1305		78.125000
1306		72.265625
1307		78.125000
1308		74.218750
1309		78.125000
1310		74.218750
1311		80.078125
1312		74.218750
1313		80.078125
1314		74.218750
1315		82.031250
1316		76.171875
1317		82.031250
1318		76.171875
1319		82.031250
1320		78.125000
1321		83.984375
1322		78.125000
1323		83.984375
1324		80.078125
1325		82.031250
1326		80.078125
1327		82.031250
1328		80.078125
1329		85.937500
1330		80.078125
1331		85.937500
1332		80.078125
1333		85.937500
1334		80.078125
1335		85.937500
1336		80.078125
1337		85.937500
1338		80.078125
1339		85.937500
1340		80.078125
1341		85.937500
1342		82.031250
1343		83.984375
1344		80.078125
1345		85.937500
1346		80.078125
1347		85.937500
1348		80.078125
1349		85.937500
1350		80.078125
1351		85.937500
1352		80.078125
1353		85.937500
1354		78.125000
1355		85.937500
1356		78.125000
1357		85.937500
1358		80.078125
1359		83.984375
1360		80.078125
1361		82.031250
1362		78.125000
1363		83.984375
1364		76.171875
1365		83.984375
1366		76.171875
1367		82.031250
1368		76.171875
1369		82.031250
1370		74.218750
1371		82.031250
1372		74.218750
1373		80.078125
1374		76.171875
1375		78.125000
1376		74.218750
1377		76.171875
1378		72.265625
1379		78.125000
1380		70.312500
1381		78.125000
1382		70.312500
1383		76.171875
1384		68.359375
1385		76.171875
1386		66.406250
1387		74.218750
1388		66.406250
1389		72.265625
1390		66.406250
1391		72.265625
1392		66.406250
1393		68.359375
1394		62.500000
1395		68.359375
1396		60.546875
1397		68.359375
1398		60.546875
1399		66.406250
1400		58.593750
1401		66.406250
1402		56.640625
1403		64.453125
1404		54.687500
1405		62.500000
1406		54.687500
1407		60.546875
1408		54.687500
1409		58.593750
1410		52.734375
1411		56.640625
1412		48.828125
1413		56.640625
1414		46.875000
1415		54.687500
1416		44.921875
1417		52.734375
1418		44.921875
1419		50.781250
1420		42.968750
1421		48.828125
1422		41.015625
1423		48.828125
1424		39.062500
1425		46.875000
1426		39.062500
1427		42.968750
1428		35.156250
1429		41.015625
1430		33.203125
1431		41.015625
1432		31.250000
1433		39.062500
1434		27.343750
1435		35.156250
1436		27.343750
1437		33.203125
1438		23.437500
1439		31.250000
1440		23.437500
1441		29.296875
1442		23.437500
1443		25.390625
1444		19.531250
1445		23.437500
1446		15.625000
1447		23.437500
1448		13.671875
1449		21.484375
1450		11.718750
1451		19.531250
1452		9.765625
1453		17.578125
1454		7.812500
1455		13.671875
1456		5.859375
1457		13.671875
1458		3.906250
1459		9.765625
1460		1.953125
1461		5.859375
1462		-1.953125
1463		5.859375
1464		-3.906250
1465		3.906250
1466		-5.859375
1467		1.953125
1468		-7.812500
1469		0.000000
1470		-9.765625
1471		-1.953125
1472		-13.671875
1473		-5.859375
1474		-13.671875
1475		-7.812500
1476		-15.625000
1477		-11.718750
1478		-19.531250
1479		-13.671875
1480		-21.484375
1481		-13.671875
1482		-23.437500
1483		-15.625000
1484		-27.343750
1485		-19.531250
1486		-27.343750
1487		-21.484375
1488		-31.250000
1489		-23.437500
1490		-31.250000
1491		-25.390625
1492		-33.203125
1493		-29.296875
1494		-35.156250
1495		-31.250000
1496		-39.062500
1497		-31.250000
1498		-41.015625
1499		-33.203125
1500		-42.968750
1501		-35.156250
1502		-44.921875
1503		-37.109375
1504		-46.875000
1505		-39.062500
1506		-48.828125
1507		-41.015625
1508		-48.828125
1509		-42.968750
1510		-50.781250
1511		-46.875000
1512		-54.687500
1513		-46.875000
1514		-54.687500
1515		-48.828125
1516		-56.640625
1517		-50.781250
1518		-58.593750
1519		-52.734375
1520		-60.546875
1521		-54.687500
1522		-62.500000
1523		-54.687500
1524		-64.453125
1525		-56.640625
1526		-64.453125
1527		-60.546875
1528		-66.406250
1529		-62.500000
1530		-68.359375
1531		-62.500000
1532		-70.312500
1533		-62.500000
1534		-72.265625
1535		-64.453125
1536		-72.265625
1537		-66.406250
1538		-74.218750
1539		-66.406250
1540		-76.171875
1541		-68.359375
1542		-74.218750
1543		-72.265625
1544		-76.171875
1545		-72.265625
1546		-78.125000
1547		-72.265625
1548		-80.078125
1549		-72.265625
1550		-80.078125
1551		-74.218750
1552		-80.078125
1553		-74.218750
1554		-82.031250
1555		-74.218750
1556		-82.031250
1557		-76.171875
1558		-82.031250
1559		-76.171875
1560		-82.031250
1561		-80.078125
1562		-82.031250
1563		-78.125000
1564		-83.984375
1565		-78.125000
1566		-85.937500
1567		-78.125000
1568		-85.937500
1569		-78.125000
1570		-85.937500
1571		-80.078125
1572		-85.937500
1573		-78.125000
1574		-85.937500
1575		-80.078125
1576		-83.984375
1577		-82.031250
1578		-83.984375
1579		-82.031250
1580		-85.937500
1581		-80.078125
1582		-85.937500
1583		-78.125000
1584		-85.937500
1585		-78.125000
1586		-85.937500
1587		-78.125000
1588		-83.984375
1589		-78.125000
1590		-83.984375
1591		-78.125000
1592		-83.984375
1593		-78.125000
1594		-82.031250
1595		-78.125000
1596		-82.031250
1597		-76.171875
1598		-82.031250
1599		-76.171875
1600		-82.031250
1601		-76.171875
1602		-82.031250
1603		-74.218750
1604		-80.078125
1605		-74.218750
1606		-80.078125
1607		-72.265625
1608		-78.125000
1609		-72.265625
1610		-76.171875
1611		-72.265625
1612		-74.218750
1613		-68.359375
1614		-76.171875
1615		-68.359375
1616		-74.218750
1617		-66.406250
1618		-72.265625
1619		-66.406250
1620		-72.265625
1621		-64.453125
1622		-70.312500
1623		-62.500000
1624		-70.312500
1625		-62.500000
1626		-66.406250
1627		-62.500000
1628		-64.453125
1629		-60.546875
1630		-64.453125
1631		-58.593750
1632		-64.453125
1633		-56.640625
1634		-60.546875
1635		-54.687500
1636		-60.546875
1637		-52.734375
1638		-56.640625
1639		-50.781250
1640		-56.640625
1641		-48.828125
1642		-54.687500
1643		-48.828125
1644		-50.781250
1645		-46.875000
1646		-50.781250
1647		-44.921875
1648		-48.828125
1649		-41.015625
1650		-46.875000
1651		-39.062500
1652		-44.921875
1653		-37.109375
1654		-42.968750
1655		-35.156250
1656		-41.015625
1657		-33.203125
1658		-39.062500
1659		-31.250000
1660		-35.156250
1661		-31.250000
1662		-33.203125
1663		-29.296875
1664		-31.250000
1665		-25.390625
1666		-31.250000
1667		-23.437500
1668		-27.343750
1669		-21.484375
1670		-27.343750
1671		-17.578125
1672		-23.437500
1673		-15.625000
1674		-21.484375
1675		-13.671875
1676		-19.531250
1677		-13.671875
1678		-15.625000
1679		-11.718750
1680		-13.671875
1681		-7.812500
1682		-13.671875
1683		-5.859375
1684		-9.765625
1685		-3.906250
1686		-9.765625
1687		0.000000
1688		-5.859375
1689		0.000000
1690		-3.906250
1691		3.906250
1692		-1.953125
1693		5.859375
1694		1.953125
1695		5.859375
1696		3.906250
1697		9.765625
1698		3.906250
1699		11.718750
1700		5.859375
1701		13.671875
1702		9.765625
1703		17.578125
1704		11.718750
1705		19.531250
1706		13.671875
1707		19.531250
1708		15.625000
1709		23.437500
1710		19.531250
1711		23.437500
1712		21.484375
1713		25.390625
1714		21.484375
1715		29.296875
1716		23.437500
1717		31.250000
1718		25.390625
1719		33.203125
1720		27.343750
1721		35.156250
1722		31.250000
1723		37.109375
1724		31.250000
1725		39.062500
1726		33.203125
1727		41.015625
1728		37.109375
1729		41.015625
1730		39.062500
1731		44.921875
1732		39.062500
1733		46.875000
1734		42.968750
1735		48.828125
1736		42.968750
1737		50.781250
1738		44.921875
1739		52.734375
1740		46.875000
1741		54.687500
1742		48.828125
1743		54.687500
1744		52.734375
1745		54.687500
1746		52.734375
1747		56.640625
1748		52.734375
1749		60.546875
1750		54.687500
1751		62.500000
1752		56.640625
1753		62.500000
1754		56.640625
1755		64.453125
1756		58.593750
1757		66.406250
1758		60.546875
1759		66.406250
1760		62.500000
1761		66.406250
1762		64.453125
1763		68.359375
1764		64.453125
1765		70.312500
1766		66.406250
1767		72.265625
1768		66.406250
1769		72.265625
1770		66.406250
1771		74.218750
1772		68.359375
1773		76.171875
1774		68.359375
1775		76.171875
1776		70.312500
1777		76.171875
1778		74.218750
1779		76.171875
1780		74.218750
1781		76.171875
1782		72.265625
1783		80.078125
1784		74.218750
1785		80.078125
1786		74.218750
1787		80.078125
1788		76.171875
1789		82.031250
1790		76.171875
1791		82.031250
1792		76.171875
1793		83.984375
1794		78.125000
1795		82.031250
1796		80.078125
1797		82.031250
1798		78.125000
1799		83.984375
1800		78.125000
1801		83.984375
1802		78.125000
1803		85.937500
1804		78.125000
1805		85.937500
1806		78.125000
1807		85.937500
1808		78.125000
1809		85.937500
1810		80.078125
1811		85.937500
1812		82.031250
1813		83.984375
1814		80.078125
1815		83.984375
1816		80.078125
1817		85.937500
1818		80.078125
1819		85.937500
1820		78.125000
1821		85.937500
1822		78.125000
1823		85.937500
1824		78.125000
1825		85.937500
1826		78.125000
1827		85.937500
1828		80.078125
1829		82.031250
1830		80.078125
1831		82.031250
1832		76.171875
1833		83.984375
1834		76.171875
1835		83.984375
1836		76.171875
1837		82.031250
1838		74.218750
1839		82.031250
1840		74.218750
1841		82.031250
1842		74.218750
1843		80.078125
1844		74.218750
1845		80.078125
1846		74.218750
1847		78.125000
1848		72.265625
1849		78.125000
1850		70.312500
1851		78.125000
1852		70.312500
1853		76.171875
1854		68.359375
1855		76.171875
1856		66.406250
1857		74.218750
1858		66.406250
1859		74.218750
1860		66.406250
1861		72.265625
1862		66.406250
1863		70.312500
1864		64.453125
1865		68.359375
1866		62.500000
1867		68.359375
1868		60.546875
1869		68.359375
1870		58.593750
1871		66.406250
1872		58.593750
1873		64.453125
1874		56.640625
1875		64.453125
1876		54.687500
1877		62.500000
1878		54.687500
1879		60.546875
1880		52.734375
1881		56.640625
1882		48.828125
1883		56.640625
1884		48.828125
1885		56.640625
1886		46.875000
1887		52.734375
1888		44.921875
1889		52.734375
1890		42.968750
1891		50.781250
1892		41.015625
1893		48.828125
1894		41.015625
1895		46.875000
1896		39.062500
1897		42.968750
1898		37.109375
1899		41.015625
1900		33.203125
1901		39.062500
1902		33.203125
1903		37.109375
1904		29.296875
1905		35.156250
1906		29.296875
1907		35.156250
1908		27.343750
1909		31.250000
1910		25.390625
1911		29.296875
1912		23.437500
1913		27.343750
1914		21.484375
1915		25.390625
1916		17.578125
1917		23.437500
1918		15.625000
1919		23.437500
1920		13.671875
1921		19.531250
1922		9.765625
1923		17.578125
1924		7.812500
1925		15.625000
1926		7.812500
1927		13.671875
1928		5.859375
1929		11.718750
1930		3.906250
1931		7.812500
1932		0.000000
1933		5.859375
1934		-1.953125
1935		5.859375
1936		-3.906250
1937		3.906250
1938		-7.812500
1939		0.000000
1940		-9.765625
1941		-1.953125
1942		-11.718750
1943		-3.906250
1944		-13.671875
1945		-7.812500
1946		-13.671875
1947		-9.765625
1948		-17.578125
1949		-11.718750
1950		-21.484375
1951		-13.671875
1952		-23.437500
1953		-15.625000
1954		-25.390625
1955		-17.578125
1956		-25.390625
1957		-19.531250
1958		-29.296875
1959		-21.484375
1960		-31.250000
1961		-23.437500
1962		-31.250000
1963		-27.343750
1964		-33.203125
1965		-29.296875
1966		-37.109375
1967		-31.250000
1968		-41.015625
1969		-31.250000
1970		-42.968750
1971		-35.156250
1972		-42.968750
1973		-37.109375
1974		-46.875000
1975		-39.062500
1976		-48.828125
1977		-41.015625
1978		-48.828125
1979		-42.968750
1980		-48.828125
1981		-46.875000
1982		-52.734375
1983		-46.875000
1984		-56.640625
1985		-48.828125
1986		-56.640625
1987		-50.781250
1988		-58.593750
1989		-50.781250
1990		-60.546875
1991		-52.734375
1992		-62.500000
1993		-54.687500
1994		-64.453125
1995		-56.640625
1996		-62.500000
1997		-60.546875
1998		-64.453125
1999		-62.500000
2000		-68.359375
2001		-62.500000
2002		-68.359375
2003		-62.500000
2004		-72.265625
2005		-64.453125
2006		-72.265625
2007		-64.453125
2008		-74.218750
2009		-66.406250
2010		-74.218750
2011		-68.359375
2012		-76.171875
2013		-68.359375
2014		-76.171875
2015		-72.265625
2016		-76.171875
2017		-72.265625
2018		-78.125000
2019		-72.265625
2020		-80.078125
2021		-72.265625
2022		-80.078125
2023		-74.218750
2024		-82.031250
2025		-74.218750
2026		-82.031250
2027		-76.171875
2028		-82.031250
2029		-76.171875
2030		-82.031250
2031		-78.125000
2032		-82.031250
2033		-80.078125
2034		-83.984375
2035		-78.125000
2036		-85.937500
2037		-78.125000
2038		-85.937500
2039		-78.125000
2040		-85.937500
2041		-78.125000
2042		-85.937500
2043		-80.078125
2044		-85.937500
2045		-80.078125
2046		-83.984375
2047		-80.078125
2048		-83.984375
2049		-82.031250
2050		-85.937500
2051		-80.078125
2052		-85.937500
2053		-80.078125
2054		-85.937500
2055		-80.078125
2056		-85.937500
2057		-78.125000
2058		-85.937500
2059		-78.125000
2060		-85.937500
2061		-78.125000
2062		-83.984375
2063		-78.125000
2064		-82.031250
2065		-80.078125
2066		-82.031250
2067		-78.125000
2068		-82.031250
2069		-76.171875
2070		-82.031250
2071		-76.171875
2072		-82.031250
2073		-76.171875
2074		-82.031250
2075		-74.218750
2076		-80.078125
2077		-74.218750
2078		-80.078125
2079		-72.265625
2080		-76.171875
2081		-74.218750
2082		-74.218750
2083		-72.265625
2084		-76.171875
2085		-70.312500
2086		-76.171875
2087		-68.359375
2088		-74.218750
2089		-66.406250
2090		-72.265625
2091		-66.406250
2092		-72.265625
2093		-64.453125
2094		-70.312500
2095		-62.500000
2096		-68.359375
2097		-62.500000
2098		-64.453125
2099		-62.500000
2100		-64.453125
2101		-60.546875
2102		-64.453125
2103		-56.640625
2104		-62.500000
2105		-54.687500
2106		-60.546875
2107		-52.734375
2108		-60.546875
2109		-52.734375
2110		-56.640625
2111		-50.781250
2112		-56.640625
2113		-48.828125
2114		-52.734375
2115		-48.828125
2116		-50.781250
2117		-46.875000
2118		-48.828125
2119		-42.968750
2120		-48.828125
2121		-41.015625
2122		-44.921875
2123		-39.062500
2124		-44.921875
2125		-37.109375
2126		-42.968750
2127		-35.156250
2128		-41.015625
2129		-33.203125
2130		-37.109375
2131		-31.250000
2132		-33.203125
2133		-31.250000
2134		-31.250000
2135		-25.390625
2136		-31.250000
2137		-23.437500
2138		-29.296875
2139		-21.484375
2140		-27.343750
2141		-19.531250
2142		-25.390625
2143		-17.578125
2144		-21.484375
2145		-15.625000
2146		-21.484375
2147		-15.625000
2148		-17.578125
2149		-13.671875
2150		-15.625000
2151		-9.765625
2152		-13.671875
2153		-7.812500
2154		-11.718750
2155		-3.906250
2156		-9.765625
2157		-1.953125
2158		-7.812500
2159		0.000000
2160		-5.859375
2161		1.953125
2162		-3.906250
2163		3.906250
2164		0.000000
2165		3.906250
2166		3.906250
2167		5.859375
2168		3.906250
2169		9.765625
2170		5.859375
2171		11.718750
2172		7.812500
2173		15.625000
2174		9.765625
2175		17.578125
2176		11.718750
2177		19.531250
2178		13.671875
2179		21.484375
2180		17.578125
2181		23.437500
2182		21.484375
2183		23.437500
2184		23.437500
2185		27.343750
2186		21.484375
2187		29.296875
2188		25.390625
2189		33.203125
2190		27.343750
2191		33.203125
2192		29.296875
2193		35.156250
2194		31.250000
2195		39.062500
2196		33.203125
2197		39.062500
2198		37.109375
2199		41.015625
2200		39.062500
2201		41.015625
2202		39.062500
2203		44.921875
2204		41.015625
2205		46.875000
2206		41.015625
2207		48.828125
2208		42.968750
2209		50.781250
2210		44.921875
2211		52.734375
2212		46.875000
2213		54.687500
2214		48.828125
2215		54.687500
2216		52.734375
2217		54.687500
2218		52.734375
2219		60.546875
2220		52.734375
2221		60.546875
2222		54.687500
2223		62.500000
2224		56.640625
2225		64.453125
2226		58.593750
2227		64.453125
2228		58.593750
2229		66.406250
2230		60.546875
2231		68.359375
2232		64.453125
2233		66.406250
2234		66.406250
2235		68.359375
2236		64.453125
2237		70.312500
2238		66.406250
2239		72.265625
2240		66.406250
2241		74.218750
2242		68.359375
2243		74.218750
2244		68.359375
2245		76.171875
2246		70.312500
2247		76.171875
2248		72.265625
2249		76.171875
2250		74.218750
2251		76.171875
2252		72.265625
2253		78.125000
2254		74.218750
2255		80.078125
2256		74.218750
2257		82.031250
2258		74.218750
2259		82.031250
2260		76.171875
2261		82.031250
2262		76.171875
2263		83.984375
2264		76.171875
2265		82.031250
2266		80.078125
2267		82.031250
2268		80.078125
2269		83.984375
2270		78.125000
2271		83.984375
2272		78.125000
2273		85.937500
2274		78.125000
2275		85.937500
2276		78.125000
2277		85.937500
2278		80.078125
2279		85.937500
2280		80.078125
2281		85.937500
2282		82.031250
2283		83.984375
2284		82.031250
2285		83.984375
2286		80.078125
2287		85.937500
2288		80.078125
2289		85.937500
2290		80.078125
2291		85.937500
2292		80.078125
2293		85.937500
2294		80.078125
2295		85.937500
2296		78.125000
2297		85.937500
2298		80.078125
2299		83.984375
2300		80.078125
2301		82.031250
2302		78.125000
2303		83.984375
2304		76.171875
2305		83.984375
2306		76.171875
2307		83.984375
2308		76.171875
2309		82.031250
2310		76.171875
2311		82.031250
2312		74.218750
2313		82.031250
2314		74.218750
2315		80.078125
2316		76.171875
2317		78.125000
2318		74.218750
2319		78.125000
2320		72.265625
2321		78.125000
2322		70.312500
2323		78.125000
2324		68.359375
2325		76.171875
2326		68.359375
2327		76.171875
2328		68.359375
2329		74.218750
2330		66.406250
2331		74.218750
2332		68.359375
2333		70.312500
2334		66.406250
2335		68.359375
2336		62.500000
2337		70.312500
2338		62.500000
2339		68.359375
2340		60.546875
2341		68.359375
2342		58.593750
2343		66.406250
2344		56.640625
2345		64.453125
2346		56.640625
2347		62.500000
2348		54.687500
2349		62.500000
2350		54.687500
2351		58.593750
2352		52.734375
2353		56.640625
2354		50.781250
2355		56.640625
2356		48.828125
2357		54.687500
2358		46.875000
2359		52.734375
2360		44.921875
2361		52.734375
2362		42.968750
2363		50.781250
2364		41.015625
2365		48.828125
2366		41.015625
2367		44.921875
2368		39.062500
2369		42.968750
2370		35.156250
2371		42.968750
2372		33.203125
2373		41.015625
2374		31.250000
2375		39.062500
2376		29.296875
2377		37.109375
2378		27.343750
2379		35.156250
2380		25.390625
2381		33.203125
2382		25.390625
2383		31.250000
2384		23.437500
2385		27.343750
2386		19.531250
2387		25.390625
2388		17.578125
2389		23.437500
2390		15.625000
2391		23.437500
2392		11.718750
2393		19.531250
2394		9.765625
2395		17.578125
2396		7.812500
2397		15.625000
2398		7.812500
2399		13.671875
2400		5.859375
2401		9.765625
2402		3.906250
2403		7.812500
2404		0.000000
2405		7.812500
2406		-1.953125
2407		5.859375
2408		-5.859375
2409		1.953125
2410		-7.812500
2411		0.000000
2412		-9.765625
2413		-1.953125
2414		-11.718750
2415		-3.906250
2416		-11.718750
2417		-7.812500
2418		-13.671875
2419		-9.765625
2420		-17.578125
2421		-13.671875
2422		-19.531250
2423		-13.671875
2424		-23.437500
2425		-15.625000
2426		-23.437500
2427		-17.578125
2428		-27.343750
2429		-19.531250
2430		-29.296875
2431		-21.484375
2432		-29.296875
2433		-23.437500
2434		-31.250000
2435		-27.343750
2436		-35.156250
2437		-29.296875
2438		-37.109375
2439		-31.250000
2440		-39.062500
2441		-33.203125
2442		-41.015625
2443		-35.156250
2444		-42.968750
2445		-35.156250
2446		-46.875000
2447		-39.062500
2448		-46.875000
2449		-41.015625
2450		-46.875000
2451		-44.921875
2452		-48.828125
2453		-46.875000
2454		-52.734375
2455		-46.875000
2456		-52.734375
2457		-48.828125
2458		-56.640625
2459		-48.828125
2460		-58.593750
2461		-50.781250
2462		-60.546875
2463		-52.734375
2464		-60.546875
2465		-54.687500
2466		-62.500000
2467		-56.640625
2468		-62.500000
2469		-60.546875
2470		-66.406250
2471		-60.546875
2472		-66.406250
2473		-60.546875
2474		-68.359375
2475		-64.453125
2476		-70.312500
2477		-64.453125
2478		-72.265625
2479		-64.453125
2480		-72.265625
2481		-66.406250
2482		-74.218750
2483		-68.359375
2484		-74.218750
2485		-70.312500
2486		-74.218750
2487		-72.265625
2488		-76.171875
2489		-70.312500
2490		-78.125000
2491		-72.265625
2492		-78.125000
2493		-74.218750
2494		-80.078125
2495		-74.218750
2496		-82.031250
2497		-74.218750
2498		-82.031250
2499		-76.171875
2500		-82.031250
2501		-76.171875
2502		-80.078125
2503		-78.125000
2504		-82.031250
2505		-78.125000
2506		-82.031250
2507		-80.078125
2508		-82.031250
2509		-80.078125
2510		-83.984375
2511		-80.078125
2512		-83.984375
2513		-80.078125
2514		-85.937500
2515		-78.125000
2516		-83.984375
2517		-80.078125
2518		-83.984375
2519		-82.031250
2520		-83.984375
2521		-80.078125
2522		-83.984375
2523		-80.078125
2524		-83.984375
2525		-80.078125
2526		-83.984375
2527		-80.078125
2528		-82.031250
2529		-80.078125
2530		-83.984375
2531		-78.125000
2532		-83.984375
2533		-78.125000
2534		-82.031250
2535		-80.078125
2536		-82.031250
2537		-78.125000
2538		-82.031250
2539		-78.125000
2540		-80.078125
2541		-78.125000
2542		-80.078125
2543		-76.171875
2544		-78.125000
2545		-76.171875
2546		-78.125000
2547		-74.218750
2548		-78.125000
2549		-72.265625
2550		-76.171875
2551		-72.265625
2552		-74.218750
2553		-72.265625
2554		-74.218750
2555		-70.312500
2556		-72.265625
2557		-70.312500
2558		-72.265625
2559		-68.359375
2560		-70.312500
2561		-68.359375
2562		-70.312500
2563		-66.406250
2564		-68.359375
2565		-62.500000
2566		-68.359375
2567		-62.500000
2568		-64.453125
2569		-62.500000
2570		-64.453125
2571		-60.546875
2572		-62.500000
2573		-58.593750
2574		-60.546875
2575		-56.640625
2576		-58.593750
2577		-54.687500
2578		-58.593750
2579		-52.734375
2580		-54.687500
2581		-52.734375
2582		-54.687500
2583		-50.781250
2584		-52.734375
2585		-48.828125
2586		-50.781250
2587		-46.875000
2588		-48.828125
2589		-44.921875
2590		-46.875000
2591		-42.968750
2592		-44.921875
2593		-41.015625
2594		-42.968750
2595		-39.062500
2596		-41.015625
2597		-37.109375
2598		-39.062500
2599		-35.156250
2600		-37.109375
2601		-33.203125
2602		-35.156250
2603		-31.250000
2604		-33.203125
2605		-27.343750
2606		-31.250000
2607		-25.390625
2608		-27.343750
2609		-23.437500
2610		-27.343750
2611		-21.484375
2612		-23.437500
2613		-19.531250
2614		-21.484375
2615		-17.578125
2616		-19.531250
2617		-15.625000
2618		-17.578125
2619		-13.671875
2620		-15.625000
2621		-11.718750
2622		-13.671875
2623		-9.765625
2624		-9.765625
2625		-5.859375
2626		-9.765625
2627		-3.906250
2628		-5.859375
2629		-1.953125
2630		-3.906250
2631		0.000000
2632		-1.953125
2633		1.953125
2634		0.000000
2635		3.906250
2636		1.953125
2637		5.859375
2638		3.906250
2639		9.765625
2640		7.812500
2641		11.718750
2642		9.765625
2643		13.671875
2644		11.718750
2645		15.625000
2646		13.671875
2647		17.578125
2648		15.625000
2649		19.531250
2650		17.578125
2651		21.484375
2652		19.531250
2653		23.437500
2654		21.484375
2655		25.390625
2656		23.437500
2657		29.296875
2658		25.390625
2659		29.296875
2660		27.343750
2661		31.250000
2662		29.296875
2663		35.156250
2664		31.250000
2665		35.156250
2666		33.203125
2667		37.109375
2668		35.156250
2669		39.062500
2670		37.109375
2671		41.015625
2672		39.062500
2673		42.968750
2674		41.015625
2675		44.921875
2676		42.968750
2677		46.875000
2678		44.921875
2679		48.828125
2680		46.875000
2681		50.781250
2682		48.828125
2683		52.734375
2684		50.781250
2685		54.687500
2686		52.734375
2687		56.640625
2688		54.687500
2689		58.593750
2690		54.687500
2691		58.593750
2692		56.640625
2693		60.546875
2694		58.593750
2695		60.546875
2696		58.593750
2697		62.500000
2698		60.546875
2699		64.453125
2700		62.500000
2701		66.406250
2702		64.453125
2703		66.406250
2704		66.406250
2705		68.359375
2706		66.406250
2707		70.312500
2708		68.359375
2709		70.312500
2710		68.359375
2711		72.265625
2712		70.312500
2713		72.265625
2714		70.312500
2715		74.218750
2716		72.265625
2717		74.218750
2718		72.265625
2719		76.171875
2720		74.218750
2721		76.171875
2722		74.218750
2723		78.125000
2724		76.171875
2725		78.125000
2726		76.171875
2727		80.078125
2728		76.171875
2729		80.078125
2730		78.125000
2731		80.078125
2732		78.125000
2733		80.078125
2734		78.125000
2735		82.031250
2736		80.078125
2737		82.031250
2738		80.078125
2739		82.031250
2740		80.078125
2741		83.984375
2742		80.078125
2743		83.984375
2744		82.031250
2745		83.984375
2746		82.031250
2747		83.984375
2748		82.031250
2749		83.984375
2750		82.031250
2751		83.984375
2752		82.031250
2753		83.984375
2754		82.031250
2755		83.984375
2756		82.031250
2757		85.937500
2758		82.031250
2759		85.937500
2760		82.031250
2761		83.984375
2762		82.031250
2763		83.984375
2764		82.031250
2765		83.984375
2766		82.031250
2767		83.984375
2768		80.078125
2769		83.984375
2770		82.031250
2771		83.984375
2772		80.078125
2773		83.984375
2774		80.078125
2775		83.984375
2776		80.078125
2777		82.031250
2778		78.125000
2779		82.031250
2780		78.125000
2781		82.031250
2782		78.125000
2783		80.078125
2784		76.171875
2785		80.078125
2786		76.171875
2787		80.078125
2788		76.171875
2789		78.125000
2790		74.218750
2791		78.125000
2792		74.218750
2793		78.125000
2794		72.265625
2795		76.171875
2796		72.265625
2797		74.218750
2798		70.312500
2799		74.218750
2800		70.312500
2801		72.265625
2802		68.359375
2803		72.265625
2804		68.359375
2805		70.312500
2806		64.453125
2807		68.359375
2808		64.453125
2809		68.359375
2810		62.500000
2811		66.406250
2812		62.500000
2813		66.406250
2814		60.546875
2815		64.453125
2816		58.593750
2817		62.500000
2818		58.593750
2819		62.500000
2820		56.640625
2821		60.546875
2822		54.687500
2823		58.593750
2824		52.734375
2825		56.640625
2826		50.781250
2827		54.687500
2828		50.781250
2829		54.687500
2830		48.828125
2831		52.734375
2832		46.875000
2833		50.781250
2834		44.921875
2835		48.828125
2836		42.968750
2837		46.875000
2838		41.015625
2839		44.921875
2840		39.062500
2841		42.968750
2842		37.109375
2843		41.015625
2844		35.156250
2845		39.062500
2846		33.203125
2847		37.109375
2848		31.250000
2849		35.156250
2850		29.296875
2851		33.203125
2852		25.390625
2853		31.250000
2854		25.390625
2855		29.296875
2856		23.437500
2857		27.343750
2858		21.484375
2859		25.390625
2860		19.531250
2861		23.437500
2862		15.625000
2863		19.531250
2864		13.671875
2865		17.578125
2866		11.718750
2867		15.625000
2868		9.765625
2869		13.671875
2870		7.812500
2871		11.718750
2872		5.859375
2873		9.765625
2874		3.906250
2875		7.812500
2876		0.000000
2877		5.859375
2878		-1.953125
2879		3.906250
2880		-3.906250
2881		1.953125
2882		-5.859375
2883		-1.953125
2884		-7.812500
2885		-3.906250
2886		-9.765625
2887		-5.859375
2888		-11.718750
2889		-7.812500
2890		-15.625000
2891		-9.765625
2892		-17.578125
2893		-11.718750
2894		-19.531250
2895		-15.625000
2896		-21.484375
2897		-17.578125
2898		-23.437500
2899		-19.531250
2900		-25.390625
2901		-21.484375
2902		-29.296875
2903		-23.437500
2904		-29.296875
2905		-25.390625
2906		-31.250000
2907		-27.343750
2908		-35.156250
2909		-29.296875
2910		-35.156250
2911		-33.203125
2912		-37.109375
2913		-33.203125
2914		-41.015625
2915		-35.156250
2916		-42.968750
2917		-39.062500
2918		-44.921875
2919		-39.062500
2920		-44.921875
2921		-42.968750
2922		-46.875000
2923		-44.921875
2924		-50.781250
2925		-46.875000
2926		-50.781250
2927		-48.828125
2928		-54.687500
2929		-48.828125
2930		-54.687500
2931		-50.781250
2932		-56.640625
2933		-52.734375
2934		-58.593750
2935		-54.687500
2936		-60.546875
2937		-56.640625
2938		-62.500000
2939		-58.593750
2940		-62.500000
2941		-58.593750
2942		-64.453125
2943		-60.546875
2944		-66.406250
2945		-62.500000
2946		-68.359375
2947		-64.453125
2948		-68.359375
2949		-66.406250
2950		-70.312500
2951		-66.406250
2952		-72.265625
2953		-68.359375
2954		-72.265625
2955		-68.359375
2956		-72.265625
2957		-70.312500
2958		-76.171875
2959		-70.312500
2960		-76.171875
2961		-72.265625
2962		-76.171875
2963		-72.265625
2964		-78.125000
2965		-72.265625
2966		-78.125000
2967		-74.218750
2968		-78.125000
2969		-76.171875
2970		-80.078125
2971		-76.171875
2972		-80.078125
2973		-78.125000
2974		-80.078125
2975		-78.125000
2976		-82.031250
2977		-78.125000
2978		-82.031250
2979		-78.125000
2980		-82.031250
2981		-78.125000
2982		-82.031250
2983		-78.125000
2984		-82.031250
2985		-80.078125
2986		-83.984375
2987		-80.078125
2988		-82.031250
2989		-80.078125
2990		-82.031250
2991		-80.078125
2992		-82.031250
2993		-80.078125
2994		-83.984375
2995		-80.078125
2996		-83.984375
2997		-80.078125
2998		-82.031250
2999		-80.078125
3000		-82.031250
3001		-80.078125
3002		-82.031250
3003		-78.125000
3004		-82.031250
3005		-78.125000
3006		-80.078125
3007		-78.125000
3008		-82.031250
3009		-78.125000
3010		-80.078125
3011		-76.171875
3012		-80.078125
3013		-76.171875
3014		-78.125000
3015		-76.171875
3016		-78.125000
3017		-74.218750
3018		-78.125000
3019		-74.218750
3020		-76.171875
3021		-72.265625
3022		-74.218750
3023		-72.265625
3024		-74.218750
3025		-72.265625
3026		-74.218750
3027		-70.312500
3028		-72.265625
3029		-68.359375
3030		-70.312500
3031		-68.359375
3032		-70.312500
3033		-66.406250
3034		-68.359375
3035		-64.453125
3036		-66.406250
3037		-64.453125
3038		-66.406250
3039		-62.500000
3040		-64.453125
3041		-60.546875
3042		-62.500000
3043		-58.593750
3044		-62.500000
3045		-56.640625
3046		-60.546875
3047		-56.640625
3048		-58.593750
3049		-54.687500
3050		-56.640625
3051		-52.734375
3052		-54.687500
3053		-50.781250
3054		-52.734375
3055		-48.828125
3056		-50.781250
3057		-46.875000
3058		-48.828125
3059		-44.921875
3060		-46.875000
3061		-42.968750
3062		-44.921875
3063		-41.015625
3064		-42.968750
3065		-39.062500
3066		-41.015625
3067		-39.062500
3068		-41.015625
3069		-35.156250
3070		-37.109375
3071		-33.203125
3072		-35.156250
3073		-31.250000
3074		-33.203125
3075		-29.296875
3076		-31.250000
3077		-27.343750
3078		-29.296875
3079		-25.390625
3080		-27.343750
3081		-23.437500
3082		-25.390625
3083		-21.484375
3084		-23.437500
3085		-19.531250
3086		-21.484375
3087		-17.578125
3088		-19.531250
3089		-13.671875
3090		-15.625000
3091		-11.718750
3092		-13.671875
3093		-9.765625
3094		-13.671875
3095		-7.812500
3096		-9.765625
3097		-5.859375
3098		-7.812500
3099		-3.906250
3100		-5.859375
3101		-1.953125
3102		-3.906250
3103		0.000000
3104		-1.953125
3105		3.906250
3106		1.953125
3107		5.859375
3108		3.906250
3109		7.812500
3110		5.859375
3111		9.765625
3112		7.812500
3113		11.718750
3114		9.765625
3115		13.671875
3116		11.718750
3117		15.625000
3118		15.625000
3119		17.578125
3120		15.625000
3121		21.484375
3122		17.578125
3123		23.437500
3124		21.484375
3125		25.390625
3126		23.437500
3127		27.343750
3128		25.390625
3129		29.296875
3130		27.343750
3131		31.250000
3132		29.296875
3133		33.203125
3134		31.250000
3135		35.156250
3136		33.203125
3137		37.109375
3138		35.156250
3139		39.062500
3140		37.109375
3141		41.015625
3142		39.062500
3143		42.968750
3144		41.015625
3145		44.921875
3146		42.968750
3147		46.875000
3148		44.921875
3149		48.828125
3150		46.875000
3151		48.828125
3152		46.875000
3153		52.734375
3154		48.828125
3155		54.687500
3156		52.734375
3157		54.687500
3158		52.734375
3159		56.640625
3160		52.734375
3161		58.593750
3162		56.640625
3163		60.546875
3164		56.640625
3165		60.546875
3166		58.593750
3167		62.500000
3168		60.546875
3169		64.453125
3170		62.500000
3171		66.406250
3172		62.500000
3173		66.406250
3174		64.453125
3175		68.359375
3176		66.406250
3177		70.312500
3178		66.406250
3179		70.312500
3180		68.359375
3181		72.265625
3182		70.312500
3183		72.265625
3184		70.312500
3185		74.218750
3186		72.265625
3187		74.218750
3188		72.265625
3189		76.171875
3190		74.218750
3191		76.171875
3192		74.218750
3193		78.125000
3194		76.171875
3195		78.125000
3196		76.171875
3197		80.078125
3198		78.125000
3199		80.078125
3200		78.125000
3201		80.078125
3202		78.125000
3203		82.031250
3204		78.125000
3205		82.031250
3206		80.078125
3207		83.984375
3208		80.078125
3209		83.984375
3210		80.078125
3211		83.984375
3212		82.031250
3213		83.984375
3214		82.031250
3215		83.984375
3216		82.031250
3217		83.984375
3218		82.031250
3219		85.937500
3220		82.031250
3221		85.937500
3222		82.031250
3223		85.937500
3224		83.984375
3225		85.937500
3226		82.031250
3227		85.937500
3228		82.031250
3229		85.937500
3230		82.031250
3231		85.937500
3232		82.031250
3233		85.937500
3234		82.031250
3235		85.937500
3236		82.031250
3237		85.937500
3238		82.031250
3239		85.937500
3240		82.031250
3241		83.984375
3242		82.031250
3243		83.984375
3244		80.078125
3245		83.984375
3246		80.078125
3247		83.984375
3248		80.078125
3249		83.984375
3250		80.078125
3251		82.031250
3252		78.125000
3253		82.031250
3254		78.125000
3255		82.031250
3256		78.125000
3257		80.078125
3258		78.125000
3259		80.078125
3260		74.218750
3261		78.125000
3262		74.218750
3263		78.125000
3264		74.218750
3265		78.125000
3266		72.265625
3267		76.171875
3268		72.265625
3269		76.171875
3270		70.312500
3271		74.218750
3272		70.312500
3273		74.218750
3274		68.359375
3275		72.265625
3276		68.359375
3277		70.312500
3278		66.406250
3279		70.312500
3280		64.453125
3281		68.359375
3282		64.453125
3283		68.359375
3284		62.500000
3285		66.406250
3286		62.500000
3287		64.453125
3288		60.546875
3289		64.453125
3290		58.593750
3291		62.500000
3292		56.640625
3293		60.546875
3294		54.687500
3295		58.593750
3296		52.734375
3297		56.640625
3298		52.734375
3299		56.640625
3300		50.781250
3301		54.687500
3302		48.828125
3303		52.734375
3304		46.875000
3305		50.781250
3306		44.921875
3307		48.828125
3308		42.968750
3309		46.875000
3310		39.062500
3311		44.921875
3312		39.062500
3313		42.968750
3314		37.109375
3315		41.015625
3316		35.156250
3317		39.062500
3318		33.203125
3319		37.109375
3320		31.250000
3321		35.156250
3322		27.343750
3323		33.203125
3324		27.343750
3325		31.250000
3326		25.390625
3327		29.296875
3328		23.437500
3329		27.343750
3330		21.484375
3331		25.390625
3332		19.531250
3333		23.437500
3334		17.578125
3335		19.531250
3336		13.671875
3337		19.531250
3338		13.671875
3339		15.625000
3340		9.765625
3341		15.625000
3342		7.812500
3343		11.718750
3344		5.859375
3345		9.765625
3346		3.906250
3347		7.812500
3348		1.953125
3349		5.859375
3350		0.000000
3351		3.906250
3352		-3.906250
3353		1.953125
3354		-5.859375
3355		-1.953125
3356		-7.812500
3357		-3.906250
3358		-9.765625
3359		-5.859375
3360		-11.718750
3361		-7.812500
3362		-13.671875
3363		-9.765625
3364		-17.578125
3365		-11.718750
3366		-17.578125
3367		-13.671875
3368		-21.484375
3369		-17.578125
3370		-23.437500
3371		-19.531250
3372		-25.390625
3373		-21.484375
3374		-27.343750
3375		-23.437500
3376		-29.296875
3377		-25.390625
3378		-31.250000
3379		-27.343750
3380		-33.203125
3381		-29.296875
3382		-35.156250
3383		-31.250000
3384		-37.109375
3385		-33.203125
3386		-39.062500
3387		-35.156250
3388		-42.968750
3389		-37.109375
3390		-44.921875
3391		-39.062500
3392		-44.921875
3393		-41.015625
3394		-48.828125
3395		-42.968750
3396		-48.828125
3397		-44.921875
3398		-50.781250
3399		-46.875000
3400		-52.734375
3401		-48.828125
3402		-54.687500
3403		-50.781250
3404		-56.640625
3405		-52.734375
3406		-58.593750
3407		-54.687500
3408		-58.593750
3409		-56.640625
3410		-60.546875
3411		-58.593750
3412		-62.500000
3413		-58.593750
3414		-64.453125
3415		-60.546875
3416		-66.406250
3417		-62.500000
3418		-66.406250
3419		-62.500000
3420		-68.359375
3421		-64.453125
3422		-70.312500
3423		-66.406250
3424		-70.312500
3425		-66.406250
3426		-72.265625
3427		-68.359375
3428		-74.218750
3429		-70.312500
3430		-74.218750
3431		-70.312500
3432		-74.218750
3433		-72.265625
3434		-76.171875
3435		-72.265625
3436		-76.171875
3437		-72.265625
3438		-78.125000
3439		-74.218750
3440		-78.125000
3441		-74.218750
3442		-78.125000
3443		-76.171875
3444		-78.125000
3445		-76.171875
3446		-80.078125
3447		-76.171875
3448		-80.078125
3449		-76.171875
3450		-80.078125
3451		-78.125000
3452		-82.031250
3453		-78.125000
3454		-82.031250
3455		-78.125000
3456		-82.031250
3457		-78.125000
3458		-82.031250
3459		-78.125000
3460		-82.031250
3461		-80.078125
3462		-82.031250
3463		-78.125000
3464		-82.031250
3465		-78.125000
3466		-82.031250
3467		-78.125000
3468		-82.031250
3469		-78.125000
3470		-82.031250
3471		-78.125000
3472		-82.031250
3473		-78.125000
3474		-82.031250
3475		-78.125000
3476		-80.078125
3477		-78.125000
3478		-80.078125
3479		-78.125000
3480		-80.078125
3481		-76.171875
3482		-78.125000
3483		-76.171875
3484		-78.125000
3485		-76.171875
3486		-78.125000
3487		-74.218750
3488		-76.171875
3489		-74.218750
3490		-76.171875
3491		-72.265625
3492		-74.218750
3493		-72.265625
3494		-74.218750
3495		-70.312500
3496		-74.218750
3497		-70.312500
3498		-72.265625
3499		-68.359375
3500		-70.312500
3501		-68.359375
3502		-70.312500
3503		-66.406250
3504		-68.359375
3505		-64.453125
3506		-66.406250
3507		-64.453125
3508		-66.406250
3509		-62.500000
3510		-64.453125
3511		-60.546875
3512		-62.500000
3513		-58.593750
3514		-62.500000
3515		-58.593750
3516		-60.546875
3517		-56.640625
3518		-58.593750
3519		-54.687500
3520		-56.640625
3521		-52.734375
3522		-54.687500
3523		-50.781250
3524		-52.734375
3525		-48.828125
3526		-50.781250
3527		-48.828125
3528		-48.828125
3529		-46.875000
3530		-46.875000
3531		-42.968750
3532		-46.875000
3533		-42.968750
3534		-44.921875
3535		-39.062500
3536		-41.015625
3537		-37.109375
3538		-41.015625
3539		-37.109375
3540		-39.062500
3541		-33.203125
3542		-37.109375
3543		-33.203125
3544		-33.203125
3545		-29.296875
3546		-31.250000
3547		-27.343750
3548		-29.296875
3549		-25.390625
3550		-29.296875
3551		-23.437500
3552		-25.390625
3553		-21.484375
3554		-23.437500
3555		-19.531250
3556		-21.484375
3557		-17.578125
3558		-19.531250
3559		-15.625000
3560		-17.578125
3561		-13.671875
3562		-15.625000
3563		-11.718750
3564		-13.671875
3565		-9.765625
3566		-11.718750
3567		-5.859375
3568		-7.812500
3569		-3.906250
3570		-5.859375
3571		-1.953125
3572		-3.906250
3573		0.000000
3574		-1.953125
3575		3.906250
3576		0.000000
3577		3.906250
3578		3.906250
3579		5.859375
3580		5.859375
3581		9.765625
3582		7.812500
3583		11.718750
3584		9.765625
3585		13.671875
3586		11.718750
3587		15.625000
3588		13.671875
3589		17.578125
3590		15.625000
3591		19.531250
3592		17.578125
3593		21.484375
3594		19.531250
3595		23.437500
3596		21.484375
3597		27.343750
3598		23.437500
3599		27.343750
3600		27.343750
3601		31.250000
3602		27.343750
3603		31.250000
3604		31.250000
3605		33.203125
3606		31.250000
3607		35.156250
3608		35.156250
3609		39.062500
3610		37.109375
3611		39.062500
3612		39.062500
3613		41.015625
3614		39.062500
3615		44.921875
3616		41.015625
3617		44.921875
3618		42.968750
3619		46.875000
3620		44.921875
3621		48.828125
3622		46.875000
3623		50.781250
3624		48.828125
3625		52.734375
3626		50.781250
3627		54.687500
3628		52.734375
3629		56.640625
3630		52.734375
3631		58.593750
3632		54.687500
3633		58.593750
3634		56.640625
3635		60.546875
3636		58.593750
3637		62.500000
3638		60.546875
3639		64.453125
3640		60.546875
3641		64.453125
3642		62.500000
3643		66.406250
3644		64.453125
3645		68.359375
3646		66.406250
3647		68.359375
3648		66.406250
3649		70.312500
3650		68.359375
3651		72.265625
3652		68.359375
3653		72.265625
3654		70.312500
3655		74.218750
3656		72.265625
3657		74.218750
3658		72.265625
3659		76.171875
3660		72.265625
3661		76.171875
3662		74.218750
3663		78.125000
3664		76.171875
3665		78.125000
3666		76.171875
3667		80.078125
3668		76.171875
3669		80.078125
3670		78.125000
3671		80.078125
3672		78.125000
3673		82.031250
3674		78.125000
3675		82.031250
3676		78.125000
3677		82.031250
3678		80.078125
3679		83.984375
3680		80.078125
3681		83.984375
3682		80.078125
3683		83.984375
3684		82.031250
3685		83.984375
3686		82.031250
3687		85.937500
3688		82.031250
3689		85.937500
3690		82.031250
3691		85.937500
3692		82.031250
3693		85.937500
3694		83.984375
3695		85.937500
3696		83.984375
3697		85.937500
3698		82.031250
3699		85.937500
3700		82.031250
3701		85.937500
3702		82.031250
3703		85.937500
3704		83.984375
3705		85.937500
3706		82.031250
3707		85.937500
3708		82.031250
3709		85.937500
3710		82.031250
3711		85.937500
3712		82.031250
3713		83.984375
3714		80.078125
3715		83.984375
3716		80.078125
3717		83.984375
3718		80.078125
3719		83.984375
3720		80.078125
3721		83.984375
3722		78.125000
3723		82.031250
3724		78.125000
3725		82.031250
3726		78.125000
3727		82.031250
3728		78.125000
3729		80.078125
3730		76.171875
3731		80.078125
3732		76.171875
3733		80.078125
3734		74.218750
3735		78.125000
3736		74.218750
3737		78.125000
3738		72.265625
3739		76.171875
3740		72.265625
3741		76.171875
3742		70.312500
3743		74.218750
3744		70.312500
3745		74.218750
3746		68.359375
3747		72.265625
3748		66.406250
3749		70.312500
3750		66.406250
3751		70.312500
3752		64.453125
3753		68.359375
3754		62.500000
3755		66.406250
3756		62.500000
3757		66.406250
3758		60.546875
3759		64.453125
3760		58.593750
3761		62.500000
3762		58.593750
3763		60.546875
3764		54.687500
3765		60.546875
3766		54.687500
3767		58.593750
3768		52.734375
3769		56.640625
3770		50.781250
3771		56.640625
3772		50.781250
3773		52.734375
3774		48.828125
3775		52.734375
3776		46.875000
3777		50.781250
3778		44.921875
3779		46.875000
3780		42.968750
3781		46.875000
3782		41.015625
3783		44.921875
3784		39.062500
3785		42.968750
3786		37.109375
3787		41.015625
3788		35.156250
3789		39.062500
3790		33.203125
3791		37.109375
3792		31.250000
3793		35.156250
3794		29.296875
3795		33.203125
3796		27.343750
3797		31.250000
3798		25.390625
3799		29.296875
3800		21.484375
3801		27.343750
3802		19.531250
3803		25.390625
3804		17.578125
3805		23.437500
3806		15.625000
3807		21.484375
3808		13.671875
3809		17.578125
3810		11.718750
3811		15.625000
3812		9.765625
3813		13.671875
3814		7.812500
3815		11.718750
3816		5.859375
3817		9.765625
3818		1.953125
3819		7.812500
3820		0.000000
3821		3.906250
3822		-1.953125
3823		1.953125
3824		-3.906250
3825		0.000000
3826		-5.859375
3827		-1.953125
3828		-7.812500
3829		-3.906250
3830		-9.765625
3831		-5.859375
3832		-13.671875
3833		-7.812500
3834		-15.625000
3835		-9.765625
3836		-17.578125
3837		-13.671875
3838		-19.531250
3839		-15.625000
3840		-21.484375
3841		-17.578125
3842		-23.437500
3843		-19.531250
3844		-25.390625
3845		-21.484375
3846		-27.343750
3847		-23.437500
3848		-31.250000
3849		-25.390625
3850		-31.250000
3851		-27.343750
3852		-33.203125
3853		-29.296875
3854		-35.156250
3855		-31.250000
3856		-37.109375
3857		-35.156250
3858		-41.015625
3859		-35.156250
3860		-42.968750
3861		-37.109375
3862		-42.968750
3863		-41.015625
3864		-44.921875
3865		-42.968750
3866		-48.828125
3867		-42.968750
3868		-48.828125
3869		-46.875000
3870		-50.781250
3871		-48.828125
3872		-54.687500
3873		-48.828125
3874		-54.687500
3875		-50.781250
3876		-56.640625
3877		-52.734375
3878		-58.593750
3879		-54.687500
3880		-60.546875
3881		-56.640625
3882		-60.546875
3883		-58.593750
3884		-62.500000
3885		-60.546875
3886		-64.453125
3887		-60.546875
3888		-66.406250
3889		-62.500000
3890		-66.406250
3891		-62.500000
3892		-68.359375
3893		-64.453125
3894		-70.312500
3895		-66.406250
3896		-70.312500
3897		-66.406250
3898		-72.265625
3899		-68.359375
3900		-72.265625
3901		-68.359375
3902		-74.218750
3903		-70.312500
3904		-76.171875
3905		-72.265625
3906		-76.171875
3907		-72.265625
3908		-76.171875
3909		-74.218750
3910		-78.125000
3911		-74.218750
3912		-78.125000
3913		-74.218750
3914		-78.125000
3915		-76.171875
3916		-80.078125
3917		-76.171875
3918		-80.078125
3919		-78.125000
3920		-80.078125
3921		-78.125000
3922		-82.031250
3923		-78.125000
3924		-82.031250
3925		-78.125000
3926		-82.031250
3927		-78.125000
3928		-82.031250
3929		-78.125000
3930		-82.031250
3931		-78.125000
3932		-82.031250
3933		-78.125000
3934		-82.031250
3935		-80.078125
3936		-82.031250
3937		-78.125000
3938		-82.031250
3939		-80.078125
3940		-82.031250
3941		-78.125000
3942		-82.031250
3943		-78.125000
3944		-82.031250
3945		-78.125000
3946		-80.078125
3947		-78.125000
3948		-80.078125
3949		-78.125000
3950		-80.078125
3951		-78.125000
3952		-80.078125
3953		-76.171875
3954		-80.078125
3955		-76.171875
3956		-78.125000
3957		-76.171875
3958		-78.125000
3959		-74.218750
3960		-76.171875
3961		-74.218750
3962		-76.171875
3963		-72.265625
3964		-76.171875
3965		-72.265625
3966		-74.218750
3967		-70.312500
3968		-72.265625
3969		-70.312500
3970		-72.265625
3971		-68.359375
3972		-70.312500
3973		-68.359375
3974		-70.312500
3975		-66.406250
3976		-68.359375
3977		-64.453125
3978		-66.406250
3979		-62.500000
3980		-66.406250
3981		-62.500000
3982		-64.453125
3983		-60.546875
3984		-64.453125
3985		-58.593750
3986		-60.546875
3987		-56.640625
3988		-58.593750
3989		-56.640625
3990		-58.593750
3991		-54.687500
3992		-56.640625
3993		-52.734375
3994		-54.687500
3995		-50.781250
3996		-52.734375
3997		-48.828125
3998		-50.781250
3999		-46.875000
4000		-48.828125
4001		-44.921875
4002		-46.875000
4003		-42.968750
4004		-46.875000
4005		-41.015625
4006		-42.968750
4007		-39.062500
4008		-41.015625
4009		-39.062500
4010		-41.015625
4011		-35.156250
4012		-39.062500
4013		-33.203125
4014		-35.156250
4015		-31.250000
4016		-33.203125
4017		-29.296875
4018		-31.250000
4019		-27.343750
4020		-29.296875
4021		-25.390625
4022		-27.343750
4023		-23.437500
4024		-25.390625
4025		-21.484375
4026		-23.437500
4027		-19.531250
4028		-21.484375
4029		-15.625000
4030		-19.531250
4031		-15.625000
4032		-15.625000
4033		-13.671875
4034		-13.671875
4035		-9.765625
4036		-11.718750
4037		-7.812500
4038		-9.765625
4039		-5.859375
4040		-7.812500
4041		-3.906250
4042		-5.859375
4043		-1.953125
4044		-3.906250
4045		0.000000
4046		0.000000
4047		1.953125
4048		1.953125
4049		5.859375
4050		3.906250
4051		7.812500
4052		5.859375
4053		9.765625
4054		7.812500
4055		11.718750
4056		9.765625
4057		13.671875
4058		11.718750
4059		17.578125
4060		13.671875
4061		17.578125
4062		15.625000
4063		21.484375
4064		19.531250
4065		21.484375
4066		21.484375
4067		25.390625
4068		21.484375
4069		27.343750
4070		25.390625
4071		29.296875
4072		27.343750
4073		31.250000
4074		29.296875
4075		33.203125
4076		31.250000
4077		35.156250
4078		33.203125
4079		37.109375
4080		33.203125
4081		39.062500
4082		37.109375
4083		41.015625
4084		39.062500
4085		42.968750
4086		41.015625
4087		44.921875
4088		41.015625
4089		46.875000
4090		44.921875
4091		48.828125
4092		46.875000
4093		50.781250
4094		46.875000
4095		50.781250
4096		48.828125
4097		52.734375
4098		50.781250
4099		54.687500
4100		52.734375
4101		56.640625
4102		52.734375
4103		58.593750
4104		56.640625
4105		58.593750
4106		58.593750
4107		60.546875
4108		58.593750
4109		62.500000
4110		60.546875
4111		64.453125
4112		60.546875
4113		66.406250
4114		62.500000
4115		66.406250
4116		64.453125
4117		68.359375
4118		66.406250
4119		70.312500
4120		66.406250
4121		70.312500
4122		68.359375
4123		72.265625
4124		70.312500
4125		72.265625
4126		70.312500
4127		74.218750
4128		72.265625
4129		76.171875
4130		72.265625
4131		76.171875
4132		74.218750
4133		76.171875
4134		74.218750
4135		78.125000
4136		76.171875
4137		78.125000
4138		76.171875
4139		80.078125
4140		78.125000
4141		80.078125
4142		78.125000
4143		82.031250
4144		78.125000
4145		82.031250
4146		78.125000
4147		83.984375
4148		80.078125
4149		82.031250
4150		80.078125
4151		83.984375
4152		82.031250
4153		83.984375
4154		82.031250
4155		85.937500
4156		82.031250
4157		83.984375
4158		82.031250
4159		85.937500
4160		82.031250
4161		85.937500
4162		83.984375
4163		85.937500
4164		82.031250
4165		85.937500
4166		83.984375
4167		85.937500
4168		83.984375
4169		85.937500
4170		83.984375
4171		85.937500
4172		83.984375
4173		85.937500
4174		83.984375
4175		85.937500
4176		83.984375
4177		85.937500
4178		82.031250
4179		85.937500
4180		82.031250
4181		85.937500
4182		82.031250
4183		83.984375
4184		82.031250
4185		83.984375
4186		80.078125
4187		85.937500
4188		80.078125
4189		83.984375
4190		80.078125
4191		83.984375
4192		80.078125
4193		83.984375
4194		80.078125
4195		83.984375
4196		78.125000
4197		82.031250
4198		78.125000
4199		82.031250
4200		78.125000
4201		80.078125
4202		76.171875
4203		80.078125
4204		76.171875
4205		80.078125
4206		74.218750
4207		78.125000
4208		74.218750
4209		78.125000
4210		72.265625
4211		76.171875
4212		72.265625
4213		76.171875
4214		70.312500
4215		74.218750
4216		70.312500
4217		72.265625
4218		68.359375
4219		72.265625
4220		68.359375
4221		72.265625
4222		66.406250
4223		70.312500
4224		66.406250
4225		68.359375
4226		64.453125
4227		68.359375
4228		62.500000
4229		66.406250
4230		60.546875
4231		64.453125
4232		60.546875
4233		62.500000
4234		58.593750
4235		60.546875
4236		56.640625
4237		60.546875
4238		54.687500
4239		58.593750
4240		52.734375
4241		56.640625
4242		52.734375
4243		54.687500
4244		50.781250
4245		54.687500
4246		48.828125
4247		52.734375
4248		46.875000
4249		50.781250
4250		44.921875
4251		46.875000
4252		42.968750
4253		46.875000
4254		41.015625
4255		44.921875
4256		39.062500
4257		42.968750
4258		37.109375
4259		41.015625
4260		35.156250
4261		39.062500
4262		33.203125
4263		37.109375
4264		31.250000
4265		35.156250
4266		29.296875
4267		33.203125
4268		27.343750
4269		31.250000
4270		25.390625
4271		29.296875
4272		21.484375
4273		27.343750
4274		19.531250
4275		23.437500
4276		17.578125
4277		21.484375
4278		15.625000
4279		19.531250
4280		13.671875
4281		19.531250
4282		11.718750
4283		15.625000
4284		9.765625
4285		13.671875
4286		7.812500
4287		11.718750
4288		5.859375
4289		9.765625
4290		3.906250
4291		7.812500
4292		0.000000
4293		3.906250
4294		-1.953125
4295		1.953125
4296		-3.906250
4297		0.000000
4298		-5.859375
4299		-1.953125
4300		-7.812500
4301		-3.906250
4302		-11.718750
4303		-5.859375
4304		-13.671875
4305		-7.812500
4306		-15.625000
4307		-9.765625
4308		-17.578125
4309		-11.718750
4310		-19.531250
4311		-15.625000
4312		-21.484375
4313		-17.578125
4314		-23.437500
4315		-19.531250
4316		-25.390625
4317		-21.484375
4318		-27.343750
4319		-23.437500
4320		-29.296875
4321		-25.390625
4322		-33.203125
4323		-27.343750
4324		-35.156250
4325		-29.296875
4326		-35.156250
4327		-31.250000
4328		-37.109375
4329		-33.203125
4330		-41.015625
4331		-35.156250
4332		-41.015625
4333		-37.109375
4334		-42.968750
4335		-41.015625
4336		-46.875000
4337		-41.015625
4338		-46.875000
4339		-42.968750
4340		-50.781250
4341		-44.921875
4342		-52.734375
4343		-46.875000
4344		-54.687500
4345		-48.828125
4346		-54.687500
4347		-50.781250
4348		-56.640625
4349		-52.734375
4350		-58.593750
4351		-54.687500
4352		-58.593750
4353		-56.640625
4354		-62.500000
4355		-56.640625
4356		-64.453125
4357		-58.593750
4358		-64.453125
4359		-60.546875
4360		-66.406250
4361		-60.546875
4362		-68.359375
4363		-62.500000
4364		-68.359375
4365		-64.453125
4366		-70.312500
4367		-64.453125
4368		-70.312500
4369		-68.359375
4370		-72.265625
4371		-68.359375
4372		-72.265625
4373		-68.359375
4374		-74.218750
4375		-70.312500
4376		-76.171875
4377		-70.312500
4378		-76.171875
4379		-72.265625
4380		-76.171875
4381		-72.265625
4382		-76.171875
4383		-72.265625
4384		-76.171875
4385		-74.218750
4386		-80.078125
4387		-76.171875
4388		-80.078125
4389		-74.218750
4390		-80.078125
4391		-74.218750
4392		-80.078125
4393		-76.171875
4394		-80.078125
4395		-76.171875
4396		-82.031250
4397		-76.171875
4398		-82.031250
4399		-76.171875
4400		-80.078125
4401		-78.125000
4402		-80.078125
4403		-78.125000
4404		-82.031250
4405		-78.125000
4406		-82.031250
4407		-78.125000
4408		-82.031250
4409		-78.125000
4410		-82.031250
4411		-78.125000
4412		-82.031250
4413		-76.171875
4414		-82.031250
4415		-76.171875
4416		-82.031250
4417		-76.171875
4418		-80.078125
4419		-78.125000
4420		-80.078125
4421		-76.171875
4422		-80.078125
4423		-76.171875
4424		-78.125000
4425		-76.171875
4426		-78.125000
4427		-76.171875
4428		-76.171875
4429		-74.218750
4430		-76.171875
4431		-74.218750
4432		-76.171875
4433		-72.265625
4434		-74.218750
4435		-72.265625
4436		-74.218750
4437		-70.312500
4438		-72.265625
4439		-70.312500
4440		-72.265625
4441		-68.359375
4442		-70.312500
4443		-68.359375
4444		-68.359375
4445		-66.406250
4446		-68.359375
4447		-64.453125
4448		-66.406250
4449		-64.453125
4450		-66.406250
4451		-62.500000
4452		-64.453125
4453		-60.546875
4454		-62.500000
4455		-58.593750
4456		-60.546875
4457		-58.593750
4458		-60.546875
4459		-56.640625
4460		-58.593750
4461		-54.687500
4462		-56.640625
4463		-52.734375
4464		-54.687500
4465		-52.734375
4466		-54.687500
4467		-50.781250
4468		-50.781250
4469		-48.828125
4470		-48.828125
4471		-46.875000
4472		-48.828125
4473		-44.921875
4474		-46.875000
4475		-42.968750
4476		-44.921875
4477		-41.015625
4478		-42.968750
4479		-39.062500
4480		-41.015625
4481		-37.109375
4482		-39.062500
4483		-35.156250
4484		-37.109375
4485		-33.203125
4486		-35.156250
4487		-31.250000
4488		-33.203125
4489		-29.296875
4490		-29.296875
4491		-27.343750
4492		-27.343750
4493		-25.390625
4494		-25.390625
4495		-23.437500
4496		-23.437500
4497		-21.484375
4498		-21.484375
4499		-17.578125
4500		-19.531250
4501		-15.625000
4502		-17.578125
4503		-13.671875
4504		-15.625000
4505		-11.718750
4506		-13.671875
4507		-9.765625
4508		-11.718750
4509		-7.812500
4510		-7.812500
4511		-3.906250
4512		-5.859375
4513		-1.953125
4514		-3.906250
4515		0.000000
4516		-1.953125
4517		1.953125
4518		0.000000
4519		3.906250
4520		1.953125
4521		5.859375
4522		1.953125
4523		9.765625
4524		3.906250
4525		13.671875
4526		5.859375
4527		15.625000
4528		11.718750
4529		13.671875
4530		13.671875
4531		17.578125
4532		15.625000
4533		19.531250
4534		17.578125
4535		21.484375
4536		19.531250
4537		23.437500
4538		19.531250
4539		27.343750
4540		21.484375
4541		31.250000
4542		23.437500
4543		33.203125
4544		27.343750
4545		31.250000
4546		29.296875
4547		33.203125
4548		31.250000
4549		35.156250
4550		33.203125
4551		37.109375
4552		37.109375
4553		39.062500
4554		37.109375
4555		44.921875
4556		37.109375
4557		46.875000
4558		39.062500
4559		46.875000
4560		41.015625
4561		48.828125
4562		44.921875
4563		48.828125
4564		46.875000
4565		50.781250
4566		48.828125
4567		52.734375
4568		50.781250
4569		54.687500
4570		52.734375
4571		54.687500
4572		50.781250
4573		60.546875
4574		52.734375
4575		62.500000
4576		54.687500
4577		62.500000
4578		58.593750
4579		60.546875
4580		60.546875
4581		62.500000
4582		62.500000
4583		64.453125
4584		62.500000
4585		66.406250
4586		64.453125
4587		66.406250
4588		64.453125
4589		72.265625
4590		64.453125
4591		74.218750
4592		64.453125
4593		74.218750
4594		64.453125
4595		76.171875
4596		70.312500
4597		74.218750
4598		72.265625
4599		74.218750
4600		72.265625
4601		74.218750
4602		74.218750
4603		76.171875
4604		74.218750
4605		76.171875
4606		72.265625
4607		82.031250
4608		72.265625
4609		82.031250
4610		74.218750
4611		82.031250
4612		78.125000
4613		80.078125
4614		78.125000
4615		80.078125
4616		80.078125
4617		82.031250
4618		80.078125
4619		83.984375
4620		80.078125
4621		82.031250
4622		78.125000
4623		87.890625
4624		78.125000
4625		87.890625
4626		80.078125
4627		87.890625
4628		82.031250
4629		83.984375
4630		82.031250
4631		85.937500
4632		83.984375
4633		85.937500
4634		83.984375
4635		85.937500
4636		83.984375
4637		85.937500
4638		83.984375
4639		85.937500
4640		80.078125
4641		89.843750
4642		80.078125
4643		89.843750
4644		80.078125
4645		87.890625
4646		83.984375
4647		85.937500
4648		83.984375
4649		85.937500
4650		83.984375
4651		85.937500
4652		82.031250
4653		85.937500
4654		82.031250
4655		83.984375
4656		80.078125
4657		87.890625
4658		78.125000
4659		87.890625
4660		78.125000
4661		87.890625
4662		80.078125
4663		83.984375
4664		80.078125
4665		82.031250
4666		80.078125
4667		82.031250
4668		80.078125
4669		82.031250
4670		78.125000
4671		80.078125
4672		74.218750
4673		83.984375
4674		74.218750
4675		82.031250
4676		72.265625
4677		82.031250
4678		72.265625
4679		80.078125
4680		74.218750
4681		76.171875
4682		72.265625
4683		76.171875
4684		72.265625
4685		74.218750
4686		70.312500
4687		74.218750
4688		70.312500
4689		72.265625
4690		66.406250
4691		74.218750
4692		64.453125
4693		72.265625
4694		62.500000
4695		72.265625
4696		64.453125
4697		68.359375
4698		64.453125
4699		66.406250
4700		62.500000
4701		64.453125
4702		60.546875
4703		64.453125
4704		58.593750
4705		62.500000
4706		56.640625
4707		60.546875
4708		54.687500
4709		60.546875
4710		52.734375
4711		60.546875
4712		52.734375
4713		56.640625
4714		50.781250
4715		54.687500
4716		48.828125
4717		52.734375
4718		46.875000
4719		50.781250
4720		44.921875
4721		48.828125
4722		42.968750
4723		46.875000
4724		39.062500
4725		46.875000
4726		39.062500
4727		44.921875
4728		37.109375
4729		44.921875
4730		37.109375
4731		39.062500
4732		35.156250
4733		37.109375
4734		33.203125
4735		35.156250
4736		31.250000
4737		33.203125
4738		27.343750
4739		31.250000
4740		25.390625
4741		29.296875
4742		21.484375
4743		29.296875
4744		21.484375
4745		27.343750
4746		19.531250
4747		23.437500
4748		17.578125
4749		21.484375
4750		15.625000
4751		19.531250
4752		13.671875
4753		17.578125
4754		11.718750
4755		15.625000
4756		9.765625
4757		11.718750
4758		5.859375
4759		9.765625
4760		3.906250
4761		9.765625
4762		1.953125
4763		5.859375
4764		0.000000
4765		3.906250
4766		-1.953125
4767		1.953125
4768		-3.906250
4769		0.000000
4770		-5.859375
4771		-3.906250
4772		-9.765625
4773		-5.859375
4774		-11.718750
4775		-7.812500
4776		-13.671875
4777		-9.765625
4778		-15.625000
4779		-11.718750
4780		-17.578125
4781		-13.671875
4782		-19.531250
4783		-15.625000
4784		-21.484375
4785		-17.578125
4786		-23.437500
4787		-21.484375
4788		-25.390625
4789		-23.437500
4790		-29.296875
4791		-25.390625
4792		-31.250000
4793		-27.343750
4794		-33.203125
4795		-29.296875
4796		-35.156250
4797		-31.250000
4798		-37.109375
4799		-33.203125
4800		-39.062500
4801		-35.156250
4802		-41.015625
4803		-37.109375
4804		-42.968750
4805		-39.062500
4806		-44.921875
4807		-41.015625
4808		-46.875000
4809		-42.968750
4810		-48.828125
4811		-44.921875
4812		-50.781250
4813		-46.875000
4814		-52.734375
4815		-48.828125
4816		-54.687500
4817		-48.828125
4818		-54.687500
4819		-52.734375
4820		-56.640625
4821		-54.687500
4822		-58.593750
4823		-54.687500
4824		-60.546875
4825		-54.687500
4826		-62.500000
4827		-58.593750
4828		-62.500000
4829		-60.546875
4830		-64.453125
4831		-62.500000
4832		-66.406250
4833		-62.500000
4834		-68.359375
4835		-64.453125
4836		-68.359375
4837		-66.406250
4838		-70.312500
4839		-66.406250
4840		-72.265625
4841		-68.359375
4842		-72.265625
4843		-68.359375
4844		-72.265625
4845		-70.312500
4846		-74.218750
4847		-70.312500
4848		-76.171875
4849		-72.265625
4850		-76.171875
4851		-72.265625
4852		-76.171875
4853		-74.218750
4854		-78.125000
4855		-74.218750
4856		-78.125000
4857		-76.171875
4858		-80.078125
4859		-74.218750
4860		-80.078125
4861		-76.171875
4862		-80.078125
4863		-78.125000
4864		-80.078125
4865		-78.125000
4866		-80.078125
4867		-78.125000
4868		-80.078125
4869		-78.125000
4870		-80.078125
4871		-78.125000
4872		-82.031250
4873		-78.125000
4874		-82.031250
4875		-76.171875
4876		-82.031250
4877		-78.125000
4878		-82.031250
4879		-78.125000
4880		-82.031250
4881		-78.125000
4882		-82.031250
4883		-78.125000
4884		-80.078125
4885		-78.125000
4886		-80.078125
4887		-78.125000
4888		-80.078125
4889		-78.125000
4890		-82.031250
4891		-76.171875
4892		-80.078125
4893		-76.171875
4894		-80.078125
4895		-76.171875
4896		-78.125000
4897		-76.171875
4898		-78.125000
4899		-74.218750
4900		-78.125000
4901		-74.218750
4902		-76.171875
4903		-74.218750
4904		-76.171875
4905		-72.265625
4906		-74.218750
4907		-72.265625
4908		-76.171875
4909		-70.312500
4910		-74.218750
4911		-70.312500
4912		-72.265625
4913		-68.359375
4914		-70.312500
4915		-66.406250
4916		-70.312500
4917		-66.406250
4918		-68.359375
4919		-64.453125
4920		-66.406250
4921		-64.453125
4922		-66.406250
4923		-62.500000
4924		-66.406250
4925		-60.546875
4926		-64.453125
4927		-58.593750
4928		-62.500000
4929		-58.593750
4930		-60.546875
4931		-56.640625
4932		-58.593750
4933		-54.687500
4934		-56.640625
4935		-52.734375
4936		-54.687500
4937		-50.781250
4938		-52.734375
4939		-50.781250
4940		-50.781250
4941		-48.828125
4942		-50.781250
4943		-44.921875
4944		-48.828125
4945		-44.921875
4946		-46.875000
4947		-42.968750
4948		-44.921875
4949		-41.015625
4950		-42.968750
4951		-39.062500
4952		-41.015625
4953		-37.109375
4954		-39.062500
4955		-35.156250
4956		-37.109375
4957		-33.203125
4958		-35.156250
4959		-29.296875
4960		-33.203125
4961		-27.343750
4962		-29.296875
4963		-25.390625
4964		-27.343750
4965		-23.437500
4966		-25.390625
4967		-21.484375
4968		-23.437500
4969		-19.531250
4970		-21.484375
4971		-17.578125
4972		-19.531250
4973		-15.625000
4974		-17.578125
4975		-11.718750
4976		-17.578125
4977		-11.718750
4978		-13.671875
4979		-9.765625
4980		-9.765625
4981		-5.859375
4982		-7.812500
4983		-3.906250
4984		-5.859375
4985		-1.953125
4986		-3.906250
4987		0.000000
4988		-1.953125
4989		1.953125
4990		0.000000
4991		3.906250
4992		1.953125
4993		5.859375
4994		5.859375
4995		9.765625
4996		7.812500
4997		11.718750
4998		9.765625
4999		13.671875
5000		11.718750
5001		15.625000
5002		13.671875
5003		17.578125
5004		15.625000
5005		19.531250
5006		17.578125
5007		21.484375
5008		19.531250
5009		23.437500
5010		21.484375
5011		25.390625
5012		25.390625
5013		27.343750
5014		27.343750
5015		31.250000
5016		29.296875
5017		31.250000
5018		31.250000
5019		33.203125
5020		33.203125
5021		37.109375
5022		35.156250
5023		39.062500
5024		37.109375
5025		41.015625
5026		39.062500
5027		42.968750
5028		41.015625
5029		42.968750
5030		42.968750
5031		44.921875
5032		44.921875
5033		48.828125
5034		46.875000
5035		48.828125
5036		46.875000
5037		50.781250
5038		48.828125
5039		52.734375
5040		50.781250
5041		54.687500
5042		52.734375
5043		56.640625
5044		54.687500
5045		56.640625
5046		56.640625
5047		58.593750
5048		56.640625
5049		60.546875
5050		58.593750
5051		62.500000
5052		60.546875
5053		62.500000
5054		62.500000
5055		64.453125
5056		64.453125
5057		66.406250
5058		64.453125
5059		68.359375
5060		66.406250
5061		68.359375
5062		68.359375
5063		70.312500
5064		68.359375
5065		70.312500
5066		70.312500
5067		72.265625
5068		70.312500
5069		74.218750
5070		72.265625
5071		74.218750
5072		72.265625
5073		76.171875
5074		74.218750
5075		76.171875
5076		74.218750
5077		78.125000
5078		76.171875
5079		78.125000
5080		76.171875
5081		80.078125
5082		78.125000
5083		80.078125
5084		78.125000
5085		80.078125
5086		78.125000
5087		82.031250
5088		80.078125
5089		82.031250
5090		80.078125
5091		82.031250
5092		80.078125
5093		82.031250
5094		82.031250
5095		83.984375
5096		82.031250
5097		83.984375
5098		82.031250
5099		83.984375
5100		82.031250
5101		85.937500
5102		83.984375
5103		83.984375
5104		83.984375
5105		85.937500
5106		83.984375
5107		85.937500
5108		83.984375
5109		85.937500
5110		82.031250
5111		85.937500
5112		83.984375
5113		85.937500
5114		83.984375
5115		85.937500
5116		83.984375
5117		85.937500
5118		83.984375
5119		85.937500
5120		83.984375
5121		85.937500
5122		82.031250
5123		85.937500
5124		82.031250
5125		83.984375
5126		80.078125
5127		85.937500
5128		82.031250
5129		83.984375
5130		82.031250
5131		83.984375
5132		80.078125
5133		83.984375
5134		80.078125
5135		82.031250
5136		80.078125
5137		82.031250
5138		80.078125
5139		82.031250
5140		78.125000
5141		80.078125
5142		78.125000
5143		80.078125
5144		76.171875
5145		82.031250
5146		76.171875
5147		80.078125
5148		76.171875
5149		78.125000
5150		74.218750
5151		76.171875
5152		74.218750
5153		76.171875
5154		72.265625
5155		76.171875
5156		72.265625
5157		74.218750
5158		70.312500
5159		72.265625
5160		68.359375
5161		74.218750
5162		66.406250
5163		72.265625
5164		66.406250
5165		70.312500
5166		64.453125
5167		68.359375
5168		64.453125
5169		66.406250
5170		62.500000
5171		66.406250
5172		62.500000
5173		64.453125
5174		60.546875
5175		62.500000
5176		56.640625
5177		62.500000
5178		54.687500
5179		62.500000
5180		54.687500
5181		58.593750
5182		52.734375
5183		56.640625
5184		52.734375
5185		54.687500
5186		50.781250
5187		52.734375
5188		48.828125
5189		52.734375
5190		46.875000
5191		50.781250
5192		44.921875
5193		48.828125
5194		41.015625
5195		46.875000
5196		41.015625
5197		46.875000
5198		39.062500
5199		42.968750
5200		37.109375
5201		41.015625
5202		35.156250
5203		39.062500
5204		33.203125
5205		37.109375
5206		31.250000
5207		35.156250
5208		29.296875
5209		33.203125
5210		25.390625
5211		33.203125
5212		23.437500
5213		29.296875
5214		23.437500
5215		25.390625
5216		21.484375
5217		25.390625
5218		19.531250
5219		23.437500
5220		17.578125
5221		19.531250
5222		13.671875
5223		17.578125
5224		11.718750
5225		15.625000
5226		9.765625
5227		13.671875
5228		5.859375
5229		13.671875
5230		5.859375
5231		11.718750
5232		3.906250
5233		7.812500
5234		1.953125
5235		3.906250
5236		-1.953125
5237		1.953125
5238		-3.906250
5239		0.000000
5240		-5.859375
5241		-1.953125
5242		-7.812500
5243		-3.906250
5244		-11.718750
5245		-5.859375
5246		-13.671875
5247		-7.812500
5248		-13.671875
5249		-11.718750
5250		-17.578125
5251		-13.671875
5252		-19.531250
5253		-15.625000
5254		-21.484375
5255		-17.578125
5256		-23.437500
5257		-19.531250
5258		-25.390625
5259		-21.484375
5260		-29.296875
5261		-23.437500
5262		-31.250000
5263		-23.437500
5264		-31.250000
5265		-25.390625
5266		-33.203125
5267		-29.296875
5268		-35.156250
5269		-33.203125
5270		-37.109375
5271		-35.156250
5272		-39.062500
5273		-37.109375
5274		-41.015625
5275		-37.109375
5276		-44.921875
5277		-41.015625
5278		-46.875000
5279		-41.015625
5280		-48.828125
5281		-42.968750
5282		-48.828125
5283		-46.875000
5284		-50.781250
5285		-46.875000
5286		-52.734375
5287		-48.828125
5288		-54.687500
5289		-50.781250
5290		-56.640625
5291		-52.734375
5292		-58.593750
5293		-54.687500
5294		-60.546875
5295		-56.640625
5296		-62.500000
5297		-56.640625
5298		-62.500000
5299		-60.546875
5300		-64.453125
5301		-60.546875
5302		-64.453125
5303		-62.500000
5304		-66.406250
5305		-62.500000
5306		-68.359375
5307		-64.453125
5308		-68.359375
5309		-66.406250
5310		-70.312500
5311		-68.359375
5312		-72.265625
5313		-66.406250
5314		-74.218750
5315		-68.359375
5316		-74.218750
5317		-70.312500
5318		-74.218750
5319		-72.265625
5320		-76.171875
5321		-72.265625
5322		-76.171875
5323		-74.218750
5324		-78.125000
5325		-74.218750
5326		-78.125000
5327		-76.171875
5328		-80.078125
5329		-76.171875
5330		-80.078125
5331		-76.171875
5332		-80.078125
5333		-78.125000
5334		-80.078125
5335		-78.125000
5336		-80.078125
5337		-78.125000
5338		-80.078125
5339		-78.125000
5340		-82.031250
5341		-80.078125
5342		-82.031250
5343		-80.078125
5344		-82.031250
5345		-78.125000
5346		-82.031250
5347		-80.078125
5348		-82.031250
5349		-80.078125
5350		-82.031250
5351		-80.078125
5352		-82.031250
5353		-80.078125
5354		-82.031250
5355		-80.078125
5356		-82.031250
5357		-80.078125
5358		-82.031250
5359		-78.125000
5360		-80.078125
5361		-78.125000
5362		-80.078125
5363		-76.171875
5364		-80.078125
5365		-78.125000
5366		-78.125000
5367		-76.171875
5368		-78.125000
5369		-76.171875
5370		-78.125000
5371		-76.171875
5372		-76.171875
5373		-74.218750
5374		-76.171875
5375		-74.218750
5376		-76.171875
5377		-72.265625
5378		-74.218750
5379		-72.265625
5380		-74.218750
5381		-70.312500
5382		-72.265625
5383		-70.312500
5384		-72.265625
5385		-68.359375
5386		-70.312500
5387		-68.359375
5388		-70.312500
5389		-66.406250
5390		-68.359375
5391		-64.453125
5392		-66.406250
5393		-64.453125
5394		-66.406250
5395		-62.500000
5396		-64.453125
5397		-60.546875
5398		-62.500000
5399		-60.546875
5400		-60.546875
5401		-58.593750
5402		-60.546875
5403		-56.640625
5404		-58.593750
5405		-54.687500
5406		-56.640625
5407		-52.734375
5408		-54.687500
5409		-50.781250
5410		-52.734375
5411		-50.781250
5412		-50.781250
5413		-46.875000
5414		-48.828125
5415		-46.875000
5416		-46.875000
5417		-44.921875
5418		-44.921875
5419		-42.968750
5420		-44.921875
5421		-41.015625
5422		-42.968750
5423		-39.062500
5424		-39.062500
5425		-37.109375
5426		-37.109375
5427		-35.156250
5428		-37.109375
5429		-33.203125
5430		-33.203125
5431		-31.250000
5432		-31.250000
5433		-27.343750
5434		-29.296875
5435		-25.390625
5436		-27.343750
5437		-23.437500
5438		-25.390625
5439		-21.484375
5440		-23.437500
5441		-19.531250
5442		-21.484375
5443		-17.578125
5444		-19.531250
5445		-15.625000
5446		-17.578125
5447		-13.671875
5448		-15.625000
5449		-11.718750
5450		-11.718750
5451		-7.812500
5452		-9.765625
5453		-5.859375
5454		-7.812500
5455		-3.906250
5456		-5.859375
5457		-1.953125
5458		-3.906250
5459		0.000000
5460		-1.953125
5461		1.953125
5462		1.953125
5463		3.906250
5464		3.906250
5465		7.812500
5466		5.859375
5467		9.765625
5468		5.859375
5469		11.718750
5470		9.765625
5471		13.671875
5472		11.718750
5473		15.625000
5474		13.671875
5475		17.578125
5476		15.625000
5477		19.531250
5478		17.578125
5479		21.484375
5480		19.531250
5481		23.437500
5482		21.484375
5483		25.390625
5484		25.390625
5485		27.343750
5486		27.343750
5487		29.296875
5488		29.296875
5489		31.250000
5490		31.250000
5491		33.203125
5492		33.203125
5493		37.109375
5494		35.156250
5495		39.062500
5496		37.109375
5497		41.015625
5498		39.062500
5499		42.968750
5500		41.015625
5501		42.968750
5502		42.968750
5503		44.921875
5504		44.921875
5505		46.875000
5506		46.875000
5507		48.828125
5508		46.875000
5509		50.781250
5510		48.828125
5511		52.734375
5512		50.781250
5513		54.687500
5514		52.734375
5515		56.640625
5516		54.687500
5517		56.640625
5518		56.640625
5519		58.593750
5520		56.640625
5521		60.546875
5522		58.593750
5523		62.500000
5524		60.546875
5525		62.500000
5526		62.500000
5527		64.453125
5528		62.500000
5529		66.406250
5530		64.453125
5531		66.406250
5532		66.406250
5533		68.359375
5534		66.406250
5535		70.312500
5536		68.359375
5537		70.312500
5538		70.312500
5539		72.265625
5540		70.312500
5541		74.218750
5542		72.265625
5543		74.218750
5544		72.265625
5545		76.171875
5546		74.218750
5547		76.171875
5548		74.218750
5549		76.171875
5550		76.171875
5551		78.125000
5552		76.171875
5553		78.125000
5554		78.125000
5555		80.078125
5556		78.125000
5557		80.078125
5558		78.125000
5559		80.078125
5560		78.125000
5561		82.031250
5562		80.078125
5563		82.031250
5564		80.078125
5565		82.031250
5566		80.078125
5567		83.984375
5568		82.031250
5569		83.984375
5570		82.031250
5571		83.984375
5572		82.031250
5573		83.984375
5574		82.031250
5575		83.984375
5576		82.031250
5577		83.984375
5578		82.031250
5579		85.937500
5580		82.031250
5581		83.984375
5582		83.984375
5583		85.937500
5584		82.031250
5585		83.984375
5586		82.031250
5587		85.937500
5588		82.031250
5589		85.937500
5590		82.031250
5591		83.984375
5592		82.031250
5593		83.984375
5594		82.031250
5595		83.984375
5596		82.031250
5597		83.984375
5598		82.031250
5599		83.984375
5600		82.031250
5601		83.984375
5602		80.078125
5603		83.984375
5604		80.078125
5605		82.031250
5606		80.078125
5607		82.031250
5608		80.078125
5609		82.031250
5610		78.125000
5611		82.031250
5612		78.125000
5613		80.078125
5614		78.125000
5615		80.078125
5616		76.171875
5617		78.125000
5618		76.171875
5619		78.125000
5620		74.218750
5621		78.125000
5622		74.218750
5623		76.171875
5624		72.265625
5625		76.171875
5626		72.265625
5627		74.218750
5628		70.312500
5629		72.265625
5630		70.312500
5631		72.265625
5632		68.359375
5633		72.265625
5634		66.406250
5635		70.312500
5636		66.406250
5637		68.359375
5638		64.453125
5639		68.359375
5640		62.500000
5641		66.406250
5642		60.546875
5643		64.453125
5644		60.546875
5645		62.500000
5646		58.593750
5647		62.500000
5648		56.640625
5649		60.546875
5650		56.640625
5651		58.593750
5652		54.687500
5653		56.640625
5654		52.734375
5655		56.640625
5656		50.781250
5657		54.687500
5658		48.828125
5659		52.734375
5660		46.875000
5661		50.781250
5662		44.921875
5663		48.828125
5664		42.968750
5665		46.875000
5666		41.015625
5667		44.921875
5668		39.062500
5669		42.968750
5670		37.109375
5671		41.015625
5672		35.156250
5673		39.062500
5674		33.203125
5675		37.109375
5676		31.250000
5677		35.156250
5678		29.296875
5679		33.203125
5680		27.343750
5681		31.250000
5682		25.390625
5683		29.296875
5684		23.437500
5685		27.343750
5686		21.484375
5687		25.390625
5688		19.531250
5689		23.437500
5690		17.578125
5691		21.484375
5692		15.625000
5693		19.531250
5694		13.671875
5695		15.625000
5696		9.765625
5697		13.671875
5698		7.812500
5699		11.718750
5700		5.859375
5701		9.765625
5702		3.906250
5703		7.812500
5704		1.953125
5705		5.859375
5706		0.000000
5707		3.906250
5708		-1.953125
5709		0.000000
5710		-3.906250
5711		-1.953125
5712		-7.812500
5713		-3.906250
5714		-9.765625
5715		-5.859375
5716		-11.718750
5717		-7.812500
5718		-13.671875
5719		-9.765625
5720		-15.625000
5721		-11.718750
5722		-17.578125
5723		-15.625000
5724		-19.531250
5725		-15.625000
5726		-21.484375
5727		-19.531250
5728		-25.390625
5729		-21.484375
5730		-27.343750
5731		-23.437500
5732		-29.296875
5733		-25.390625
5734		-31.250000
5735		-27.343750
5736		-33.203125
5737		-29.296875
5738		-35.156250
5739		-31.250000
5740		-37.109375
5741		-33.203125
5742		-39.062500
5743		-35.156250
5744		-41.015625
5745		-37.109375
5746		-42.968750
5747		-39.062500
5748		-44.921875
5749		-41.015625
5750		-46.875000
5751		-42.968750
5752		-48.828125
5753		-44.921875
5754		-50.781250
5755		-46.875000
5756		-52.734375
5757		-48.828125
5758		-54.687500
5759		-50.781250
5760		-56.640625
5761		-52.734375
5762		-56.640625
5763		-54.687500
5764		-60.546875
5765		-56.640625
5766		-60.546875
5767		-58.593750
5768		-62.500000
5769		-58.593750
5770		-64.453125
5771		-60.546875
5772		-66.406250
5773		-62.500000
5774		-66.406250
5775		-64.453125
5776		-68.359375
5777		-66.406250
5778		-70.312500
5779		-66.406250
5780		-70.312500
5781		-68.359375
5782		-72.265625
5783		-68.359375
5784		-72.265625
5785		-70.312500
5786		-74.218750
5787		-72.265625
5788		-74.218750
5789		-72.265625
5790		-76.171875
5791		-74.218750
5792		-76.171875
5793		-74.218750
5794		-78.125000
5795		-76.171875
5796		-78.125000
5797		-76.171875
5798		-80.078125
5799		-76.171875
5800		-80.078125
5801		-78.125000
5802		-80.078125
5803		-78.125000
5804		-80.078125
5805		-78.125000
5806		-82.031250
5807		-78.125000
5808		-82.031250
5809		-80.078125
5810		-82.031250
5811		-80.078125
5812		-82.031250
5813		-80.078125
5814		-82.031250
5815		-80.078125
5816		-82.031250
5817		-80.078125
5818		-82.031250
5819		-80.078125
5820		-82.031250
5821		-80.078125
5822		-82.031250
5823		-80.078125
5824		-82.031250
5825		-80.078125
5826		-82.031250
5827		-80.078125
5828		-82.031250
5829		-80.078125
5830		-82.031250
5831		-80.078125
5832		-82.031250
5833		-80.078125
5834		-82.031250
5835		-78.125000
5836		-80.078125
5837		-78.125000
5838		-80.078125
5839		-78.125000
5840		-80.078125
5841		-78.125000
5842		-78.125000
5843		-76.171875
5844		-78.125000
5845		-76.171875
5846		-78.125000
5847		-74.218750
5848		-76.171875
5849		-74.218750
5850		-76.171875
5851		-72.265625
5852		-74.218750
5853		-72.265625
5854		-74.218750
5855		-70.312500
5856		-72.265625
5857		-70.312500
5858		-72.265625
5859		-68.359375
5860		-70.312500
5861		-68.359375
5862		-68.359375
5863		-66.406250
5864		-68.359375
5865		-64.453125
5866		-66.406250
5867		-62.500000
5868		-64.453125
5869		-62.500000
5870		-64.453125
5871		-60.546875
5872		-62.500000
5873		-58.593750
5874		-60.546875
5875		-56.640625
5876		-58.593750
5877		-54.687500
5878		-56.640625
5879		-52.734375
5880		-56.640625
5881		-52.734375
5882		-52.734375
5883		-50.781250
5884		-52.734375
5885		-48.828125
5886		-50.781250
5887		-46.875000
5888		-48.828125
5889		-44.921875
5890		-46.875000
5891		-42.968750
5892		-44.921875
5893		-41.015625
5894		-42.968750
5895		-39.062500
5896		-41.015625
5897		-37.109375
5898		-39.062500
5899		-35.156250
5900		-37.109375
5901		-33.203125
5902		-33.203125
5903		-31.250000
5904		-31.250000
5905		-29.296875
5906		-29.296875
5907		-27.343750
5908		-27.343750
5909		-23.437500
5910		-25.390625
5911		-21.484375
5912		-23.437500
5913		-19.531250
5914		-21.484375
5915		-17.578125
5916		-19.531250
5917		-15.625000
5918		-17.578125
5919		-13.671875
5920		-15.625000
5921		-11.718750
5922		-11.718750
5923		-9.765625
5924		-9.765625
5925		-5.859375
5926		-7.812500
5927		-3.906250
5928		-5.859375
5929		-1.953125
5930		-3.906250
5931		0.000000
5932		-1.953125
5933		1.953125
5934		0.000000
5935		3.906250
5936		3.906250
5937		5.859375
5938		5.859375
5939		7.812500
5940		7.812500
5941		11.718750
5942		9.765625
5943		13.671875
5944		11.718750
5945		15.625000
5946		13.671875
5947		17.578125
5948		15.625000
5949		19.531250
5950		17.578125
5951		21.484375
5952		19.531250
5953		23.437500
5954		21.484375
5955		25.390625
5956		23.437500
5957		27.343750
5958		25.390625
5959		29.296875
5960		29.296875
5961		31.250000
5962		31.250000
5963		33.203125
5964		33.203125
5965		35.156250
5966		35.156250
5967		37.109375
5968		35.156250
5969		39.062500
5970		39.062500
5971		41.015625
5972		41.015625
5973		42.968750
5974		41.015625
5975		44.921875
5976		42.968750
5977		46.875000
5978		44.921875
5979		48.828125
5980		46.875000
5981		50.781250
5982		48.828125
5983		52.734375
5984		50.781250
5985		54.687500
5986		52.734375
5987		56.640625
5988		54.687500
5989		56.640625
5990		56.640625
5991		58.593750
5992		56.640625
5993		60.546875
5994		58.593750
5995		62.500000
5996		60.546875
5997		62.500000
5998		62.500000
5999		64.453125
6000		62.500000
6001		66.406250
6002		64.453125
6003		66.406250
6004		66.406250
6005		68.359375
6006		66.406250
6007		70.312500
6008		68.359375
6009		70.312500
6010		68.359375
6011		72.265625
6012		70.312500
6013		72.265625
6014		70.312500
6015		74.218750
6016		72.265625
6017		74.218750
6018		74.218750
6019		76.171875
6020		74.218750
6021		76.171875
6022		76.171875
6023		78.125000
6024		76.171875
6025		78.125000
6026		76.171875
6027		80.078125
6028		78.125000
6029		80.078125
6030		78.125000
6031		80.078125
6032		78.125000
6033		82.031250
6034		80.078125
6035		82.031250
6036		80.078125
6037		82.031250
6038		80.078125
6039		82.031250
6040		82.031250
6041		83.984375
6042		82.031250
6043		83.984375
6044		82.031250
6045		83.984375
6046		82.031250
6047		83.984375
6048		82.031250
6049		83.984375
6050		82.031250
6051		83.984375
6052		82.031250
6053		83.984375
6054		82.031250
6055		83.984375
6056		82.031250
6057		83.984375
6058		82.031250
6059		83.984375
6060		82.031250
6061		83.984375
6062		82.031250
6063		83.984375
6064		82.031250
6065		83.984375
6066		82.031250
6067		83.984375
6068		82.031250
6069		83.984375
6070		82.031250
6071		83.984375
6072		80.078125
6073		83.984375
6074		80.078125
6075		82.031250
6076		80.078125
6077		82.031250
6078		80.078125
6079		82.031250
6080		78.125000
6081		80.078125
6082		78.125000
6083		80.078125
6084		76.171875
6085		80.078125
6086		76.171875
6087		78.125000
6088		76.171875
6089		78.125000
6090		74.218750
6091		78.125000
6092		74.218750
6093		76.171875
6094		72.265625
6095		76.171875
6096		72.265625
6097		74.218750
6098		70.312500
6099		74.218750
6100		70.312500
6101		72.265625
6102		68.359375
6103		72.265625
6104		68.359375
6105		70.312500
6106		66.406250
6107		68.359375
6108		64.453125
6109		68.359375
6110		64.453125
6111		68.359375
6112		62.500000
6113		66.406250
6114		60.546875
6115		64.453125
6116		58.593750
6117		62.500000
6118		56.640625
6119		60.546875
6120		56.640625
6121		58.593750
6122		54.687500
6123		58.593750
6124		52.734375
6125		56.640625
6126		50.781250
6127		54.687500
6128		50.781250
6129		52.734375
6130		48.828125
6131		50.781250
6132		46.875000
6133		48.828125
6134		44.921875
6135		46.875000
6136		42.968750
6137		46.875000
6138		41.015625
6139		44.921875
6140		39.062500
6141		42.968750
6142		37.109375
6143		41.015625
6144		35.156250
6145		39.062500
6146		33.203125
6147		37.109375
6148		31.250000
6149		35.156250
6150		29.296875
6151		33.203125
6152		25.390625
6153		31.250000
6154		25.390625
6155		29.296875
6156		21.484375
6157		25.390625
6158		21.484375
6159		23.437500
6160		17.578125
6161		21.484375
6162		15.625000
6163		19.531250
6164		13.671875
6165		17.578125
6166		11.718750
6167		15.625000
6168		9.765625
6169		13.671875
6170		7.812500
6171		11.718750
6172		3.906250
6173		9.765625
6174		3.906250
6175		7.812500
6176		0.000000
6177		3.906250
6178		-1.953125
6179		3.906250
6180		-3.906250
6181		0.000000
6182		-5.859375
6183		-1.953125
6184		-7.812500
6185		-3.906250
6186		-9.765625
6187		-7.812500
6188		-11.718750
6189		-9.765625
6190		-15.625000
6191		-9.765625
6192		-17.578125
6193		-13.671875
6194		-19.531250
6195		-13.671875
6196		-21.484375
6197		-17.578125
6198		-23.437500
6199		-17.578125
6200		-25.390625
6201		-21.484375
6202		-29.296875
6203		-25.390625
6204		-29.296875
6205		-25.390625
6206		-33.203125
6207		-29.296875
6208		-35.156250
6209		-31.250000
6210		-39.062500
6211		-33.203125
6212		-39.062500
6213		-35.156250
6214		-42.968750
6215		-35.156250
6216		-42.968750
6217		-39.062500
6218		-44.921875
6219		-41.015625
6220		-46.875000
6221		-42.968750
6222		-50.781250
6223		-44.921875
6224		-50.781250
6225		-46.875000
6226		-52.734375
6227		-48.828125
6228		-54.687500
6229		-48.828125
6230		-58.593750
6231		-50.781250
6232		-56.640625
6233		-54.687500
6234		-58.593750
6235		-54.687500
6236		-60.546875
6237		-56.640625
6238		-66.406250
6239		-56.640625
6240		-64.453125
6241		-58.593750
6242		-66.406250
6243		-60.546875
6244		-66.406250
6245		-62.500000
6246		-68.359375
6247		-64.453125
6248		-70.312500
6249		-62.500000
6250		-70.312500
6251		-66.406250
6252		-72.265625
6253		-68.359375
6254		-76.171875
6255		-68.359375
6256		-76.171875
6257		-68.359375
6258		-76.171875
6259		-70.312500
6260		-76.171875
6261		-72.265625
6262		-80.078125
6263		-70.312500
6264		-80.078125
6265		-72.265625
6266		-78.125000
6267		-76.171875
6268		-78.125000
6269		-76.171875
6270		-80.078125
6271		-76.171875
6272		-82.031250
6273		-76.171875
6274		-82.031250
6275		-76.171875
6276		-82.031250
6277		-78.125000
6278		-83.984375
6279		-76.171875
6280		-82.031250
6281		-80.078125
6282		-85.937500
6283		-78.125000
6284		-82.031250
6285		-80.078125
6286		-83.984375
6287		-80.078125
6288		-85.937500
6289		-76.171875
6290		-85.937500
6291		-80.078125
6292		-83.984375
6293		-80.078125
6294		-85.937500
6295		-78.125000
6296		-85.937500
6297		-78.125000
6298		-85.937500
6299		-76.171875
6300		-82.031250
6301		-80.078125
6302		-82.031250
6303		-80.078125
6304		-82.031250
6305		-78.125000
6306		-83.984375
6307		-76.171875
6308		-82.031250
6309		-78.125000
6310		-80.078125
6311		-76.171875
6312		-83.984375
6313		-72.265625
6314		-82.031250
6315		-72.265625
6316		-78.125000
6317		-76.171875
6318		-78.125000
6319		-74.218750
6320		-78.125000
6321		-72.265625
6322		-78.125000
6323		-68.359375
6324		-74.218750
6325		-70.312500
6326		-74.218750
6327		-70.312500
6328		-74.218750
6329		-66.406250
6330		-74.218750
6331		-66.406250
6332		-72.265625
6333		-64.453125
6334		-68.359375
6335		-66.406250
6336		-68.359375
6337		-62.500000
6338		-66.406250
6339		-58.593750
6340		-68.359375
6341		-58.593750
6342		-62.500000
6343		-60.546875
6344		-60.546875
6345		-58.593750
6346		-62.500000
6347		-54.687500
6348		-60.546875
6349		-52.734375
6350		-56.640625
6351		-52.734375
6352		-54.687500
6353		-50.781250
6354		-54.687500
6355		-48.828125
6356		-52.734375
6357		-46.875000
6358		-52.734375
6359		-46.875000
6360		-46.875000
6361		-44.921875
6362		-46.875000
6363		-39.062500
6364		-46.875000
6365		-39.062500
6366		-44.921875
6367		-37.109375
6368		-41.015625
6369		-37.109375
6370		-37.109375
6371		-33.203125
6372		-37.109375
6373		-29.296875
6374		-35.156250
6375		-29.296875
6376		-31.250000
6377		-27.343750
6378		-29.296875
6379		-23.437500
6380		-31.250000
6381		-21.484375
6382		-27.343750
6383		-19.531250
6384		-23.437500
6385		-19.531250
6386		-21.484375
6387		-17.578125
6388		-19.531250
6389		-13.671875
6390		-19.531250
6391		-11.718750
6392		-13.671875
6393		-9.765625
6394		-11.718750
6395		-7.812500
6396		-11.718750
6397		-3.906250
6398		-7.812500
6399		-1.953125
6400		-5.859375
6401		-1.953125
6402		-3.906250
6403		0.000000
6404		0.000000
6405		3.906250
6406		0.000000
6407		7.812500
6408		1.953125
6409		7.812500
6410		5.859375
6411		9.765625
6412		5.859375
6413		13.671875
6414		7.812500
6415		15.625000
6416		11.718750
6417		17.578125
6418		13.671875
6419		17.578125
6420		15.625000
6421		19.531250
6422		17.578125
6423		23.437500
6424		17.578125
6425		25.390625
6426		23.437500
6427		25.390625
6428		25.390625
6429		29.296875
6430		25.390625
6431		33.203125
6432		27.343750
6433		35.156250
6434		31.250000
6435		35.156250
6436		33.203125
6437		37.109375
6438		35.156250
6439		39.062500
6440		35.156250
6441		42.968750
6442		37.109375
6443		42.968750
6444		41.015625
6445		44.921875
6446		41.015625
6447		46.875000
6448		44.921875
6449		46.875000
6450		44.921875
6451		50.781250
6452		48.828125
6453		50.781250
6454		48.828125
6455		52.734375
6456		50.781250
6457		58.593750
6458		52.734375
6459		58.593750
6460		54.687500
6461		58.593750
6462		54.687500
6463		60.546875
6464		58.593750
6465		60.546875
6466		58.593750
6467		62.500000
6468		60.546875
6469		64.453125
6470		60.546875
6471		64.453125
6472		62.500000
6473		66.406250
6474		64.453125
6475		68.359375
6476		64.453125
6477		70.312500
6478		68.359375
6479		70.312500
6480		66.406250
6481		72.265625
6482		70.312500
6483		72.265625
6484		70.312500
6485		74.218750
6486		72.265625
6487		74.218750
6488		72.265625
6489		76.171875
6490		74.218750
6491		76.171875
6492		74.218750
6493		78.125000
6494		76.171875
6495		78.125000
6496		76.171875
6497		80.078125
6498		78.125000
6499		80.078125
6500		76.171875
6501		80.078125
6502		78.125000
6503		82.031250
6504		78.125000
6505		82.031250
6506		80.078125
6507		82.031250
6508		80.078125
6509		82.031250
6510		80.078125
6511		83.984375
6512		80.078125
6513		83.984375
6514		82.031250
6515		83.984375
6516		82.031250
6517		83.984375
6518		82.031250
6519		83.984375
6520		82.031250
6521		83.984375
6522		82.031250
6523		85.937500
6524		82.031250
6525		85.937500
6526		82.031250
6527		85.937500
6528		82.031250
6529		87.890625
6530		82.031250
6531		85.937500
6532		82.031250
6533		85.937500
6534		82.031250
6535		85.937500
6536		82.031250
6537		83.984375
6538		80.078125
6539		85.937500
6540		82.031250
6541		85.937500
6542		80.078125
6543		85.937500
6544		80.078125
6545		85.937500
6546		80.078125
6547		83.984375
6548		80.078125
6549		83.984375
6550		78.125000
6551		83.984375
6552		78.125000
6553		82.031250
6554		78.125000
6555		80.078125
6556		76.171875
6557		82.031250
6558		76.171875
6559		80.078125
6560		74.218750
6561		80.078125
6562		74.218750
6563		80.078125
6564		74.218750
6565		78.125000
6566		72.265625
6567		78.125000
6568		72.265625
6569		76.171875
6570		72.265625
6571		74.218750
6572		68.359375
6573		74.218750
6574		68.359375
6575		74.218750
6576		66.406250
6577		72.265625
6578		64.453125
6579		70.312500
6580		64.453125
6581		70.312500
6582		64.453125
6583		68.359375
6584		60.546875
6585		66.406250
6586		60.546875
6587		64.453125
6588		60.546875
6589		62.500000
6590		58.593750
6591		62.500000
6592		56.640625
6593		60.546875
6594		52.734375
6595		58.593750
6596		52.734375
6597		58.593750
6598		50.781250
6599		54.687500
6600		48.828125
6601		52.734375
6602		48.828125
6603		50.781250
6604		46.875000
6605		50.781250
6606		44.921875
6607		48.828125
6608		41.015625
6609		46.875000
6610		41.015625
6611		44.921875
6612		37.109375
6613		42.968750
6614		37.109375
6615		41.015625
6616		35.156250
6617		39.062500
6618		33.203125
6619		37.109375
6620		31.250000
6621		35.156250
6622		27.343750
6623		33.203125
6624		27.343750
6625		31.250000
6626		23.437500
6627		29.296875
6628		21.484375
6629		27.343750
6630		19.531250
6631		25.390625
6632		17.578125
6633		23.437500
6634		15.625000
6635		21.484375
6636		13.671875
6637		17.578125
6638		11.718750
6639		15.625000
6640		9.765625
6641		13.671875
6642		7.812500
6643		11.718750
6644		5.859375
6645		9.765625
6646		1.953125
6647		7.812500
6648		0.000000
6649		5.859375
6650		-1.953125
6651		1.953125
6652		-3.906250
6653		0.000000
6654		-5.859375
6655		-1.953125
6656		-7.812500
6657		-3.906250
6658		-9.765625
6659		-5.859375
6660		-13.671875
6661		-7.812500
6662		-17.578125
6663		-9.765625
6664		-17.578125
6665		-13.671875
6666		-19.531250
6667		-15.625000
6668		-21.484375
6669		-17.578125
6670		-23.437500
6671		-19.531250
6672		-25.390625
6673		-21.484375
6674		-27.343750
6675		-23.437500
6676		-29.296875
6677		-25.390625
6678		-35.156250
6679		-27.343750
6680		-35.156250
6681		-29.296875
6682		-37.109375
6683		-33.203125
6684		-39.062500
6685		-35.156250
6686		-41.015625
6687		-35.156250
6688		-42.968750
6689		-39.062500
6690		-44.921875
6691		-41.015625
6692		-46.875000
6693		-41.015625
6694		-46.875000
6695		-44.921875
6696		-50.781250
6697		-44.921875
6698		-50.781250
6699		-48.828125
6700		-54.687500
6701		-48.828125
6702		-54.687500
6703		-50.781250
6704		-56.640625
6705		-52.734375
6706		-58.593750
6707		-54.687500
6708		-60.546875
6709		-56.640625
6710		-62.500000
6711		-58.593750
6712		-64.453125
6713		-58.593750
6714		-64.453125
6715		-60.546875
6716		-66.406250
6717		-62.500000
6718		-68.359375
6719		-64.453125
6720		-68.359375
6721		-66.406250
6722		-70.312500
6723		-66.406250
6724		-72.265625
6725		-68.359375
6726		-72.265625
6727		-68.359375
6728		-74.218750
6729		-70.312500
6730		-76.171875
6731		-70.312500
6732		-76.171875
6733		-72.265625
6734		-76.171875
6735		-72.265625
6736		-78.125000
6737		-74.218750
6738		-78.125000
6739		-76.171875
6740		-80.078125
6741		-76.171875
6742		-80.078125
6743		-76.171875
6744		-80.078125
6745		-76.171875
6746		-80.078125
6747		-78.125000
6748		-82.031250
6749		-78.125000
6750		-82.031250
6751		-78.125000
6752		-82.031250
6753		-78.125000
6754		-82.031250
6755		-80.078125
6756		-82.031250
6757		-80.078125
6758		-82.031250
6759		-78.125000
6760		-83.984375
6761		-80.078125
6762		-82.031250
6763		-80.078125
6764		-83.984375
6765		-80.078125
6766		-82.031250
6767		-80.078125
6768		-82.031250
6769		-80.078125
6770		-82.031250
6771		-78.125000
6772		-82.031250
6773		-80.078125
6774		-82.031250
6775		-78.125000
6776		-82.031250
6777		-78.125000
6778		-80.078125
6779		-78.125000
6780		-80.078125
6781		-78.125000
6782		-80.078125
6783		-76.171875
6784		-80.078125
6785		-76.171875
6786		-80.078125
6787		-74.218750
6788		-78.125000
6789		-74.218750
6790		-76.171875
6791		-72.265625
6792		-76.171875
6793		-72.265625
6794		-74.218750
6795		-72.265625
6796		-74.218750
6797		-70.312500
6798		-72.265625
6799		-68.359375
6800		-72.265625
6801		-68.359375
6802		-70.312500
6803		-66.406250
6804		-68.359375
6805		-66.406250
6806		-68.359375
6807		-64.453125
6808		-66.406250
6809		-62.500000
6810		-64.453125
6811		-62.500000
6812		-64.453125
6813		-60.546875
6814		-62.500000
6815		-58.593750
6816		-60.546875
6817		-56.640625
6818		-58.593750
6819		-54.687500
6820		-58.593750
6821		-54.687500
6822		-54.687500
6823		-52.734375
6824		-54.687500
6825		-48.828125
6826		-52.734375
6827		-48.828125
6828		-50.781250
6829		-46.875000
6830		-48.828125
6831		-44.921875
6832		-46.875000
6833		-42.968750
6834		-44.921875
6835		-41.015625
6836		-42.968750
6837		-39.062500
6838		-41.015625
6839		-37.109375
6840		-39.062500
6841		-35.156250
6842		-37.109375
6843		-33.203125
6844		-35.156250
6845		-29.296875
6846		-33.203125
6847		-29.296875
6848		-31.250000
6849		-25.390625
6850		-27.343750
6851		-25.390625
6852		-27.343750
6853		-21.484375
6854		-25.390625
6855		-19.531250
6856		-21.484375
6857		-17.578125
6858		-19.531250
6859		-15.625000
6860		-17.578125
6861		-13.671875
6862		-15.625000
6863		-11.718750
6864		-13.671875
6865		-9.765625
6866		-11.718750
6867		-7.812500
6868		-9.765625
6869		-3.906250
6870		-5.859375
6871		-1.953125
6872		-3.906250
6873		0.000000
6874		-1.953125
6875		1.953125
6876		0.000000
6877		3.906250
6878		1.953125
6879		5.859375
6880		3.906250
6881		7.812500
6882		7.812500
6883		11.718750
6884		9.765625
6885		13.671875
6886		11.718750
6887		15.625000
6888		13.671875
6889		17.578125
6890		15.625000
6891		19.531250
6892		17.578125
6893		21.484375
6894		19.531250
6895		23.437500
6896		21.484375
6897		27.343750
6898		23.437500
6899		27.343750
6900		25.390625
6901		29.296875
6902		29.296875
6903		33.203125
6904		29.296875
6905		33.203125
6906		33.203125
6907		35.156250
6908		35.156250
6909		39.062500
6910		35.156250
6911		39.062500
6912		37.109375
6913		42.968750
6914		41.015625
6915		42.968750
6916		41.015625
6917		44.921875
6918		42.968750
6919		46.875000
6920		44.921875
6921		48.828125
6922		46.875000
6923		50.781250
6924		48.828125
6925		52.734375
6926		50.781250
6927		54.687500
6928		52.734375
6929		56.640625
6930		54.687500
6931		56.640625
6932		54.687500
6933		58.593750
6934		56.640625
6935		60.546875
6936		58.593750
6937		62.500000
6938		58.593750
6939		62.500000
6940		62.500000
6941		64.453125
6942		62.500000
6943		66.406250
6944		64.453125
6945		68.359375
6946		66.406250
6947		68.359375
6948		66.406250
6949		70.312500
6950		68.359375
6951		70.312500
6952		68.359375
6953		72.265625
6954		70.312500
6955		74.218750
6956		72.265625
6957		74.218750
6958		72.265625
6959		76.171875
6960		72.265625
6961		76.171875
6962		74.218750
6963		76.171875
6964		76.171875
6965		78.125000
6966		76.171875
6967		80.078125
6968		76.171875
6969		80.078125
6970		76.171875
6971		80.078125
6972		78.125000
6973		80.078125
6974		80.078125
6975		82.031250
6976		78.125000
6977		83.984375
6978		80.078125
6979		83.984375
6980		80.078125
6981		83.984375
6982		82.031250
6983		83.984375
6984		82.031250
6985		83.984375
6986		82.031250
6987		83.984375
6988		82.031250
6989		85.937500
6990		82.031250
6991		83.984375
6992		82.031250
6993		85.937500
6994		82.031250
6995		85.937500
6996		82.031250
6997		85.937500
6998		82.031250
6999		85.937500
7000		82.031250
7001		85.937500
7002		82.031250
7003		85.937500
7004		82.031250
7005		85.937500
7006		82.031250
7007		83.984375
7008		82.031250
7009		85.937500
7010		82.031250
7011		85.937500
7012		82.031250
7013		85.937500
7014		80.078125
7015		83.984375
7016		80.078125
7017		83.984375
7018		80.078125
7019		83.984375
7020		80.078125
7021		82.031250
7022		80.078125
7023		83.984375
7024		78.125000
7025		82.031250
7026		78.125000
7027		80.078125
7028		76.171875
7029		80.078125
7030		76.171875
7031		80.078125
7032		74.218750
7033		80.078125
7034		74.218750
7035		78.125000
7036		74.218750
7037		78.125000
7038		72.265625
7039		76.171875
7040		72.265625
7041		74.218750
7042		70.312500
7043		74.218750
7044		70.312500
7045		72.265625
7046		68.359375
7047		72.265625
7048		68.359375
7049		70.312500
7050		66.406250
7051		68.359375
7052		64.453125
7053		68.359375
7054		62.500000
7055		66.406250
7056		62.500000
7057		64.453125
7058		60.546875
7059		64.453125
7060		58.593750
7061		62.500000
7062		56.640625
7063		62.500000
7064		56.640625
7065		60.546875
7066		54.687500
7067		58.593750
7068		52.734375
7069		56.640625
7070		50.781250
7071		54.687500
7072		48.828125
7073		52.734375
7074		48.828125
7075		50.781250
7076		44.921875
7077		48.828125
7078		42.968750
7079		46.875000
7080		41.015625
7081		44.921875
7082		41.015625
7083		44.921875
7084		37.109375
7085		42.968750
7086		35.156250
7087		41.015625
7088		35.156250
7089		39.062500
7090		33.203125
7091		35.156250
7092		31.250000
7093		33.203125
7094		29.296875
7095		33.203125
7096		25.390625
7097		29.296875
7098		23.437500
7099		29.296875
7100		21.484375
7101		25.390625
7102		19.531250
7103		23.437500
7104		17.578125
7105		21.484375
7106		15.625000
7107		19.531250
7108		13.671875
7109		17.578125
7110		9.765625
7111		15.625000
7112		9.765625
7113		13.671875
7114		5.859375
7115		11.718750
7116		3.906250
7117		7.812500
7118		1.953125
7119		5.859375
7120		0.000000
7121		3.906250
7122		-1.953125
7123		1.953125
7124		-3.906250
7125		0.000000
7126		-5.859375
7127		-3.906250
7128		-9.765625
7129		-3.906250
7130		-11.718750
7131		-7.812500
7132		-13.671875
7133		-9.765625
7134		-15.625000
7135		-11.718750
7136		-17.578125
7137		-13.671875
7138		-21.484375
7139		-15.625000
7140		-21.484375
7141		-19.531250
7142		-25.390625
7143		-21.484375
7144		-27.343750
7145		-23.437500
7146		-29.296875
7147		-25.390625
7148		-31.250000
7149		-27.343750
7150		-33.203125
7151		-29.296875
7152		-35.156250
7153		-31.250000
7154		-37.109375
7155		-33.203125
7156		-39.062500
7157		-35.156250
7158		-41.015625
7159		-37.109375
7160		-42.968750
7161		-39.062500
7162		-44.921875
7163		-41.015625
7164		-46.875000
7165		-42.968750
7166		-48.828125
7167		-44.921875
7168		-50.781250
7169		-46.875000
7170		-52.734375
7171		-48.828125
7172		-54.687500
7173		-50.781250
7174		-56.640625
7175		-52.734375
7176		-56.640625
7177		-54.687500
7178		-60.546875
7179		-54.687500
7180		-62.500000
7181		-56.640625
7182		-62.500000
7183		-58.593750
7184		-64.453125
7185		-60.546875
7186		-66.406250
7187		-62.500000
7188		-66.406250
7189		-62.500000
7190		-68.359375
7191		-64.453125
7192		-70.312500
7193		-66.406250
7194		-70.312500
7195		-66.406250
7196		-72.265625
7197		-68.359375
7198		-74.218750
7199		-70.312500
7200		-74.218750
7201		-70.312500
7202		-74.218750
7203		-70.312500
7204		-76.171875
7205		-72.265625
7206		-78.125000
7207		-74.218750
7208		-76.171875
7209		-74.218750
7210		-78.125000
7211		-76.171875
7212		-78.125000
7213		-74.218750
7214		-80.078125
7215		-76.171875
7216		-80.078125
7217		-76.171875
7218		-82.031250
7219		-78.125000
7220		-82.031250
7221		-78.125000
7222		-82.031250
7223		-78.125000
7224		-82.031250
7225		-78.125000
7226		-82.031250
7227		-80.078125
7228		-83.984375
7229		-80.078125
7230		-82.031250
7231		-80.078125
7232		-82.031250
7233		-80.078125
7234		-82.031250
7235		-80.078125
7236		-82.031250
7237		-80.078125
7238		-82.031250
7239		-80.078125
7240		-82.031250
7241		-78.125000
7242		-82.031250
7243		-80.078125
7244		-82.031250
7245		-78.125000
7246		-82.031250
7247		-78.125000
7248		-80.078125
7249		-78.125000
7250		-80.078125
7251		-78.125000
7252		-80.078125
7253		-76.171875
7254		-80.078125
7255		-76.171875
7256		-78.125000
7257		-74.218750
7258		-78.125000
7259		-74.218750
7260		-76.171875
7261		-74.218750
7262		-76.171875
7263		-72.265625
7264		-76.171875
7265		-72.265625
7266		-74.218750
7267		-70.312500
7268		-72.265625
7269		-70.312500
7270		-72.265625
7271		-68.359375
7272		-70.312500
7273		-66.406250
7274		-70.312500
7275		-66.406250
7276		-68.359375
7277		-64.453125
7278		-66.406250
7279		-62.500000
7280		-66.406250
7281		-62.500000
7282		-64.453125
7283		-60.546875
7284		-62.500000
7285		-58.593750
7286		-62.500000
7287		-58.593750
7288		-60.546875
7289		-56.640625
7290		-58.593750
7291		-52.734375
7292		-56.640625
7293		-52.734375
7294		-54.687500
7295		-50.781250
7296		-52.734375
7297		-48.828125
7298		-50.781250
7299		-46.875000
7300		-48.828125
7301		-44.921875
7302		-46.875000
7303		-42.968750
7304		-44.921875
7305		-41.015625
7306		-42.968750
7307		-39.062500
7308		-41.015625
7309		-37.109375
7310		-39.062500
7311		-35.156250
7312		-39.062500
7313		-33.203125
7314		-35.156250
7315		-31.250000
7316		-33.203125
7317		-29.296875
7318		-31.250000
7319		-27.343750
7320		-29.296875
7321		-25.390625
7322		-27.343750
7323		-21.484375
7324		-25.390625
7325		-21.484375
7326		-21.484375
7327		-19.531250
7328		-19.531250
7329		-15.625000
7330		-17.578125
7331		-13.671875
7332		-15.625000
7333		-11.718750
7334		-13.671875
7335		-9.765625
7336		-11.718750
7337		-7.812500
7338		-9.765625
7339		-5.859375
7340		-7.812500
7341		-1.953125
7342		-3.906250
7343		0.000000
7344		-1.953125
7345		0.000000
7346		0.000000
7347		3.906250
7348		1.953125
7349		5.859375
7350		3.906250
7351		7.812500
7352		5.859375
7353		9.765625
7354		7.812500
7355		11.718750
7356		9.765625
7357		15.625000
7358		11.718750
7359		15.625000
7360		15.625000
7361		19.531250
7362		17.578125
7363		21.484375
7364		19.531250
7365		23.437500
7366		21.484375
7367		25.390625
7368		23.437500
7369		27.343750
7370		25.390625
7371		29.296875
7372		27.343750
7373		31.250000
7374		29.296875
7375		33.203125
7376		31.250000
7377		35.156250
7378		33.203125
7379		37.109375
7380		33.203125
7381		39.062500
7382		37.109375
7383		41.015625
7384		39.062500
7385		42.968750
7386		41.015625
7387		44.921875
7388		42.968750
7389		46.875000
7390		44.921875
7391		48.828125
7392		44.921875
7393		50.781250
7394		48.828125
7395		50.781250
7396		50.781250
7397		54.687500
7398		50.781250
7399		54.687500
7400		52.734375
7401		56.640625
7402		54.687500
7403		58.593750
7404		56.640625
7405		60.546875
7406		56.640625
7407		62.500000
7408		58.593750
7409		62.500000
7410		60.546875
7411		64.453125
7412		62.500000
7413		66.406250
7414		64.453125
7415		68.359375
7416		66.406250
7417		68.359375
7418		66.406250
7419		70.312500
7420		68.359375
7421		70.312500
7422		68.359375
7423		72.265625
7424		70.312500
7425		74.218750
7426		72.265625
7427		74.218750
7428		72.265625
7429		76.171875
7430		72.265625
7431		76.171875
7432		74.218750
7433		78.125000
7434		76.171875
7435		78.125000
7436		76.171875
7437		78.125000
7438		76.171875
7439		80.078125
7440		78.125000
7441		80.078125
7442		78.125000
7443		82.031250
7444		80.078125
7445		82.031250
7446		78.125000
7447		83.984375
7448		80.078125
7449		83.984375
7450		80.078125
7451		83.984375
7452		82.031250
7453		83.984375
7454		82.031250
7455		85.937500
7456		82.031250
7457		85.937500
7458		82.031250
7459		85.937500
7460		83.984375
7461		85.937500
7462		83.984375
7463		85.937500
7464		82.031250
7465		85.937500
7466		83.984375
7467		85.937500
7468		83.984375
7469		85.937500
7470		83.984375
7471		85.937500
7472		83.984375
7473		85.937500
7474		83.984375
7475		85.937500
7476		82.031250
7477		85.937500
7478		83.984375
7479		85.937500
7480		82.031250
7481		85.937500
7482		82.031250
7483		85.937500
7484		82.031250
7485		85.937500
7486		82.031250
7487		83.984375
7488		82.031250
7489		83.984375
7490		82.031250
7491		83.984375
7492		80.078125
7493		83.984375
7494		80.078125
7495		82.031250
7496		78.125000
7497		82.031250
7498		78.125000
7499		82.031250
7500		78.125000
7501		80.078125
7502		76.171875
7503		80.078125
7504		76.171875
7505		80.078125
7506		74.218750
7507		78.125000
7508		74.218750
7509		78.125000
7510		74.218750
7511		76.171875
7512		72.265625
7513		74.218750
7514		70.312500
7515		74.218750
7516		70.312500
7517		72.265625
7518		68.359375
7519		72.265625
7520		68.359375
7521		70.312500
7522		66.406250
7523		70.312500
7524		64.453125
7525		68.359375
7526		62.500000
7527		68.359375
7528		62.500000
7529		66.406250
7530		60.546875
7531		64.453125
7532		58.593750
7533		62.500000
7534		58.593750
7535		62.500000
7536		54.687500
7537		60.546875
7538		54.687500
7539		58.593750
7540		52.734375
7541		56.640625
7542		50.781250
7543		54.687500
7544		50.781250
7545		52.734375
7546		48.828125
7547		50.781250
7548		46.875000
7549		50.781250
7550		42.968750
7551		48.828125
7552		42.968750
7553		46.875000
7554		41.015625
7555		44.921875
7556		39.062500
7557		42.968750
7558		37.109375
7559		41.015625
7560		35.156250
7561		39.062500
7562		33.203125
7563		35.156250
7564		31.250000
7565		35.156250
7566		29.296875
7567		33.203125
7568		25.390625
7569		29.296875
7570		23.437500
7571		27.343750
7572		21.484375
7573		25.390625
7574		19.531250
7575		23.437500
7576		17.578125
7577		21.484375
7578		15.625000
7579		19.531250
7580		11.718750
7581		17.578125
7582		9.765625
7583		15.625000
7584		9.765625
7585		13.671875
7586		5.859375
7587		11.718750
7588		3.906250
7589		7.812500
7590		1.953125
7591		5.859375
7592		0.000000
7593		3.906250
7594		-1.953125
7595		1.953125
7596		-3.906250
7597		0.000000
7598		-7.812500
7599		-1.953125
7600		-9.765625
7601		-3.906250
7602		-11.718750
7603		-5.859375
7604		-13.671875
7605		-9.765625
7606		-15.625000
7607		-11.718750
7608		-17.578125
7609		-13.671875
7610		-19.531250
7611		-15.625000
7612		-21.484375
7613		-17.578125
7614		-23.437500
7615		-19.531250
7616		-27.343750
7617		-21.484375
7618		-29.296875
7619		-25.390625
7620		-31.250000
7621		-27.343750
7622		-33.203125
7623		-29.296875
7624		-35.156250
7625		-31.250000
7626		-37.109375
7627		-33.203125
7628		-39.062500
7629		-35.156250
7630		-41.015625
7631		-37.109375
7632		-42.968750
7633		-39.062500
7634		-44.921875
7635		-41.015625
7636		-46.875000
7637		-42.968750
7638		-48.828125
7639		-44.921875
7640		-50.781250
7641		-46.875000
7642		-52.734375
7643		-48.828125
7644		-54.687500
7645		-48.828125
7646		-54.687500
7647		-52.734375
7648		-58.593750
7649		-54.687500
7650		-58.593750
7651		-54.687500
7652		-60.546875
7653		-56.640625
7654		-62.500000
7655		-58.593750
7656		-64.453125
7657		-60.546875
7658		-64.453125
7659		-60.546875
7660		-66.406250
7661		-62.500000
7662		-66.406250
7663		-64.453125
7664		-70.312500
7665		-66.406250
7666		-70.312500
7667		-66.406250
7668		-72.265625
7669		-68.359375
7670		-72.265625
7671		-68.359375
7672		-72.265625
7673		-70.312500
7674		-74.218750
7675		-70.312500
7676		-76.171875
7677		-72.265625
7678		-76.171875
7679		-72.265625
7680		-76.171875
7681		-74.218750
7682		-78.125000
7683		-74.218750
7684		-78.125000
7685		-74.218750
7686		-78.125000
7687		-76.171875
7688		-80.078125
7689		-76.171875
7690		-80.078125
7691		-76.171875
7692		-80.078125
7693		-78.125000
7694		-82.031250
7695		-78.125000
7696		-80.078125
7697		-78.125000
7698		-82.031250
7699		-78.125000
7700		-82.031250
7701		-78.125000
7702		-82.031250
7703		-78.125000
7704		-82.031250
7705		-78.125000
7706		-82.031250
7707		-78.125000
7708		-82.031250
7709		-78.125000
7710		-82.031250
7711		-78.125000
7712		-80.078125
7713		-78.125000
7714		-80.078125
7715		-78.125000
7716		-82.031250
7717		-78.125000
7718		-80.078125
7719		-76.171875
7720		-80.078125
7721		-76.171875
7722		-80.078125
7723		-76.171875
7724		-80.078125
7725		-76.171875
7726		-78.125000
7727		-74.218750
7728		-78.125000
7729		-74.218750
7730		-76.171875
7731		-74.218750
7732		-76.171875
7733		-72.265625
7734		-74.218750
7735		-72.265625
7736		-74.218750
7737		-70.312500
7738		-72.265625
7739		-70.312500
7740		-72.265625
7741		-68.359375
7742		-72.265625
7743		-66.406250
7744		-70.312500
7745		-66.406250
7746		-68.359375
7747		-66.406250
7748		-66.406250
7749		-64.453125
7750		-66.406250
7751		-62.500000
7752		-64.453125
7753		-60.546875
7754		-62.500000
7755		-60.546875
7756		-62.500000
7757		-58.593750
7758		-60.546875
7759		-56.640625
7760		-58.593750
7761		-54.687500
7762		-56.640625
7763		-52.734375
7764		-54.687500
7765		-50.781250
7766		-52.734375
7767		-50.781250
7768		-52.734375
7769		-48.828125
7770		-50.781250
7771		-46.875000
7772		-48.828125
7773		-44.921875
7774		-46.875000
7775		-41.015625
7776		-44.921875
7777		-41.015625
7778		-42.968750
7779		-39.062500
7780		-41.015625
7781		-37.109375
7782		-39.062500
7783		-35.156250
7784		-37.109375
7785		-33.203125
7786		-35.156250
7787		-31.250000
7788		-33.203125
7789		-29.296875
7790		-31.250000
7791		-25.390625
7792		-29.296875
7793		-23.437500
7794		-25.390625
7795		-21.484375
7796		-23.437500
7797		-19.531250
7798		-21.484375
7799		-17.578125
7800		-21.484375
7801		-15.625000
7802		-17.578125
7803		-13.671875
7804		-15.625000
7805		-11.718750
7806		-13.671875
7807		-7.812500
7808		-9.765625
7809		-5.859375
7810		-9.765625
7811		-3.906250
7812		-7.812500
7813		-1.953125
7814		-3.906250
7815		0.000000
7816		-1.953125
7817		1.953125
7818		0.000000
7819		3.906250
7820		1.953125
7821		7.812500
7822		3.906250
7823		7.812500
7824		5.859375
7825		11.718750
7826		9.765625
7827		13.671875
7828		11.718750
7829		15.625000
7830		13.671875
7831		17.578125
7832		15.625000
7833		19.531250
7834		15.625000
7835		21.484375
7836		19.531250
7837		23.437500
7838		21.484375
7839		25.390625
7840		25.390625
7841		29.296875
7842		27.343750
7843		31.250000
7844		29.296875
7845		33.203125
7846		29.296875
7847		35.156250
7848		33.203125
7849		35.156250
7850		35.156250
7851		39.062500
7852		37.109375
7853		41.015625
7854		39.062500
7855		42.968750
7856		39.062500
7857		42.968750
7858		41.015625
7859		46.875000
7860		42.968750
7861		46.875000
7862		44.921875
7863		48.828125
7864		46.875000
7865		50.781250
7866		48.828125
7867		52.734375
7868		50.781250
7869		54.687500
7870		52.734375
7871		56.640625
7872		54.687500
7873		58.593750
7874		56.640625
7875		58.593750
7876		56.640625
7877		60.546875
7878		58.593750
7879		62.500000
7880		60.546875
7881		64.453125
7882		62.500000
7883		64.453125
7884		62.500000
7885		66.406250
7886		64.453125
7887		68.359375
7888		64.453125
7889		70.312500
7890		66.406250
7891		70.312500
7892		68.359375
7893		72.265625
7894		70.312500
7895		74.218750
7896		70.312500
7897		74.218750
7898		72.265625
7899		74.218750
7900		72.265625
7901		76.171875
7902		74.218750
7903		76.171875
7904		74.218750
7905		78.125000
7906		76.171875
7907		78.125000
7908		76.171875
7909		80.078125
7910		78.125000
7911		80.078125
7912		78.125000
7913		82.031250
7914		80.078125
7915		82.031250
7916		80.078125
7917		82.031250
7918		80.078125
7919		83.984375
7920		80.078125
7921		83.984375
7922		82.031250
7923		83.984375
7924		82.031250
7925		85.937500
7926		82.031250
7927		85.937500
7928		82.031250
7929		85.937500
7930		82.031250
7931		85.937500
7932		83.984375
7933		85.937500
7934		82.031250
7935		87.890625
7936		83.984375
7937		85.937500
7938		83.984375
7939		85.937500
7940		83.984375
7941		85.937500
7942		83.984375
7943		85.937500
7944		83.984375
7945		85.937500
7946		83.984375
7947		85.937500
7948		83.984375
7949		85.937500
7950		82.031250
7951		85.937500
7952		82.031250
7953		85.937500
7954		82.031250
7955		85.937500
7956		82.031250
7957		85.937500
7958		82.031250
7959		85.937500
7960		82.031250
7961		83.984375
7962		80.078125
7963		83.984375
7964		80.078125
7965		82.031250
7966		80.078125
7967		82.031250
7968		78.125000
7969		82.031250
7970		78.125000
7971		82.031250
7972		78.125000
7973		80.078125
7974		76.171875
7975		80.078125
7976		76.171875
7977		80.078125
7978		74.218750
7979		78.125000
7980		74.218750
7981		78.125000
7982		74.218750
7983		76.171875
7984		72.265625
7985		74.218750
7986		70.312500
7987		74.218750
7988		70.312500
7989		74.218750
7990		68.359375
7991		72.265625
7992		66.406250
7993		70.312500
7994		66.406250
7995		70.312500
7996		64.453125
7997		68.359375
7998		64.453125
7999		66.406250
8000		62.500000
8001		64.453125
8002		60.546875
8003		64.453125
8004		58.593750
8005		62.500000
8006		56.640625
8007		60.546875
8008		56.640625
8009		58.593750
8010		54.687500
8011		58.593750
8012		50.781250
8013		56.640625
8014		50.781250
8015		54.687500
8016		48.828125
8017		52.734375
8018		46.875000
8019		50.781250
8020		44.921875
8021		48.828125
8022		44.921875
8023		46.875000
8024		41.015625
8025		46.875000
8026		39.062500
8027		42.968750
8028		37.109375
8029		41.015625
8030		35.156250
8031		41.015625
8032		33.203125
8033		37.109375
8034		31.250000
8035		35.156250
8036		29.296875
8037		33.203125
8038		27.343750
8039		31.250000
8040		25.390625
8041		29.296875
8042		23.437500
8043		27.343750
8044		21.484375
8045		25.390625
8046		19.531250
8047		23.437500
8048		17.578125
8049		21.484375
8050		15.625000
8051		19.531250
8052		11.718750
8053		17.578125
8054		9.765625
8055		13.671875
8056		7.812500
8057		13.671875
8058		5.859375
8059		9.765625
8060		3.906250
8061		7.812500
8062		1.953125
8063		5.859375
8064		0.000000
8065		3.906250
8066		-1.953125
8067		1.953125
8068		-5.859375
8069		-1.953125
8070		-7.812500
8071		-3.906250
8072		-9.765625
8073		-5.859375
8074		-11.718750
8075		-7.812500
8076		-13.671875
8077		-9.765625
8078		-15.625000
8079		-11.718750
8080		-19.531250
8081		-13.671875
8082		-21.484375
8083		-17.578125
8084		-23.437500
8085		-19.531250
8086		-25.390625
8087		-19.531250
8088		-27.343750
8089		-23.437500
8090		-29.296875
8091		-25.390625
8092		-31.250000
8093		-27.343750
8094		-33.203125
8095		-29.296875
8096		-35.156250
8097		-31.250000
8098		-37.109375
8099		-33.203125
8100		-39.062500
8101		-35.156250
8102		-41.015625
8103		-37.109375
8104		-44.921875
8105		-39.062500
8106		-44.921875
8107		-41.015625
8108		-48.828125
8109		-42.968750
8110		-48.828125
8111		-44.921875
8112		-50.781250
8113		-46.875000
8114		-52.734375
8115		-48.828125
8116		-54.687500
8117		-50.781250
8118		-56.640625
8119		-52.734375
8120		-58.593750
8121		-52.734375
8122		-58.593750
8123		-56.640625
8124		-60.546875
8125		-58.593750
8126		-62.500000
8127		-58.593750
8128		-64.453125
8129		-60.546875
8130		-66.406250
8131		-60.546875
8132		-66.406250
8133		-64.453125
8134		-68.359375
8135		-64.453125
8136		-70.312500
8137		-66.406250
8138		-70.312500
8139		-68.359375
8140		-72.265625
8141		-68.359375
8142		-72.265625
8143		-70.312500
8144		-74.218750
8145		-70.312500
8146		-74.218750
8147		-70.312500
8148		-76.171875
8149		-72.265625
8150		-76.171875
8151		-74.218750
8152		-78.125000
8153		-74.218750
8154		-78.125000
8155		-74.218750
8156		-78.125000
8157		-76.171875
8158		-80.078125
8159		-76.171875
8160		-80.078125
8161		-78.125000
8162		-80.078125
8163		-78.125000
8164		-82.031250
8165		-78.125000
8166		-82.031250
8167		-78.125000
8168		-82.031250
8169		-80.078125
8170		-82.031250
8171		-78.125000
8172		-82.031250
8173		-78.125000
8174		-82.031250
8175		-80.078125
8176		-82.031250
8177		-80.078125
8178		-82.031250
8179		-80.078125
8180		-82.031250
8181		-80.078125
8182		-82.031250
8183		-78.125000
8184		-82.031250
8185		-80.078125
8186		-82.031250
8187		-78.125000
8188		-82.031250
8189		-78.125000
8190		-82.031250
8191		-78.125000
8192		-82.031250
8193		-78.125000
8194		-80.078125
8195		-76.171875
8196		-80.078125
8197		-76.171875
8198		-78.125000
8199		-74.218750
8200		-78.125000
8201		-76.171875
8202		-78.125000
8203		-74.218750
8204		-76.171875
8205		-74.218750
8206		-76.171875
8207		-72.265625
8208		-74.218750
8209		-72.265625
8210		-74.218750
8211		-70.312500
8212		-72.265625
8213		-70.312500
8214		-70.312500
8215		-68.359375
8216		-70.312500
8217		-66.406250
8218		-68.359375
8219		-66.406250
8220		-68.359375
8221		-64.453125
8222		-66.406250
8223		-62.500000
8224		-66.406250
8225		-62.500000
8226		-62.500000
8227		-60.546875
8228		-62.500000
8229		-58.593750
8230		-60.546875
8231		-56.640625
8232		-60.546875
8233		-56.640625
8234		-56.640625
8235		-54.687500
8236		-54.687500
8237		-50.781250
8238		-54.687500
8239		-50.781250
8240		-52.734375
8241		-48.828125
8242		-50.781250
8243		-46.875000
8244		-48.828125
8245		-44.921875
8246		-46.875000
8247		-42.968750
8248		-44.921875
8249		-41.015625
8250		-42.968750
8251		-39.062500
8252		-41.015625
8253		-37.109375
8254		-39.062500
8255		-35.156250
8256		-37.109375
8257		-33.203125
8258		-35.156250
8259		-31.250000
8260		-33.203125
8261		-29.296875
8262		-31.250000
8263		-27.343750
8264		-29.296875
8265		-23.437500
8266		-27.343750
8267		-23.437500
8268		-23.437500
8269		-21.484375
8270		-23.437500
8271		-17.578125
8272		-19.531250
8273		-15.625000
8274		-19.531250
8275		-13.671875
8276		-15.625000
8277		-11.718750
8278		-13.671875
8279		-9.765625
8280		-11.718750
8281		-7.812500
8282		-9.765625
8283		-3.906250
8284		-7.812500
8285		-3.906250
8286		-3.906250
8287		0.000000
8288		-1.953125
8289		1.953125
8290		0.000000
8291		3.906250
8292		1.953125
8293		5.859375
8294		3.906250
8295		7.812500
8296		5.859375
8297		9.765625
8298		7.812500
8299		13.671875
8300		11.718750
8301		15.625000
8302		13.671875
8303		17.578125
8304		15.625000
8305		19.531250
8306		17.578125
8307		21.484375
8308		19.531250
8309		23.437500
8310		21.484375
8311		25.390625
8312		23.437500
8313		27.343750
8314		25.390625
8315		29.296875
8316		27.343750
8317		31.250000
8318		29.296875
8319		33.203125
8320		31.250000
8321		35.156250
8322		33.203125
8323		37.109375
8324		35.156250
8325		41.015625
8326		37.109375
8327		41.015625
8328		39.062500
8329		42.968750
8330		41.015625
8331		44.921875
8332		42.968750
8333		46.875000
8334		44.921875
8335		48.828125
8336		46.875000
8337		50.781250
8338		46.875000
8339		52.734375
8340		50.781250
8341		52.734375
8342		52.734375
8343		54.687500
8344		54.687500
8345		58.593750
8346		54.687500
8347		58.593750
8348		56.640625
8349		60.546875
8350		58.593750
8351		62.500000
8352		60.546875
8353		62.500000
8354		60.546875
8355		64.453125
8356		62.500000
8357		66.406250
8358		64.453125
8359		66.406250
8360		64.453125
8361		68.359375
8362		66.406250
8363		70.312500
8364		68.359375
8365		70.312500
8366		68.359375
8367		72.265625
8368		70.312500
8369		72.265625
8370		70.312500
8371		74.218750
8372		72.265625
8373		76.171875
8374		72.265625
8375		76.171875
8376		74.218750
8377		78.125000
8378		74.218750
8379		78.125000
8380		76.171875
8381		80.078125
8382		76.171875
8383		80.078125
8384		78.125000
8385		80.078125
8386		78.125000
8387		80.078125
8388		78.125000
8389		82.031250
8390		80.078125
8391		82.031250
8392		80.078125
8393		83.984375
8394		80.078125
8395		83.984375
8396		80.078125
8397		83.984375
8398		82.031250
8399		83.984375
8400		80.078125
8401		85.937500
8402		82.031250
8403		83.984375
8404		82.031250
8405		85.937500
8406		80.078125
8407		85.937500
8408		80.078125
8409		87.890625
8410		82.031250
8411		85.937500
8412		82.031250
8413		85.937500
8414		82.031250
8415		85.937500
8416		82.031250
8417		85.937500
8418		82.031250
8419		85.937500
8420		82.031250
8421		83.984375
8422		80.078125
8423		85.937500
8424		80.078125
8425		85.937500
8426		82.031250
8427		85.937500
8428		82.031250
8429		83.984375
8430		80.078125
8431		85.937500
8432		80.078125
8433		83.984375
8434		80.078125
8435		82.031250
8436		80.078125
8437		82.031250
8438		76.171875
8439		83.984375
8440		76.171875
8441		82.031250
8442		74.218750
8443		82.031250
8444		74.218750
8445		80.078125
8446		74.218750
8447		80.078125
8448		74.218750
8449		78.125000
8450		72.265625
8451		76.171875
8452		72.265625
8453		76.171875
8454		72.265625
8455		74.218750
8456		68.359375
8457		76.171875
8458		68.359375
8459		74.218750
8460		66.406250
8461		74.218750
8462		66.406250
8463		72.265625
8464		66.406250
8465		70.312500
8466		64.453125
8467		68.359375
8468		64.453125
8469		66.406250
8470		62.500000
8471		64.453125
8472		58.593750
8473		64.453125
8474		58.593750
8475		64.453125
8476		56.640625
8477		62.500000
8478		54.687500
8479		60.546875
8480		52.734375
8481		60.546875
8482		50.781250
8483		56.640625
8484		50.781250
8485		56.640625
8486		48.828125
8487		52.734375
8488		46.875000
8489		50.781250
8490		44.921875
8491		50.781250
8492		42.968750
8493		50.781250
8494		39.062500
8495		46.875000
8496		39.062500
8497		44.921875
8498		37.109375
8499		42.968750
8500		35.156250
8501		41.015625
8502		35.156250
8503		39.062500
8504		33.203125
8505		37.109375
8506		29.296875
8507		35.156250
8508		27.343750
8509		35.156250
8510		23.437500
8511		31.250000
8512		23.437500
8513		29.296875
8514		19.531250
8515		27.343750
8516		17.578125
8517		25.390625
8518		17.578125
8519		23.437500
8520		15.625000
8521		19.531250
8522		11.718750
8523		17.578125
8524		9.765625
8525		15.625000
8526		5.859375
8527		13.671875
8528		5.859375
8529		11.718750
8530		3.906250
8531		9.765625
8532		0.000000
8533		7.812500
8534		0.000000
8535		5.859375
8536		-1.953125
8537		1.953125
8538		-3.906250
8539		0.000000
8540		-7.812500
8541		-1.953125
8542		-9.765625
8543		-3.906250
8544		-13.671875
8545		-5.859375
8546		-15.625000
8547		-7.812500
8548		-17.578125
8549		-9.765625
8550		-19.531250
8551		-13.671875
8552		-19.531250
8553		-15.625000
8554		-21.484375
8555		-17.578125
8556		-27.343750
8557		-19.531250
8558		-27.343750
8559		-21.484375
8560		-31.250000
8561		-21.484375
8562		-33.203125
8563		-25.390625
8564		-35.156250
8565		-27.343750
8566		-37.109375
8567		-29.296875
8568		-37.109375
8569		-33.203125
8570		-39.062500
8571		-35.156250
8572		-42.968750
8573		-37.109375
8574		-44.921875
8575		-37.109375
8576		-46.875000
8577		-39.062500
8578		-48.828125
8579		-41.015625
8580		-50.781250
8581		-44.921875
8582		-52.734375
8583		-44.921875
8584		-54.687500
8585		-46.875000
8586		-54.687500
8587		-50.781250
8588		-56.640625
8589		-52.734375
8590		-58.593750
8591		-52.734375
8592		-62.500000
8593		-54.687500
8594		-62.500000
8595		-56.640625
8596		-64.453125
8597		-56.640625
8598		-66.406250
8599		-58.593750
8600		-68.359375
8601		-60.546875
8602		-66.406250
8603		-62.500000
8604		-68.359375
8605		-66.406250
8606		-72.265625
8607		-66.406250
8608		-72.265625
8609		-66.406250
8610		-74.218750
8611		-66.406250
8612		-76.171875
8613		-68.359375
8614		-76.171875
8615		-70.312500
8616		-78.125000
8617		-70.312500
8618		-78.125000
8619		-72.265625
8620		-78.125000
8621		-74.218750
8622		-78.125000
8623		-76.171875
8624		-80.078125
8625		-74.218750
8626		-82.031250
8627		-74.218750
8628		-82.031250
8629		-76.171875
8630		-83.984375
8631		-76.171875
8632		-83.984375
8633		-76.171875
8634		-83.984375
8635		-78.125000
8636		-82.031250
8637		-78.125000
8638		-82.031250
8639		-80.078125
8640		-83.984375
8641		-78.125000
8642		-85.937500
8643		-78.125000
8644		-85.937500
8645		-80.078125
8646		-85.937500
8647		-80.078125
8648		-85.937500
8649		-80.078125
8650		-85.937500
8651		-80.078125
8652		-85.937500
8653		-78.125000
8654		-83.984375
8655		-82.031250
8656		-83.984375
8657		-80.078125
8658		-85.937500
8659		-78.125000
8660		-83.984375
8661		-78.125000
8662		-83.984375
8663		-78.125000
8664		-83.984375
8665		-78.125000
8666		-83.984375
8667		-76.171875
8668		-82.031250
8669		-76.171875
8670		-80.078125
8671		-78.125000
8672		-80.078125
8673		-76.171875
8674		-80.078125
8675		-74.218750
8676		-80.078125
8677		-72.265625
8678		-78.125000
8679		-72.265625
8680		-78.125000
8681		-70.312500
8682		-76.171875
8683		-70.312500
8684		-76.171875
8685		-68.359375
8686		-74.218750
8687		-70.312500
8688		-72.265625
8689		-68.359375
8690		-70.312500
8691		-64.453125
8692		-70.312500
8693		-62.500000
8694		-70.312500
8695		-62.500000
8696		-68.359375
8697		-60.546875
8698		-66.406250
8699		-60.546875
8700		-64.453125
8701		-58.593750
8702		-64.453125
8703		-56.640625
8704		-60.546875
8705		-56.640625
8706		-58.593750
8707		-54.687500
8708		-58.593750
8709		-50.781250
8710		-56.640625
8711		-50.781250
8712		-56.640625
8713		-48.828125
8714		-52.734375
8715		-44.921875
8716		-52.734375
8717		-42.968750
8718		-50.781250
8719		-42.968750
8720		-46.875000
8721		-42.968750
8722		-42.968750
8723		-41.015625
8724		-42.968750
8725		-35.156250
8726		-41.015625
8727		-35.156250
8728		-41.015625
8729		-33.203125
8730		-37.109375
8731		-29.296875
8732		-35.156250
8733		-29.296875
8734		-33.203125
8735		-25.390625
8736		-31.250000
8737		-25.390625
8738		-27.343750
8739		-23.437500
8740		-25.390625
8741		-21.484375
8742		-25.390625
8743		-17.578125
8744		-23.437500
8745		-15.625000
8746		-19.531250
8747		-13.671875
8748		-19.531250
8749		-11.718750
8750		-15.625000
8751		-7.812500
8752		-13.671875
8753		-5.859375
8754		-9.765625
8755		-5.859375
8756		-7.812500
8757		-3.906250
8758		-5.859375
8759		0.000000
8760		-3.906250
8761		3.906250
8762		-1.953125
8763		3.906250
8764		-1.953125
8765		5.859375
8766		1.953125
8767		9.765625
8768		3.906250
8769		11.718750
8770		5.859375
8771		11.718750
8772		9.765625
8773		13.671875
8774		11.718750
8775		17.578125
8776		13.671875
8777		19.531250
8778		15.625000
8779		23.437500
8780		17.578125
8781		23.437500
8782		17.578125
8783		27.343750
8784		21.484375
8785		29.296875
8786		23.437500
8787		29.296875
8788		27.343750
8789		31.250000
8790		29.296875
8791		33.203125
8792		29.296875
8793		37.109375
8794		31.250000
8795		39.062500
8796		33.203125
8797		41.015625
8798		35.156250
8799		42.968750
8800		37.109375
8801		44.921875
8802		37.109375
8803		46.875000
8804		41.015625
8805		46.875000
8806		44.921875
8807		48.828125
8808		44.921875
8809		50.781250
8810		44.921875
8811		52.734375
8812		46.875000
8813		54.687500
8814		50.781250
8815		56.640625
8816		50.781250
8817		56.640625
8818		52.734375
8819		58.593750
8820		54.687500
8821		60.546875
8822		58.593750
8823		60.546875
8824		58.593750
8825		62.500000
8826		58.593750
8827		66.406250
8828		58.593750
8829		66.406250
8830		62.500000
8831		68.359375
8832		62.500000
8833		70.312500
8834		64.453125
8835		70.312500
8836		64.453125
8837		72.265625
8838		68.359375
8839		70.312500
8840		70.312500
8841		72.265625
8842		68.359375
8843		74.218750
8844		68.359375
8845		76.171875
8846		70.312500
8847		76.171875
8848		70.312500
8849		78.125000
8850		72.265625
8851		78.125000
8852		72.265625
8853		80.078125
8854		74.218750
8855		80.078125
8856		76.171875
8857		80.078125
8858		76.171875
8859		82.031250
8860		76.171875
8861		82.031250
8862		76.171875
8863		83.984375
8864		76.171875
8865		83.984375
8866		78.125000
8867		83.984375
8868		78.125000
8869		83.984375
8870		78.125000
8871		85.937500
8872		82.031250
8873		83.984375
8874		82.031250
8875		83.984375
8876		80.078125
8877		85.937500
8878		80.078125
8879		85.937500
8880		80.078125
8881		85.937500
8882		80.078125
8883		85.937500
8884		80.078125
8885		85.937500
8886		80.078125
8887		85.937500
8888		82.031250
8889		85.937500
8890		82.031250
8891		83.984375
8892		80.078125
8893		85.937500
8894		80.078125
8895		85.937500
8896		78.125000
8897		85.937500
8898		78.125000
8899		85.937500
8900		78.125000
8901		83.984375
8902		76.171875
8903		83.984375
8904		78.125000
8905		83.984375
8906		78.125000
8907		82.031250
8908		78.125000
8909		82.031250
8910		74.218750
8911		82.031250
8912		74.218750
8913		82.031250
8914		74.218750
8915		80.078125
8916		74.218750
8917		80.078125
8918		72.265625
8919		80.078125
8920		72.265625
8921		78.125000
8922		72.265625
8923		76.171875
8924		72.265625
8925		74.218750
8926		68.359375
8927		74.218750
8928		68.359375
8929		74.218750
8930		66.406250
8931		74.218750
8932		64.453125
8933		72.265625
8934		64.453125
8935		70.312500
8936		62.500000
8937		70.312500
8938		62.500000
8939		68.359375
8940		62.500000
8941		64.453125
8942		58.593750
8943		64.453125
8944		58.593750
8945		64.453125
8946		56.640625
8947		62.500000
8948		52.734375
8949		62.500000
8950		52.734375
8951		60.546875
8952		50.781250
8953		58.593750
8954		48.828125
8955		56.640625
8956		50.781250
8957		52.734375
8958		48.828125
8959		50.781250
8960		44.921875
8961		50.781250
8962		42.968750
8963		50.781250
8964		41.015625
8965		48.828125
8966		39.062500
8967		46.875000
8968		37.109375
8969		44.921875
8970		35.156250
8971		42.968750
8972		35.156250
8973		39.062500
8974		33.203125
8975		37.109375
8976		29.296875
8977		35.156250
8978		27.343750
8979		35.156250
8980		25.390625
8981		33.203125
8982		23.437500
8983		31.250000
8984		21.484375
8985		29.296875
8986		17.578125
8987		25.390625
8988		17.578125
8989		23.437500
8990		15.625000
8991		19.531250
8992		13.671875
8993		17.578125
8994		9.765625
8995		17.578125
8996		7.812500
8997		15.625000
8998		5.859375
8999		11.718750
9000		3.906250
9001		9.765625
9002		0.000000
9003		7.812500
9004		0.000000
9005		5.859375
9006		-1.953125
9007		1.953125
9008		-3.906250
9009		0.000000
9010		-7.812500
9011		-1.953125
9012		-11.718750
9013		-1.953125
9014		-11.718750
9015		-3.906250
9016		-15.625000
9017		-7.812500
9018		-15.625000
9019		-9.765625
9020		-19.531250
9021		-11.718750
9022		-19.531250
9023		-13.671875
9024		-21.484375
9025		-17.578125
9026		-25.390625
9027		-19.531250
9028		-29.296875
9029		-21.484375
9030		-31.250000
9031		-21.484375
9032		-33.203125
9033		-25.390625
9034		-35.156250
9035		-27.343750
9036		-37.109375
9037		-29.296875
9038		-37.109375
9039		-31.250000
9040		-39.062500
9041		-35.156250
9042		-41.015625
9043		-37.109375
9044		-42.968750
9045		-37.109375
9046		-46.875000
9047		-41.015625
9048		-48.828125
9049		-42.968750
9050		-50.781250
9051		-44.921875
9052		-50.781250
9053		-44.921875
9054		-52.734375
9055		-46.875000
9056		-54.687500
9057		-50.781250
9058		-56.640625
9059		-52.734375
9060		-58.593750
9061		-52.734375
9062		-60.546875
9063		-54.687500
9064		-62.500000
9065		-56.640625
9066		-64.453125
9067		-56.640625
9068		-66.406250
9069		-58.593750
9070		-68.359375
9071		-60.546875
9072		-68.359375
9073		-62.500000
9074		-68.359375
9075		-64.453125
9076		-70.312500
9077		-66.406250
9078		-74.218750
9079		-66.406250
9080		-74.218750
9081		-68.359375
9082		-76.171875
9083		-68.359375
9084		-76.171875
9085		-70.312500
9086		-78.125000
9087		-70.312500
9088		-78.125000
9089		-70.312500
9090		-78.125000
9091		-74.218750
9092		-78.125000
9093		-76.171875
9094		-82.031250
9095		-76.171875
9096		-82.031250
9097		-76.171875
9098		-83.984375
9099		-76.171875
9100		-83.984375
9101		-78.125000
9102		-83.984375
9103		-78.125000
9104		-83.984375
9105		-78.125000
9106		-83.984375
9107		-78.125000
9108		-83.984375
9109		-80.078125
9110		-83.984375
9111		-80.078125
9112		-85.937500
9113		-80.078125
9114		-87.890625
9115		-80.078125
9116		-87.890625
9117		-80.078125
9118		-87.890625
9119		-80.078125
9120		-87.890625
9121		-80.078125
9122		-87.890625
9123		-80.078125
9124		-83.984375
9125		-82.031250
9126		-83.984375
9127		-82.031250
9128		-85.937500
9129		-80.078125
9130		-85.937500
9131		-78.125000
9132		-85.937500
9133		-80.078125
9134		-85.937500
9135		-78.125000
9136		-85.937500
9137		-78.125000
9138		-83.984375
9139		-78.125000
9140		-83.984375
9141		-78.125000
9142		-80.078125
9143		-78.125000
9144		-82.031250
9145		-76.171875
9146		-82.031250
9147		-74.218750
9148		-80.078125
9149		-74.218750
9150		-80.078125
9151		-74.218750
9152		-80.078125
9153		-72.265625
9154		-78.125000
9155		-70.312500
9156		-76.171875
9157		-70.312500
9158		-74.218750
9159		-70.312500
9160		-72.265625
9161		-70.312500
9162		-74.218750
9163		-66.406250
9164		-72.265625
9165		-64.453125
9166		-70.312500
9167		-64.453125
9168		-70.312500
9169		-62.500000
9170		-68.359375
9171		-60.546875
9172		-66.406250
9173		-58.593750
9174		-64.453125
9175		-58.593750
9176		-60.546875
9177		-58.593750
9178		-60.546875
9179		-54.687500
9180		-60.546875
9181		-52.734375
9182		-58.593750
9183		-50.781250
9184		-56.640625
9185		-48.828125
9186		-54.687500
9187		-46.875000
9188		-52.734375
9189		-44.921875
9190		-50.781250
9191		-44.921875
9192		-46.875000
9193		-42.968750
9194		-44.921875
9195		-39.062500
9196		-44.921875
9197		-37.109375
9198		-42.968750
9199		-35.156250
9200		-41.015625
9201		-31.250000
9202		-39.062500
9203		-31.250000
9204		-37.109375
9205		-29.296875
9206		-35.156250
9207		-27.343750
9208		-29.296875
9209		-27.343750
9210		-27.343750
9211		-23.437500
9212		-27.343750
9213		-19.531250
9214		-25.390625
9215		-17.578125
9216		-23.437500
9217		-15.625000
9218		-21.484375
9219		-13.671875
9220		-19.531250
9221		-11.718750
9222		-17.578125
9223		-9.765625
9224		-13.671875
9225		-9.765625
9226		-9.765625
9227		-5.859375
9228		-7.812500
9229		-3.906250
9230		-7.812500
9231		0.000000
9232		-5.859375
9233		1.953125
9234		-3.906250
9235		3.906250
9236		-1.953125
9237		5.859375
9238		1.953125
9239		7.812500
9240		3.906250
9241		9.765625
9242		7.812500
9243		11.718750
9244		9.765625
9245		13.671875
9246		9.765625
9247		17.578125
9248		11.718750
9249		19.531250
9250		13.671875
9251		21.484375
9252		15.625000
9253		23.437500
9254		17.578125
9255		25.390625
9256		21.484375
9257		27.343750
9258		23.437500
9259		29.296875
9260		27.343750
9261		29.296875
9262		27.343750
9263		35.156250
9264		29.296875
9265		35.156250
9266		31.250000
9267		37.109375
9268		33.203125
9269		41.015625
9270		35.156250
9271		42.968750
9272		37.109375
9273		42.968750
9274		39.062500
9275		44.921875
9276		41.015625
9277		44.921875
9278		42.968750
9279		48.828125
9280		42.968750
9281		50.781250
9282		44.921875
9283		52.734375
9284		46.875000
9285		54.687500
9286		48.828125
9287		56.640625
9288		50.781250
9289		56.640625
9290		50.781250
9291		58.593750
9292		54.687500
9293		58.593750
9294		56.640625
9295		60.546875
9296		56.640625
9297		64.453125
9298		58.593750
9299		64.453125
9300		60.546875
9301		66.406250
9302		60.546875
9303		66.406250
9304		62.500000
9305		68.359375
9306		62.500000
9307		70.312500
9308		64.453125
9309		70.312500
9310		68.359375
9311		70.312500
9312		66.406250
9313		72.265625
9314		68.359375
9315		74.218750
9316		68.359375
9317		76.171875
9318		70.312500
9319		76.171875
9320		70.312500
9321		76.171875
9322		72.265625
9323		78.125000
9324		72.265625
9325		78.125000
9326		76.171875
9327		78.125000
9328		76.171875
9329		78.125000
9330		74.218750
9331		82.031250
9332		74.218750
9333		82.031250
9334		76.171875
9335		82.031250
9336		76.171875
9337		83.984375
9338		76.171875
9339		83.984375
9340		78.125000
9341		83.984375
9342		78.125000
9343		82.031250
9344		80.078125
9345		82.031250
9346		78.125000
9347		83.984375
9348		78.125000
9349		85.937500
9350		78.125000
9351		85.937500
9352		78.125000
9353		85.937500
9354		78.125000
9355		85.937500
9356		78.125000
9357		85.937500
9358		78.125000
9359		83.984375
9360		80.078125
9361		82.031250
9362		78.125000
9363		83.984375
9364		78.125000
9365		83.984375
9366		78.125000
9367		83.984375
9368		78.125000
9369		83.984375
9370		78.125000
9371		83.984375
9372		76.171875
9373		83.984375
9374		76.171875
9375		83.984375
9376		78.125000
9377		80.078125
9378		78.125000
9379		80.078125
9380		76.171875
9381		82.031250
9382		74.218750
9383		82.031250
9384		74.218750
9385		80.078125
9386		72.265625
9387		80.078125
9388		72.265625
9389		78.125000
9390		70.312500
9391		78.125000
9392		72.265625
9393		76.171875
9394		72.265625
9395		74.218750
9396		68.359375
9397		76.171875
9398		66.406250
9399		74.218750
9400		66.406250
9401		72.265625
9402		64.453125
9403		72.265625
9404		64.453125
9405		70.312500
9406		62.500000
9407		68.359375
9408		62.500000
9409		68.359375
9410		62.500000
9411		66.406250
9412		58.593750
9413		64.453125
9414		58.593750
9415		64.453125
9416		56.640625
9417		62.500000
9418		54.687500
9419		62.500000
9420		52.734375
9421		60.546875
9422		50.781250
9423		58.593750
9424		50.781250
9425		56.640625
9426		48.828125
9427		54.687500
9428		48.828125
9429		52.734375
9430		44.921875
9431		50.781250
9432		42.968750
9433		50.781250
9434		41.015625
9435		48.828125
9436		39.062500
9437		46.875000
9438		37.109375
9439		44.921875
9440		35.156250
9441		42.968750
9442		33.203125
9443		41.015625
9444		33.203125
9445		37.109375
9446		29.296875
9447		35.156250
9448		27.343750
9449		35.156250
9450		25.390625
9451		33.203125
9452		23.437500
9453		31.250000
9454		21.484375
9455		29.296875
9456		17.578125
9457		27.343750
9458		15.625000
9459		25.390625
9460		17.578125
9461		21.484375
9462		13.671875
9463		17.578125
9464		9.765625
9465		17.578125
9466		7.812500
9467		15.625000
9468		5.859375
9469		13.671875
9470		3.906250
9471		11.718750
9472		1.953125
9473		9.765625
9474		-1.953125
9475		5.859375
9476		-1.953125
9477		3.906250
9478		-3.906250
9479		0.000000
9480		-7.812500
9481		-1.953125
9482		-9.765625
9483		-1.953125
9484		-11.718750
9485		-3.906250
9486		-15.625000
9487		-5.859375
9488		-15.625000
9489		-7.812500
9490		-19.531250
9491		-11.718750
9492		-21.484375
9493		-13.671875
9494		-21.484375
9495		-17.578125
9496		-23.437500
9497		-19.531250
9498		-27.343750
9499		-19.531250
9500		-29.296875
9501		-21.484375
9502		-31.250000
9503		-23.437500
9504		-33.203125
9505		-27.343750
9506		-37.109375
9507		-29.296875
9508		-37.109375
9509		-31.250000
9510		-39.062500
9511		-33.203125
9512		-41.015625
9513		-37.109375
9514		-44.921875
9515		-39.062500
9516		-46.875000
9517		-39.062500
9518		-48.828125
9519		-41.015625
9520		-50.781250
9521		-42.968750
9522		-52.734375
9523		-44.921875
9524		-54.687500
9525		-46.875000
9526		-56.640625
9527		-48.828125
9528		-56.640625
9529		-52.734375
9530		-58.593750
9531		-54.687500
9532		-60.546875
9533		-54.687500
9534		-62.500000
9535		-56.640625
9536		-64.453125
9537		-56.640625
9538		-66.406250
9539		-58.593750
9540		-68.359375
9541		-60.546875
9542		-70.312500
9543		-62.500000
9544		-68.359375
9545		-64.453125
9546		-70.312500
9547		-66.406250
9548		-74.218750
9549		-66.406250
9550		-74.218750
9551		-68.359375
9552		-76.171875
9553		-68.359375
9554		-78.125000
9555		-70.312500
9556		-78.125000
9557		-70.312500
9558		-80.078125
9559		-72.265625
9560		-80.078125
9561		-72.265625
9562		-78.125000
9563		-76.171875
9564		-82.031250
9565		-76.171875
9566		-83.984375
9567		-76.171875
9568		-83.984375
9569		-76.171875
9570		-83.984375
9571		-78.125000
9572		-83.984375
9573		-78.125000
9574		-85.937500
9575		-78.125000
9576		-85.937500
9577		-80.078125
9578		-83.984375
9579		-82.031250
9580		-85.937500
9581		-82.031250
9582		-87.890625
9583		-80.078125
9584		-87.890625
9585		-80.078125
9586		-87.890625
9587		-82.031250
9588		-87.890625
9589		-82.031250
9590		-87.890625
9591		-82.031250
9592		-87.890625
9593		-82.031250
9594		-87.890625
9595		-82.031250
9596		-85.937500
9597		-83.984375
9598		-85.937500
9599		-82.031250
9600		-87.890625
9601		-82.031250
9602		-87.890625
9603		-80.078125
9604		-85.937500
9605		-80.078125
9606		-85.937500
9607		-80.078125
9608		-85.937500
9609		-78.125000
9610		-85.937500
9611		-78.125000
9612		-82.031250
9613		-80.078125
9614		-82.031250
9615		-78.125000
9616		-83.984375
9617		-76.171875
9618		-82.031250
9619		-76.171875
9620		-82.031250
9621		-74.218750
9622		-80.078125
9623		-74.218750
9624		-80.078125
9625		-72.265625
9626		-78.125000
9627		-72.265625
9628		-76.171875
9629		-72.265625
9630		-74.218750
9631		-72.265625
9632		-74.218750
9633		-68.359375
9634		-74.218750
9635		-66.406250
9636		-72.265625
9637		-66.406250
9638		-72.265625
9639		-64.453125
9640		-70.312500
9641		-62.500000
9642		-68.359375
9643		-60.546875
9644		-66.406250
9645		-60.546875
9646		-62.500000
9647		-60.546875
9648		-62.500000
9649		-56.640625
9650		-62.500000
9651		-54.687500
9652		-60.546875
9653		-52.734375
9654		-58.593750
9655		-50.781250
9656		-56.640625
9657		-48.828125
9658		-54.687500
9659		-48.828125
9660		-52.734375
9661		-44.921875
9662		-48.828125
9663		-44.921875
9664		-46.875000
9665		-42.968750
9666		-46.875000
9667		-41.015625
9668		-44.921875
9669		-37.109375
9670		-42.968750
9671		-37.109375
9672		-41.015625
9673		-33.203125
9674		-39.062500
9675		-31.250000
9676		-37.109375
9677		-29.296875
9678		-35.156250
9679		-29.296875
9680		-31.250000
9681		-27.343750
9682		-29.296875
9683		-23.437500
9684		-29.296875
9685		-19.531250
9686		-25.390625
9687		-17.578125
9688		-23.437500
9689		-15.625000
9690		-21.484375
9691		-13.671875
9692		-21.484375
9693		-11.718750
9694		-17.578125
9695		-9.765625
9696		-13.671875
9697		-9.765625
9698		-9.765625
9699		-5.859375
9700		-11.718750
9701		-3.906250
9702		-7.812500
9703		0.000000
9704		-5.859375
9705		1.953125
9706		-3.906250
9707		3.906250
9708		0.000000
9709		5.859375
9710		0.000000
9711		7.812500
9712		3.906250
9713		7.812500
9714		7.812500
9715		9.765625
9716		7.812500
9717		13.671875
9718		9.765625
9719		17.578125
9720		11.718750
9721		19.531250
9722		13.671875
9723		21.484375
9724		15.625000
9725		23.437500
9726		19.531250
9727		25.390625
9728		19.531250
9729		25.390625
9730		23.437500
9731		27.343750
9732		25.390625
9733		31.250000
9734		27.343750
9735		33.203125
9736		27.343750
9737		35.156250
9738		29.296875
9739		37.109375
9740		31.250000
9741		39.062500
9742		33.203125
9743		41.015625
9744		37.109375
9745		42.968750
9746		39.062500
9747		42.968750
9748		41.015625
9749		44.921875
9750		41.015625
9751		48.828125
9752		42.968750
9753		50.781250
9754		44.921875
9755		52.734375
9756		46.875000
9757		52.734375
9758		48.828125
9759		56.640625
9760		48.828125
9761		56.640625
9762		52.734375
9763		56.640625
9764		54.687500
9765		58.593750
9766		54.687500
9767		60.546875
9768		56.640625
9769		64.453125
9770		58.593750
9771		64.453125
9772		58.593750
9773		66.406250
9774		60.546875
9775		66.406250
9776		60.546875
9777		68.359375
9778		62.500000
9779		68.359375
9780		66.406250
9781		68.359375
9782		66.406250
9783		70.312500
9784		64.453125
9785		72.265625
9786		66.406250
9787		74.218750
9788		68.359375
9789		74.218750
9790		68.359375
9791		76.171875
9792		70.312500
9793		76.171875
9794		70.312500
9795		78.125000
9796		72.265625
9797		78.125000
9798		74.218750
9799		76.171875
9800		74.218750
9801		80.078125
9802		74.218750
9803		80.078125
9804		74.218750
9805		80.078125
9806		76.171875
9807		82.031250
9808		76.171875
9809		82.031250
9810		76.171875
9811		82.031250
9812		76.171875
9813		82.031250
9814		78.125000
9815		82.031250
9816		78.125000
9817		83.984375
9818		78.125000
9819		83.984375
9820		76.171875
9821		83.984375
9822		76.171875
9823		83.984375
9824		76.171875
9825		83.984375
9826		76.171875
9827		83.984375
9828		78.125000
9829		83.984375
9830		78.125000
9831		82.031250
9832		80.078125
9833		82.031250
9834		78.125000
9835		83.984375
9836		78.125000
9837		83.984375
9838		76.171875
9839		83.984375
9840		76.171875
9841		83.984375
9842		76.171875
9843		82.031250
9844		76.171875
9845		82.031250
9846		76.171875
9847		82.031250
9848		76.171875
9849		80.078125
9850		74.218750
9851		80.078125
9852		74.218750
9853		80.078125
9854		74.218750
9855		80.078125
9856		72.265625
9857		78.125000
9858		70.312500
9859		78.125000
9860		70.312500
9861		78.125000
9862		70.312500
9863		76.171875
9864		70.312500
9865		74.218750
9866		70.312500
9867		72.265625
9868		66.406250
9869		74.218750
9870		66.406250
9871		72.265625
9872		64.453125
9873		72.265625
9874		64.453125
9875		70.312500
9876		62.500000
9877		70.312500
9878		60.546875
9879		68.359375
9880		60.546875
9881		68.359375
9882		60.546875
9883		64.453125
9884		56.640625
9885		62.500000
9886		56.640625
9887		62.500000
9888		54.687500
9889		60.546875
9890		52.734375
9891		58.593750
9892		50.781250
9893		58.593750
9894		50.781250
9895		56.640625
9896		48.828125
9897		54.687500
9898		48.828125
9899		50.781250
9900		44.921875
9901		50.781250
9902		42.968750
9903		50.781250
9904		41.015625
9905		48.828125
9906		39.062500
9907		46.875000
9908		37.109375
9909		44.921875
9910		35.156250
9911		42.968750
9912		33.203125
9913		41.015625
9914		33.203125
9915		37.109375
9916		31.250000
9917		35.156250
9918		27.343750
9919		33.203125
9920		25.390625
9921		33.203125
9922		23.437500
9923		31.250000
9924		21.484375
9925		29.296875
9926		19.531250
9927		27.343750
9928		17.578125
9929		25.390625
9930		15.625000
9931		23.437500
9932		13.671875
9933		17.578125
9934		11.718750
9935		15.625000
9936		9.765625
9937		15.625000
9938		5.859375
9939		13.671875
9940		3.906250
9941		11.718750
9942		1.953125
9943		9.765625
9944		0.000000
9945		7.812500
9946		-1.953125
9947		3.906250
9948		-3.906250
9949		0.000000
9950		-5.859375
9951		-1.953125
9952		-9.765625
9953		-1.953125
9954		-11.718750
9955		-3.906250
9956		-13.671875
9957		-5.859375
9958		-15.625000
9959		-9.765625
9960		-19.531250
9961		-9.765625
9962		-21.484375
9963		-11.718750
9964		-21.484375
9965		-15.625000
9966		-23.437500
9967		-19.531250
9968		-27.343750
9969		-21.484375
9970		-29.296875
9971		-21.484375
9972		-31.250000
9973		-23.437500
9974		-33.203125
9975		-27.343750
9976		-35.156250
9977		-29.296875
9978		-39.062500
9979		-31.250000
9980		-39.062500
9981		-33.203125
9982		-41.015625
9983		-37.109375
9984		-44.921875
9985		-39.062500
9986		-46.875000
9987		-39.062500
9988		-48.828125
9989		-41.015625
9990		-50.781250
9991		-42.968750
9992		-50.781250
9993		-44.921875
9994		-54.687500
9995		-46.875000
9996		-56.640625
9997		-48.828125
9998		-56.640625
9999		-52.734375
10000		-56.640625
